Timestamp, AccX, AccY, AccZ, GyroX, GyroY, GyroZ
0.0110,0.05,0.12,-0.99,2.99,3.11,1.77
0.0260,0.05,0.12,-0.99,3.54,2.32,1.53
0.0420,0.05,0.12,-0.99,3.23,2.50,1.65
0.0500,0.05,0.12,-0.99,3.36,2.14,1.65
0.0670,0.05,0.12,-0.99,3.23,2.32,1.71
0.0840,0.05,0.12,-0.99,3.42,2.32,1.71
0.1000,0.05,0.12,-0.99,3.36,2.56,1.71
0.1170,0.05,0.12,-0.99,3.30,2.44,1.77
0.1320,0.05,0.12,-0.99,3.30,1.95,1.71
0.1330,0.05,0.12,-0.99,3.42,2.38,1.77
0.1620,0.05,0.12,-0.99,3.48,2.20,1.77
0.1780,0.05,0.12,-0.99,3.42,2.50,1.83
0.1930,0.05,0.12,-0.99,3.30,2.50,1.89
0.2010,0.05,0.12,-0.99,3.48,2.14,1.53
0.2170,0.05,0.12,-0.99,3.48,1.95,1.53
0.2330,0.05,0.12,-1.00,3.23,2.01,1.46
0.2500,0.05,0.12,-0.99,3.11,2.32,1.83
0.2660,0.05,0.13,-0.99,3.30,1.95,3.54
0.2850,0.05,0.13,-0.99,2.99,1.53,4.58
0.3000,0.05,0.11,-1.00,3.30,2.01,3.72
0.3160,0.04,0.11,-1.00,3.48,1.95,2.38
0.3310,0.05,0.13,-0.99,3.30,2.26,2.32
0.3460,0.05,0.13,-0.99,3.23,2.14,2.62
0.3610,0.05,0.13,-1.00,2.99,1.71,3.11
0.3690,0.05,0.13,-0.99,2.99,1.53,4.70
0.3850,0.05,0.13,-0.99,3.05,1.89,4.70
0.4050,0.05,0.13,-0.99,3.05,1.95,4.21
0.4210,0.04,0.14,-0.99,2.87,2.20,5.31
0.4370,0.05,0.12,-1.00,2.62,1.89,6.23
0.4520,0.05,0.11,-0.99,2.87,2.32,3.97
0.4670,0.05,0.12,-0.99,2.87,2.69,2.50
0.4720,0.05,0.12,-0.99,2.93,2.56,2.08
0.4880,0.05,0.12,-0.99,3.11,2.56,1.71
0.5140,0.05,0.12,-0.99,3.48,2.44,1.59
0.5240,0.06,0.10,-1.00,3.30,2.75,-0.49
0.5420,0.04,0.13,-0.99,3.78,3.42,-3.78
0.5570,0.04,0.13,-1.00,3.97,2.69,-2.99
0.5740,0.05,0.12,-0.99,2.87,3.05,-1.10
0.5900,0.04,0.13,-0.99,3.17,2.56,-1.10
0.6060,0.05,0.12,-0.99,3.30,2.38,0.55
0.6210,0.05,0.12,-0.99,3.42,2.08,0.98
0.6240,0.05,0.12,-0.99,3.54,2.08,-0.31
0.6540,0.05,0.12,-0.99,3.42,2.56,0.18
0.6680,0.05,0.12,-0.99,3.54,2.56,0.73
0.6840,0.05,0.12,-0.99,3.54,2.56,1.34
0.6930,0.05,0.12,-1.00,3.60,2.69,1.04
0.7100,0.05,0.11,-0.99,3.66,2.99,-0.12
0.7260,0.05,0.12,-0.99,3.78,2.93,-1.16
0.7440,0.04,0.13,-0.99,3.54,2.50,0.55
0.7600,0.04,0.12,-1.00,3.30,2.56,1.71
0.7750,0.05,0.12,-1.00,3.36,2.32,1.65
0.7770,0.05,0.12,-0.99,3.36,2.32,1.65
0.7930,0.05,0.11,-0.99,3.36,2.38,1.53
0.8170,0.04,0.12,-1.00,3.30,2.81,1.59
0.8270,0.05,0.11,-1.00,3.30,2.56,1.40
0.8440,0.05,0.11,-1.00,3.23,2.50,0.67
0.8600,0.05,0.12,-0.99,3.48,2.44,0.73
0.8790,0.05,0.12,-0.99,3.54,2.44,0.98
0.8950,0.04,0.12,-0.99,3.48,2.56,1.04
0.9120,0.04,0.11,-1.00,3.36,2.93,0.73
0.9300,0.05,0.12,-0.99,3.23,2.62,-0.43
0.9450,0.05,0.12,-0.99,3.30,2.69,0.06
0.9620,0.05,0.13,-0.99,3.11,2.44,-0.12
0.9630,0.05,0.13,-1.00,3.30,2.44,1.16
0.9940,0.05,0.12,-0.99,3.11,2.50,1.53
1.0100,0.05,0.13,-0.99,3.23,2.26,1.10
1.0260,0.05,0.13,-0.99,3.42,2.62,1.46
1.0290,0.05,0.13,-0.99,3.36,2.50,1.71
1.0440,0.04,0.13,-0.99,3.23,2.26,1.83
1.0670,0.05,0.13,-0.99,3.17,2.75,2.01
1.0820,0.05,0.13,-0.99,3.42,2.26,2.32
1.1000,0.05,0.12,-0.99,3.17,2.44,2.69
1.1160,0.05,0.12,-0.99,3.30,2.32,2.32
1.1180,0.05,0.12,-0.99,3.36,2.38,2.01
1.1480,0.05,0.12,-0.99,3.36,2.14,1.89
1.1500,0.05,0.12,-0.99,3.48,1.95,1.71
1.1670,0.04,0.12,-1.00,3.23,2.08,1.65
1.1960,0.05,0.12,-1.00,3.11,1.95,1.46
1.2110,0.05,0.12,-0.99,3.23,2.32,1.71
1.2180,0.05,0.12,-0.99,3.23,2.20,1.65
1.2320,0.05,0.13,-0.99,3.48,2.26,1.59
1.2530,0.04,0.17,-0.99,3.66,2.14,3.36
1.2700,0.04,0.13,-0.99,3.17,1.77,5.13
1.2870,0.05,0.12,-0.99,2.93,1.77,6.29
1.3040,0.04,0.13,-0.99,2.69,1.28,7.26
1.3190,0.05,0.14,-0.99,2.14,1.16,10.86
1.3340,0.05,0.13,-0.99,2.50,0.67,11.66
1.3380,0.05,0.11,-0.99,2.56,0.49,11.17
1.3530,0.05,0.09,-1.00,2.87,0.92,9.22
1.3750,0.05,0.11,-1.00,3.11,1.71,5.62
1.3930,0.05,0.12,-0.99,3.17,1.71,4.21
1.4080,0.05,0.12,-0.99,3.30,2.01,3.66
1.4240,0.05,0.12,-0.99,3.11,2.08,3.91
1.4400,0.05,0.12,-1.00,3.42,2.26,3.85
1.4560,0.05,0.12,-1.00,3.23,2.32,3.54
1.4720,0.05,0.12,-0.99,3.17,1.95,3.54
1.4870,0.05,0.11,-1.00,3.17,1.95,3.85
1.4920,0.05,0.12,-0.99,3.11,2.01,3.42
1.5190,0.05,0.12,-0.99,3.11,2.20,3.11
1.5290,0.05,0.12,-0.99,3.23,2.14,3.42
1.5480,0.05,0.12,-0.99,3.23,1.89,4.21
1.5640,0.05,0.12,-0.99,3.11,1.95,4.58
1.5780,0.05,0.12,-0.99,2.99,1.89,4.15
1.5800,0.05,0.12,-1.00,3.11,2.08,2.99
1.6100,0.05,0.14,-0.99,3.36,2.26,2.56
1.6190,0.05,0.14,-0.99,2.99,1.77,4.70
1.6420,0.05,0.13,-0.99,2.93,2.08,5.55
1.6470,0.05,0.11,-1.00,3.05,1.77,6.47
1.6630,0.04,0.11,-1.00,2.93,1.77,6.16
1.6790,0.04,0.11,-0.99,2.99,1.95,5.55
1.7000,0.04,0.11,-0.99,3.05,1.46,5.49
1.7190,0.05,0.12,-0.99,3.23,1.59,5.43
1.7330,0.05,0.12,-0.99,2.93,2.26,4.64
1.7340,0.05,0.12,-0.99,3.05,2.44,3.17
1.7640,0.05,0.13,-0.99,3.30,1.95,3.23
1.7810,0.05,0.14,-0.99,3.11,1.95,4.03
1.7960,0.05,0.13,-0.99,2.99,1.77,5.19
1.8120,0.05,0.12,-0.99,2.87,1.65,5.62
1.8270,0.05,0.13,-0.99,3.05,1.77,5.62
1.8340,0.05,0.12,-0.99,2.81,1.71,6.29
1.8500,0.05,0.12,-0.99,2.62,1.77,5.80
1.8670,0.05,0.11,-1.00,2.87,1.95,4.94
1.8840,0.05,0.11,-0.99,2.93,2.26,4.33
1.9000,0.05,0.12,-0.99,3.05,2.26,3.91
1.9180,0.05,0.13,-0.99,3.17,2.01,4.27
1.9190,0.05,0.13,-0.99,2.99,2.32,4.82
1.9490,0.05,0.12,-0.99,3.30,2.01,4.94
1.9510,0.05,0.12,-0.99,3.05,1.89,5.43
1.9800,0.05,0.12,-0.99,2.93,1.40,5.25
1.9960,0.05,0.11,-1.00,2.93,2.01,4.76
2.0110,0.05,0.11,-1.00,3.11,1.65,3.30
2.0270,0.05,0.11,-0.99,3.30,2.01,2.62
2.0350,0.05,0.12,-0.99,3.36,2.14,2.50
2.0510,0.05,0.12,-0.99,3.23,1.89,2.56
2.0730,0.05,0.12,-0.99,3.11,1.95,2.50
2.0880,0.05,0.13,-0.99,3.05,2.14,2.32
2.1040,0.06,0.15,-0.99,3.17,2.14,2.99
2.1180,0.05,0.14,-0.99,2.99,1.95,4.58
2.1340,0.05,0.13,-0.99,2.87,1.65,6.47
2.1490,0.05,0.13,-0.99,2.87,1.83,6.65
2.1630,0.05,0.12,-0.99,2.81,1.71,6.04
2.1780,0.05,0.11,-0.99,2.81,1.59,6.71
2.1890,0.05,0.10,-1.00,2.93,1.59,6.47
2.2060,0.05,0.10,-0.99,3.05,1.89,5.19
2.2230,0.05,0.11,-0.99,2.99,1.71,5.13
2.2390,0.05,0.12,-0.99,3.11,2.08,4.64
2.2560,0.05,0.12,-1.00,3.11,1.77,3.91
2.2710,0.05,0.12,-1.00,2.87,2.20,3.48
2.2880,0.05,0.12,-0.99,3.17,2.14,3.54
2.3030,0.05,0.12,-0.99,3.11,2.14,3.42
2.3060,0.05,0.11,-0.99,3.05,2.08,2.44
2.3210,0.05,0.12,-0.99,3.36,2.01,2.38
2.3420,0.05,0.12,-0.99,3.17,2.44,3.05
2.3590,0.05,0.13,-0.99,3.05,1.83,3.97
2.3760,0.05,0.12,-0.99,3.05,1.77,4.64
2.3930,0.06,0.15,-0.99,3.05,1.71,5.43
2.4080,0.05,0.13,-0.99,2.87,1.83,6.29
2.4240,0.05,0.12,-0.99,2.69,1.59,7.93
2.4400,0.05,0.13,-0.99,2.69,1.46,8.67
2.4560,0.05,0.13,-0.99,2.32,1.04,10.07
2.4720,0.05,0.11,-1.00,2.50,1.10,10.93
2.4760,0.05,0.10,-1.00,2.50,1.10,10.13
2.5040,0.05,0.10,-1.00,2.62,1.46,8.24
2.5190,0.05,0.09,-1.00,2.62,1.71,7.02
2.5340,0.05,0.11,-0.99,3.17,2.20,4.64
2.5480,0.05,0.11,-0.99,3.23,2.44,3.78
2.5590,0.05,0.12,-0.99,3.23,2.14,3.17
2.5750,0.05,0.12,-0.99,3.36,2.08,3.23
2.5920,0.05,0.12,-0.99,3.17,1.83,3.11
2.6090,0.05,0.13,-0.99,3.11,2.32,3.23
2.6260,0.05,0.13,-0.99,3.05,1.89,4.03
2.6430,0.05,0.13,-0.99,2.87,1.83,6.29
2.6580,0.05,0.12,-0.99,2.75,1.40,6.90
2.6740,0.05,0.13,-0.99,2.93,1.46,7.20
2.6900,0.05,0.13,-0.99,2.93,1.89,7.63
2.7050,0.05,0.13,-0.99,2.75,1.53,8.73
2.7200,0.04,0.13,-1.00,2.50,1.10,9.03
2.7240,0.05,0.11,-0.99,2.50,1.40,9.40
2.7450,0.05,0.11,-1.00,2.50,1.59,8.12
2.7620,0.05,0.10,-1.00,2.75,1.34,6.53
2.7790,0.05,0.11,-1.00,3.05,1.53,5.19
2.7950,0.05,0.12,-0.99,2.99,1.83,4.64
2.8120,0.05,0.13,-0.99,2.93,1.71,4.64
2.8290,0.05,0.13,-0.99,3.05,1.59,5.13
2.8450,0.05,0.14,-0.99,2.99,1.77,6.65
2.8590,0.05,0.12,-0.99,2.81,1.46,7.14
2.8740,0.05,0.11,-1.00,2.93,1.65,6.65
2.8790,0.05,0.11,-0.99,2.93,1.46,6.47
2.8950,0.05,0.11,-1.00,2.99,1.53,5.92
2.9200,0.05,0.12,-0.99,2.93,1.71,5.19
2.9290,0.05,0.12,-0.99,3.11,2.20,4.64
2.9470,0.05,0.12,-0.99,2.99,1.77,5.49
2.9630,0.05,0.12,-0.99,2.87,1.71,5.92
2.9790,0.05,0.15,-0.99,2.81,1.34,6.29
2.9960,0.05,0.12,-0.99,2.99,1.16,7.02
3.0130,0.05,0.11,-0.99,3.11,1.46,7.08
3.0210,0.05,0.10,-1.00,3.11,1.53,6.53
3.0440,0.05,0.10,-1.00,3.23,1.65,4.94
3.0600,0.05,0.11,-1.00,3.30,1.95,4.33
3.0750,0.05,0.11,-1.00,3.05,1.95,2.50
3.0920,0.05,0.11,-1.00,3.48,1.83,1.71
3.1080,0.05,0.12,-0.99,3.48,1.95,1.65
3.1240,0.05,0.12,-0.99,3.60,2.08,1.53
3.1300,0.05,0.12,-1.00,3.42,2.38,1.77
3.1460,0.05,0.12,-0.99,3.30,2.32,2.08
3.1630,0.06,0.14,-0.99,3.30,2.14,2.75
3.1810,0.05,0.13,-0.99,3.23,1.40,3.91
3.1960,0.05,0.13,-0.99,3.17,1.77,4.82
3.2130,0.05,0.13,-0.99,2.81,1.77,6.47
3.2290,0.05,0.12,-0.99,2.75,1.71,7.75
3.2450,0.04,0.11,-1.00,2.69,1.40,7.51
3.2460,0.05,0.11,-0.99,2.93,1.65,7.26
3.2770,0.05,0.10,-1.00,2.99,2.08,5.62
3.2920,0.05,0.10,-1.00,2.99,1.89,4.70
3.3070,0.05,0.12,-0.99,3.36,2.08,3.60
3.3210,0.05,0.13,-0.99,3.17,2.01,4.76
3.3300,0.04,0.12,-0.99,2.81,1.95,5.55
3.3470,0.05,0.13,-1.00,2.75,1.46,5.86
3.3630,0.05,0.12,-0.99,2.75,1.46,6.65
3.3810,0.05,0.10,-1.00,2.69,1.59,6.35
3.3960,0.05,0.12,-0.99,3.05,1.10,5.13
3.4130,0.05,0.12,-0.99,3.17,1.65,5.00
3.4290,0.05,0.13,-0.99,3.05,1.89,6.04
3.4450,0.05,0.12,-0.99,2.87,1.71,6.04
3.4600,0.05,0.12,-0.99,2.93,1.95,6.35
3.4630,0.05,0.12,-0.99,2.93,1.10,7.32
3.4800,0.05,0.12,-0.99,2.56,1.28,7.63
3.5080,0.05,0.12,-0.99,2.75,1.46,8.12
3.5220,0.05,0.12,-0.99,2.81,1.28,7.69
3.5400,0.05,0.12,-1.00,2.81,1.40,7.20
3.5470,0.05,0.11,-0.99,2.87,1.53,7.32
3.5710,0.05,0.11,-0.99,2.93,1.22,6.71
3.5800,0.04,0.11,-0.99,2.87,2.01,5.68
3.5970,0.05,0.11,-0.99,3.05,1.53,5.25
3.6130,0.05,0.12,-0.99,3.11,1.83,4.82
3.6290,0.05,0.11,-0.99,2.87,1.89,5.00
3.6470,0.05,0.12,-0.99,3.05,1.77,4.21
3.6630,0.05,0.13,-0.99,3.17,1.65,4.27
3.6630,0.05,0.13,-0.99,2.93,1.65,5.37
3.6930,0.05,0.14,-0.99,2.93,1.34,6.96
3.6970,0.05,0.12,-0.99,2.69,0.92,8.24
3.7220,0.05,0.13,-0.99,2.87,1.34,8.42
3.7350,0.05,0.12,-0.99,2.81,0.79,9.28
3.7520,0.05,0.12,-1.00,2.69,0.85,9.40
3.7680,0.05,0.10,-1.00,2.75,0.85,8.97
3.7850,0.05,0.10,-1.00,2.99,1.53,7.87
3.7990,0.05,0.10,-1.00,3.23,1.71,4.82
3.8150,0.05,0.10,-1.00,3.17,1.83,3.30
3.8310,0.05,0.12,-0.99,3.17,1.83,3.30
3.8470,0.05,0.12,-0.99,3.30,1.95,3.30
3.8620,0.05,0.12,-0.99,3.30,2.08,4.09
3.8770,0.04,0.13,-0.99,3.23,1.77,3.97
3.8930,0.05,0.12,-0.99,2.75,1.77,6.96
3.9070,0.06,0.12,-0.99,2.99,1.71,6.04
3.9220,0.06,0.11,-1.00,2.93,1.46,5.98
3.9340,0.05,0.12,-0.99,3.11,1.77,4.88
3.9510,0.05,0.13,-0.99,3.05,2.01,6.10
3.9680,0.05,0.12,-0.99,2.87,1.34,7.26
3.9690,0.05,0.11,-0.99,2.69,1.34,7.32
3.9990,0.05,0.12,-1.00,2.81,1.53,7.63
4.0140,0.05,0.10,-1.00,2.75,1.40,7.51
4.0290,0.05,0.10,-1.00,2.93,2.26,5.86
4.0460,0.06,0.11,-1.00,3.17,2.26,4.70
4.0510,0.05,0.11,-0.99,3.11,2.14,4.64
4.0670,0.05,0.11,-1.00,3.23,1.83,5.19
4.0870,0.05,0.10,-1.00,3.11,1.95,4.03
4.1040,0.05,0.11,-1.00,3.42,1.83,3.30
4.1220,0.05,0.11,-0.99,3.11,2.20,3.78
4.1380,0.06,0.12,-0.99,3.11,2.32,4.27
4.1540,0.05,0.12,-0.99,3.17,2.01,4.27
4.1550,0.05,0.11,-0.99,2.81,1.95,5.98
4.1850,0.05,0.11,-0.95,2.81,2.08,6.53
4.2000,-0.08,0.17,-1.15,0.12,4.70,5.19
4.2140,0.07,0.08,-0.95,2.32,0.37,5.98
4.2300,-0.00,0.09,-1.04,1.59,1.46,15.20
4.2460,0.08,0.07,-0.99,3.72,1.59,5.13
4.2610,0.07,0.10,-1.00,3.42,2.38,4.52
4.2700,0.00,0.11,-1.01,2.81,2.14,6.23
4.2880,0.06,0.13,-0.99,3.42,1.89,3.42
4.3050,0.09,0.11,-0.98,3.66,2.32,1.71
4.3200,0.03,0.12,-1.00,3.05,2.56,3.17
4.3360,0.02,0.11,-1.00,3.17,2.26,4.27
4.3500,0.06,0.14,-0.99,3.17,2.26,3.54
4.3670,0.06,0.14,-0.99,2.87,1.83,5.49
4.3820,0.05,0.13,-0.99,2.81,1.95,6.90
4.3870,0.06,0.11,-1.00,2.81,1.71,7.20
4.4040,0.04,0.09,-1.00,2.99,1.83,5.13
4.4220,0.05,0.11,-0.99,2.99,2.14,4.52
4.4380,0.06,0.12,-0.99,3.05,2.50,3.97
4.4550,0.05,0.12,-0.99,3.17,2.20,4.09
4.4710,0.04,0.12,-1.00,2.87,2.20,5.19
4.4880,0.04,0.11,-1.00,3.11,1.71,5.13
4.5050,0.06,0.11,-0.99,2.93,1.59,5.25
4.5210,0.05,0.11,-0.99,2.99,1.71,5.00
4.5370,0.06,0.12,-0.99,3.05,1.77,4.76
4.5530,0.05,0.12,-0.99,2.87,1.95,5.25
4.5680,0.05,0.12,-1.00,2.75,1.83,6.47
4.5840,0.05,0.11,-1.00,2.69,1.65,7.20
4.5990,0.05,0.10,-1.00,2.81,1.46,6.65
4.6150,0.05,0.10,-1.00,2.99,1.65,5.86
4.6310,0.05,0.12,-0.99,3.11,1.46,6.59
4.6470,0.05,0.14,-0.99,2.69,1.46,7.14
4.6630,0.05,0.12,-0.99,2.62,1.59,9.46
4.6790,0.05,0.09,-1.00,2.56,1.95,9.40
4.6880,0.05,0.10,-1.00,2.81,1.34,8.00
4.7040,0.05,0.10,-1.00,3.11,1.59,6.47
4.7220,0.05,0.10,-1.00,3.05,1.53,5.25
4.7370,0.05,0.10,-1.00,3.30,2.01,4.15
4.7540,0.05,0.11,-1.00,3.17,2.14,3.60
4.7720,0.05,0.12,-0.99,3.30,1.83,3.66
4.7870,0.05,0.12,-0.99,2.93,2.14,4.46
4.8030,0.05,0.13,-0.99,2.93,1.83,5.19
4.8190,0.05,0.12,-0.99,2.69,1.89,6.77
4.8340,0.06,0.13,-0.99,2.87,1.16,8.24
4.8500,0.05,0.12,-1.00,2.69,1.46,9.16
4.8650,0.05,0.10,-1.00,2.81,1.46,9.40
4.8810,0.05,0.10,-1.00,2.69,1.22,8.30
4.8970,0.05,0.10,-1.00,2.87,1.59,7.14
4.9130,0.05,0.11,-1.00,2.75,1.59,6.47
4.9220,0.05,0.10,-1.00,2.87,1.77,5.86
4.9440,0.05,0.11,-0.99,3.11,1.71,4.70
4.9540,0.05,0.12,-0.99,3.23,1.71,4.76
4.9710,0.05,0.11,-1.00,2.99,2.14,5.62
4.9870,0.05,0.10,-0.99,2.99,1.77,4.82
5.0040,0.05,0.11,-1.00,2.99,2.08,3.42
5.0200,0.05,0.11,-0.99,3.11,2.38,3.36
5.0370,0.05,0.11,-0.99,2.99,2.26,4.39
5.0530,0.05,0.10,-1.00,2.99,2.01,4.64
5.0680,0.05,0.10,-1.00,2.99,1.77,4.03
5.0830,0.05,0.11,-1.00,3.23,2.08,2.87
5.0980,0.05,0.12,-0.99,3.17,2.08,2.87
5.1040,0.05,0.12,-1.00,3.05,2.20,4.88
5.1220,0.06,0.14,-0.99,2.99,1.89,6.10
5.1430,0.06,0.12,-0.99,2.69,1.34,7.26
5.1590,0.05,0.12,-0.99,2.62,1.89,8.00
5.1760,0.05,0.09,-1.00,2.56,1.53,8.18
5.1930,0.05,0.09,-1.00,2.87,1.89,5.43
5.2090,0.05,0.11,-0.99,3.23,2.44,2.38
5.2250,0.05,0.12,-0.99,3.30,2.38,1.95
5.2270,0.05,0.11,-1.00,3.23,2.56,2.32
5.2420,0.05,0.11,-0.99,3.30,2.38,1.71
5.2590,0.05,0.11,-0.99,3.30,2.50,1.59
5.2760,0.05,0.11,-0.99,3.42,2.44,1.83
5.2930,0.05,0.11,-0.99,3.48,2.14,1.77
5.3090,0.05,0.11,-1.00,3.17,2.69,1.71
5.3260,0.05,0.11,-1.00,3.17,2.44,1.65
5.3430,0.05,0.11,-0.99,3.11,2.44,1.53
5.3600,0.05,0.11,-0.99,3.30,2.62,1.65
5.3760,0.05,0.11,-1.00,3.11,2.75,1.65
5.3930,0.05,0.11,-1.00,3.11,2.87,1.65
5.4090,0.05,0.11,-0.99,3.05,2.93,1.53
5.4270,0.05,0.11,-1.00,3.11,2.81,1.59
5.4420,0.05,0.11,-0.99,3.36,2.38,1.77
5.4600,0.05,0.11,-0.99,3.36,2.56,1.83
5.4760,0.05,0.11,-0.99,3.30,2.44,1.65
5.4920,0.05,0.11,-1.00,3.23,2.81,1.83
5.5080,0.05,0.11,-0.99,3.42,2.38,1.77
5.5240,0.05,0.11,-0.99,3.36,2.50,1.77
5.5260,0.05,0.11,-0.99,3.54,2.69,1.83
5.5560,0.05,0.11,-0.99,3.36,2.69,1.77
5.5590,0.05,0.11,-1.00,3.48,2.08,1.59
5.5750,0.05,0.12,-1.00,3.42,2.50,1.53
5.6020,0.05,0.11,-0.99,3.30,2.75,1.53
5.6120,0.06,0.12,-0.99,3.42,2.32,1.83
5.6280,0.05,0.12,-0.99,3.30,2.62,1.65
5.6460,0.05,0.12,-0.99,3.17,2.50,1.71
5.6630,0.05,0.11,-0.99,3.05,2.87,1.77
5.6800,0.05,0.12,-1.00,2.87,2.62,1.71
5.6970,0.05,0.11,-1.00,3.05,3.05,1.53
5.7130,0.05,0.11,-0.99,3.11,3.17,1.71
5.7240,0.05,0.11,-0.99,3.17,2.69,1.71
5.7460,0.05,0.11,-1.00,3.11,2.26,1.71
5.7480,0.05,0.11,-0.99,3.11,2.38,1.65
5.7770,0.05,0.11,-1.00,3.05,2.69,1.71
5.7800,0.05,0.11,-0.99,3.23,2.56,2.08
5.7960,0.05,0.12,-0.99,3.17,2.50,2.93
5.8190,0.05,0.10,-1.00,2.87,1.46,5.13
5.8370,0.05,0.11,-1.00,3.23,2.69,3.42
5.8520,0.05,0.11,-1.00,3.23,2.50,2.44
5.8680,0.05,0.11,-1.00,3.11,2.69,2.62
5.8830,0.05,0.11,-0.99,3.36,2.26,2.87
5.8980,0.05,0.11,-1.00,3.30,2.56,2.99
5.9130,0.06,0.11,-0.99,3.11,2.32,2.50
5.9240,0.06,0.11,-1.00,3.42,2.50,2.14
5.9370,0.05,0.11,-0.99,3.42,2.44,2.08
5.9530,0.06,0.11,-0.99,3.36,2.56,1.89
5.9700,0.06,0.11,-0.99,3.66,2.38,1.89
5.9860,0.05,0.11,-0.99,3.60,2.26,1.46
6.0030,0.05,0.11,-1.00,3.48,2.62,0.92
6.0190,0.09,0.13,-0.99,3.42,2.87,-0.49
6.0240,0.05,0.11,-0.99,3.42,2.69,-0.49
6.0490,0.06,0.11,-0.99,3.17,2.50,-0.06
6.0640,0.05,0.12,-0.99,3.36,2.87,-0.43
6.0790,0.05,0.12,-0.99,3.36,2.81,0.06
6.0940,0.05,0.12,-0.99,3.54,2.69,0.24
6.1090,0.05,0.12,-0.99,3.42,2.62,0.55
6.1190,0.05,0.12,-0.99,3.36,2.81,0.67
6.1360,0.06,0.12,-0.99,3.36,2.93,0.55
6.1530,0.05,0.12,-1.00,3.42,2.99,-0.06
6.1700,0.06,0.12,-0.99,3.48,2.87,-0.06
6.1700,0.05,0.11,-1.00,3.72,2.93,-0.06
6.1860,0.06,0.12,-0.99,3.30,2.50,0.73
6.2140,0.04,0.11,-1.00,3.36,3.23,0.67
6.2290,0.05,0.11,-0.99,3.30,2.56,0.37
6.2440,0.05,0.12,-1.00,3.17,2.62,0.24
6.2590,0.04,0.11,-1.00,3.60,2.44,0.37
6.2690,0.05,0.11,-0.99,3.17,2.75,0.79
6.2860,0.04,0.11,-1.00,3.42,2.69,0.61
6.3020,0.06,0.11,-0.99,3.30,2.75,0.55
6.3190,0.05,0.11,-1.00,3.48,2.62,0.31
6.3350,0.05,0.11,-0.99,3.42,2.56,0.85
6.3520,0.04,0.11,-1.00,3.30,2.32,1.10
6.3660,0.05,0.11,-0.99,3.17,2.62,1.40
6.3810,0.06,0.11,-1.00,3.11,2.38,1.22
6.3960,0.05,0.11,-1.00,3.23,2.44,1.16
6.4110,0.07,0.11,-0.99,3.23,2.50,0.61
6.4270,0.05,0.11,-1.00,3.42,2.62,0.18
6.4360,0.06,0.11,-1.00,3.48,2.81,0.00
6.4530,0.05,0.11,-1.00,3.42,2.75,0.12
6.4700,0.04,0.11,-1.00,3.30,2.81,0.55
6.4860,0.05,0.11,-1.00,3.23,2.75,0.06
6.5030,0.08,0.10,-0.95,4.15,1.83,0.85
6.5190,0.03,0.12,-1.00,3.17,2.93,2.01
6.5250,0.03,0.10,-0.99,3.66,2.62,0.31
6.5490,0.03,0.10,-1.00,3.17,2.69,-0.43
6.5650,0.05,0.11,-1.00,3.60,2.50,-0.18
6.5800,0.04,0.11,-0.98,3.30,2.56,0.55
6.5960,0.04,0.11,-1.00,2.99,3.05,1.59
6.6110,0.03,0.11,-1.00,3.05,2.26,1.46
6.6260,0.05,0.12,-0.99,2.69,2.32,1.28
6.6410,0.05,0.12,-0.99,2.87,2.20,-0.43
6.6520,0.07,0.12,-0.99,3.42,2.69,-0.92
6.6690,0.06,0.12,-0.99,3.42,3.05,-0.12
6.6850,0.04,0.12,-1.00,3.30,2.99,1.16
6.7020,0.05,0.12,-0.99,3.48,2.87,-0.31
6.7190,0.07,0.12,-0.97,3.48,2.08,0.06
6.7360,0.04,0.13,-1.00,3.11,2.26,1.40
6.7510,0.04,0.12,-0.99,3.36,2.38,1.34
6.7660,0.04,0.12,-1.00,3.11,2.44,1.16
6.7690,0.05,0.12,-0.99,3.23,2.20,1.46
6.7850,0.06,0.12,-0.99,3.42,2.62,1.34
6.8060,0.08,0.11,-0.99,3.66,2.87,-0.92
6.8260,0.04,0.13,-1.00,3.36,3.05,0.00
6.8400,0.04,0.12,-1.00,3.23,2.75,0.37
6.8560,0.04,0.12,-1.00,3.36,2.62,0.37
6.8720,0.04,0.13,-0.99,3.23,2.56,0.98
6.8890,0.05,0.13,-0.99,3.23,2.69,1.28
6.9050,0.05,0.12,-1.00,3.42,2.56,1.34
6.9220,0.05,0.12,-1.00,3.11,2.32,1.65
6.9380,0.05,0.11,-0.99,3.36,2.14,1.40
6.9540,0.07,0.11,-0.99,3.48,2.08,1.59
6.9700,0.07,0.11,-0.99,3.48,2.38,1.59
6.9850,0.07,0.11,-0.99,3.23,2.62,1.95
6.9990,0.06,0.11,-1.00,3.23,2.14,1.04
7.0160,0.07,0.10,-0.99,3.42,2.14,1.40
7.0310,0.08,0.10,-0.99,3.23,2.38,1.65
7.0390,0.07,0.10,-0.99,3.36,3.05,0.61
7.0620,0.05,0.11,-1.00,3.23,2.56,0.43
7.0740,0.04,0.11,-1.00,3.17,2.75,0.98
7.0890,0.03,0.12,-1.00,3.11,2.56,0.12
7.1060,0.04,0.11,-0.99,3.30,2.44,0.85
7.1220,0.04,0.12,-1.00,3.42,2.44,1.71
7.1390,0.06,0.11,-0.99,3.17,2.56,1.53
7.1560,0.05,0.11,-0.99,3.17,2.26,1.53
7.1720,0.06,0.11,-1.00,3.23,2.56,1.77
7.1720,0.08,0.11,-0.99,3.30,2.75,1.53
7.1890,0.07,0.11,-0.99,3.17,2.32,1.71
7.2060,0.06,0.12,-0.99,3.30,2.26,1.77
7.2280,0.06,0.11,-0.99,3.30,2.32,1.59
7.2440,0.04,0.11,-0.99,3.36,2.38,1.59
7.2620,0.05,0.12,-0.99,3.23,2.50,1.65
7.2780,0.04,0.12,-0.99,3.42,2.14,1.53
7.2950,0.05,0.12,-0.99,3.23,2.14,1.53
7.3100,0.05,0.12,-0.99,3.11,2.87,1.40
7.3270,0.05,0.11,-0.99,3.23,2.44,1.40
7.3280,0.06,0.11,-0.99,3.05,2.50,1.59
7.3450,0.04,0.12,-0.99,3.17,2.14,1.34
7.3740,0.04,0.12,-0.99,3.23,2.26,1.59
7.3770,0.05,0.11,-0.99,2.99,2.38,1.59
7.4060,0.06,0.12,-0.99,3.17,2.50,1.40
7.4110,0.04,0.11,-1.00,3.54,2.32,1.28
7.4370,0.05,0.11,-1.00,3.42,2.69,1.16
7.4440,0.05,0.11,-0.99,3.23,2.62,1.10
7.4610,0.06,0.11,-0.99,3.23,2.87,0.67
7.4790,0.05,0.11,-0.99,3.23,2.75,1.04
7.4940,0.05,0.11,-1.00,3.36,2.69,1.10
7.5110,0.05,0.11,-1.00,3.42,2.38,1.22
7.5290,0.05,0.11,-1.00,3.30,2.62,1.04
7.5450,0.05,0.11,-0.99,3.23,2.87,0.92
7.5600,0.05,0.11,-1.00,3.42,2.32,1.10
7.5760,0.04,0.11,-1.00,3.23,2.81,0.98
7.5910,0.04,0.11,-1.00,3.36,2.69,0.73
7.5940,0.03,0.11,-1.00,3.23,2.62,0.67
7.6240,0.04,0.11,-1.00,3.17,2.81,0.73
7.6400,0.04,0.11,-1.00,3.23,2.75,0.79
7.6450,0.05,0.12,-1.00,3.23,2.44,0.73
7.6610,0.06,0.12,-0.99,3.17,2.87,0.67
7.6860,0.06,0.11,-0.99,3.42,2.50,0.55
7.7020,0.06,0.12,-0.99,3.42,2.62,1.10
7.7100,0.07,0.11,-0.99,3.17,2.38,1.34
7.7270,0.05,0.11,-0.99,3.11,2.69,1.71
7.7440,0.06,0.11,-0.99,3.23,2.99,1.53
7.7610,0.06,0.11,-0.99,3.23,2.99,1.04
7.7780,0.05,0.11,-1.00,3.30,2.62,1.28
7.7930,0.06,0.11,-1.00,3.36,2.81,1.34
7.7930,0.05,0.11,-0.99,3.17,2.20,1.16
7.8240,0.05,0.11,-0.99,2.99,2.50,1.10
7.8400,0.05,0.11,-1.00,3.48,2.56,0.79
7.8450,0.05,0.12,-1.00,3.48,2.44,0.73
7.8610,0.04,0.12,-1.00,3.30,2.75,0.55
7.8810,0.05,0.12,-1.00,3.42,2.38,0.55
7.8980,0.04,0.12,-0.99,3.42,2.81,0.49
7.9160,0.04,0.12,-1.00,3.17,2.87,0.79
7.9330,0.04,0.11,-1.00,3.36,2.75,0.73
7.9490,0.04,0.11,-1.00,3.60,2.14,0.55
7.9640,0.04,0.12,-1.00,3.42,2.50,0.55
7.9650,0.04,0.12,-0.99,3.54,3.05,0.67
7.9960,0.05,0.11,-1.00,3.30,2.75,0.73
8.0120,0.04,0.11,-1.00,3.17,2.50,0.98
8.0280,0.05,0.12,-0.99,3.36,2.38,0.79
8.0440,0.05,0.11,-0.99,3.23,2.50,0.92
8.0600,0.05,0.11,-0.99,3.48,2.69,1.22
8.0650,0.05,0.11,-1.00,3.54,2.38,1.34
8.0810,0.05,0.11,-0.99,3.48,2.38,1.16
8.1040,0.06,0.11,-0.99,3.36,2.81,0.79
8.1200,0.06,0.11,-0.99,3.54,2.44,0.79
8.1370,0.06,0.11,-1.00,3.48,2.50,0.67
8.1510,0.05,0.11,-1.00,3.30,2.93,0.49
8.1550,0.05,0.11,-0.99,3.36,3.05,0.24
8.1830,0.05,0.12,-0.99,3.60,2.56,0.43
8.1880,0.05,0.12,-1.00,3.36,2.62,0.55
8.2040,0.08,0.11,-0.99,3.23,2.62,0.73
8.2270,0.04,0.11,-0.99,3.42,2.62,0.85
8.2410,0.05,0.12,-1.00,3.05,2.56,1.10
8.2580,0.05,0.12,-1.00,3.66,2.26,0.55
8.2750,0.05,0.12,-1.00,3.48,2.50,0.92
8.2920,0.08,0.12,-0.99,3.11,3.05,0.61
8.3080,0.04,0.11,-1.00,3.66,2.75,-0.06
8.3240,0.05,0.12,-0.99,3.60,2.50,0.31
8.3400,0.05,0.12,-1.00,3.17,2.87,0.79
8.3560,0.05,0.11,-1.00,3.54,2.38,0.55
8.3720,0.01,0.11,-1.00,3.23,2.32,0.49
8.3880,0.04,0.12,-0.99,3.48,2.20,1.10
8.3920,0.05,0.12,-0.99,3.23,2.75,1.71
8.4080,0.05,0.11,-1.00,3.17,2.69,1.65
8.4310,0.05,0.11,-1.00,3.23,2.32,1.71
8.4490,0.05,0.12,-0.99,3.30,2.20,1.77
8.4640,0.06,0.11,-0.99,3.17,2.44,1.34
8.4810,0.06,0.11,-0.99,3.23,2.75,1.40
8.4820,0.04,0.11,-1.00,3.36,2.75,1.22
8.5130,0.05,0.11,-1.00,3.54,2.44,1.16
8.5290,0.06,0.11,-0.99,3.36,2.38,0.85
8.5450,0.05,0.11,-0.99,3.30,3.23,0.43
8.5480,0.05,0.11,-1.00,3.48,2.56,0.37
8.5630,0.05,0.11,-1.00,3.42,2.93,0.43
8.5860,0.05,0.11,-1.00,3.36,2.14,0.55
8.6030,0.05,0.11,-0.99,3.30,2.26,0.79
8.6190,0.05,0.11,-0.99,3.30,2.56,0.92
8.6370,0.05,0.11,-0.99,3.30,2.32,0.98
8.6530,0.05,0.11,-1.00,3.60,2.26,1.04
8.6690,0.05,0.11,-1.00,3.66,2.32,1.22
8.6860,0.05,0.11,-0.99,3.54,2.20,1.59
8.7020,0.05,0.12,-0.99,3.48,2.38,2.50
8.7180,0.05,0.12,-1.00,3.42,2.44,2.75
8.7320,0.05,0.12,-0.98,3.36,2.26,2.69
8.7480,0.05,0.12,-0.99,3.42,1.77,2.26
8.7640,0.05,0.12,-0.99,3.23,2.14,1.95
8.7790,0.05,0.12,-0.99,3.23,2.26,1.89
8.7960,0.05,0.12,-0.99,2.93,2.56,1.95
8.8110,0.05,0.12,-0.99,3.11,2.38,1.95
8.8260,0.04,0.11,-0.98,2.99,2.75,1.53
8.8360,0.05,0.12,-0.99,2.99,2.38,1.71
8.8530,0.05,0.12,-0.99,3.30,2.32,1.65
8.8700,0.05,0.12,-0.99,3.17,2.26,1.59
8.8870,0.05,0.12,-0.99,3.17,2.20,1.46
8.9030,0.05,0.12,-0.99,3.36,2.26,1.65
8.9190,0.05,0.12,-0.99,3.23,2.44,1.83
8.9350,0.05,0.11,-0.99,3.36,2.14,1.71
8.9500,0.05,0.11,-1.00,3.36,2.08,1.53
8.9540,0.05,0.11,-1.00,3.42,2.26,1.77
8.9690,0.05,0.11,-1.00,3.30,2.08,1.59
8.9930,0.05,0.11,-1.00,3.17,2.26,1.53
9.0090,0.05,0.11,-0.99,3.36,2.56,1.40
9.0270,0.05,0.11,-1.00,3.36,2.62,1.22
9.0420,0.06,0.11,-0.99,3.23,3.17,-0.06
9.0600,0.05,0.11,-1.00,3.36,2.93,-0.98
9.0760,0.06,0.11,-0.99,3.36,2.50,-0.67
9.0910,0.08,0.08,-1.00,4.21,3.17,-2.56
9.1090,0.05,0.11,-1.00,4.15,3.91,-5.19
9.1250,0.04,0.12,-1.00,4.03,3.36,-3.66
9.1410,0.05,0.11,-1.00,3.60,3.36,-2.87
9.1420,0.04,0.12,-1.00,3.78,3.23,-2.69
9.1730,0.04,0.12,-1.00,3.42,3.17,-1.95
9.1890,0.05,0.12,-0.99,3.60,2.99,-1.71
9.2040,0.05,0.12,-0.99,3.60,2.99,-1.89
9.2100,0.05,0.12,-1.00,3.66,2.50,-0.85
9.2290,0.05,0.10,-0.99,3.60,3.17,-1.46
9.2490,0.05,0.12,-0.99,4.15,2.81,-2.87
9.2660,0.05,0.13,-0.99,3.66,2.75,-2.32
9.2820,0.06,0.12,-0.99,3.60,2.56,-1.65
9.2970,0.05,0.12,-0.99,3.54,3.05,-1.28
9.2990,0.05,0.12,-1.00,3.30,2.87,0.00
9.3290,0.05,0.12,-0.99,3.48,2.62,-0.43
9.3460,0.05,0.12,-0.99,3.42,2.81,0.06
9.3610,0.05,0.11,-0.99,3.48,2.32,0.55
9.3660,0.05,0.12,-0.99,3.54,2.93,0.73
9.3940,0.05,0.11,-1.00,3.66,2.69,0.73
9.3990,0.05,0.11,-1.00,3.60,2.81,-0.06
9.4260,0.05,0.11,-0.99,3.54,2.87,-0.31
9.4320,0.05,0.11,-0.99,3.72,3.05,-1.28
9.4570,0.05,0.12,-0.99,3.78,3.30,-2.01
9.4650,0.05,0.13,-0.99,3.72,3.11,-1.16
9.4820,0.05,0.12,-0.99,3.42,2.81,-0.06
9.4980,0.05,0.12,-0.99,3.36,2.62,0.61
9.5140,0.05,0.11,-1.00,3.30,2.75,0.43
9.5340,0.05,0.09,-1.00,3.48,2.75,0.12
9.5490,0.05,0.11,-0.99,3.60,2.87,-1.71
9.5530,0.05,0.11,-0.99,3.60,2.75,-1.83
9.5690,0.05,0.12,-0.99,3.72,3.11,-1.04
9.5840,0.05,0.12,-1.00,3.42,3.11,-0.92
9.6080,0.05,0.12,-0.99,3.42,2.69,-0.43
9.6250,0.05,0.12,-0.99,3.30,2.87,-0.12
9.6410,0.05,0.12,-0.99,3.17,2.81,0.55
9.6590,0.05,0.12,-0.99,3.23,2.99,0.55
9.6740,0.05,0.11,-0.99,3.48,2.50,1.10
9.6910,0.05,0.12,-0.99,3.48,2.50,1.16
9.7070,0.05,0.11,-0.99,3.42,2.75,0.67
9.7230,0.05,0.11,-1.00,3.42,2.44,-0.24
9.7290,0.05,0.11,-1.00,3.36,2.93,-0.55
9.7410,0.05,0.11,-1.00,3.66,2.62,-0.98
9.7640,0.05,0.12,-0.99,3.54,2.50,-0.92
9.7810,0.05,0.12,-0.99,3.42,2.44,0.18
9.7970,0.05,0.12,-1.00,3.36,2.93,0.85
9.8140,0.05,0.12,-0.99,3.36,2.56,0.67
9.8310,0.05,0.12,-0.99,3.42,2.38,0.98
9.8310,0.05,0.12,-1.00,3.48,2.50,1.22
9.8490,0.05,0.11,-1.00,3.05,2.69,1.71
9.8650,0.05,0.10,-0.99,3.42,2.62,0.79
9.8940,0.05,0.11,-1.00,3.78,3.05,-0.43
9.8980,0.05,0.13,-0.99,3.72,3.11,-1.46
9.9150,0.05,0.13,-0.99,3.78,2.44,-0.61
9.9300,0.05,0.12,-0.99,3.36,2.62,0.49
9.9510,0.05,0.12,-0.99,3.36,2.69,0.79
9.9690,0.05,0.12,-0.99,3.54,2.44,0.49
9.9860,0.05,0.12,-0.99,3.42,2.44,0.67
10.0020,0.04,0.10,-1.00,3.30,2.50,1.28
10.0190,0.02,0.07,-1.00,3.36,2.75,1.22
10.0350,0.06,0.12,-0.99,4.21,3.17,-2.14
10.0510,0.06,0.11,-0.99,3.54,2.69,-1.65
10.0670,0.05,0.12,-1.00,3.91,2.93,-2.01
10.0830,0.05,0.11,-0.99,3.85,2.93,-2.50
10.0990,0.05,0.13,-0.99,3.85,3.05,-2.38
10.1150,0.05,0.14,-0.99,3.72,3.05,-1.46
10.1310,0.05,0.13,-0.99,3.17,2.50,0.06
10.1470,0.05,0.12,-0.99,3.11,2.56,1.10
10.1630,0.05,0.12,-1.00,3.48,2.44,1.28
10.1700,0.05,0.11,-1.00,3.30,2.69,0.61
10.1860,0.04,0.11,-1.00,3.30,2.75,0.24
10.2080,0.04,0.09,-1.00,3.05,2.38,-0.67
10.2240,0.05,0.10,-1.00,3.05,2.56,-1.53
10.2400,0.06,0.11,-0.99,3.85,3.30,-3.05
10.2550,0.05,0.12,-1.00,3.85,3.72,-3.72
10.2710,0.06,0.13,-0.99,3.85,3.23,-2.14
10.2740,0.05,0.12,-0.99,3.42,3.11,-1.34
10.3020,0.05,0.12,-0.99,3.66,3.36,-1.53
10.3160,0.05,0.12,-0.99,3.42,2.81,-1.10
10.3320,0.05,0.11,-1.00,3.60,3.17,-1.59
10.3410,0.04,0.12,-1.00,3.60,3.30,-2.50
10.3580,0.05,0.13,-0.99,3.48,2.44,-1.71
10.3730,0.05,0.12,-0.99,3.30,2.81,-0.37
10.3930,0.05,0.12,-0.99,3.30,2.62,-0.18
10.3970,0.05,0.10,-1.00,3.60,2.93,-0.49
10.4240,0.05,0.10,-1.00,3.36,3.11,-1.10
10.4310,0.05,0.11,-1.00,3.91,2.87,-2.87
10.4470,0.05,0.12,-0.99,3.97,3.23,-2.93
10.4640,0.05,0.12,-0.99,3.97,2.99,-1.89
10.4800,0.05,0.11,-0.99,3.78,3.05,-1.28
10.4960,0.05,0.11,-0.99,3.66,2.62,-1.77
10.5160,0.04,0.11,-1.00,3.66,2.93,-2.69
10.5320,0.05,0.14,-0.99,3.54,2.93,-2.44
10.5350,0.05,0.12,-0.99,3.60,2.69,-1.28
10.5640,0.04,0.12,-1.00,3.11,2.44,-1.10
10.5800,0.05,0.12,-0.99,3.42,2.81,-1.71
10.5840,0.06,0.13,-0.99,3.60,3.36,-1.77
10.6120,0.05,0.13,-0.99,3.42,2.69,-0.92
10.6270,0.05,0.12,-1.00,3.48,2.75,0.43
10.6420,0.05,0.11,-0.99,3.11,2.44,1.10
10.6510,0.05,0.11,-1.00,3.23,2.99,0.79
10.6670,0.05,0.11,-0.99,3.60,2.56,0.31
10.6900,0.05,0.11,-1.00,3.30,2.69,0.24
10.7060,0.05,0.12,-1.00,3.23,2.87,0.61
10.7220,0.04,0.11,-1.00,3.17,2.99,0.43
10.7380,0.05,0.11,-0.99,3.23,2.87,0.00
10.7530,0.05,0.11,-0.99,3.23,3.05,0.12
10.7700,0.05,0.11,-0.99,3.66,3.23,-1.16
10.7730,0.05,0.11,-1.00,3.66,3.42,-2.44
10.8000,0.05,0.13,-0.99,3.85,3.23,-2.75
10.8160,0.06,0.14,-0.99,3.54,3.17,-1.83
10.8310,0.05,0.14,-0.99,3.72,2.56,-0.98
10.8400,0.05,0.13,-0.99,3.36,2.81,0.61
10.8570,0.05,0.13,-0.99,3.36,2.81,1.28
10.8730,0.05,0.12,-0.99,3.42,2.69,1.59
10.8900,0.05,0.12,-0.99,3.30,2.62,1.46
10.9080,0.05,0.12,-0.99,3.17,3.11,1.65
10.9240,0.05,0.12,-0.99,3.30,2.87,1.59
10.9310,0.04,0.12,-1.00,3.05,2.87,1.59
10.9550,0.05,0.11,-0.99,3.48,2.62,1.40
10.9720,0.05,0.11,-0.99,3.30,2.50,0.85
10.9740,0.05,0.11,-1.00,3.54,2.44,0.67
11.0040,0.05,0.11,-1.00,3.36,2.93,0.06
11.0190,0.05,0.10,-1.00,3.72,2.81,-0.85
11.0360,0.05,0.12,-0.99,3.36,3.17,-1.77
11.0510,0.05,0.12,-0.99,3.60,3.30,-1.83
11.0570,0.05,0.12,-0.99,3.54,2.62,-1.46
11.0820,0.05,0.11,-1.00,3.30,2.93,-0.37
11.0910,0.05,0.10,-1.00,3.30,2.87,0.79
11.1070,0.05,0.11,-1.00,3.48,2.62,0.85
11.1230,0.05,0.11,-0.99,3.54,2.62,0.24
11.1440,0.05,0.11,-0.99,3.72,2.75,-0.37
11.1450,0.05,0.11,-0.99,3.72,2.69,-0.43
11.1620,0.05,0.11,-0.99,3.60,2.87,-0.37
11.1790,0.05,0.12,-0.99,3.60,3.30,-0.79
11.2080,0.05,0.12,-1.00,3.72,3.05,-1.34
11.2120,0.05,0.13,-0.99,3.48,2.81,-1.71
11.2410,0.05,0.13,-0.99,3.54,3.23,-1.53
11.2450,0.05,0.13,-0.99,3.30,2.93,-0.73
11.2620,0.05,0.12,-0.99,3.48,2.62,-0.49
11.2790,0.05,0.12,-0.99,3.54,2.62,-1.04
11.2950,0.05,0.12,-0.99,3.36,2.26,-0.73
11.3160,0.05,0.12,-0.99,3.23,3.17,0.00
11.3340,0.05,0.12,-0.99,3.17,2.44,0.37
11.3500,0.05,0.12,-0.99,3.23,2.62,0.43
11.3660,0.05,0.12,-0.99,3.48,2.87,0.31
11.3840,0.05,0.12,-0.99,3.48,2.99,0.06
11.3840,0.03,0.13,-1.00,3.66,2.93,0.24
11.4140,0.06,0.11,-0.99,3.66,2.50,-0.12
11.4300,0.05,0.11,-0.99,3.05,2.44,0.12
11.4470,0.05,0.11,-0.99,3.60,3.23,-1.16
11.4620,0.05,0.12,-0.99,3.42,3.11,-1.65
11.4790,0.02,0.15,-1.01,3.30,3.36,-0.85
11.4950,0.05,0.12,-0.99,3.72,2.32,0.73
11.4990,0.09,0.10,-0.98,3.05,2.32,1.16
11.5160,0.05,0.11,-0.99,3.17,3.05,1.16
11.5360,0.04,0.11,-1.00,3.85,3.17,0.18
11.5520,0.03,0.12,-1.00,3.23,2.87,0.31
11.5690,0.04,0.11,-1.00,3.42,2.32,-0.37
11.5860,0.05,0.11,-0.99,3.30,2.93,-0.67
11.6040,0.04,0.10,-1.00,3.23,2.81,-0.67
11.6190,0.04,0.11,-1.00,3.85,3.23,-2.01
11.6350,0.05,0.13,-0.99,3.78,3.48,-2.38
11.6510,0.07,0.12,-1.00,2.99,2.93,-0.98
11.6670,0.06,0.11,-0.99,3.48,3.05,0.55
11.6820,0.04,0.10,-1.00,3.23,3.17,0.55
11.6970,0.03,0.11,-1.00,3.48,3.05,0.49
11.7030,0.04,0.12,-1.00,4.09,2.56,-0.37
11.7190,0.06,0.12,-0.99,3.78,2.56,-0.61
11.7410,0.05,0.12,-0.99,3.48,2.81,0.37
11.7570,0.04,0.13,-1.00,3.60,2.69,0.06
11.7750,0.04,0.14,-0.99,3.97,2.81,-0.61
11.7920,0.06,0.14,-0.99,3.30,2.32,-0.37
11.8070,0.06,0.14,-0.99,3.30,2.26,1.28
11.8240,0.05,0.13,-0.99,3.17,2.50,1.59
11.8400,0.05,0.13,-0.99,3.30,2.44,1.34
11.8560,0.04,0.12,-1.00,3.17,2.38,1.53
11.8720,0.04,0.11,-1.00,3.48,2.38,1.65
11.8880,0.05,0.11,-1.00,3.42,2.44,0.98
11.8920,0.05,0.11,-1.00,3.17,2.62,0.79
11.9090,0.04,0.11,-1.00,3.23,2.69,0.67
11.9320,0.05,0.11,-1.00,3.36,2.26,0.61
11.9450,0.04,0.12,-1.00,3.23,2.50,0.67
11.9620,0.04,0.11,-1.00,3.60,2.50,0.43
11.9790,0.05,0.11,-0.99,3.42,2.20,-0.24
11.9950,0.05,0.11,-0.99,3.66,2.32,-0.31
12.0110,0.05,0.12,-0.99,3.17,2.69,-0.55
12.0280,0.04,0.12,-1.00,3.54,3.30,-0.18
12.0450,0.05,0.12,-0.99,3.66,2.99,-0.85
12.0610,0.06,0.13,-0.99,3.60,2.75,-0.98
12.0770,0.06,0.14,-0.99,3.36,2.81,0.18
12.0780,0.06,0.13,-0.99,3.36,2.69,1.04
12.1090,0.04,0.12,-1.00,2.93,2.56,1.83
12.1120,0.03,0.11,-1.00,3.60,2.26,1.71
12.1330,0.05,0.11,-1.00,3.30,2.26,1.53
12.1440,0.04,0.11,-1.00,3.30,2.56,1.28
12.1660,0.04,0.12,-1.00,3.60,2.62,0.49
12.1900,0.04,0.12,-0.99,3.42,2.26,0.18
12.1990,0.05,0.12,-0.99,3.42,2.01,0.43
12.2160,0.06,0.11,-0.99,3.36,2.75,0.12
12.2330,0.06,0.11,-0.99,3.11,2.99,-0.06
12.2480,0.05,0.12,-0.99,3.48,2.81,-0.18
12.2660,0.04,0.13,-1.00,3.78,2.81,-1.46
12.2820,0.05,0.13,-0.99,3.36,2.56,-1.22
12.2970,0.05,0.12,-0.99,3.36,2.44,-0.24
12.3140,0.05,0.13,-0.99,3.72,2.50,-0.12
12.3300,0.05,0.14,-0.99,3.72,2.87,0.12
12.3320,0.04,0.14,-1.00,3.66,2.69,0.92
12.3620,0.05,0.13,-1.00,3.42,2.38,1.16
12.3770,0.06,0.12,-1.00,3.30,2.26,1.40
12.3830,0.05,0.11,-0.99,3.11,2.32,1.34
12.3980,0.04,0.11,-1.00,3.11,2.44,1.28
12.4200,0.04,0.11,-1.00,3.30,2.26,1.28
12.4370,0.05,0.10,-1.00,3.23,2.44,0.79
12.4530,0.05,0.11,-0.99,3.42,2.62,0.67
12.4690,0.05,0.10,-1.00,3.23,2.87,0.37
12.4860,0.04,0.11,-1.00,3.30,2.87,0.00
12.4880,0.04,0.09,-1.00,3.36,2.81,-0.18
12.5040,0.04,0.07,-1.00,3.72,2.93,-2.62
12.5200,0.05,0.08,-1.00,3.60,3.60,-5.00
12.5480,0.04,0.08,-1.00,4.15,3.78,-5.98
12.5640,0.04,0.09,-1.00,4.64,4.03,-6.65
12.5800,0.05,0.12,-1.00,4.46,4.15,-7.63
12.5940,0.05,0.16,-0.99,4.39,3.97,-6.96
12.6030,0.06,0.16,-0.99,3.72,3.36,-3.54
12.6210,0.05,0.13,-0.99,3.42,2.56,-0.55
12.6380,0.05,0.12,-0.99,3.30,2.75,-0.43
12.6530,0.05,0.12,-1.00,3.48,2.99,-1.34
12.6700,0.05,0.12,-0.99,3.60,3.05,-1.71
12.6870,0.05,0.12,-0.99,3.72,3.11,-1.89
12.7040,0.05,0.11,-0.99,3.66,3.36,-3.17
12.7210,0.04,0.11,-1.00,3.97,3.36,-3.54
12.7360,0.05,0.13,-0.99,3.66,3.42,-3.97
12.7530,0.05,0.15,-0.99,3.78,3.42,-3.23
12.7680,0.05,0.13,-0.99,3.23,2.69,-0.92
12.7700,0.05,0.11,-0.99,3.66,2.62,-0.92
12.8010,0.05,0.11,-0.99,3.42,2.69,-2.26
12.8150,0.05,0.11,-1.00,3.78,3.11,-3.05
12.8300,0.05,0.10,-1.00,3.97,3.36,-3.97
12.8370,0.05,0.10,-1.00,3.85,3.54,-3.91
12.8530,0.05,0.12,-0.99,3.97,3.54,-4.15
12.8730,0.05,0.14,-0.99,4.09,3.48,-4.94
12.8900,0.04,0.16,-0.99,3.97,3.17,-4.27
12.9070,0.05,0.15,-0.99,3.36,2.69,-1.10
12.9230,0.05,0.14,-0.99,2.99,2.50,0.67
12.9390,0.05,0.12,-0.99,3.23,2.32,1.77
12.9400,0.05,0.12,-0.99,3.17,2.32,1.71
12.9710,0.05,0.12,-0.99,3.17,2.44,1.83
12.9870,0.05,0.12,-0.99,3.23,2.50,1.95
13.0030,0.05,0.12,-0.99,3.17,2.56,1.71
13.0180,0.05,0.12,-0.99,3.48,2.32,1.65
13.0330,0.05,0.12,-0.99,3.23,2.56,1.46
13.0400,0.05,0.13,-0.99,3.30,2.81,1.53
13.0560,0.05,0.12,-0.99,3.36,2.32,1.65
13.0720,0.05,0.12,-0.99,3.30,1.95,1.59
13.0940,0.05,0.12,-0.99,3.11,2.32,1.65
13.1090,0.04,0.11,-1.00,3.05,2.32,1.59
13.1270,0.04,0.12,-1.00,3.54,2.26,1.71
13.1430,0.05,0.11,-1.00,3.30,2.26,1.71
13.1590,0.05,0.11,-0.99,2.99,2.50,1.65
13.1750,0.04,0.12,-1.00,3.17,1.77,1.46
13.1770,0.05,0.12,-0.99,2.87,2.62,1.59
13.2070,0.05,0.12,-0.99,3.42,2.08,1.65
13.2230,0.05,0.13,-0.99,3.23,1.95,1.77
13.2390,0.05,0.13,-0.99,3.23,1.89,1.40
13.2440,0.05,0.12,-0.99,3.30,2.01,1.59
13.2710,0.05,0.13,-0.99,3.23,2.14,1.59
13.2860,0.05,0.13,-0.99,2.93,2.38,1.71
13.3020,0.05,0.13,-0.99,2.99,2.08,1.65
13.3100,0.05,0.13,-0.99,2.69,2.38,1.65
13.3270,0.05,0.13,-0.99,2.69,2.26,1.59
13.3440,0.05,0.13,-0.99,2.75,2.38,1.71
13.3600,0.05,0.14,-0.99,2.93,2.01,1.46
13.3770,0.08,0.19,-0.98,2.93,2.08,1.77
13.3930,0.04,0.09,-0.99,4.15,1.95,-1.53
13.3950,0.03,0.13,-1.00,4.03,2.01,2.14
13.4100,0.03,0.15,-1.01,3.85,0.98,1.22
13.4410,0.05,0.15,-1.00,4.27,-0.12,-0.67
13.4430,0.02,0.06,-0.99,3.97,-1.34,4.33
13.4720,0.06,0.10,-0.89,3.66,-0.73,5.80
13.4760,0.09,0.11,-0.98,2.62,1.16,1.04
13.4930,0.09,0.10,-0.98,3.11,1.77,2.26
13.5100,0.03,0.14,-1.00,3.17,2.50,2.01
13.5310,0.04,0.10,-1.00,3.17,2.32,1.46
13.5480,0.05,0.10,-1.00,3.11,2.08,3.05
13.5650,0.04,0.12,-1.00,3.17,2.20,2.01
13.5800,0.07,0.09,-0.99,3.30,2.08,1.65
13.5970,0.05,0.07,-1.00,3.11,2.69,3.42
13.6130,-0.00,0.11,-1.01,3.36,2.32,2.32
13.6290,0.06,0.07,-0.99,3.17,1.83,1.34
13.6350,0.07,0.07,-0.99,3.05,2.14,2.87
13.6480,0.03,0.10,-1.00,3.66,2.50,2.20
13.6640,0.04,0.08,-1.00,3.42,2.38,1.89
13.6790,0.04,0.09,-1.00,3.23,2.01,4.52
13.7010,0.03,0.12,-1.00,2.87,1.95,6.29
13.7190,0.06,0.10,-0.99,2.87,1.10,7.75
13.7350,0.05,0.11,-0.99,2.62,1.71,10.19
13.7520,0.03,0.13,-1.00,2.75,1.40,10.25
13.7670,0.06,0.12,-0.99,2.75,1.16,7.20
13.7700,0.08,0.12,-0.98,2.75,0.98,7.14
13.7980,0.07,0.13,-0.99,2.93,1.65,7.32
13.8150,0.05,0.13,-0.99,2.93,2.26,5.07
13.8290,0.05,0.14,-0.99,3.11,2.32,4.09
13.8450,0.05,0.15,-0.99,3.05,2.01,3.23
13.8610,0.06,0.15,-0.99,3.11,2.32,2.14
13.8760,0.07,0.14,-0.98,3.11,2.44,2.20
13.8910,0.04,0.15,-0.99,3.42,2.01,2.26
13.9020,0.04,0.15,-0.99,3.23,2.38,1.89
13.9180,0.07,0.14,-0.99,3.17,1.53,2.20
13.9360,0.07,0.14,-0.99,3.36,2.32,2.32
13.9520,0.06,0.14,-0.99,3.23,2.01,1.95
13.9680,0.05,0.14,-0.99,3.30,2.32,2.14
13.9830,0.04,0.14,-1.00,3.11,2.38,2.20
13.9980,0.06,0.13,-0.99,3.17,1.95,1.95
14.0020,0.06,0.12,-0.99,3.23,2.44,2.08
14.0180,0.04,0.12,-1.00,3.42,2.14,2.14
14.0410,0.04,0.12,-1.00,3.30,2.32,1.89
14.0580,0.05,0.11,-1.00,2.99,2.08,1.83
14.0750,0.06,0.11,-0.99,2.99,1.59,2.20
14.0920,0.06,0.11,-0.99,3.23,2.08,2.08
14.1090,0.04,0.10,-1.00,3.17,2.44,1.77
14.1250,0.04,0.11,-1.00,3.23,2.14,1.77
14.1410,0.05,0.10,-1.00,2.93,2.50,1.77
14.1580,0.06,0.10,-0.99,3.30,2.26,1.89
14.1730,0.04,0.10,-1.00,3.17,2.44,2.32
14.1890,0.04,0.10,-1.00,3.30,2.38,2.38
14.2040,0.04,0.10,-1.00,3.05,2.38,2.50
14.2090,0.05,0.11,-0.99,3.05,1.59,4.21
14.2350,0.05,0.11,-0.99,2.69,1.83,6.77
14.2500,0.05,0.11,-1.00,2.62,1.89,8.79
14.2590,0.04,0.11,-1.00,2.62,1.65,8.91
14.2810,0.04,0.11,-1.00,2.75,1.95,8.24
14.2920,0.06,0.11,-0.99,2.69,2.14,7.75
14.3080,0.06,0.12,-0.99,2.87,1.71,7.51
14.3270,0.05,0.12,-1.00,2.81,2.08,7.20
14.3430,0.05,0.12,-1.00,3.11,1.89,5.98
14.3580,0.06,0.12,-0.99,3.05,2.26,4.09
14.3740,0.06,0.12,-0.99,3.23,2.26,2.75
14.3890,0.06,0.13,-0.99,3.30,2.44,2.69
14.4050,0.05,0.13,-1.00,3.23,2.62,2.32
14.4090,0.05,0.13,-0.99,3.23,2.20,1.95
14.4240,0.06,0.13,-0.99,3.23,2.44,2.08
14.4470,0.06,0.13,-0.99,3.05,2.38,2.14
14.4640,0.06,0.13,-0.99,3.05,2.44,2.01
14.4810,0.05,0.13,-0.99,3.11,2.38,1.89
14.4970,0.05,0.13,-0.99,3.23,2.01,2.01
14.4980,0.06,0.13,-0.99,3.23,2.44,1.83
14.5290,0.06,0.12,-0.99,3.17,2.26,2.08
14.5450,0.05,0.12,-0.99,3.30,2.50,1.83
14.5610,0.04,0.12,-1.00,3.23,2.32,1.89
14.5770,0.05,0.12,-0.99,3.30,2.69,1.89
14.5820,0.06,0.11,-0.99,3.36,2.20,1.95
14.6080,0.05,0.11,-0.99,3.23,2.14,1.83
14.6240,0.05,0.11,-1.00,3.11,2.32,1.95
14.6370,0.05,0.11,-1.00,3.17,2.44,2.01
14.6540,0.06,0.11,-0.99,3.23,2.38,1.89
14.6650,0.05,0.11,-0.99,3.36,2.38,1.95
14.6800,0.05,0.11,-1.00,3.30,2.44,1.89
14.6970,0.04,0.11,-1.00,3.42,2.69,1.77
14.7140,0.05,0.11,-1.00,3.23,2.44,1.77
14.7300,0.05,0.11,-0.99,3.23,2.50,1.83
14.7470,0.05,0.11,-0.99,3.42,2.44,1.83
14.7480,0.05,0.11,-1.00,3.42,2.69,1.77
14.7780,0.05,0.12,-1.00,3.60,2.32,2.01
14.7810,0.05,0.12,-0.99,3.48,2.20,1.77
14.7980,0.06,0.12,-0.99,3.11,2.93,1.83
14.8140,0.05,0.12,-0.99,3.30,2.62,1.71
14.8380,0.05,0.12,-1.00,3.36,2.75,2.01
14.8480,0.05,0.12,-1.00,3.30,2.75,1.95
14.8650,0.05,0.12,-0.99,3.11,2.62,1.89
14.8810,0.06,0.12,-0.99,3.36,2.69,1.89
14.8980,0.05,0.13,-0.99,3.30,2.44,1.89
14.9130,0.05,0.13,-0.99,3.30,2.26,1.83
14.9150,0.05,0.13,-0.99,3.48,2.69,1.89
14.9460,0.05,0.13,-0.99,3.17,2.81,1.77
14.9490,0.06,0.12,-0.99,3.23,2.56,1.77
14.9650,0.05,0.12,-0.99,3.17,2.62,1.89
14.9940,0.05,0.12,-1.00,3.36,2.87,2.01
15.0090,0.05,0.12,-0.99,3.42,2.32,1.77
15.0140,0.06,0.12,-0.99,3.30,2.32,2.01
15.0390,0.05,0.12,-0.99,3.23,2.32,1.83
15.0470,0.05,0.12,-0.99,3.23,2.38,1.89
15.0640,0.05,0.12,-0.99,3.30,2.69,1.89
15.0810,0.05,0.11,-0.99,3.48,2.20,1.89
15.0970,0.05,0.11,-0.99,3.30,2.50,2.01
15.1140,0.05,0.11,-0.99,3.36,2.38,1.95
15.1310,0.05,0.11,-1.00,3.42,2.87,1.89
15.1470,0.05,0.11,-1.00,3.23,2.38,1.89
15.1660,0.05,0.11,-0.99,3.30,2.44,1.89
15.1820,0.06,0.11,-0.99,3.66,2.87,2.01
15.2000,0.05,0.11,-1.00,3.36,2.87,1.89
15.2150,0.05,0.12,-1.00,3.23,2.75,1.83
15.2300,0.05,0.12,-1.00,3.42,2.69,1.89
15.2380,0.05,0.12,-0.99,3.60,2.50,2.01
15.2620,0.05,0.12,-0.99,2.99,3.11,1.89
15.2680,0.05,0.12,-0.99,3.42,2.62,1.83
15.2840,0.05,0.12,-0.99,3.48,2.87,1.83
15.3060,0.05,0.12,-0.99,3.23,2.81,1.95
15.3220,0.06,0.12,-0.99,3.36,2.87,1.83
15.3390,0.05,0.12,-0.99,3.42,2.62,1.77
15.3560,0.05,0.12,-0.99,3.23,2.75,1.89
15.3720,0.05,0.12,-0.99,3.23,2.75,1.95
15.3900,0.05,0.12,-0.99,3.30,2.44,1.95
15.4050,0.05,0.12,-0.99,3.17,2.38,1.89
15.4220,0.05,0.12,-0.99,3.23,2.38,1.83
15.4370,0.05,0.12,-0.99,3.30,2.38,1.83
15.4530,0.05,0.12,-0.99,3.23,2.75,1.83
15.4680,0.05,0.12,-0.99,3.36,2.32,1.89
15.4830,0.05,0.12,-0.99,3.17,2.62,1.77
15.4980,0.05,0.12,-1.00,3.30,2.08,1.65
15.5130,0.05,0.12,-0.99,3.36,2.38,1.83
15.5280,0.05,0.11,-0.99,3.23,2.38,1.77
15.5390,0.05,0.11,-0.99,3.42,2.20,1.89
15.5550,0.05,0.11,-0.99,3.42,2.32,1.77
15.5720,0.05,0.11,-1.00,3.23,2.50,1.71
15.5890,0.05,0.11,-0.99,3.30,2.26,1.83
15.6060,0.05,0.11,-0.99,3.17,2.50,1.83
15.6210,0.05,0.11,-0.99,3.30,2.20,1.83
15.6370,0.05,0.12,-1.00,3.42,2.50,1.95
15.6530,0.05,0.12,-0.99,3.30,2.26,1.89
15.6680,0.05,0.12,-0.99,3.23,2.14,1.83
15.6830,0.05,0.12,-0.99,3.42,2.14,1.83
15.6980,0.05,0.12,-0.99,3.30,2.56,1.83
15.7130,0.05,0.12,-0.99,3.36,2.38,1.77
15.7220,0.05,0.12,-0.99,3.30,2.32,1.83
15.7400,0.05,0.12,-0.99,3.42,2.01,1.83
15.7550,0.05,0.12,-0.99,3.36,2.50,1.83
15.7720,0.05,0.12,-0.99,3.17,2.44,1.71
15.7880,0.05,0.12,-0.99,3.36,2.38,1.77
15.8050,0.05,0.12,-0.99,3.36,2.20,1.83
15.8210,0.05,0.12,-0.99,3.36,2.20,1.83
15.8230,0.05,0.12,-0.99,3.36,2.20,1.95
15.8530,0.05,0.12,-0.99,3.36,2.26,1.77
15.8680,0.05,0.12,-0.99,3.36,2.38,1.71
15.8830,0.05,0.12,-0.99,3.23,2.62,1.77
15.8980,0.05,0.12,-0.99,3.23,2.69,1.89
15.9130,0.05,0.12,-0.99,3.30,2.69,1.83
15.9280,0.05,0.12,-1.00,3.30,2.81,1.71
15.9400,0.05,0.12,-0.99,3.42,2.26,1.89
15.9550,0.05,0.12,-1.00,3.11,2.69,1.83
15.9710,0.05,0.11,-0.99,3.36,2.38,1.89
15.9880,0.05,0.12,-0.99,3.42,2.38,1.95
16.0040,0.05,0.12,-0.99,3.05,2.87,1.77
16.0190,0.05,0.12,-0.99,3.17,2.44,1.83
16.0340,0.05,0.12,-0.99,3.36,2.26,1.77
16.0400,0.05,0.12,-0.99,3.42,2.62,1.77
16.0540,0.05,0.12,-0.99,3.42,2.01,1.83
16.0790,0.05,0.12,-1.00,3.30,2.62,1.77
16.0810,0.05,0.12,-0.99,3.23,2.14,1.77
16.1110,0.05,0.12,-0.99,3.23,2.50,1.89
16.1280,0.05,0.12,-0.99,3.23,2.38,1.89
16.1430,0.05,0.12,-0.99,3.42,2.20,1.89
16.1590,0.05,0.12,-0.99,3.36,2.08,1.77
16.1750,0.05,0.12,-0.99,3.42,1.71,1.83
16.1810,0.05,0.12,-0.99,3.17,2.38,1.89
16.1970,0.05,0.12,-0.99,3.17,2.56,1.77
16.2190,0.05,0.12,-0.99,3.23,2.62,1.77
16.2360,0.05,0.12,-0.99,3.42,2.14,1.71
16.2520,0.05,0.12,-0.99,3.23,2.56,1.95
16.2690,0.05,0.12,-0.99,3.42,2.26,1.89
16.2710,0.05,0.12,-0.99,3.36,2.50,1.77
16.2990,0.05,0.12,-0.99,3.17,2.50,1.77
16.3150,0.05,0.12,-0.99,3.30,2.50,1.95
16.3210,0.05,0.12,-0.99,3.30,2.08,1.71
16.3400,0.05,0.12,-0.99,3.23,2.26,1.71
16.3590,0.05,0.12,-0.99,3.11,2.50,1.71
16.3760,0.05,0.12,-0.99,3.42,2.14,1.95
16.3930,0.05,0.12,-0.99,3.48,2.26,1.77
16.4090,0.05,0.12,-0.99,3.48,2.44,1.89
16.4260,0.05,0.12,-0.99,3.42,2.44,1.77
16.4410,0.05,0.12,-1.00,3.36,2.69,1.71
16.4560,0.05,0.12,-1.00,3.48,2.32,1.83
16.4600,0.05,0.12,-1.00,3.36,2.56,1.83
16.4770,0.05,0.12,-1.00,3.30,2.38,1.83
16.4930,0.05,0.12,-0.99,3.36,2.44,1.83
16.5080,0.05,0.12,-0.99,3.36,2.50,1.71
16.5280,0.05,0.12,-1.00,3.23,2.50,1.77
16.5460,0.05,0.12,-0.99,3.36,2.26,1.83
16.5620,0.05,0.12,-0.99,3.36,2.08,1.83
16.5790,0.05,0.12,-0.99,3.23,2.20,1.77
16.5800,0.05,0.12,-0.99,3.36,2.32,1.89
16.6110,0.05,0.12,-0.99,3.36,2.26,1.71
16.6130,0.05,0.12,-0.99,3.54,2.32,1.77
16.6410,0.05,0.12,-0.99,3.42,2.50,1.77
16.6460,0.05,0.12,-0.99,3.05,2.62,1.71
16.6610,0.05,0.12,-0.99,3.30,2.38,1.83
16.6910,0.05,0.12,-0.99,3.30,2.20,1.83
16.7070,0.05,0.12,-0.99,2.99,2.62,1.83
16.7220,0.05,0.12,-1.00,3.30,2.44,1.71
16.7280,0.05,0.12,-1.00,3.23,2.08,1.71
16.7460,0.05,0.12,-1.00,3.17,2.08,1.65
16.7630,0.05,0.12,-0.99,3.30,2.50,1.95
16.7840,0.05,0.12,-0.99,3.17,2.38,1.77
16.8030,0.05,0.12,-1.00,3.30,2.38,1.71
16.8150,0.05,0.12,-0.99,3.17,2.50,1.77
16.8310,0.05,0.12,-0.99,3.42,2.14,1.77
16.8470,0.05,0.12,-0.99,3.30,2.38,1.83
16.8540,0.05,0.12,-0.99,3.36,2.32,1.77
16.8690,0.05,0.12,-1.00,3.30,2.69,1.83
16.8850,0.05,0.12,-0.99,3.17,3.11,1.83
16.9080,0.05,0.12,-0.99,3.23,2.38,1.89
16.9250,0.05,0.12,-0.99,3.23,2.99,1.95
16.9410,0.05,0.12,-0.99,3.30,2.32,1.89
16.9420,0.05,0.12,-0.99,3.11,2.69,1.83
16.9720,0.05,0.12,-0.99,3.11,2.81,1.83
16.9860,0.05,0.12,-0.99,3.05,2.81,1.83
17.0030,0.05,0.12,-0.99,3.05,2.87,1.83
17.0190,0.05,0.12,-0.99,3.17,2.62,1.89
17.0250,0.05,0.12,-0.99,3.17,2.44,1.83
17.0420,0.05,0.12,-0.99,3.17,2.56,1.77
17.0580,0.05,0.12,-0.99,3.36,2.38,1.77
17.0740,0.05,0.12,-0.99,3.23,2.50,1.77
17.0940,0.05,0.12,-0.99,3.36,2.26,1.77
17.1110,0.05,0.12,-0.99,3.17,2.14,1.71
17.1280,0.05,0.12,-0.99,3.11,2.62,1.83
17.1440,0.05,0.12,-0.99,3.05,2.50,1.77
17.1610,0.05,0.12,-0.99,3.30,2.44,1.77
17.1770,0.05,0.12,-0.99,3.23,2.69,1.95
17.1930,0.05,0.12,-0.99,3.11,2.50,1.89
17.2100,0.05,0.12,-0.99,3.23,2.62,1.77
17.2110,0.05,0.12,-0.99,3.30,2.69,1.89
17.2410,0.05,0.12,-0.99,3.30,2.69,1.89
17.2440,0.05,0.12,-0.99,3.30,2.14,1.77
17.2600,0.05,0.12,-0.99,3.30,2.69,1.83
17.2760,0.05,0.12,-0.99,3.30,2.75,1.95
17.2970,0.05,0.12,-0.99,3.30,2.50,1.83
17.3130,0.05,0.12,-0.99,3.30,2.50,1.71
17.3310,0.05,0.12,-0.99,3.17,2.75,1.83
17.3470,0.05,0.12,-0.99,3.23,2.56,1.77
17.3620,0.05,0.12,-0.99,3.36,2.75,1.89
17.3780,0.05,0.12,-0.99,3.30,2.50,1.95
17.3930,0.05,0.12,-0.99,3.17,2.69,1.83
17.4080,0.05,0.12,-0.99,3.30,2.44,1.77
17.4130,0.05,0.12,-0.99,3.36,2.81,1.83
17.4380,0.05,0.12,-0.99,3.23,2.81,1.95
17.4460,0.05,0.12,-0.99,3.23,2.81,1.83
17.4630,0.05,0.12,-0.99,3.17,2.56,1.77
17.4800,0.05,0.12,-0.99,3.17,2.44,1.83
17.4960,0.05,0.12,-1.00,3.23,2.75,2.01
17.5150,0.05,0.12,-0.99,3.23,2.93,1.89
17.5300,0.05,0.12,-0.99,3.30,2.62,1.89
17.5450,0.05,0.12,-0.99,3.36,2.50,1.83
17.5510,0.05,0.12,-0.99,3.30,2.50,1.77
17.5670,0.05,0.12,-1.00,3.17,2.81,1.83
17.5880,0.05,0.12,-0.99,3.36,2.38,1.89
17.6050,0.05,0.12,-1.00,3.36,2.14,1.83
17.6210,0.05,0.12,-1.00,3.17,2.81,1.89
17.6390,0.05,0.12,-0.99,3.48,2.44,1.77
17.6550,0.05,0.12,-0.99,3.36,2.38,1.83
17.6720,0.05,0.12,-1.00,3.11,2.75,1.95
17.6880,0.05,0.12,-0.99,3.36,2.69,1.83
17.7030,0.05,0.12,-0.99,3.48,2.20,1.77
17.7190,0.05,0.12,-0.99,3.42,2.56,1.89
17.7350,0.05,0.12,-0.99,3.36,2.75,1.83
17.7500,0.05,0.12,-0.99,3.30,2.44,1.77
17.7650,0.05,0.12,-0.99,3.42,2.44,1.77
17.7720,0.05,0.12,-0.99,3.36,2.56,1.77
17.7880,0.05,0.12,-0.99,3.42,2.14,1.71
17.8090,0.05,0.12,-0.99,3.48,2.01,1.71
17.8270,0.05,0.12,-0.99,3.42,2.26,2.01
17.8430,0.05,0.12,-0.99,3.36,2.62,1.95
17.8590,0.05,0.12,-0.99,3.17,2.26,1.77
17.8750,0.05,0.12,-0.99,3.11,2.50,1.89
17.8770,0.05,0.12,-1.00,3.36,2.38,1.77
17.8920,0.05,0.12,-0.99,3.30,2.50,1.89
17.9090,0.05,0.12,-0.99,3.42,2.14,1.77
17.9260,0.05,0.12,-0.99,3.30,2.56,1.65
17.9430,0.05,0.12,-0.99,3.05,2.75,1.89
17.9710,0.05,0.12,-0.99,3.36,2.50,1.77
17.9860,0.05,0.12,-0.99,3.42,2.62,1.77
17.9950,0.05,0.12,-0.99,3.23,2.56,1.89
18.0120,0.05,0.12,-0.99,3.11,2.69,1.89
18.0290,0.05,0.12,-1.00,2.99,2.99,1.83
18.0450,0.05,0.12,-0.99,3.48,2.26,1.83
18.0620,0.05,0.12,-0.99,3.30,2.26,1.77
18.0780,0.05,0.12,-0.99,3.30,2.56,1.95
18.0950,0.05,0.12,-0.99,3.30,2.81,2.01
18.1120,0.05,0.12,-0.99,3.42,2.62,1.83
18.1290,0.05,0.12,-0.99,3.36,2.56,1.95
18.1460,0.05,0.12,-0.99,3.48,2.62,1.77
18.1620,0.05,0.12,-0.99,3.17,2.38,1.95
18.1780,0.05,0.12,-0.99,3.36,2.38,1.71
18.1940,0.05,0.12,-0.99,3.42,2.56,1.83
18.1960,0.05,0.12,-0.99,3.30,2.38,1.77
18.2260,0.05,0.12,-0.99,3.30,2.26,1.77
18.2290,0.05,0.12,-0.99,3.05,2.50,1.83
18.2580,0.05,0.12,-0.99,3.36,2.38,1.77
18.2740,0.05,0.12,-0.99,3.23,2.62,1.89
18.2890,0.05,0.12,-0.99,3.42,2.44,1.83
18.3060,0.05,0.12,-0.99,3.36,2.26,1.83
18.3210,0.05,0.12,-0.99,3.30,2.38,1.77
18.3370,0.05,0.12,-0.99,3.23,2.44,1.89
18.3520,0.05,0.12,-0.99,3.23,2.20,1.83
18.3610,0.05,0.12,-0.99,3.23,2.44,1.89
18.3780,0.05,0.12,-0.99,3.36,2.32,1.77
18.3950,0.05,0.12,-0.99,3.36,2.50,2.01
18.4120,0.05,0.12,-0.99,3.30,2.38,1.89
18.4290,0.05,0.12,-0.99,3.30,2.08,1.89
18.4430,0.05,0.12,-0.99,3.17,2.26,1.77
18.4600,0.05,0.12,-0.99,3.42,2.69,1.77
18.4620,0.05,0.12,-0.99,3.36,2.38,1.83
18.4790,0.05,0.12,-0.99,3.30,2.44,1.89
18.5070,0.05,0.12,-0.99,3.42,2.44,1.77
18.5230,0.05,0.12,-0.99,3.36,2.32,1.89
18.5380,0.05,0.12,-0.99,3.23,2.20,1.83
18.5450,0.05,0.12,-0.99,3.17,2.50,1.83
18.5610,0.05,0.12,-0.99,3.30,2.62,1.77
18.5830,0.05,0.12,-0.99,3.30,2.44,1.83
18.5980,0.05,0.12,-0.99,3.30,2.75,1.89
18.6140,0.05,0.12,-0.99,3.05,2.44,1.77
18.6300,0.05,0.12,-0.99,3.17,2.20,1.77
18.6450,0.05,0.12,-0.99,3.30,2.08,1.83
18.6610,0.05,0.12,-0.99,3.30,2.20,1.89
18.6770,0.05,0.12,-0.99,3.23,2.20,1.83
18.6920,0.05,0.12,-0.99,3.54,2.44,1.95
18.7070,0.05,0.12,-0.99,3.36,2.38,2.01
18.7160,0.05,0.12,-1.00,3.42,2.14,1.83
18.7320,0.05,0.12,-0.99,3.42,2.14,1.71
18.7500,0.05,0.12,-1.00,3.42,2.44,1.77
18.7660,0.05,0.12,-0.99,3.48,2.38,1.95
18.7820,0.05,0.12,-0.99,3.23,2.38,1.83
18.7970,0.05,0.12,-1.00,3.30,2.81,1.83
18.8140,0.05,0.12,-0.99,3.42,2.50,1.71
18.8290,0.05,0.12,-1.00,3.30,2.69,1.77
18.8460,0.05,0.12,-0.99,3.48,2.26,1.77
18.8610,0.05,0.12,-1.00,3.30,2.62,1.77
18.8660,0.05,0.12,-0.99,3.17,2.50,1.89
18.8830,0.05,0.12,-0.99,3.36,2.26,1.89
18.9060,0.05,0.12,-0.99,3.30,2.62,1.89
18.9230,0.05,0.12,-0.99,3.42,2.56,1.95
18.9390,0.05,0.12,-0.99,3.11,2.93,1.89
18.9560,0.05,0.12,-1.00,3.23,2.50,1.71
18.9710,0.05,0.12,-0.99,3.42,2.32,1.89
18.9870,0.05,0.12,-0.99,3.36,2.56,1.95
19.0030,0.05,0.12,-0.99,3.42,2.32,1.77
19.0060,0.05,0.12,-0.99,3.30,2.50,1.83
19.0220,0.05,0.12,-0.99,3.36,2.20,1.77
19.0450,0.05,0.12,-0.99,3.36,2.50,1.89
19.0620,0.05,0.12,-0.99,3.54,2.44,1.83
19.0780,0.05,0.12,-1.00,3.36,2.50,1.89
19.0950,0.05,0.12,-0.99,3.42,2.44,1.95
19.1100,0.05,0.12,-0.99,3.30,2.14,1.71
19.1130,0.05,0.12,-0.99,3.11,2.56,1.77
19.1280,0.05,0.12,-0.99,3.23,2.69,1.77
19.1450,0.05,0.12,-1.00,3.42,2.20,1.77
19.1730,0.05,0.12,-0.99,3.36,2.38,1.77
19.1880,0.05,0.12,-0.99,3.30,2.50,1.89
19.1970,0.05,0.12,-1.00,3.23,2.44,1.83
19.2140,0.05,0.12,-0.99,3.17,2.26,1.77
19.2310,0.05,0.12,-0.99,3.36,2.08,1.89
19.2470,0.05,0.12,-0.99,3.36,2.56,1.77
19.2650,0.05,0.12,-0.99,3.30,2.32,1.77
19.2800,0.05,0.12,-1.00,3.17,2.69,1.77
19.2960,0.05,0.12,-0.99,3.42,2.50,1.95
19.3120,0.05,0.12,-0.99,3.42,2.14,1.77
19.3150,0.05,0.12,-0.99,3.30,1.89,1.71
19.3440,0.05,0.12,-1.00,3.42,2.32,1.65
19.3470,0.05,0.12,-0.99,3.23,2.08,2.01
19.3760,0.05,0.12,-0.99,3.23,2.81,1.95
19.3910,0.05,0.12,-0.99,3.36,2.62,1.83
19.3970,0.05,0.12,-0.99,3.60,2.38,1.89
19.4130,0.05,0.12,-0.99,3.30,2.93,1.95
19.4370,0.05,0.12,-0.99,3.23,2.44,1.89
19.4450,0.05,0.12,-1.00,3.48,2.69,1.95
19.4690,0.05,0.12,-0.99,3.36,2.62,1.83
19.4860,0.05,0.12,-0.99,3.11,2.56,1.83
19.5010,0.05,0.12,-0.99,3.48,2.62,1.83
19.5150,0.05,0.12,-0.99,3.42,2.50,1.95
19.5220,0.05,0.12,-0.99,3.30,2.38,1.77
19.5450,0.05,0.12,-0.99,3.54,2.26,1.83
19.5610,0.05,0.12,-0.99,3.60,2.26,1.95
19.5780,0.05,0.12,-0.99,3.30,2.26,1.83
19.5930,0.05,0.12,-0.99,3.23,2.20,1.77
19.6100,0.05,0.12,-0.99,3.23,2.69,1.89
19.6260,0.05,0.12,-1.00,3.23,2.50,1.89
19.6410,0.05,0.12,-0.99,3.48,2.69,1.77
19.6570,0.05,0.12,-0.99,3.36,2.56,1.89
19.6630,0.05,0.12,-0.99,3.36,2.69,1.89
19.6790,0.05,0.12,-0.99,3.48,2.50,1.89
19.7020,0.05,0.12,-0.99,3.48,2.56,1.83
19.7030,0.05,0.12,-1.00,3.11,2.62,1.95
19.7320,0.05,0.12,-0.99,3.48,2.38,1.83
19.7480,0.05,0.12,-0.99,3.30,2.62,1.77
19.7640,0.05,0.12,-0.99,3.36,2.38,1.71
19.7790,0.05,0.12,-0.99,3.36,2.87,1.89
19.7850,0.05,0.12,-0.99,3.23,2.32,1.89
19.8000,0.05,0.12,-1.00,3.23,2.69,1.77
19.8250,0.05,0.12,-1.00,3.30,2.56,1.83
19.8420,0.05,0.12,-0.99,3.42,2.56,1.95
19.8580,0.05,0.12,-0.99,3.54,2.69,1.83
19.8730,0.05,0.12,-1.00,3.42,2.44,1.83
19.8740,0.05,0.12,-0.99,3.36,2.56,1.77
19.8910,0.05,0.12,-0.99,3.17,2.38,1.83
19.9080,0.05,0.12,-0.99,3.60,1.95,1.59
19.9230,0.05,0.12,-0.99,3.36,2.56,1.83
19.9450,0.05,0.12,-1.00,3.30,2.62,1.89
19.9570,0.05,0.12,-0.99,3.36,2.44,1.83
19.9740,0.05,0.12,-0.99,3.36,2.50,1.77
19.9900,0.05,0.12,-0.99,3.36,2.44,1.77
20.0070,0.05,0.12,-0.99,3.48,2.26,1.77
20.0230,0.05,0.12,-0.99,3.23,2.56,1.77
20.0420,0.05,0.12,-0.99,3.36,2.20,1.71
20.0450,0.05,0.12,-0.99,3.30,2.69,1.77
20.0740,0.05,0.12,-0.99,3.23,2.56,1.89
20.0760,0.05,0.12,-1.00,3.42,2.44,1.95
20.1050,0.05,0.12,-0.99,3.48,2.50,1.89
20.1200,0.05,0.12,-1.00,3.36,2.56,1.83
20.1290,0.05,0.12,-0.99,3.42,2.69,1.95
20.1450,0.05,0.12,-0.99,3.23,2.62,1.77
20.1630,0.05,0.12,-0.99,3.17,2.44,1.77
20.1800,0.05,0.12,-0.99,3.17,1.95,1.89
20.1970,0.05,0.12,-0.99,3.17,2.32,1.83
20.2120,0.05,0.12,-0.99,3.23,2.50,1.83
20.2290,0.05,0.12,-0.99,3.30,2.56,1.83
20.2450,0.05,0.12,-0.99,3.23,2.62,1.71
20.2610,0.05,0.12,-0.99,3.23,2.62,1.77
20.2770,0.05,0.12,-0.99,3.23,2.81,1.95
20.2920,0.05,0.12,-0.99,3.11,2.50,1.77
20.3060,0.05,0.12,-0.99,3.17,2.62,1.83
20.3220,0.05,0.12,-0.99,3.36,2.62,1.95
20.3290,0.05,0.12,-0.99,3.11,2.62,1.83
20.3460,0.05,0.12,-0.99,3.30,2.20,1.89
20.3620,0.05,0.12,-0.99,3.17,2.62,1.83
20.3790,0.05,0.12,-0.99,3.30,2.75,1.77
20.3960,0.05,0.12,-0.99,3.36,2.14,1.71
20.4110,0.05,0.12,-1.00,3.11,2.62,1.95
20.4130,0.05,0.12,-1.00,3.17,2.56,1.65
20.4300,0.05,0.12,-0.99,3.11,2.93,1.83
20.4580,0.05,0.12,-0.99,3.11,2.69,1.83
20.4740,0.05,0.12,-0.99,3.36,2.32,1.77
20.4790,0.05,0.12,-0.99,3.42,2.26,1.83
20.4950,0.05,0.12,-0.99,3.23,2.01,1.71
20.5110,0.05,0.12,-0.99,3.30,2.26,1.83
20.5320,0.05,0.12,-0.99,3.17,2.99,1.83
20.5490,0.05,0.12,-0.99,3.54,2.50,1.71
20.5660,0.05,0.12,-1.00,3.36,2.32,1.77
20.5820,0.05,0.12,-0.99,3.54,2.01,1.77
20.5970,0.05,0.12,-0.99,3.48,2.01,1.71
20.6130,0.05,0.12,-0.99,3.42,2.38,1.83
20.6160,0.05,0.12,-0.99,3.36,2.50,1.77
20.6310,0.05,0.12,-0.99,3.30,2.20,1.83
20.6560,0.05,0.12,-0.99,3.30,2.69,2.01
20.6720,0.05,0.12,-1.00,3.17,2.81,1.89
20.6890,0.05,0.12,-0.99,3.17,2.69,1.83
20.7070,0.05,0.12,-0.99,3.36,2.62,1.95
20.7230,0.05,0.12,-1.00,3.17,2.87,1.89
20.7390,0.05,0.12,-0.99,3.30,2.32,1.95
20.7550,0.05,0.12,-0.99,3.30,2.56,1.83
20.7710,0.05,0.12,-0.99,3.17,2.87,2.01
20.7870,0.05,0.12,-0.99,3.36,2.38,1.83
20.8020,0.05,0.12,-0.99,3.48,2.50,1.89
20.8060,0.05,0.12,-0.99,3.30,2.69,1.83
20.8220,0.05,0.12,-0.99,3.42,2.20,1.89
20.8460,0.05,0.12,-0.99,3.05,2.87,1.77
20.8600,0.05,0.12,-0.99,3.42,2.56,1.95
20.8780,0.05,0.12,-1.00,3.30,2.69,1.89
20.8940,0.05,0.12,-0.99,3.17,2.93,1.95
20.9110,0.05,0.12,-0.99,3.23,2.81,1.89
20.9270,0.05,0.12,-0.99,3.17,2.87,1.71
20.9430,0.05,0.12,-0.99,3.23,2.56,1.77
20.9590,0.05,0.12,-0.99,3.48,2.26,1.77
20.9610,0.05,0.12,-0.99,3.36,2.38,1.83
20.9770,0.05,0.12,-0.99,3.36,2.38,1.83
20.9940,0.05,0.12,-0.99,3.23,2.99,1.77
21.0100,0.05,0.12,-0.99,3.17,2.69,2.01
21.0250,0.05,0.12,-0.99,3.30,2.26,1.83
21.0530,0.05,0.12,-1.00,3.30,2.32,1.71
21.0650,0.05,0.12,-0.99,3.42,2.50,1.95
21.0820,0.05,0.12,-0.99,3.05,2.20,1.77
21.0990,0.05,0.12,-0.99,3.36,2.20,1.77
21.1150,0.05,0.12,-0.99,3.17,2.38,1.83
21.1310,0.05,0.12,-0.99,3.17,2.26,1.83
21.1460,0.05,0.12,-0.99,3.05,2.44,1.77
21.1620,0.05,0.12,-0.99,3.36,1.71,1.65
21.1770,0.05,0.12,-0.99,3.23,2.20,2.01
21.1940,0.05,0.12,-0.99,3.36,2.26,1.95
21.1980,0.05,0.12,-0.99,3.23,2.69,1.83
21.2130,0.05,0.12,-0.99,3.30,2.69,1.83
21.2360,0.05,0.12,-0.99,3.30,2.32,1.77
21.2530,0.05,0.12,-0.99,3.30,2.50,1.71
21.2690,0.05,0.12,-1.00,3.30,2.26,1.77
21.2850,0.05,0.12,-1.00,3.42,2.20,1.71
21.3010,0.05,0.12,-0.99,3.23,2.50,1.71
21.3170,0.05,0.12,-0.99,3.17,2.56,1.71
21.3190,0.05,0.12,-0.99,3.36,2.38,1.77
21.3460,0.05,0.12,-0.99,3.48,2.08,1.77
21.3570,0.05,0.12,-0.99,3.60,2.26,1.71
21.3740,0.05,0.12,-0.99,3.30,2.08,1.77
21.3900,0.05,0.12,-0.99,3.30,2.50,1.89
21.4080,0.05,0.12,-0.99,3.23,2.50,1.71
21.4240,0.05,0.12,-0.99,3.30,2.50,1.77
21.4390,0.05,0.12,-1.00,3.23,2.08,1.77
21.4560,0.05,0.12,-0.99,3.42,2.38,1.59
21.4560,0.05,0.12,-0.99,3.23,2.38,1.83
21.4870,0.05,0.12,-0.99,3.48,2.50,1.77
21.4940,0.05,0.12,-0.99,3.36,2.81,1.83
21.5100,0.05,0.12,-0.99,3.30,2.44,1.83
21.5330,0.05,0.12,-0.99,3.23,2.38,1.83
21.5480,0.05,0.12,-1.00,3.11,2.62,1.95
21.5640,0.05,0.12,-0.99,3.36,1.89,1.77
21.5800,0.05,0.12,-0.99,3.30,2.50,1.89
21.5840,0.05,0.12,-0.99,3.23,2.87,1.83
21.6020,0.05,0.12,-0.99,3.11,2.50,1.77
21.6270,0.05,0.12,-0.99,3.36,2.69,1.77
21.6420,0.05,0.12,-0.99,3.23,2.81,1.89
21.6570,0.05,0.12,-0.99,3.17,2.44,1.83
21.6680,0.05,0.12,-0.99,3.30,2.69,1.89
21.6840,0.05,0.12,-0.99,3.23,2.20,1.83
21.7010,0.05,0.12,-1.00,3.48,2.32,1.83
21.7180,0.05,0.12,-0.99,3.30,2.44,1.83
21.7330,0.05,0.12,-0.99,3.30,2.26,1.77
21.7510,0.05,0.12,-0.99,3.30,2.44,1.77
21.7660,0.05,0.12,-0.99,3.17,2.50,1.77
21.7820,0.05,0.12,-0.99,3.30,2.38,1.89
21.7970,0.05,0.12,-0.99,3.11,2.62,1.95
21.8130,0.05,0.12,-1.00,3.11,2.20,1.77
21.8280,0.05,0.12,-0.99,3.30,2.14,1.83
21.8350,0.05,0.12,-0.99,3.36,2.26,1.89
21.8500,0.05,0.12,-0.99,3.30,2.62,1.71
21.8730,0.05,0.12,-0.99,3.23,2.26,1.71
21.8900,0.05,0.12,-0.99,3.30,2.32,1.71
21.8910,0.05,0.12,-0.99,3.48,2.38,1.83
21.9070,0.05,0.12,-0.99,3.23,2.56,1.71
21.9240,0.05,0.12,-0.99,3.36,2.75,1.89
21.9470,0.05,0.12,-0.99,3.23,2.38,1.77
21.9580,0.05,0.12,-0.99,3.30,2.32,1.77
21.9730,0.05,0.12,-0.99,3.36,2.44,1.83
21.9960,0.05,0.12,-0.99,3.30,2.38,1.71
22.0120,0.05,0.12,-0.99,3.23,2.62,2.01
22.0290,0.05,0.12,-0.99,3.42,2.32,1.89
22.0460,0.05,0.12,-0.99,3.42,2.81,1.71
22.0620,0.05,0.12,-0.99,3.17,2.32,1.89
22.0770,0.05,0.12,-0.99,3.30,2.44,1.89
22.0940,0.05,0.12,-0.99,3.36,2.44,1.71
22.1100,0.05,0.12,-0.99,3.30,2.62,1.77
22.1250,0.05,0.12,-0.99,3.36,2.26,1.65
22.1290,0.05,0.12,-0.99,3.36,2.50,1.77
22.1470,0.05,0.12,-1.00,3.30,2.08,1.77
22.1720,0.05,0.12,-0.99,3.23,2.44,1.89
22.1830,0.05,0.12,-0.99,3.23,2.26,1.83
22.2000,0.05,0.12,-1.00,3.36,2.56,1.83
22.2170,0.05,0.12,-0.99,3.23,2.26,1.65
22.2330,0.05,0.12,-0.99,3.11,1.95,1.65
22.2480,0.05,0.12,-0.99,3.17,2.50,1.83
22.2630,0.05,0.12,-1.00,3.42,2.32,1.89
22.2660,0.05,0.12,-0.99,2.99,2.81,1.83
22.2820,0.05,0.12,-1.00,3.36,2.56,1.89
22.3100,0.05,0.12,-0.99,3.30,2.44,1.77
22.3210,0.05,0.12,-0.99,3.30,2.38,1.77
22.3370,0.05,0.12,-0.99,3.30,2.20,1.89
22.3530,0.05,0.12,-0.99,3.36,2.32,1.71
22.3700,0.05,0.12,-0.99,3.23,2.44,1.89
22.3860,0.05,0.12,-1.00,3.30,2.14,1.77
22.4050,0.05,0.12,-0.99,3.30,2.50,1.77
22.4210,0.05,0.12,-0.99,3.36,2.08,1.71
22.4370,0.05,0.12,-1.00,3.17,2.56,1.83
22.4530,0.05,0.12,-0.99,3.17,2.50,1.65
22.4690,0.05,0.12,-0.99,3.11,2.38,1.83
22.4850,0.05,0.12,-1.00,3.30,2.26,1.71
22.5010,0.05,0.12,-0.99,3.48,2.20,1.83
22.5160,0.05,0.12,-0.99,3.23,2.20,1.95
22.5320,0.05,0.12,-0.99,3.23,2.69,1.95
22.5480,0.05,0.12,-0.99,3.23,2.56,1.77
22.5630,0.05,0.12,-1.00,3.30,2.50,1.71
22.5790,0.05,0.12,-0.99,3.23,2.62,1.65
22.5940,0.05,0.12,-0.99,3.30,2.01,1.77
22.6030,0.05,0.12,-0.99,3.30,2.20,1.95
22.6210,0.05,0.12,-0.99,3.30,2.26,1.89
22.6380,0.05,0.12,-0.99,3.42,2.44,1.83
22.6550,0.05,0.12,-0.99,3.48,2.26,1.89
22.6700,0.05,0.12,-0.99,3.36,2.50,1.83
22.6870,0.05,0.12,-0.99,3.05,2.32,1.65
22.7040,0.05,0.12,-0.99,3.30,2.14,1.83
22.7200,0.05,0.12,-0.99,3.30,2.26,1.77
22.7350,0.05,0.12,-0.99,3.17,2.75,1.77
22.7500,0.05,0.12,-0.99,3.30,2.20,1.77
22.7660,0.05,0.12,-0.99,3.11,2.20,1.65
22.7810,0.05,0.12,-0.99,3.36,2.32,1.95
22.7960,0.05,0.12,-0.99,3.23,2.56,1.83
22.8120,0.05,0.12,-0.99,3.11,2.26,1.71
22.8270,0.05,0.12,-1.00,3.23,2.01,1.71
22.8370,0.05,0.12,-0.99,3.17,2.50,1.77
22.8540,0.05,0.12,-0.99,3.23,2.56,1.77
22.8710,0.05,0.12,-1.00,3.11,2.56,1.77
22.8870,0.05,0.12,-0.99,3.17,2.26,1.71
22.9030,0.05,0.12,-1.00,3.30,2.38,1.71
22.9190,0.05,0.12,-0.99,3.17,2.32,1.77
22.9350,0.05,0.12,-0.99,3.23,2.56,1.71
22.9510,0.05,0.12,-0.99,3.48,2.26,1.71
22.9530,0.05,0.12,-0.99,3.30,2.56,1.83
22.9700,0.05,0.12,-0.99,3.23,2.50,1.83
22.9910,0.05,0.12,-0.99,3.30,2.26,1.71
23.0080,0.05,0.12,-0.99,3.05,2.32,1.77
23.0240,0.05,0.12,-0.99,3.23,2.38,1.77
23.0410,0.05,0.12,-0.99,3.36,2.56,1.77
23.0570,0.05,0.12,-0.99,3.23,2.62,1.83
23.0740,0.05,0.12,-0.99,3.36,2.32,1.77
23.0900,0.05,0.12,-0.99,3.42,2.62,1.71
23.1070,0.05,0.12,-0.99,3.17,2.38,1.83
23.1230,0.05,0.12,-0.99,3.30,2.32,1.83
23.1240,0.05,0.12,-1.00,3.23,2.62,1.89
23.1480,0.05,0.12,-0.99,3.54,2.44,1.71
23.1580,0.05,0.12,-0.99,3.30,2.38,1.95
23.1740,0.05,0.12,-1.00,3.42,2.26,1.77
23.2020,0.05,0.12,-1.00,3.17,2.56,1.65
23.2120,0.05,0.12,-0.99,3.42,2.08,1.65
23.2290,0.05,0.12,-0.99,3.30,2.69,1.77
23.2480,0.05,0.12,-1.00,3.11,2.69,1.83
23.2620,0.05,0.12,-0.99,3.36,2.44,1.77
23.2790,0.05,0.12,-0.99,3.30,2.44,1.89
23.2950,0.05,0.12,-0.99,3.05,2.44,1.89
23.3120,0.05,0.12,-1.00,3.23,2.50,1.83
23.3280,0.05,0.12,-0.99,3.23,2.20,1.65
23.3430,0.05,0.12,-0.99,3.48,2.44,1.71
23.3590,0.05,0.12,-1.00,3.30,2.44,1.83
23.3620,0.05,0.12,-0.99,3.30,2.08,1.89
23.3780,0.05,0.12,-1.00,3.11,2.14,1.71
23.4020,0.05,0.12,-0.99,3.23,2.62,1.77
23.4190,0.05,0.12,-0.99,3.11,2.26,1.83
23.4350,0.05,0.12,-0.99,3.23,2.38,1.77
23.4520,0.05,0.12,-0.99,3.17,2.50,1.77
23.4680,0.05,0.12,-0.99,3.42,2.50,1.77
23.4830,0.05,0.12,-0.99,3.30,2.87,1.83
23.4980,0.05,0.12,-0.99,3.23,2.38,1.65
23.5030,0.05,0.12,-0.99,3.48,2.62,1.77
23.5180,0.05,0.12,-0.99,3.54,2.20,1.83
23.5410,0.05,0.12,-1.00,3.17,2.81,1.71
23.5590,0.05,0.12,-0.99,3.11,2.62,1.77
23.5740,0.05,0.12,-1.00,3.42,2.38,1.83
23.5910,0.05,0.12,-0.99,3.11,2.56,1.77
23.6070,0.05,0.12,-0.99,3.36,2.44,1.77
23.6230,0.05,0.12,-0.99,3.17,2.32,1.71
23.6400,0.05,0.12,-0.99,3.11,2.26,1.83
23.6550,0.05,0.12,-0.99,3.36,2.26,1.89
23.6580,0.05,0.12,-0.99,3.36,2.32,1.89
23.6740,0.05,0.12,-0.99,3.42,2.32,1.83
23.7030,0.05,0.12,-0.99,3.42,2.26,1.83
23.7180,0.05,0.12,-0.99,3.23,2.50,1.65
23.7260,0.05,0.12,-0.99,3.11,2.69,1.77
23.7440,0.05,0.12,-0.99,3.23,2.14,2.01
23.7600,0.05,0.12,-1.00,3.36,2.50,1.83
23.7770,0.05,0.12,-0.99,3.42,2.14,1.71
23.7930,0.05,0.12,-0.99,3.30,2.50,1.59
23.8100,0.05,0.12,-0.99,3.36,2.14,1.83
23.8260,0.05,0.12,-1.00,3.23,2.56,1.83
23.8270,0.05,0.12,-0.99,3.42,2.32,1.83
23.8570,0.05,0.12,-0.99,3.17,2.50,1.89
23.8730,0.05,0.12,-0.99,3.23,2.44,1.77
23.8880,0.05,0.12,-0.99,3.42,2.69,1.89
23.9030,0.05,0.12,-1.00,3.30,2.20,1.71
23.9190,0.05,0.12,-0.99,3.05,2.38,1.71
23.9270,0.05,0.12,-0.99,3.17,2.26,1.89
23.9480,0.05,0.12,-0.99,3.30,2.75,1.89
23.9590,0.05,0.12,-0.99,3.23,2.20,1.71
23.9760,0.05,0.12,-0.99,3.17,2.75,1.83
23.9930,0.05,0.12,-0.99,3.23,2.44,1.71
24.0090,0.05,0.12,-0.99,3.11,3.05,1.77
24.0270,0.05,0.12,-0.99,3.23,2.56,1.65
24.0430,0.05,0.12,-0.99,3.36,2.56,1.71
24.0590,0.05,0.12,-0.99,3.30,2.56,1.77
24.0610,0.05,0.12,-1.00,3.36,2.44,1.71
24.0770,0.05,0.12,-1.00,3.17,2.69,1.83
24.0930,0.05,0.12,-0.99,3.30,2.75,1.71
24.1090,0.05,0.12,-0.99,3.23,2.50,1.83
24.1400,0.05,0.12,-0.99,3.23,2.56,1.89
24.1480,0.05,0.12,-0.99,3.36,2.26,1.77
24.1600,0.05,0.12,-1.00,2.99,2.69,1.83
24.1760,0.05,0.12,-0.99,3.30,2.56,1.89
24.2000,0.05,0.12,-0.99,3.23,2.44,1.89
24.2160,0.05,0.12,-1.00,3.30,2.14,1.77
24.2180,0.05,0.12,-0.99,3.30,2.14,1.89
24.2460,0.05,0.12,-0.99,3.36,2.01,1.77
24.2500,0.05,0.12,-0.99,3.17,2.38,1.71
24.2660,0.05,0.12,-1.00,3.23,2.50,1.89
24.2880,0.05,0.12,-0.99,3.42,2.32,1.83
24.3060,0.05,0.12,-0.99,3.42,2.44,1.71
24.3210,0.05,0.12,-0.99,3.30,2.38,1.77
24.3370,0.05,0.12,-0.99,3.23,2.26,1.65
24.3540,0.05,0.12,-0.99,3.30,2.62,1.77
24.3710,0.05,0.12,-0.99,3.30,2.38,1.71
24.3880,0.05,0.12,-0.99,3.17,1.89,1.77
24.4030,0.05,0.12,-0.99,3.36,2.44,1.89
24.4180,0.05,0.12,-0.99,3.54,2.50,1.77
24.4210,0.05,0.12,-0.99,3.36,2.01,1.65
24.4490,0.05,0.12,-0.99,3.42,1.71,1.77
24.4590,0.05,0.12,-0.99,3.42,2.08,1.77
24.4750,0.05,0.12,-1.00,3.30,2.38,1.83
24.4920,0.05,0.12,-0.99,3.36,2.26,1.95
24.5090,0.05,0.12,-0.99,3.36,2.01,1.83
24.5260,0.05,0.12,-1.00,3.42,2.14,1.77
24.5420,0.05,0.12,-1.00,3.42,2.38,1.95
24.5580,0.05,0.12,-0.99,3.42,2.14,1.83
24.5730,0.05,0.12,-0.99,3.42,2.38,1.71
24.5890,0.05,0.12,-0.99,3.36,2.32,1.89
24.6060,0.05,0.12,-0.99,3.36,2.20,1.77
24.6220,0.05,0.12,-0.99,3.36,2.08,1.65
24.6380,0.05,0.12,-0.99,3.42,2.20,1.83
24.6530,0.05,0.12,-0.99,3.48,2.08,1.65
24.6590,0.05,0.12,-0.99,3.48,2.01,1.77
24.6850,0.05,0.12,-1.00,3.17,1.89,1.71
24.6930,0.05,0.12,-0.99,3.30,2.26,1.95
24.7170,0.05,0.12,-0.99,3.05,2.38,1.71
24.7260,0.05,0.12,-0.99,3.30,2.32,1.71
24.7420,0.05,0.12,-0.99,3.36,2.38,1.71
24.7580,0.05,0.12,-0.99,3.23,2.44,1.77
24.7770,0.05,0.12,-0.99,3.48,2.20,1.77
24.7940,0.05,0.12,-1.00,3.30,2.69,1.89
24.8100,0.05,0.12,-0.99,3.42,2.08,1.65
24.8260,0.05,0.12,-0.99,3.36,2.56,1.77
24.8290,0.05,0.12,-0.99,3.42,2.50,1.95
24.8490,0.05,0.12,-0.99,3.30,2.38,1.77
24.8600,0.05,0.12,-0.99,3.36,2.14,1.77
24.8830,0.05,0.12,-0.99,3.11,2.38,1.71
24.8990,0.05,0.12,-0.99,3.48,2.44,1.89
24.9160,0.05,0.12,-0.99,3.30,2.62,1.71
24.9320,0.05,0.12,-0.99,3.42,2.62,1.89
24.9480,0.05,0.12,-0.99,3.17,2.14,1.83
24.9640,0.05,0.12,-0.99,3.17,2.26,1.83
24.9800,0.05,0.12,-0.99,3.30,2.50,1.83
24.9940,0.05,0.12,-0.99,3.60,2.50,1.83
25.0000,0.05,0.12,-0.99,3.17,2.14,1.77
25.0160,0.05,0.12,-0.99,3.42,2.08,1.65
25.0390,0.05,0.12,-0.99,3.23,2.32,1.71
25.0560,0.05,0.12,-0.99,3.23,2.50,1.89
25.0710,0.05,0.12,-0.99,3.36,2.20,1.89
25.0870,0.05,0.12,-0.99,3.11,2.56,1.83
25.1020,0.05,0.12,-0.99,3.48,2.44,1.77
25.1170,0.05,0.12,-0.99,3.17,2.44,1.83
25.1230,0.05,0.12,-0.99,3.36,2.62,1.89
25.1380,0.05,0.12,-0.99,3.23,2.44,1.89
25.1550,0.05,0.12,-1.00,3.36,2.56,1.83
25.1710,0.05,0.12,-0.99,3.30,2.44,1.77
25.1860,0.05,0.12,-0.99,3.30,2.44,1.89
25.2070,0.05,0.12,-0.99,3.36,2.44,1.95
25.2230,0.05,0.12,-0.99,3.23,2.32,1.89
25.2400,0.05,0.12,-0.99,3.30,2.50,1.77
25.2580,0.05,0.12,-0.99,3.23,2.01,1.59
25.2730,0.05,0.12,-0.99,3.23,2.38,1.83
25.2890,0.05,0.12,-0.99,3.30,2.14,1.77
25.2900,0.05,0.12,-0.99,3.11,2.26,1.71
25.3070,0.05,0.12,-0.99,3.48,2.26,1.89
25.3240,0.05,0.12,-0.99,3.36,2.20,1.65
25.3400,0.05,0.12,-0.99,3.23,2.08,1.65
25.3620,0.05,0.12,-0.99,3.11,2.62,1.83
25.3790,0.05,0.12,-0.99,3.23,2.32,1.71
25.3960,0.05,0.12,-0.99,3.30,2.20,1.77
25.4120,0.05,0.12,-0.99,3.42,2.32,1.83
25.4270,0.05,0.12,-0.99,3.23,2.32,2.01
25.4440,0.05,0.12,-0.99,3.23,2.50,1.95
25.4590,0.05,0.12,-0.99,3.30,2.26,1.71
25.4620,0.05,0.12,-0.99,3.23,2.62,1.83
25.4910,0.05,0.12,-1.00,3.17,2.44,1.89
25.4950,0.05,0.12,-0.99,3.36,2.44,1.89
25.5230,0.05,0.12,-0.99,3.36,2.14,1.71
25.5290,0.05,0.12,-1.00,3.42,2.14,1.83
25.5500,0.05,0.12,-0.99,3.30,2.20,1.83
25.5680,0.05,0.12,-1.00,3.23,2.50,1.83
25.5700,0.05,0.12,-0.99,3.36,2.81,1.83
25.5990,0.05,0.12,-1.00,3.36,2.62,1.71
25.6140,0.05,0.12,-0.99,3.54,2.20,1.83
25.6290,0.05,0.12,-0.99,3.42,2.26,1.89
25.6370,0.05,0.12,-0.99,3.30,2.38,1.83
25.6540,0.05,0.12,-1.00,3.17,2.56,1.89
25.6710,0.05,0.12,-0.99,3.42,2.20,1.71
25.6880,0.05,0.12,-1.00,3.36,2.32,1.83
25.7030,0.05,0.12,-0.99,3.30,2.20,1.83
25.7210,0.05,0.12,-0.99,3.30,2.38,1.77
25.7370,0.05,0.12,-0.99,3.05,2.50,1.83
25.7530,0.05,0.12,-0.99,3.54,2.32,1.59
25.7690,0.05,0.12,-0.99,3.42,2.69,1.77
25.7850,0.05,0.12,-0.99,3.30,2.56,2.01
25.7870,0.05,0.12,-0.99,3.30,2.32,1.89
25.8030,0.05,0.12,-1.00,3.36,2.32,1.95
25.8280,0.05,0.12,-0.99,3.42,2.56,1.83
25.8440,0.05,0.12,-0.99,3.30,2.14,1.71
25.8600,0.05,0.12,-0.99,3.42,2.62,1.89
25.8770,0.05,0.12,-1.00,3.23,2.81,1.89
25.8940,0.05,0.12,-0.99,3.36,2.14,1.65
25.9110,0.05,0.12,-0.99,3.23,2.56,1.89
25.9120,0.05,0.12,-1.00,3.30,2.50,1.95
25.9270,0.05,0.12,-0.99,3.17,2.38,1.71
25.9580,0.05,0.12,-0.99,3.17,2.14,1.83
25.9620,0.05,0.12,-0.99,3.23,2.44,1.71
25.9770,0.05,0.12,-0.99,3.54,2.20,1.59
26.0030,0.05,0.12,-0.99,3.23,2.50,1.77
26.0190,0.05,0.12,-1.00,3.30,2.20,1.65
26.0340,0.05,0.12,-1.00,3.36,2.08,1.65
26.0440,0.05,0.12,-0.99,3.36,2.26,1.77
26.0600,0.05,0.12,-0.99,3.30,2.14,1.71
26.0770,0.05,0.12,-0.99,3.05,2.32,1.77
26.0940,0.05,0.12,-1.00,3.05,2.44,1.77
26.1100,0.05,0.12,-1.00,3.30,2.44,1.89
26.1120,0.05,0.12,-1.00,3.42,2.26,1.71
26.1270,0.05,0.12,-0.99,3.36,2.26,1.77
26.1510,0.05,0.12,-0.99,3.23,1.95,1.77
26.1610,0.05,0.12,-0.99,3.17,2.26,1.77
26.1830,0.05,0.12,-0.99,3.30,2.26,1.77
26.1990,0.05,0.12,-0.99,3.23,2.26,1.77
26.2150,0.05,0.12,-0.99,3.17,2.44,1.77
26.2310,0.05,0.12,-0.99,3.36,2.56,1.71
26.2460,0.05,0.12,-1.00,3.42,2.26,1.71
26.2610,0.05,0.12,-0.99,3.23,2.26,1.95
26.2760,0.05,0.12,-0.99,3.17,2.08,1.83
26.2920,0.05,0.12,-0.99,3.17,2.38,1.89
26.3070,0.05,0.12,-0.99,3.42,2.08,1.71
26.3160,0.05,0.12,-0.99,3.42,2.50,1.83
26.3320,0.05,0.12,-0.99,3.11,2.56,1.95
26.3510,0.05,0.12,-0.99,3.11,2.44,1.83
26.3660,0.05,0.12,-0.99,3.30,2.69,1.89
26.3830,0.05,0.12,-0.99,3.23,2.81,1.83
26.3980,0.05,0.12,-0.99,2.93,2.56,1.89
26.4130,0.05,0.12,-0.99,3.23,2.38,1.83
26.4290,0.05,0.12,-1.00,3.30,2.44,1.77
26.4450,0.05,0.12,-0.99,3.30,2.32,1.71
26.4510,0.05,0.12,-0.99,3.30,2.32,1.77
26.4660,0.05,0.12,-0.99,3.23,2.01,1.71
26.4930,0.05,0.12,-0.99,3.17,2.20,1.71
26.5040,0.05,0.12,-0.99,3.17,2.62,1.65
26.5200,0.05,0.12,-0.99,3.05,2.56,1.65
26.5360,0.05,0.12,-1.00,3.23,2.62,1.77
26.5540,0.05,0.12,-0.99,3.30,2.44,1.95
26.5700,0.05,0.12,-0.99,3.17,2.81,1.83
26.5860,0.05,0.12,-1.00,3.30,2.69,1.89
26.6030,0.05,0.12,-0.99,3.36,2.44,1.83
26.6180,0.05,0.12,-0.99,3.17,2.44,1.77
26.6340,0.05,0.12,-1.00,3.42,2.69,1.83
26.6490,0.05,0.12,-0.99,3.17,2.62,1.95
26.6640,0.05,0.12,-0.99,3.36,2.50,1.83
26.6700,0.05,0.12,-0.99,3.36,2.38,1.83
26.6850,0.05,0.12,-0.99,3.05,2.38,1.65
26.7080,0.05,0.12,-0.99,3.30,2.69,1.89
26.7250,0.05,0.12,-0.99,3.30,2.62,1.77
26.7430,0.05,0.12,-0.99,3.36,2.50,1.89
26.7520,0.05,0.12,-0.99,3.23,2.32,1.89
26.7590,0.05,0.12,-0.99,3.23,2.32,1.71
26.7890,0.05,0.12,-0.99,3.23,2.62,1.95
26.8060,0.05,0.12,-0.99,3.42,2.32,1.77
26.8080,0.05,0.12,-0.99,3.23,2.50,1.77
26.8380,0.05,0.12,-0.99,3.30,2.38,1.83
26.8530,0.05,0.12,-0.99,3.17,2.62,1.77
26.8690,0.05,0.12,-0.99,3.05,2.69,1.83
26.8770,0.05,0.12,-0.99,3.17,2.62,1.83
26.8930,0.05,0.12,-0.99,3.23,2.26,1.83
26.9100,0.05,0.12,-1.00,3.30,2.44,1.77
26.9290,0.05,0.12,-0.99,3.30,2.75,1.77
26.9430,0.05,0.12,-1.00,3.23,2.62,1.89
26.9610,0.05,0.12,-0.99,3.17,2.38,1.83
26.9770,0.05,0.12,-0.99,3.11,2.75,1.95
26.9780,0.05,0.12,-0.99,3.54,2.26,1.83
27.0080,0.05,0.12,-0.99,3.30,2.32,1.83
27.0120,0.05,0.12,-0.99,3.36,2.32,1.77
27.0270,0.05,0.12,-1.00,3.30,2.50,1.83
27.0520,0.05,0.12,-1.00,3.36,2.38,2.01
27.0650,0.05,0.12,-0.99,3.23,2.14,1.77
27.0810,0.05,0.12,-0.99,3.30,2.50,1.71
27.0980,0.05,0.12,-0.99,3.54,2.75,1.77
27.1140,0.05,0.12,-0.99,3.30,2.26,1.71
27.1300,0.05,0.12,-0.99,3.23,2.26,1.83
27.1450,0.05,0.12,-0.99,3.17,2.08,1.65
27.1520,0.05,0.12,-0.99,3.36,1.95,1.71
27.1630,0.05,0.12,-1.00,3.36,2.50,1.83
27.1930,0.05,0.12,-0.99,3.17,2.56,1.77
27.2020,0.05,0.12,-0.99,3.23,2.44,1.77
27.2200,0.05,0.12,-1.00,3.05,2.75,1.89
27.2360,0.05,0.12,-1.00,3.42,2.38,1.77
27.2530,0.05,0.12,-0.99,3.48,2.26,1.83
27.2700,0.05,0.12,-0.99,2.99,2.32,1.83
27.2860,0.05,0.12,-0.99,3.23,2.32,1.83
27.3020,0.05,0.12,-0.99,3.11,2.38,1.95
27.3180,0.05,0.12,-0.99,3.23,2.01,1.71
27.3340,0.05,0.12,-0.99,3.30,2.08,1.83
27.3360,0.05,0.12,-0.99,3.11,2.56,1.89
27.3520,0.05,0.12,-1.00,3.23,2.69,1.77
27.3740,0.05,0.12,-0.99,3.17,2.69,1.77
27.3920,0.05,0.12,-0.99,3.30,2.62,1.83
27.4070,0.05,0.12,-0.99,3.30,2.20,1.71
27.4250,0.05,0.12,-0.99,3.17,2.32,1.89
27.4400,0.05,0.12,-0.99,3.30,2.38,1.83
27.4520,0.05,0.12,-0.99,3.48,2.14,1.83
27.4580,0.05,0.12,-0.99,3.17,2.38,1.77
27.4880,0.05,0.12,-0.99,3.42,1.89,1.77
27.4910,0.05,0.12,-1.00,3.36,2.38,1.89
27.5190,0.05,0.12,-0.99,3.30,2.62,1.77
27.5340,0.05,0.12,-0.99,3.11,2.50,1.77
27.5420,0.05,0.12,-0.99,3.05,2.38,1.83
27.5590,0.05,0.12,-0.99,3.30,1.89,1.83
27.5750,0.05,0.12,-0.99,3.23,2.26,1.83
27.5920,0.05,0.12,-0.99,3.48,2.01,1.77
27.6080,0.05,0.12,-1.00,3.23,2.26,1.71
27.6250,0.05,0.12,-0.99,3.36,2.20,1.89
27.6410,0.05,0.12,-1.00,3.36,2.50,2.01
27.6540,0.05,0.12,-0.99,3.23,2.08,1.77
27.6740,0.05,0.12,-0.99,3.30,2.32,1.77
27.6900,0.05,0.12,-0.99,3.30,2.56,1.83
27.7060,0.05,0.12,-0.99,3.42,2.14,1.65
27.7220,0.05,0.12,-0.99,3.17,1.95,1.83
27.7380,0.05,0.12,-0.99,3.42,2.38,1.83
27.7540,0.05,0.12,-1.00,3.54,2.69,1.71
27.7560,0.05,0.12,-0.99,3.11,2.69,1.71
27.7810,0.05,0.12,-0.99,3.36,2.26,1.71
27.7980,0.05,0.12,-0.99,3.36,2.44,1.95
27.8150,0.05,0.12,-0.99,3.17,2.75,1.95
27.8300,0.05,0.12,-0.99,3.48,2.08,1.83
27.8460,0.05,0.12,-0.99,3.17,2.44,1.71
27.8620,0.05,0.12,-1.00,3.23,2.20,1.77
27.8780,0.05,0.12,-0.99,3.23,2.44,1.77
27.8930,0.05,0.12,-1.00,3.30,2.32,1.71
27.8990,0.05,0.12,-0.99,3.30,2.50,1.77
27.9140,0.05,0.12,-1.00,3.30,2.75,1.65
27.9350,0.05,0.12,-0.99,3.36,2.26,1.71
27.9540,0.05,0.12,-0.99,3.36,2.38,1.89
27.9690,0.05,0.12,-0.99,3.17,2.56,1.95
27.9850,0.05,0.12,-0.99,3.36,2.32,2.01
28.0020,0.05,0.12,-1.00,3.54,2.75,1.83
28.0180,0.05,0.12,-1.00,3.23,2.69,1.77
28.0340,0.05,0.12,-1.00,3.30,2.32,1.89
28.0500,0.05,0.12,-0.99,3.17,2.26,1.77
28.0540,0.05,0.12,-0.99,3.11,2.38,1.77
28.0680,0.05,0.12,-1.00,2.99,2.87,1.83
28.0910,0.05,0.12,-1.00,3.17,2.50,1.71
28.1080,0.05,0.12,-0.99,3.23,2.44,1.83
28.1240,0.05,0.12,-0.99,3.11,2.44,1.77
28.1410,0.05,0.12,-0.99,3.11,2.26,1.83
28.1580,0.05,0.12,-0.99,3.36,2.32,1.77
28.1750,0.05,0.12,-1.00,3.30,2.44,1.77
28.1900,0.05,0.12,-0.99,3.48,2.38,1.77
28.1910,0.05,0.12,-1.00,3.17,2.69,1.95
28.2220,0.05,0.12,-0.99,3.17,2.50,1.71
28.2240,0.05,0.12,-1.00,3.11,2.75,1.89
28.2410,0.05,0.12,-0.99,3.17,2.62,1.89
28.2700,0.05,0.12,-0.99,3.42,2.32,1.83
28.2850,0.05,0.12,-0.99,3.30,2.69,1.77
28.2940,0.05,0.12,-1.00,3.30,2.69,1.95
28.3110,0.05,0.12,-0.99,3.36,2.26,1.65
28.3270,0.05,0.12,-1.00,3.23,2.32,1.83
28.3450,0.05,0.12,-1.00,3.48,2.14,1.83
28.3600,0.05,0.12,-0.99,3.23,2.44,1.71
28.3770,0.05,0.12,-0.99,3.42,2.50,1.83
28.3920,0.05,0.12,-0.99,3.11,2.50,1.89
28.4080,0.05,0.12,-0.99,3.05,2.56,1.83
28.4110,0.05,0.12,-0.99,3.17,2.75,1.65
28.4270,0.05,0.12,-0.99,3.23,2.50,1.83
28.4520,0.05,0.12,-1.00,3.30,2.50,1.77
28.4690,0.05,0.12,-0.99,3.30,2.14,1.83
28.4850,0.05,0.12,-0.99,2.99,2.69,1.83
28.5010,0.05,0.12,-0.99,3.23,2.44,1.65
28.5170,0.05,0.12,-0.99,3.30,2.38,1.77
28.5320,0.05,0.12,-1.00,3.30,2.75,1.89
28.5470,0.05,0.12,-0.99,3.17,2.87,1.89
28.5620,0.05,0.12,-1.00,3.23,2.81,1.89
28.5780,0.05,0.12,-0.99,3.36,2.32,1.83
28.5940,0.05,0.12,-0.99,3.23,2.44,1.83
28.6010,0.05,0.12,-1.00,3.11,2.56,1.77
28.6180,0.05,0.12,-1.00,3.11,2.62,1.89
28.6340,0.05,0.12,-0.99,3.30,2.20,1.83
28.6510,0.05,0.12,-0.99,3.23,2.14,1.83
28.6680,0.05,0.12,-0.99,3.30,2.38,1.89
28.6840,0.05,0.12,-0.99,3.30,2.38,1.83
28.7000,0.05,0.12,-0.99,3.30,2.26,1.77
28.7150,0.05,0.12,-1.00,3.30,2.38,1.53
28.7310,0.05,0.12,-0.99,3.42,2.56,1.89
28.7460,0.05,0.12,-0.99,3.36,2.50,1.77
28.7620,0.05,0.12,-0.99,3.42,2.69,1.95
28.7770,0.05,0.12,-1.00,3.23,2.93,1.71
28.7930,0.05,0.12,-0.99,3.23,2.75,1.71
28.8010,0.05,0.12,-0.99,3.30,2.75,1.89
28.8170,0.05,0.12,-0.99,3.30,2.50,1.89
28.8370,0.05,0.12,-0.99,3.30,2.56,1.83
28.8400,0.05,0.12,-0.99,3.30,2.56,1.77
28.8560,0.05,0.12,-1.00,3.30,2.50,1.77
28.8850,0.05,0.12,-1.00,3.30,2.56,1.71
28.8990,0.05,0.12,-0.99,3.36,2.44,1.83
28.9090,0.05,0.12,-1.00,3.30,2.44,1.83
28.9240,0.05,0.12,-0.99,3.30,2.38,1.89
28.9450,0.05,0.12,-0.99,3.23,2.44,1.83
28.9620,0.05,0.12,-1.00,3.36,2.56,1.77
28.9630,0.05,0.12,-0.99,3.11,2.56,1.83
28.9950,0.05,0.12,-0.99,3.30,2.69,1.83
28.9960,0.05,0.12,-0.99,3.30,2.50,1.83
29.0260,0.05,0.12,-0.99,3.17,2.62,1.83
29.0420,0.05,0.12,-0.99,3.23,2.38,1.89
29.0580,0.05,0.12,-1.00,3.17,2.38,1.77
29.0730,0.05,0.12,-1.00,3.30,2.56,1.77
29.0890,0.05,0.12,-0.99,3.23,2.50,1.95
29.1050,0.05,0.12,-0.99,3.42,2.01,1.71
29.1190,0.05,0.12,-0.99,3.48,2.20,1.83
29.1340,0.05,0.12,-0.99,3.17,2.56,1.83
29.1450,0.05,0.12,-1.00,3.11,2.69,1.89
29.1620,0.05,0.12,-1.00,3.17,2.38,1.83
29.1790,0.05,0.12,-0.99,3.36,2.14,1.71
29.1950,0.05,0.12,-0.99,3.23,2.32,1.77
29.2110,0.05,0.12,-0.99,3.36,2.38,1.77
29.2120,0.05,0.12,-0.99,3.30,2.62,1.71
29.2430,0.05,0.12,-1.00,3.36,1.89,1.65
29.2590,0.05,0.12,-0.99,3.17,2.26,1.77
29.2620,0.05,0.12,-0.99,3.30,2.20,1.77
29.2770,0.05,0.12,-0.99,3.30,2.26,1.77
29.3020,0.05,0.12,-0.99,3.30,2.14,1.77
29.3180,0.05,0.12,-0.99,3.23,2.38,1.77
29.3350,0.05,0.12,-1.00,3.05,2.56,1.77
29.3520,0.05,0.12,-0.99,3.42,2.87,1.89
29.3680,0.05,0.12,-0.99,3.23,2.50,1.89
29.3850,0.05,0.12,-0.99,3.36,2.69,1.77
29.3860,0.05,0.12,-0.99,3.05,2.69,1.83
29.4150,0.05,0.12,-0.99,3.11,2.56,1.95
29.4310,0.05,0.12,-0.99,3.17,2.69,1.83
29.4460,0.05,0.12,-0.99,3.36,2.50,1.83
29.4620,0.05,0.12,-0.99,3.30,2.38,1.83
29.4690,0.05,0.12,-0.99,3.23,2.32,1.83
29.4930,0.05,0.12,-0.99,3.30,2.87,1.89
29.5070,0.05,0.12,-0.99,3.36,2.32,1.77
29.5180,0.05,0.12,-0.99,3.42,2.38,1.83
29.5350,0.05,0.12,-0.99,3.17,2.38,1.71
29.5520,0.05,0.12,-0.99,3.23,2.93,1.89
29.5680,0.05,0.12,-0.99,3.17,2.20,1.71
29.5840,0.05,0.12,-1.00,3.23,2.50,1.83
29.6000,0.05,0.12,-0.99,3.17,2.50,1.77
29.6150,0.05,0.12,-0.99,3.36,2.20,1.65
29.6300,0.05,0.12,-0.99,3.30,2.38,1.65
29.6460,0.05,0.12,-1.00,3.17,2.50,1.89
29.6600,0.05,0.12,-0.99,3.54,2.56,1.95
29.6760,0.05,0.12,-0.99,3.36,2.44,1.83
29.6860,0.05,0.12,-0.99,3.30,2.26,1.83
29.7020,0.05,0.12,-0.99,2.99,2.75,1.83
29.7190,0.05,0.12,-0.99,3.23,2.38,1.65
29.7350,0.05,0.12,-0.99,3.42,2.44,1.77
29.7530,0.05,0.12,-0.99,3.36,2.20,1.71
29.7680,0.05,0.12,-0.99,3.23,2.62,1.71
29.7850,0.05,0.12,-0.99,3.17,2.56,1.77
29.8000,0.05,0.12,-0.99,3.30,2.32,1.71
29.8150,0.05,0.12,-0.99,3.36,2.69,1.77
29.8190,0.05,0.12,-0.99,3.23,2.56,1.77
29.8460,0.05,0.12,-0.99,3.17,2.32,1.89
29.8610,0.05,0.12,-1.00,3.30,2.69,1.83
29.8760,0.05,0.12,-0.99,3.30,2.50,1.83
29.8920,0.05,0.12,-0.99,3.42,2.75,1.77
29.9020,0.05,0.12,-0.99,3.30,2.69,2.01
29.9180,0.05,0.12,-0.99,3.36,2.38,1.89
29.9370,0.05,0.12,-0.99,3.23,2.50,1.83
29.9520,0.05,0.12,-1.00,3.36,2.38,1.83
29.9670,0.05,0.12,-0.99,3.30,2.26,1.83
29.9820,0.05,0.12,-0.99,3.36,2.50,1.89
29.9880,0.05,0.12,-1.00,3.05,2.93,1.77
30.0040,0.05,0.12,-0.99,3.23,2.44,1.89
30.0270,0.05,0.12,-0.99,3.23,2.32,1.89
30.0430,0.05,0.12,-0.99,3.48,2.26,1.71
30.0580,0.05,0.12,-0.99,3.30,2.32,1.77
30.0610,0.05,0.12,-0.99,3.11,2.44,1.77
30.0770,0.05,0.12,-0.99,3.42,1.95,1.77
30.0930,0.05,0.12,-0.99,3.11,2.62,1.77
30.1220,0.05,0.12,-0.99,3.30,2.62,1.77
30.1380,0.05,0.12,-0.99,3.23,2.75,1.83
30.1490,0.05,0.12,-0.99,3.30,1.95,1.71
30.1650,0.05,0.12,-0.99,3.30,2.26,1.83
30.1820,0.05,0.12,-0.99,3.23,2.44,1.77
30.1980,0.05,0.12,-0.99,3.48,2.32,1.83
30.2150,0.05,0.12,-0.99,3.11,2.62,1.83
30.2300,0.05,0.12,-0.99,3.17,2.56,1.83
30.2460,0.05,0.12,-0.99,3.05,2.56,1.77
30.2610,0.05,0.12,-0.99,3.23,2.62,1.83
30.2770,0.05,0.12,-0.99,3.23,2.38,1.83
30.2930,0.05,0.12,-0.99,3.36,2.69,1.71
30.3080,0.05,0.12,-0.99,3.11,2.56,1.83
30.3240,0.05,0.12,-1.00,3.54,2.38,1.65
30.3320,0.05,0.12,-0.99,3.42,2.38,1.65
30.3480,0.05,0.12,-0.99,3.30,2.56,1.89
30.3630,0.05,0.12,-0.99,3.36,2.56,1.83
30.3790,0.05,0.12,-0.99,3.30,2.62,1.83
30.3950,0.05,0.12,-0.99,3.30,2.56,1.89
30.4150,0.05,0.12,-0.99,3.54,2.69,1.83
30.4310,0.05,0.12,-0.99,3.30,2.26,1.95
30.4480,0.05,0.12,-0.99,3.42,2.62,1.95
30.4640,0.05,0.12,-0.99,3.36,2.08,1.77
30.4790,0.05,0.12,-0.99,3.30,2.62,1.77
30.4950,0.05,0.12,-1.00,3.30,2.26,1.77
30.4980,0.05,0.12,-0.99,3.23,2.69,1.83
30.5140,0.05,0.12,-1.00,3.36,2.14,1.71
30.5370,0.05,0.12,-0.99,3.36,2.32,1.77
30.5540,0.05,0.12,-0.99,3.30,2.56,1.83
30.5700,0.05,0.12,-1.00,3.11,2.62,1.83
30.5870,0.05,0.12,-0.99,3.11,2.93,1.89
30.6020,0.05,0.12,-0.99,3.17,2.62,1.83
30.6180,0.05,0.12,-0.99,3.11,2.87,1.83
30.6200,0.05,0.12,-0.99,3.23,2.62,1.77
30.6370,0.05,0.12,-0.99,3.42,2.50,1.89
30.6600,0.05,0.12,-0.99,3.42,2.81,2.01
30.6760,0.05,0.12,-0.99,3.30,2.75,1.83
30.6920,0.05,0.12,-0.99,3.11,2.62,1.83
30.7090,0.05,0.12,-0.99,3.42,2.56,1.89
30.7260,0.05,0.12,-0.99,3.23,2.69,1.77
30.7430,0.05,0.12,-0.99,3.42,2.38,1.71
30.7590,0.05,0.12,-0.99,3.17,2.56,1.95
30.7750,0.05,0.12,-0.99,3.36,2.38,1.71
30.7910,0.05,0.12,-0.99,3.30,1.95,1.83
30.8070,0.05,0.12,-1.00,3.30,2.56,1.83
30.8230,0.05,0.12,-0.99,3.23,2.93,1.95
30.8390,0.05,0.12,-0.99,3.42,2.44,1.77
30.8420,0.05,0.12,-0.99,3.17,2.44,1.65
30.8700,0.05,0.12,-0.99,3.54,2.38,1.83
30.8810,0.05,0.12,-1.00,3.42,2.38,1.89
30.8980,0.05,0.12,-0.99,3.36,2.62,1.89
30.9140,0.05,0.12,-0.99,3.30,2.44,1.77
30.9310,0.05,0.12,-0.99,3.30,2.69,1.77
30.9470,0.05,0.12,-0.99,3.48,2.56,1.77
30.9620,0.05,0.12,-0.99,3.23,2.56,1.83
30.9780,0.05,0.12,-0.99,3.23,2.62,1.77
30.9810,0.05,0.12,-0.99,3.23,2.56,1.89
30.9970,0.05,0.12,-0.99,3.42,2.26,1.77
31.0190,0.05,0.12,-0.99,3.23,2.26,1.77
31.0360,0.05,0.12,-1.00,3.36,2.44,1.89
31.0520,0.05,0.12,-0.99,3.36,2.38,1.83
31.0700,0.05,0.12,-0.99,3.17,2.44,1.71
31.0860,0.05,0.12,-0.99,3.36,2.56,1.89
31.1020,0.05,0.12,-0.99,3.30,2.26,1.59
31.1180,0.05,0.12,-0.99,3.36,2.56,1.89
31.1340,0.05,0.12,-0.99,3.36,2.01,1.83
31.1360,0.05,0.12,-0.99,3.30,2.38,1.83
31.1590,0.05,0.12,-0.99,3.30,2.38,1.77
31.1740,0.05,0.12,-1.00,3.30,2.20,1.95
31.1900,0.05,0.12,-0.99,3.36,2.14,1.71
31.2070,0.05,0.12,-0.99,3.23,2.32,1.77
31.2230,0.05,0.12,-0.99,3.30,2.32,1.89
31.2400,0.05,0.12,-0.99,3.17,2.62,1.83
31.2560,0.05,0.12,-0.99,3.23,2.32,1.77
31.2600,0.05,0.12,-0.99,3.17,2.44,1.77
31.2740,0.05,0.12,-0.99,3.30,2.08,1.77
31.2900,0.05,0.12,-0.99,3.36,2.56,1.77
31.3070,0.05,0.12,-0.99,3.42,2.50,1.89
31.3230,0.05,0.12,-0.99,3.36,2.32,1.95
31.3450,0.05,0.12,-1.00,3.36,2.20,1.83
31.3620,0.05,0.12,-1.00,3.17,2.56,1.83
31.3790,0.05,0.12,-0.99,3.36,2.38,1.77
31.3950,0.05,0.12,-0.99,3.30,2.38,1.77
31.4110,0.05,0.12,-1.00,3.17,2.38,1.83
31.4130,0.05,0.12,-0.99,3.42,2.01,1.77
31.4430,0.05,0.12,-1.00,3.23,2.32,1.83
31.4590,0.05,0.12,-0.99,3.30,2.44,1.95
31.4750,0.05,0.12,-0.99,3.23,2.14,1.77
31.4790,0.05,0.12,-0.99,3.42,2.08,1.83
31.4950,0.05,0.12,-1.00,3.30,2.38,1.71
31.5190,0.05,0.12,-0.99,3.23,2.44,1.89
31.5360,0.05,0.12,-0.99,3.30,2.50,1.71
31.5530,0.05,0.12,-0.99,3.23,2.32,1.65
31.5690,0.05,0.12,-0.99,3.17,2.69,1.89
31.5850,0.05,0.12,-0.99,3.42,2.38,1.83
31.6010,0.05,0.12,-0.99,3.42,2.69,1.83
31.6170,0.05,0.12,-0.99,3.17,2.62,1.89
31.6320,0.05,0.12,-1.00,3.36,2.44,1.89
31.6480,0.05,0.12,-1.00,3.30,2.81,1.77
31.6630,0.05,0.12,-0.99,3.30,2.01,1.71
31.6780,0.05,0.12,-0.99,3.36,2.26,1.77
31.6930,0.05,0.12,-0.99,3.11,2.69,1.83
31.7080,0.05,0.12,-0.99,3.42,2.56,1.77
31.7190,0.05,0.12,-0.99,3.30,2.56,1.89
31.7360,0.05,0.12,-0.99,3.36,2.50,1.89
31.7540,0.05,0.12,-0.99,3.23,2.26,1.83
31.7690,0.05,0.12,-0.99,3.36,2.32,1.77
31.7860,0.05,0.12,-0.99,3.23,2.50,1.77
31.8020,0.05,0.12,-1.00,3.23,2.38,1.77
31.8190,0.05,0.12,-0.99,3.36,2.56,1.59
31.8350,0.05,0.12,-0.99,3.23,2.38,1.83
31.8510,0.05,0.12,-0.99,3.36,2.26,1.77
31.8670,0.05,0.12,-0.99,3.36,2.50,1.89
31.8830,0.05,0.12,-0.99,3.17,2.26,1.89
31.8980,0.05,0.12,-1.00,3.17,2.44,1.83
31.9130,0.05,0.12,-0.99,3.17,2.50,1.77
31.9280,0.05,0.12,-0.99,3.36,2.38,1.71
31.9430,0.05,0.12,-0.99,3.11,2.69,1.77
31.9530,0.05,0.12,-0.99,3.30,2.38,1.89
31.9690,0.05,0.12,-1.00,3.23,2.20,1.83
31.9870,0.05,0.12,-0.99,3.30,2.44,1.83
32.0020,0.05,0.12,-0.99,3.30,2.38,1.83
32.0200,0.05,0.12,-1.00,3.42,2.50,1.77
32.0350,0.05,0.12,-0.99,3.30,2.56,1.77
32.0510,0.05,0.12,-0.99,3.30,2.56,1.71
32.0670,0.05,0.12,-1.00,3.30,2.38,1.71
32.0820,0.05,0.12,-0.99,3.36,2.62,1.83
32.0850,0.05,0.12,-1.00,3.42,2.26,1.83
32.1010,0.05,0.12,-0.99,3.42,2.32,1.77
32.1220,0.05,0.12,-0.99,3.17,2.69,1.77
32.1400,0.05,0.12,-0.99,3.17,2.93,1.83
32.1560,0.05,0.12,-0.99,2.87,2.81,1.89
32.1730,0.05,0.12,-1.00,3.30,2.38,1.83
32.1890,0.05,0.12,-0.99,3.11,2.26,1.65
32.2060,0.05,0.12,-1.00,3.42,2.56,1.83
32.2220,0.05,0.12,-0.99,3.23,2.38,1.77
32.2230,0.05,0.12,-0.99,3.23,2.38,1.83
32.2390,0.05,0.12,-0.99,3.23,2.56,1.89
32.2600,0.05,0.12,-0.99,3.23,2.14,1.77
32.2720,0.05,0.12,-0.99,3.17,2.50,1.77
32.3000,0.05,0.12,-0.99,3.17,2.50,1.77
32.3070,0.05,0.12,-0.99,3.23,2.44,1.65
32.3240,0.05,0.12,-0.99,3.05,2.50,1.71
32.3410,0.05,0.12,-0.99,3.30,2.62,1.89
32.3600,0.05,0.12,-0.99,3.42,2.20,1.89
32.3730,0.05,0.12,-0.99,3.36,2.38,1.83
32.3900,0.05,0.12,-0.99,3.42,2.14,1.77
32.4080,0.05,0.12,-1.00,3.23,2.38,1.71
32.4240,0.05,0.12,-0.99,3.17,2.20,1.77
32.4390,0.05,0.12,-0.99,3.30,2.20,1.83
32.4560,0.05,0.12,-0.99,3.17,2.75,1.83
32.4600,0.05,0.12,-0.99,3.30,2.26,1.89
32.4870,0.05,0.12,-0.99,3.30,2.50,1.77
32.5030,0.05,0.12,-0.99,3.23,2.62,1.83
32.5180,0.05,0.12,-0.99,3.42,2.32,1.89
32.5280,0.05,0.12,-0.99,3.30,2.62,1.83
32.5440,0.05,0.12,-0.99,2.99,2.93,1.89
32.5610,0.05,0.12,-1.00,3.11,2.81,1.89
32.5780,0.05,0.12,-0.99,3.17,2.50,1.89
32.5940,0.05,0.12,-1.00,3.23,2.38,1.77
32.6110,0.05,0.12,-0.99,3.17,2.50,1.77
32.6270,0.05,0.12,-1.00,3.36,2.32,1.77
32.6290,0.05,0.12,-1.00,3.48,2.26,1.77
32.6590,0.05,0.12,-0.99,3.36,2.44,1.83
32.6620,0.05,0.12,-0.99,3.36,2.62,1.83
32.6910,0.05,0.12,-0.99,3.23,2.32,1.71
32.7070,0.05,0.12,-0.99,3.42,2.20,1.77
32.7110,0.05,0.12,-0.99,3.42,2.01,1.77
32.7280,0.05,0.12,-0.99,3.42,2.50,1.77
32.7490,0.05,0.12,-0.99,3.48,2.14,1.77
32.7660,0.05,0.12,-0.99,3.17,2.50,1.83
32.7840,0.05,0.12,-0.99,3.23,2.20,1.83
32.7840,0.05,0.12,-0.99,3.48,2.14,1.77
32.8150,0.05,0.12,-0.99,3.36,2.93,1.83
32.8300,0.05,0.12,-1.00,3.48,2.56,1.89
32.8330,0.05,0.12,-0.99,3.17,2.62,1.83
32.8600,0.05,0.12,-0.99,3.36,2.50,1.89
32.8710,0.05,0.12,-0.99,3.17,2.50,1.71
32.8870,0.05,0.12,-1.00,3.36,2.62,1.89
32.9040,0.05,0.12,-0.99,3.42,2.56,1.77
32.9210,0.05,0.12,-1.00,3.23,2.50,1.65
32.9370,0.05,0.12,-0.99,3.36,2.38,1.71
32.9530,0.05,0.12,-0.99,3.36,2.50,1.71
32.9700,0.05,0.12,-1.00,3.17,2.62,1.71
32.9710,0.05,0.12,-0.99,3.23,2.69,1.77
33.0020,0.05,0.12,-0.99,3.42,2.69,1.77
33.0180,0.05,0.12,-1.00,3.48,2.50,1.83
33.0200,0.05,0.12,-0.99,3.36,2.44,1.89
33.0360,0.05,0.12,-0.99,3.36,1.89,1.71
33.0600,0.05,0.12,-1.00,3.23,2.26,1.77
33.0820,0.05,0.12,-0.99,3.17,2.56,1.89
33.0910,0.05,0.12,-0.99,3.23,2.62,1.83
33.1070,0.05,0.12,-0.99,3.42,2.20,1.71
33.1280,0.05,0.12,-1.00,2.99,2.44,1.89
33.1440,0.05,0.12,-0.99,3.17,2.69,1.77
33.1600,0.05,0.12,-0.99,3.42,2.32,1.83
33.1750,0.05,0.12,-0.99,3.42,2.26,1.65
33.1790,0.05,0.12,-1.00,3.42,2.26,1.83
33.1950,0.05,0.12,-0.99,3.11,2.20,1.71
33.2240,0.05,0.12,-0.99,3.36,2.32,1.89
33.2400,0.05,0.12,-0.99,3.30,2.38,1.77
33.2460,0.05,0.12,-0.99,3.42,2.44,1.77
33.2620,0.05,0.12,-0.99,3.30,2.32,1.83
33.2780,0.05,0.12,-0.99,3.36,2.69,1.71
33.3000,0.05,0.12,-0.99,3.36,1.83,1.77
33.3180,0.05,0.12,-1.00,3.30,2.26,1.77
33.3340,0.05,0.12,-0.99,3.30,2.38,1.89
33.3500,0.05,0.12,-0.99,3.36,2.44,1.77
33.3670,0.05,0.12,-0.99,3.23,2.08,1.77
33.3820,0.05,0.12,-1.00,3.30,2.14,1.77
33.3980,0.05,0.12,-0.99,3.42,2.62,1.77
33.4140,0.05,0.12,-0.99,3.23,2.62,1.89
33.4290,0.05,0.12,-0.99,3.17,2.44,1.71
33.4340,0.05,0.12,-0.99,3.30,2.56,1.89
33.4600,0.05,0.12,-0.99,3.23,2.56,2.01
33.4760,0.05,0.12,-0.99,3.23,2.44,1.65
33.4840,0.05,0.12,-0.99,3.11,3.05,1.89
33.5000,0.05,0.12,-0.99,3.30,2.32,1.71
33.5170,0.05,0.12,-0.99,3.23,2.26,1.71
33.5340,0.05,0.12,-0.99,3.30,2.26,1.71
33.5500,0.05,0.12,-1.00,3.30,2.50,1.71
33.5670,0.05,0.12,-0.99,3.42,2.38,1.83
33.5840,0.05,0.12,-1.00,3.36,2.20,1.89
33.6000,0.05,0.12,-0.99,3.23,2.08,1.65
33.6150,0.05,0.12,-0.99,3.30,2.75,1.77
33.6300,0.05,0.12,-0.99,3.36,2.50,1.77
33.6470,0.05,0.12,-0.99,3.36,2.38,1.77
33.6630,0.05,0.12,-0.99,3.23,2.56,1.71
33.6680,0.05,0.12,-0.99,3.42,2.50,1.83
33.6840,0.05,0.12,-0.99,3.42,2.75,1.89
33.7000,0.05,0.12,-0.99,3.11,2.69,1.89
33.7210,0.05,0.12,-1.00,3.36,2.50,1.89
33.7380,0.05,0.12,-0.99,3.36,2.56,1.77
33.7550,0.05,0.12,-0.99,3.17,2.69,1.77
33.7720,0.05,0.12,-1.00,3.23,2.44,1.89
33.7880,0.05,0.12,-1.00,3.30,2.14,1.89
33.8040,0.05,0.12,-0.99,3.23,2.50,1.89
33.8200,0.05,0.12,-0.99,3.11,2.44,1.83
33.8360,0.05,0.12,-0.99,3.30,2.32,1.89
33.8520,0.05,0.12,-0.99,3.23,2.32,1.71
33.8680,0.05,0.12,-0.99,3.36,2.26,1.83
33.8710,0.05,0.12,-0.99,3.48,2.50,1.83
33.8860,0.05,0.12,-0.99,3.36,2.26,1.77
33.9150,0.05,0.12,-0.99,3.36,2.08,1.89
33.9230,0.05,0.12,-0.99,3.23,2.26,1.71
33.9390,0.05,0.12,-0.99,3.36,2.14,1.71
33.9600,0.05,0.12,-0.99,3.42,2.38,1.71
33.9770,0.05,0.12,-1.00,3.30,2.38,1.77
33.9910,0.05,0.12,-0.99,3.23,2.08,1.77
34.0080,0.05,0.12,-0.99,3.30,2.32,1.95
34.0250,0.05,0.12,-0.99,3.17,2.20,1.89
34.0410,0.05,0.12,-0.99,3.30,2.38,1.95
34.0420,0.05,0.12,-0.99,3.23,2.32,1.77
34.0600,0.05,0.12,-0.99,3.42,2.26,1.83
34.0870,0.05,0.12,-0.99,3.36,2.14,1.83
34.1020,0.05,0.12,-0.99,3.42,2.38,1.89
34.1140,0.05,0.12,-0.99,3.30,1.95,1.65
34.1290,0.05,0.12,-0.99,3.30,2.14,1.83
34.1470,0.05,0.12,-0.99,3.36,2.38,1.89
34.1620,0.05,0.12,-0.99,3.17,2.38,1.77
34.1780,0.05,0.12,-0.99,3.42,1.83,1.71
34.1940,0.05,0.12,-1.00,3.30,2.01,1.71
34.2090,0.05,0.12,-1.00,3.42,2.14,1.83
34.2260,0.05,0.12,-0.99,3.30,2.62,1.71
34.2420,0.05,0.12,-1.00,2.99,2.81,1.83
34.2580,0.05,0.12,-0.99,3.17,2.38,1.77
34.2640,0.05,0.12,-0.99,3.36,2.26,1.77
34.2790,0.05,0.12,-0.99,3.42,1.95,1.71
34.2970,0.05,0.12,-0.99,3.36,2.38,1.77
34.3130,0.05,0.12,-0.99,3.42,2.32,1.71
34.3350,0.05,0.12,-0.99,3.05,2.32,1.77
34.3520,0.05,0.12,-0.99,3.36,2.20,1.83
34.3680,0.05,0.12,-0.99,3.36,2.20,1.71
34.3840,0.05,0.12,-0.99,3.42,2.38,1.71
34.4000,0.05,0.12,-0.99,3.36,2.20,1.77
34.4040,0.05,0.12,-0.99,3.36,2.56,1.89
34.4190,0.05,0.12,-0.99,3.36,2.26,1.77
34.4440,0.05,0.12,-0.99,3.36,2.32,1.77
34.4620,0.05,0.12,-1.00,3.48,2.44,1.89
34.4770,0.05,0.12,-1.00,3.23,2.75,1.83
34.4940,0.05,0.12,-0.99,3.30,2.20,1.71
34.5100,0.05,0.12,-0.99,3.42,2.26,1.95
34.5110,0.05,0.12,-0.99,3.36,1.95,1.77
34.5430,0.05,0.12,-0.99,3.36,2.08,1.65
34.5590,0.05,0.12,-0.99,3.17,2.20,1.71
34.5610,0.05,0.12,-0.99,3.17,2.44,1.77
34.5910,0.05,0.12,-0.99,3.30,2.14,1.83
34.6070,0.05,0.12,-1.00,3.42,2.08,1.71
34.6230,0.05,0.12,-0.99,3.36,1.89,1.77
34.6270,0.05,0.12,-0.99,3.42,1.95,1.83
34.6430,0.05,0.12,-0.99,3.48,2.32,1.77
34.6650,0.05,0.12,-0.99,3.23,2.62,1.77
34.6810,0.05,0.12,-0.99,3.23,2.50,1.89
34.6990,0.05,0.12,-0.99,3.17,2.56,1.83
34.7150,0.05,0.12,-0.99,3.48,2.38,1.77
34.7310,0.05,0.12,-0.99,3.11,2.38,1.83
34.7470,0.05,0.12,-0.99,3.42,2.20,1.71
34.7620,0.05,0.12,-0.99,3.36,2.32,1.77
34.7780,0.05,0.12,-0.99,3.17,2.56,1.77
34.7940,0.05,0.12,-1.00,3.23,2.20,1.77
34.7990,0.05,0.12,-0.99,3.11,2.14,1.71
34.8140,0.05,0.12,-0.99,3.36,1.83,1.71
34.8300,0.05,0.12,-0.99,3.17,2.20,1.77
34.8510,0.05,0.12,-1.00,3.23,2.32,1.71
34.8670,0.05,0.12,-0.99,3.17,2.62,1.95
34.8840,0.05,0.12,-0.99,3.48,2.26,1.65
34.9020,0.05,0.12,-0.99,3.17,2.50,1.83
34.9180,0.05,0.12,-0.99,3.30,2.56,1.65
34.9330,0.05,0.12,-0.99,3.17,2.75,1.77
34.9490,0.05,0.12,-0.99,3.48,2.20,1.77
34.9650,0.05,0.12,-0.99,3.36,2.14,1.77
34.9810,0.05,0.12,-0.99,3.42,2.62,1.83
34.9960,0.05,0.12,-0.99,3.30,2.62,1.77
35.0120,0.05,0.12,-0.99,3.36,2.26,1.83
35.0180,0.05,0.12,-0.99,3.17,2.50,1.89
35.0340,0.05,0.12,-0.99,3.42,2.44,1.95
35.0570,0.05,0.12,-0.99,3.23,2.50,1.83
35.0730,0.05,0.12,-0.99,3.30,2.38,1.77
35.0890,0.05,0.12,-0.99,3.30,2.62,1.77
35.1060,0.05,0.12,-0.99,3.30,2.56,1.95
35.1070,0.05,0.12,-0.99,3.48,2.38,1.89
35.1240,0.05,0.12,-0.99,3.17,2.32,1.71
35.1410,0.05,0.12,-1.00,3.30,2.38,1.89
35.1610,0.05,0.12,-0.99,3.30,2.38,1.89
35.1740,0.05,0.12,-1.00,3.30,2.69,1.89
35.1950,0.05,0.12,-0.99,3.42,1.95,1.71
35.2120,0.05,0.12,-0.99,3.42,2.20,1.89
35.2280,0.05,0.12,-0.99,3.42,2.26,1.83
35.2450,0.05,0.12,-0.99,3.17,2.50,1.83
35.2610,0.05,0.12,-0.99,3.36,2.14,1.71
35.2780,0.05,0.12,-0.99,3.23,2.38,1.71
35.2940,0.05,0.12,-1.00,3.36,2.01,1.83
35.3100,0.05,0.12,-0.99,3.42,2.08,1.65
35.3250,0.05,0.12,-0.99,3.42,2.20,1.77
35.3420,0.05,0.12,-0.99,3.42,2.44,1.83
35.3570,0.05,0.12,-1.00,3.23,2.32,1.83
35.3620,0.05,0.12,-0.99,3.42,2.44,1.83
35.3770,0.05,0.12,-0.99,3.30,2.62,1.83
35.3930,0.05,0.12,-0.99,3.36,2.44,1.83
35.4140,0.05,0.12,-0.99,3.30,2.50,1.89
35.4310,0.05,0.12,-0.99,3.36,2.38,1.83
35.4470,0.05,0.12,-0.99,3.17,2.69,1.77
35.4630,0.05,0.12,-1.00,3.23,2.50,1.83
35.4780,0.05,0.12,-0.99,3.30,2.32,1.83
35.4930,0.05,0.12,-0.99,3.36,2.38,1.95
35.5100,0.05,0.12,-0.99,3.30,2.62,1.89
35.5260,0.05,0.12,-0.99,3.30,2.26,1.77
35.5420,0.05,0.12,-0.99,3.17,2.69,1.83
35.5470,0.05,0.12,-1.00,3.48,2.69,1.83
35.5650,0.05,0.12,-1.00,3.54,2.38,1.71
35.5810,0.05,0.12,-0.99,3.54,2.26,1.77
35.6020,0.05,0.12,-0.99,3.42,2.14,1.77
35.6180,0.05,0.12,-0.99,3.36,1.95,1.71
35.6340,0.05,0.12,-0.99,3.54,1.83,1.71
35.6500,0.05,0.12,-1.00,3.42,2.32,1.77
35.6600,0.05,0.12,-1.00,3.42,2.08,1.65
35.6680,0.05,0.12,-0.99,3.23,2.08,1.65
35.6900,0.05,0.12,-0.99,3.23,2.20,1.65
35.7050,0.05,0.12,-0.99,3.36,2.38,1.77
35.7240,0.05,0.12,-0.99,3.11,2.50,1.77
35.7390,0.05,0.12,-1.00,3.42,2.38,1.71
35.7560,0.05,0.12,-0.99,3.23,2.81,1.83
35.7710,0.05,0.12,-0.99,3.36,2.50,1.77
35.7880,0.05,0.12,-1.00,3.17,2.44,1.89
35.8040,0.05,0.12,-1.00,3.23,2.56,1.89
35.8060,0.05,0.12,-0.99,3.17,2.44,1.83
35.8230,0.05,0.12,-0.99,3.30,2.62,1.83
35.8380,0.05,0.12,-0.99,3.42,2.08,1.83
35.8590,0.05,0.12,-0.99,3.42,2.26,1.71
35.8770,0.05,0.12,-1.00,3.36,2.01,1.77
35.8920,0.05,0.12,-1.00,3.30,2.50,1.83
35.9100,0.05,0.12,-0.99,3.54,2.26,1.77
35.9250,0.05,0.12,-0.99,2.99,2.32,1.77
35.9430,0.05,0.12,-1.00,3.05,2.44,1.83
35.9580,0.05,0.12,-0.99,3.23,2.01,1.83
35.9750,0.05,0.12,-0.99,3.05,2.69,1.83
35.9900,0.05,0.12,-1.00,3.36,2.26,1.77
36.0060,0.05,0.12,-0.99,3.54,2.26,1.83
36.0230,0.05,0.12,-0.99,3.42,2.69,1.95
36.0380,0.05,0.12,-1.00,3.23,2.32,1.89
36.0540,0.05,0.12,-0.99,3.30,2.20,1.71
36.0700,0.05,0.12,-0.99,3.17,2.50,1.89
36.0850,0.05,0.12,-0.99,3.36,2.14,1.77
36.0910,0.05,0.12,-0.99,3.17,2.69,1.77
36.1090,0.05,0.12,-0.99,3.36,2.50,2.01
36.1240,0.05,0.12,-0.99,3.23,2.44,1.89
36.1400,0.05,0.12,-1.00,3.42,2.44,1.65
36.1620,0.05,0.12,-0.99,3.17,2.75,1.71
36.1780,0.05,0.12,-0.99,3.05,2.38,1.83
36.1940,0.05,0.12,-0.99,3.23,2.62,1.77
36.2100,0.05,0.12,-1.00,3.23,2.38,1.83
36.2250,0.05,0.12,-0.99,3.36,1.89,1.83
36.2280,0.05,0.12,-0.99,3.23,2.20,1.77
36.2450,0.05,0.12,-0.99,3.17,2.56,1.83
36.2610,0.05,0.12,-0.99,3.05,2.93,1.83
36.2820,0.05,0.12,-1.00,3.30,2.62,1.71
36.2990,0.05,0.12,-0.99,3.17,2.69,1.83
36.3160,0.05,0.12,-0.99,3.48,2.26,1.83
36.3320,0.05,0.12,-0.99,3.23,2.32,1.77
36.3490,0.05,0.12,-1.00,3.36,2.32,1.89
36.3650,0.05,0.12,-0.99,3.42,2.50,1.83
36.3820,0.05,0.12,-0.99,3.48,2.26,1.83
36.3970,0.05,0.12,-0.99,3.42,2.38,1.83
36.4140,0.05,0.12,-0.99,3.17,2.14,1.89
36.4300,0.05,0.12,-0.99,3.36,2.01,1.83
36.4460,0.05,0.12,-0.99,3.23,2.20,1.83
36.4620,0.05,0.12,-1.00,2.99,2.56,1.89
36.4780,0.05,0.12,-0.99,3.36,2.38,1.83
36.4940,0.05,0.12,-0.99,3.23,2.20,1.71
36.4980,0.05,0.12,-0.99,3.11,2.56,1.95
36.5140,0.05,0.12,-0.99,3.36,2.32,1.83
36.5360,0.05,0.12,-0.99,3.54,2.14,1.83
36.5530,0.05,0.12,-0.99,3.17,2.62,1.95
36.5690,0.05,0.12,-1.00,3.23,2.69,1.89
36.5860,0.05,0.12,-0.99,3.36,2.38,1.77
36.6020,0.05,0.12,-0.99,3.36,2.44,1.83
36.6180,0.05,0.12,-0.99,3.30,2.56,1.95
36.6340,0.05,0.12,-0.99,3.30,2.38,1.89
36.6360,0.05,0.12,-0.99,3.05,2.62,1.77
36.6660,0.05,0.12,-0.99,3.30,2.69,1.89
36.6690,0.05,0.12,-0.99,3.17,2.62,1.83
36.6840,0.05,0.12,-0.99,3.11,2.69,1.89
36.7000,0.05,0.12,-0.99,3.36,2.20,1.71
36.7300,0.05,0.12,-0.99,3.30,2.44,1.83
36.7390,0.05,0.12,-0.99,3.11,2.56,1.71
36.7570,0.05,0.12,-0.99,2.93,2.38,1.65
36.7730,0.05,0.12,-0.99,3.30,2.44,1.83
36.7900,0.05,0.12,-0.99,3.30,2.50,1.65
36.8060,0.05,0.12,-0.99,3.23,2.69,1.89
36.8210,0.05,0.12,-0.99,3.30,2.69,1.77
36.8380,0.05,0.12,-0.99,3.30,2.56,1.95
36.8530,0.05,0.12,-0.99,3.23,2.62,1.95
36.8690,0.05,0.12,-0.99,3.36,2.44,1.83
36.8860,0.05,0.12,-0.99,3.23,2.75,1.83
36.9010,0.05,0.12,-0.99,3.30,2.56,1.89
36.9170,0.05,0.12,-0.99,3.30,2.62,1.77
36.9220,0.05,0.12,-0.99,3.36,2.50,1.83
36.9380,0.05,0.12,-1.00,3.17,2.50,1.89
36.9590,0.05,0.12,-0.99,3.30,2.50,1.89
36.9750,0.05,0.12,-1.00,3.48,2.20,1.65
36.9920,0.05,0.12,-1.00,3.30,2.62,1.71
37.0080,0.05,0.12,-0.99,3.30,2.56,1.77
37.0250,0.05,0.12,-0.99,3.23,2.50,1.95
37.0400,0.05,0.12,-0.99,3.36,2.62,1.77
37.0550,0.05,0.12,-1.00,3.17,2.75,1.77
37.0700,0.05,0.12,-0.99,3.36,2.81,1.83
37.0750,0.05,0.12,-1.00,3.30,2.38,1.89
37.0900,0.05,0.12,-0.99,3.23,2.69,1.83
37.1170,0.05,0.12,-0.99,3.36,2.62,1.77
37.1270,0.05,0.12,-0.99,3.42,2.44,1.95
37.1450,0.05,0.12,-0.99,3.23,2.99,1.83
37.1610,0.05,0.12,-0.99,3.36,2.44,1.89
37.1780,0.05,0.12,-0.99,3.60,2.56,1.77
37.1930,0.05,0.12,-0.99,3.23,2.75,1.83
37.2100,0.05,0.12,-1.00,3.11,2.87,1.83
37.2260,0.05,0.12,-0.99,3.23,2.50,1.83
37.2420,0.05,0.12,-0.99,3.30,2.50,1.83
37.2590,0.05,0.12,-0.99,3.30,2.38,1.77
37.2740,0.05,0.12,-0.99,3.42,2.44,1.83
37.2890,0.05,0.12,-0.99,3.23,2.69,1.71
37.2930,0.05,0.12,-1.00,3.05,2.75,1.89
37.3090,0.05,0.12,-0.99,3.17,2.44,1.95
37.3300,0.05,0.12,-1.00,3.23,2.87,1.89
37.3460,0.05,0.12,-0.99,3.36,2.44,1.77
37.3640,0.05,0.12,-1.00,3.23,2.62,1.95
37.3810,0.05,0.12,-0.99,3.36,2.14,1.77
37.3960,0.05,0.12,-1.00,3.36,2.44,1.83
37.4130,0.05,0.12,-0.99,3.42,2.14,1.77
37.4290,0.05,0.12,-0.99,3.23,2.44,1.77
37.4450,0.05,0.12,-0.99,3.30,2.69,1.71
37.4530,0.05,0.12,-0.99,3.36,2.50,1.65
37.4630,0.05,0.12,-0.99,3.36,2.50,1.77
37.4800,0.05,0.12,-0.99,3.30,2.56,1.83
37.4950,0.05,0.12,-0.99,3.36,2.81,1.71
37.5240,0.05,0.12,-0.99,3.42,2.56,1.77
37.5390,0.05,0.12,-0.99,3.42,2.62,1.77
37.5530,0.05,0.12,-0.99,3.30,2.38,1.83
37.5640,0.05,0.12,-0.99,3.17,2.38,1.77
37.5810,0.05,0.12,-0.99,3.11,2.32,1.71
37.5970,0.05,0.12,-0.99,3.36,2.38,1.89
37.6140,0.05,0.12,-0.99,3.11,2.44,1.83
37.6320,0.05,0.12,-0.99,3.30,2.50,1.77
37.6320,0.05,0.12,-0.99,3.48,2.44,1.77
37.6640,0.05,0.12,-1.00,3.23,2.69,1.77
37.6790,0.05,0.12,-0.99,3.30,2.50,1.83
37.6950,0.05,0.12,-1.00,3.23,2.14,1.83
37.6970,0.05,0.12,-0.99,3.23,2.26,1.95
37.7280,0.05,0.12,-1.00,3.30,2.32,1.83
37.7310,0.05,0.12,-0.99,3.11,2.44,1.77
37.7520,0.05,0.12,-1.00,3.30,2.50,1.59
37.7630,0.05,0.12,-0.99,3.36,2.26,1.77
37.7900,0.05,0.12,-1.00,3.17,2.44,1.65
37.8000,0.05,0.12,-0.99,3.11,2.38,1.53
37.8180,0.05,0.12,-0.99,3.30,2.26,1.77
37.8330,0.05,0.12,-0.99,3.17,2.87,1.95
37.8490,0.05,0.12,-0.99,3.17,2.56,1.65
37.8650,0.05,0.12,-1.00,3.17,2.44,1.83
37.8810,0.05,0.12,-0.99,3.23,2.56,1.89
37.8830,0.05,0.12,-0.99,3.23,2.81,1.77
37.8990,0.05,0.12,-1.00,3.30,2.44,1.65
37.9220,0.05,0.12,-0.99,3.11,2.32,1.83
37.9390,0.05,0.12,-0.99,3.30,2.44,1.83
37.9560,0.05,0.12,-0.99,3.23,2.75,1.89
37.9720,0.05,0.12,-0.99,3.23,2.56,1.89
37.9890,0.05,0.12,-0.99,3.48,2.08,1.71
38.0050,0.05,0.12,-0.99,3.23,2.50,1.89
38.0210,0.05,0.12,-0.99,3.42,2.56,1.95
38.0370,0.05,0.12,-0.99,3.30,2.69,1.83
38.0520,0.05,0.12,-1.00,3.23,2.56,1.89
38.0670,0.05,0.12,-0.99,3.48,2.20,1.89
38.0820,0.05,0.12,-0.99,3.30,2.50,1.89
38.0980,0.05,0.12,-0.99,3.17,3.05,1.89
38.1040,0.05,0.12,-1.00,3.05,2.99,1.71
38.1200,0.05,0.12,-0.99,3.17,2.62,1.89
38.1430,0.05,0.12,-1.00,3.17,2.99,1.83
38.1590,0.05,0.12,-0.99,3.36,2.56,1.89
38.1760,0.05,0.12,-0.99,3.48,2.38,1.95
38.1770,0.05,0.12,-0.99,3.48,2.50,1.83
38.1930,0.05,0.12,-0.99,3.36,2.50,1.71
38.2230,0.05,0.12,-1.00,3.30,2.50,1.77
38.2260,0.05,0.12,-0.99,3.48,2.44,1.83
38.2510,0.05,0.12,-0.99,3.30,2.38,1.89
38.2710,0.05,0.12,-0.99,3.36,2.44,1.83
38.2870,0.05,0.12,-0.99,3.17,2.32,1.71
38.2930,0.05,0.12,-0.99,3.36,2.26,1.89
38.3190,0.05,0.12,-0.99,3.23,2.20,1.83
38.3260,0.05,0.12,-0.99,3.48,2.38,1.89
38.3490,0.05,0.12,-1.00,3.36,2.38,1.71
38.3600,0.05,0.12,-1.00,3.36,2.38,1.71
38.3760,0.05,0.12,-1.00,3.23,2.56,1.77
38.3940,0.05,0.12,-0.99,3.30,2.69,1.71
38.3970,0.05,0.12,-0.99,3.23,2.56,1.77
38.4260,0.05,0.12,-0.99,3.36,2.32,1.65
38.4420,0.05,0.12,-0.99,3.23,2.50,1.77
38.4580,0.05,0.12,-0.99,3.11,2.62,1.83
38.4630,0.05,0.12,-1.00,3.30,2.56,1.71
38.4790,0.05,0.12,-0.99,3.23,2.62,1.65
38.4940,0.05,0.12,-0.99,3.30,2.69,1.77
38.5210,0.05,0.12,-0.99,3.23,2.32,1.59
38.5400,0.05,0.12,-0.99,3.17,2.32,1.71
38.5500,0.05,0.12,-1.00,3.30,2.38,1.65
38.5660,0.05,0.12,-0.99,3.17,2.50,1.89
38.5810,0.05,0.12,-1.00,3.17,2.62,1.89
38.5980,0.05,0.12,-0.99,3.17,2.62,1.71
38.6140,0.05,0.12,-0.99,3.23,2.50,1.83
38.6310,0.05,0.12,-0.99,3.36,2.56,1.83
38.6470,0.05,0.12,-0.99,3.23,2.56,1.77
38.6620,0.05,0.12,-0.99,3.30,2.08,1.77
38.6790,0.05,0.12,-0.99,3.36,2.20,1.77
38.6950,0.05,0.12,-0.99,3.36,2.08,1.77
38.7100,0.05,0.12,-0.99,3.23,2.26,1.71
38.7140,0.05,0.12,-0.99,3.17,2.69,1.77
38.7300,0.05,0.12,-0.99,3.23,2.62,1.71
38.7490,0.05,0.12,-1.00,3.30,2.44,1.89
38.7680,0.05,0.12,-0.99,3.11,2.44,1.77
38.7850,0.05,0.12,-0.99,3.48,2.26,1.77
38.8010,0.05,0.12,-0.99,3.48,2.01,1.77
38.8180,0.05,0.12,-0.99,3.36,2.38,1.65
38.8220,0.05,0.12,-0.99,3.42,2.56,1.77
38.8480,0.05,0.12,-0.99,3.54,2.32,1.71
38.8550,0.05,0.12,-0.99,3.30,2.20,1.83
38.8780,0.05,0.12,-0.99,3.11,2.81,1.83
38.8940,0.05,0.12,-0.99,3.05,2.50,1.77
38.9100,0.05,0.12,-0.99,3.11,2.50,1.77
38.9110,0.05,0.12,-0.99,3.23,2.38,1.71
38.9420,0.05,0.12,-0.99,3.42,2.44,1.89
38.9480,0.05,0.12,-0.99,3.30,2.32,1.83
38.9730,0.05,0.12,-0.99,3.42,2.14,1.71
38.9890,0.05,0.12,-1.00,3.42,2.32,1.89
39.0050,0.05,0.12,-1.00,3.30,2.62,1.71
39.0210,0.05,0.12,-1.00,3.23,2.56,1.71
39.0370,0.05,0.12,-0.99,3.30,2.14,1.77
39.0480,0.05,0.12,-0.99,3.23,2.44,1.83
39.0600,0.05,0.12,-1.00,3.30,2.32,1.83
39.0760,0.05,0.12,-0.99,3.23,2.38,1.65
39.0940,0.05,0.12,-1.00,3.42,2.08,1.83
39.1090,0.05,0.12,-0.99,3.42,2.44,1.83
39.1270,0.05,0.12,-0.99,3.11,2.32,1.71
39.1440,0.05,0.12,-0.99,3.30,2.44,1.83
39.1590,0.05,0.12,-1.00,3.17,1.83,1.71
39.1750,0.05,0.12,-0.99,3.36,2.62,1.83
39.1770,0.05,0.12,-0.99,3.30,2.44,1.83
39.2070,0.05,0.12,-0.99,3.30,2.75,1.89
39.2230,0.05,0.12,-0.99,3.42,2.69,1.89
39.2390,0.05,0.12,-0.99,3.36,2.38,1.83
39.2540,0.05,0.12,-0.99,3.23,2.44,1.65
39.2590,0.05,0.12,-0.99,3.17,2.50,1.77
39.2750,0.05,0.12,-0.99,3.17,2.56,1.83
39.3000,0.05,0.12,-0.99,3.30,2.26,1.71
39.3030,0.05,0.12,-0.99,3.36,2.75,2.01
39.3310,0.05,0.12,-1.00,3.36,2.08,1.71
39.3350,0.05,0.12,-0.99,3.23,2.14,1.77
39.3520,0.05,0.12,-0.99,3.11,2.75,1.77
39.3680,0.05,0.12,-0.99,3.17,2.75,1.95
39.3850,0.05,0.12,-0.99,3.30,2.81,1.89
39.4020,0.05,0.12,-0.99,3.17,2.62,1.89
39.4180,0.05,0.12,-0.99,3.23,2.44,1.77
39.4350,0.05,0.12,-1.00,3.17,2.50,1.83
39.4510,0.05,0.12,-0.99,3.48,2.62,1.83
39.4670,0.05,0.12,-0.99,3.42,2.56,1.89
39.4690,0.05,0.12,-0.99,3.30,1.95,1.71
39.4840,0.05,0.12,-0.99,3.30,2.50,1.89
39.5010,0.05,0.12,-0.99,3.36,2.20,1.77
39.5180,0.05,0.12,-0.99,3.36,2.01,1.77
39.5340,0.05,0.12,-0.99,3.30,2.50,1.83
39.5510,0.05,0.12,-0.99,3.48,2.01,1.59
39.5760,0.05,0.12,-0.99,3.42,2.20,1.89
39.5920,0.05,0.12,-1.00,3.42,2.26,1.71
39.6000,0.05,0.12,-0.99,3.23,2.14,1.59
39.6180,0.05,0.12,-0.99,3.36,2.44,1.71
39.6340,0.05,0.12,-0.99,3.36,2.26,1.71
39.6510,0.05,0.12,-0.99,3.23,2.26,1.89
39.6670,0.05,0.12,-0.99,3.05,2.62,1.83
39.6840,0.05,0.12,-0.99,3.11,2.38,1.77
39.7000,0.05,0.12,-0.99,3.23,2.26,1.77
39.7160,0.05,0.12,-0.99,3.17,2.44,1.83
39.7170,0.05,0.12,-0.99,3.30,2.32,1.77
39.7460,0.05,0.12,-0.99,3.30,2.32,1.83
39.7490,0.05,0.12,-0.99,3.42,2.01,1.71
39.7780,0.05,0.12,-1.00,3.17,2.26,1.83
39.7930,0.05,0.12,-0.99,3.30,2.44,1.71
39.8020,0.05,0.12,-0.99,3.48,2.08,1.89
39.8180,0.05,0.12,-0.99,3.42,2.38,1.89
39.8370,0.05,0.12,-0.99,3.23,2.44,1.89
39.8540,0.05,0.12,-0.99,3.30,2.75,1.95
39.8710,0.05,0.12,-0.99,3.36,2.32,1.95
39.8860,0.05,0.12,-0.99,3.17,2.87,1.83
39.9030,0.05,0.12,-0.99,3.42,2.50,1.89
39.9200,0.05,0.12,-0.99,3.48,2.44,1.83
39.9350,0.05,0.12,-0.99,3.30,2.26,1.77
39.9500,0.05,0.12,-0.99,3.36,2.38,1.77
39.9650,0.05,0.12,-1.00,3.23,2.14,1.89
39.9710,0.05,0.12,-0.99,3.36,2.44,1.83
39.9870,0.05,0.12,-0.99,3.36,2.44,1.83
40.0080,0.05,0.12,-0.99,3.30,2.38,1.89
40.0240,0.05,0.12,-0.99,3.30,2.26,1.83
40.0410,0.05,0.12,-0.99,3.11,2.20,1.77
40.0560,0.05,0.12,-0.99,3.30,2.69,1.71
40.0720,0.05,0.12,-0.99,3.17,2.44,1.77
40.0740,0.05,0.12,-0.99,3.17,2.62,1.77
40.0890,0.05,0.12,-0.99,3.36,2.56,1.65
40.1130,0.05,0.12,-0.99,3.42,2.01,1.71
40.1280,0.05,0.12,-0.99,3.30,1.89,1.71
40.1450,0.05,0.12,-0.99,3.42,2.14,1.65
40.1610,0.05,0.12,-0.99,3.23,2.26,1.77
40.1780,0.05,0.12,-0.99,3.23,2.50,1.89
40.1940,0.05,0.12,-0.99,3.23,2.20,1.77
40.2110,0.05,0.12,-0.99,3.17,2.20,1.77
40.2270,0.05,0.12,-1.00,3.17,2.56,1.77
40.2430,0.05,0.12,-1.00,3.48,1.95,1.83
40.2610,0.05,0.12,-0.99,3.30,2.14,1.89
40.2750,0.05,0.12,-0.99,3.23,2.08,1.77
40.2910,0.05,0.12,-0.99,3.30,2.56,1.83
40.2940,0.05,0.12,-0.99,3.36,2.20,1.71
40.3100,0.05,0.12,-0.99,3.23,2.26,1.83
40.3310,0.05,0.12,-1.00,3.36,2.26,1.71
40.3470,0.05,0.12,-0.99,3.30,2.14,1.65
40.3640,0.05,0.12,-0.99,3.30,2.38,1.77
40.3820,0.05,0.12,-0.99,3.36,2.26,1.83
40.3970,0.05,0.12,-0.99,3.17,2.62,1.83
40.4140,0.05,0.12,-0.99,3.17,2.38,1.89
40.4150,0.05,0.12,-0.99,3.42,2.08,1.83
40.4440,0.05,0.12,-0.99,3.23,2.62,1.65
40.4610,0.05,0.12,-1.00,3.17,2.38,1.95
40.4760,0.05,0.12,-0.99,3.11,2.44,1.89
40.4900,0.05,0.12,-1.00,3.17,2.32,1.89
40.5060,0.05,0.12,-0.99,3.23,2.32,1.71
40.5130,0.05,0.12,-0.99,3.23,2.50,1.53
40.5300,0.05,0.12,-0.99,3.36,1.83,1.77
40.5470,0.05,0.12,-0.99,3.23,2.38,1.71
40.5630,0.05,0.12,-0.99,3.36,2.14,1.77
40.5810,0.05,0.12,-0.99,3.42,2.14,1.83
40.5960,0.05,0.12,-0.99,3.30,2.14,1.71
40.6140,0.05,0.12,-0.99,3.30,2.56,1.83
40.6290,0.05,0.12,-0.99,3.23,2.20,1.71
40.6440,0.05,0.12,-1.00,3.23,2.26,1.83
40.6470,0.05,0.12,-0.99,3.30,2.38,1.77
40.6630,0.05,0.12,-0.99,3.17,2.26,1.71
40.6930,0.05,0.12,-0.99,3.23,2.26,1.71
40.7090,0.05,0.12,-0.99,3.30,2.01,1.83
40.7250,0.05,0.12,-1.00,3.17,2.38,1.77
40.7290,0.05,0.12,-0.99,3.17,2.44,1.83
40.7460,0.05,0.12,-1.00,3.36,2.62,1.89
40.7650,0.05,0.12,-0.99,3.36,2.44,1.65
40.7820,0.05,0.12,-0.99,3.30,2.38,1.77
40.7990,0.05,0.12,-0.99,3.30,2.32,1.83
40.8170,0.05,0.12,-0.99,3.36,2.38,1.59
40.8320,0.05,0.12,-0.99,3.36,2.50,1.83
40.8480,0.05,0.12,-1.00,3.30,2.38,1.77
40.8490,0.05,0.12,-0.99,3.36,2.08,1.83
40.8800,0.05,0.12,-0.99,3.30,2.32,1.83
40.8820,0.05,0.12,-0.99,3.17,2.38,1.89
40.9120,0.05,0.12,-0.99,3.54,2.26,1.71
40.9150,0.05,0.12,-0.99,3.36,2.38,1.83
40.9420,0.05,0.12,-0.99,3.23,2.32,1.77
40.9470,0.05,0.12,-0.99,3.54,2.01,1.95
40.9690,0.05,0.12,-0.99,3.30,1.71,1.71
40.9860,0.05,0.12,-0.99,3.48,1.71,1.65
41.0030,0.05,0.12,-0.99,3.30,2.20,1.83
41.0030,0.05,0.12,-0.99,3.36,2.38,1.71
41.0330,0.05,0.12,-1.00,3.42,2.08,1.65
41.0420,0.05,0.12,-0.99,3.23,2.14,1.71
41.0520,0.05,0.12,-0.99,3.48,1.59,1.77
41.0800,0.05,0.12,-0.99,3.48,1.65,1.65
41.0900,0.05,0.12,-1.00,3.23,2.44,1.89
41.1080,0.05,0.12,-0.99,3.30,2.08,1.65
41.1240,0.05,0.12,-1.00,3.42,1.89,1.71
41.1420,0.05,0.12,-0.99,3.48,1.71,1.59
41.1570,0.05,0.12,-0.99,3.48,2.08,1.77
41.1730,0.05,0.12,-0.99,3.42,2.26,1.71
41.1900,0.05,0.12,-0.99,3.42,2.26,1.65
41.1910,0.05,0.12,-0.99,3.54,2.38,1.77
41.2220,0.05,0.12,-1.00,3.11,2.38,1.83
41.2380,0.05,0.12,-0.99,3.36,2.56,1.89
41.2540,0.05,0.12,-0.99,3.42,1.95,1.77
41.2580,0.05,0.12,-0.99,3.42,2.62,1.83
41.2740,0.05,0.12,-0.99,3.23,2.44,1.89
41.2970,0.05,0.12,-0.99,3.23,1.83,1.83
41.3140,0.05,0.12,-0.99,3.17,2.26,1.83
41.3300,0.05,0.12,-0.99,3.42,2.26,1.71
41.3410,0.05,0.12,-0.99,3.23,2.38,1.71
41.3610,0.05,0.12,-0.99,3.48,2.20,1.71
41.3640,0.05,0.12,-0.99,3.05,2.26,1.83
41.3930,0.05,0.12,-0.99,3.42,2.44,1.77
41.3970,0.05,0.12,-0.99,3.30,2.14,1.71
41.4130,0.05,0.12,-0.99,3.36,2.08,1.77
41.4410,0.05,0.12,-0.99,3.11,2.56,1.71
41.4460,0.05,0.12,-0.99,3.11,2.50,1.65
41.4690,0.05,0.12,-0.99,3.11,2.50,1.65
41.4860,0.05,0.12,-0.99,3.11,2.26,1.59
41.5030,0.05,0.12,-0.99,3.30,2.26,1.89
41.5190,0.05,0.12,-0.99,3.30,2.32,1.71
41.5340,0.05,0.12,-0.99,3.36,2.69,1.65
41.5490,0.05,0.12,-0.99,3.30,2.38,1.71
41.5530,0.05,0.12,-0.99,3.17,2.56,1.71
41.5690,0.05,0.12,-0.99,3.05,2.69,1.65
41.5930,0.05,0.12,-1.00,3.23,2.62,1.83
41.6100,0.05,0.12,-0.99,3.17,2.38,2.01
41.6260,0.05,0.12,-1.00,3.30,2.26,1.77
41.6430,0.05,0.12,-0.99,3.17,2.08,1.77
41.6590,0.05,0.12,-0.99,3.11,2.38,1.77
41.6740,0.05,0.12,-0.99,3.17,2.20,1.71
41.6900,0.05,0.12,-0.99,3.48,2.32,1.83
41.6920,0.05,0.12,-0.99,3.42,2.14,1.77
41.7080,0.05,0.12,-1.00,3.30,2.20,1.71
41.7310,0.05,0.12,-0.99,3.17,2.56,1.83
41.7480,0.05,0.12,-1.00,3.30,2.50,1.89
41.7630,0.05,0.12,-0.99,3.30,2.32,1.89
41.7810,0.05,0.12,-0.99,3.17,2.50,1.77
41.7820,0.05,0.12,-1.00,3.23,2.75,1.71
41.7970,0.05,0.12,-1.00,3.11,2.62,1.95
41.8130,0.05,0.12,-0.99,3.42,2.20,1.71
41.8390,0.05,0.12,-0.99,3.11,2.56,1.71
41.8480,0.05,0.12,-0.99,3.30,2.14,1.83
41.8750,0.05,0.12,-0.99,3.23,2.56,1.95
41.8910,0.05,0.12,-0.99,3.36,2.44,1.83
41.9070,0.05,0.12,-0.99,3.23,2.62,1.89
41.9230,0.05,0.12,-0.99,3.36,2.14,1.59
41.9390,0.05,0.12,-1.00,3.48,2.14,1.71
41.9540,0.05,0.12,-0.99,3.36,2.08,1.77
41.9630,0.05,0.12,-0.99,3.11,2.32,1.71
41.9800,0.05,0.12,-1.00,3.17,2.44,1.71
41.9980,0.05,0.12,-0.99,3.36,2.56,1.77
42.0130,0.05,0.12,-0.99,3.30,2.01,1.71
42.0290,0.05,0.12,-0.99,3.17,2.87,1.77
42.0390,0.05,0.12,-0.99,3.23,2.32,1.77
42.0600,0.05,0.12,-1.00,3.05,2.56,1.71
42.0760,0.05,0.12,-0.99,3.30,2.20,1.77
42.0920,0.05,0.12,-0.99,3.05,2.56,1.77
42.0960,0.05,0.12,-0.99,2.99,2.69,1.77
42.1120,0.05,0.12,-0.99,3.42,2.50,1.83
42.1330,0.05,0.12,-0.99,3.30,2.44,1.77
42.1500,0.05,0.12,-0.99,3.30,2.38,1.83
42.1660,0.05,0.12,-0.99,3.30,2.20,1.77
42.1830,0.05,0.12,-1.00,3.42,2.38,1.71
42.2000,0.05,0.12,-0.99,3.36,2.26,1.77
42.2160,0.05,0.12,-1.00,3.17,2.20,1.83
42.2330,0.05,0.12,-0.99,3.42,2.26,1.77
42.2500,0.05,0.12,-0.99,3.30,2.44,1.77
42.2660,0.05,0.12,-0.99,3.17,2.62,1.83
42.2820,0.05,0.12,-0.99,3.36,2.20,1.77
42.2970,0.05,0.12,-0.99,3.11,2.75,1.77
42.3120,0.05,0.12,-0.99,3.30,2.26,1.89
42.3280,0.05,0.12,-0.99,3.17,2.38,1.65
42.3440,0.05,0.12,-0.99,3.48,2.50,1.59
42.3590,0.05,0.12,-0.99,3.36,2.32,1.89
42.3750,0.05,0.12,-0.99,3.42,2.44,1.77
42.3830,0.05,0.12,-0.99,3.23,2.44,1.83
42.3990,0.05,0.12,-0.99,3.48,2.26,1.71
42.4150,0.05,0.12,-0.99,3.36,2.01,1.59
42.4310,0.05,0.12,-1.00,3.23,2.32,1.77
42.4490,0.05,0.12,-0.99,3.30,2.50,1.77
42.4490,0.05,0.12,-0.99,3.54,2.08,1.95
42.4790,0.05,0.12,-0.99,3.36,2.14,1.65
42.4940,0.05,0.12,-0.99,3.23,2.44,1.65
42.5100,0.05,0.12,-0.99,3.42,2.20,1.71
42.5250,0.05,0.12,-0.99,3.30,2.32,1.59
42.5400,0.05,0.12,-1.00,3.30,2.93,1.71
42.5490,0.05,0.12,-0.99,3.54,2.56,1.83
42.5640,0.05,0.12,-1.00,3.48,2.32,1.77
42.5810,0.05,0.12,-0.99,3.30,2.44,1.77
42.5980,0.05,0.12,-0.99,3.30,2.26,1.71
42.6150,0.05,0.12,-0.99,3.48,2.44,1.95
42.6310,0.05,0.12,-0.99,3.30,2.20,1.71
42.6360,0.05,0.12,-1.00,3.30,2.26,1.83
42.6620,0.05,0.12,-1.00,3.36,2.01,1.83
42.6770,0.05,0.12,-0.99,3.11,2.20,1.71
42.6920,0.05,0.12,-0.99,3.23,2.32,1.71
42.7080,0.05,0.12,-1.00,3.23,2.38,1.77
42.7230,0.05,0.12,-0.99,3.30,2.26,1.65
42.7390,0.05,0.12,-0.99,3.11,2.20,1.71
42.7540,0.05,0.12,-0.99,3.30,2.01,1.71
42.7640,0.05,0.12,-0.99,3.23,2.44,1.83
42.7800,0.05,0.12,-0.99,3.17,2.69,1.77
42.7960,0.05,0.12,-0.99,3.30,2.26,1.77
42.8160,0.05,0.12,-0.99,3.42,2.56,1.83
42.8320,0.05,0.12,-0.99,3.23,2.32,1.83
42.8490,0.05,0.12,-0.99,3.23,2.75,1.71
42.8650,0.05,0.12,-0.99,3.17,2.38,1.77
42.8810,0.05,0.12,-0.99,3.36,2.32,1.71
42.8970,0.05,0.12,-1.00,3.23,2.69,1.83
42.9120,0.05,0.12,-0.99,3.05,2.38,1.83
42.9270,0.05,0.12,-0.99,3.23,2.69,1.83
42.9350,0.05,0.12,-0.99,3.11,2.62,1.89
42.9570,0.05,0.12,-0.99,3.17,2.44,1.83
42.9660,0.05,0.12,-0.99,3.17,2.56,1.95
42.9820,0.05,0.12,-0.99,3.36,2.38,1.83
42.9980,0.05,0.12,-0.99,3.36,2.44,1.83
43.0170,0.05,0.12,-0.99,3.36,2.56,1.71
43.0330,0.05,0.12,-0.99,3.23,2.38,1.83
43.0360,0.05,0.12,-0.99,3.30,2.38,1.77
43.0640,0.05,0.12,-0.99,3.42,1.95,1.77
43.0720,0.05,0.12,-0.99,3.17,2.56,1.89
43.0950,0.05,0.12,-1.00,3.42,2.44,1.77
43.1050,0.05,0.12,-1.00,3.23,2.62,1.89
43.1220,0.05,0.12,-1.00,3.17,2.50,1.83
43.1380,0.05,0.12,-0.99,3.30,2.32,1.89
43.1550,0.05,0.12,-0.99,3.23,2.56,1.89
43.1720,0.05,0.12,-0.99,3.36,2.26,1.77
43.1880,0.05,0.12,-0.99,3.42,2.20,1.77
43.2040,0.05,0.12,-0.99,3.30,2.32,1.77
43.2200,0.05,0.12,-0.99,3.30,2.38,1.71
43.2360,0.05,0.12,-0.99,3.30,2.32,1.83
43.2520,0.05,0.12,-0.99,3.17,2.50,1.71
43.2680,0.05,0.12,-0.99,3.17,2.20,1.77
43.2840,0.05,0.12,-1.00,3.23,2.26,1.83
43.3000,0.05,0.12,-0.99,3.17,2.32,1.83
43.3040,0.05,0.12,-0.99,3.36,2.38,1.77
43.3200,0.05,0.12,-1.00,3.23,2.26,1.71
43.3410,0.05,0.12,-0.99,3.23,2.26,1.71
43.3580,0.05,0.12,-1.00,3.17,2.56,1.89
43.3740,0.05,0.12,-1.00,3.23,2.32,1.83
43.3910,0.05,0.12,-0.99,3.42,2.38,1.95
43.4060,0.05,0.12,-0.99,3.30,2.38,1.83
43.4070,0.05,0.12,-0.99,3.30,2.32,1.77
43.4330,0.05,0.12,-0.99,3.17,2.56,1.89
43.4460,0.05,0.12,-0.99,3.54,2.08,1.77
43.4640,0.05,0.12,-0.99,3.36,2.26,1.77
43.4790,0.05,0.12,-0.99,3.30,2.14,1.65
43.4950,0.05,0.12,-0.99,3.42,2.20,1.71
43.5110,0.05,0.12,-0.99,3.23,2.69,1.77
43.5270,0.05,0.12,-0.99,3.17,2.14,1.65
43.5430,0.05,0.12,-1.00,3.17,2.56,1.65
43.5590,0.05,0.12,-0.99,3.11,2.20,1.77
43.5620,0.05,0.12,-0.99,3.23,2.62,1.77
43.5770,0.05,0.12,-0.99,3.17,2.44,1.77
43.6010,0.05,0.12,-0.99,3.48,2.44,1.89
43.6160,0.05,0.12,-1.00,3.42,2.32,1.77
43.6340,0.05,0.12,-0.99,3.36,2.38,1.83
43.6500,0.05,0.12,-0.99,3.05,2.26,1.77
43.6510,0.05,0.12,-0.99,3.05,2.69,1.83
43.6810,0.05,0.12,-0.99,3.23,2.14,1.71
43.6840,0.05,0.12,-0.99,3.17,2.87,1.77
43.7000,0.05,0.12,-0.99,3.17,2.32,1.65
43.7290,0.05,0.12,-0.99,3.36,2.32,1.77
43.7340,0.05,0.12,-0.99,3.48,2.26,1.65
43.7600,0.05,0.12,-0.99,3.54,2.62,1.71
43.7670,0.05,0.12,-0.99,3.42,2.50,1.65
43.7900,0.05,0.12,-1.00,3.11,2.26,1.71
43.8000,0.05,0.12,-0.99,3.17,2.38,1.77
43.8160,0.05,0.12,-0.99,3.23,2.81,1.71
43.8340,0.05,0.12,-0.99,3.17,2.44,1.65
43.8390,0.05,0.12,-1.00,3.30,2.32,1.77
43.8660,0.05,0.12,-0.99,3.36,2.14,1.65
43.8720,0.05,0.12,-0.99,3.54,2.32,1.95
43.8870,0.05,0.12,-0.99,3.30,2.14,1.83
43.9090,0.05,0.12,-1.00,3.23,2.32,1.89
43.9260,0.05,0.12,-0.99,3.42,2.81,1.77
43.9430,0.05,0.12,-0.99,3.36,2.81,1.83
43.9590,0.05,0.12,-0.99,3.17,2.50,1.77
43.9750,0.05,0.12,-1.00,3.17,2.50,1.71
43.9910,0.05,0.12,-0.99,3.30,2.26,1.83
44.0060,0.05,0.12,-1.00,3.23,2.75,1.83
44.0220,0.05,0.12,-0.99,3.36,2.50,1.71
44.0380,0.05,0.12,-0.99,3.23,2.56,1.89
44.0520,0.05,0.12,-0.99,3.17,2.20,1.83
44.0580,0.05,0.12,-0.99,3.42,2.32,1.83
44.0830,0.05,0.12,-0.99,3.36,2.62,1.83
44.0980,0.05,0.12,-1.00,3.30,2.75,1.83
44.1080,0.05,0.12,-0.99,3.17,2.99,1.83
44.1240,0.05,0.12,-0.99,3.17,2.50,1.77
44.1410,0.05,0.12,-0.99,3.36,2.44,1.77
44.1570,0.05,0.12,-0.99,3.30,2.50,1.83
44.1740,0.05,0.12,-0.99,3.11,2.75,1.89
44.1910,0.05,0.12,-1.00,3.17,2.44,1.71
44.2060,0.05,0.12,-0.99,3.17,2.50,1.77
44.2220,0.05,0.12,-0.99,3.11,2.38,1.71
44.2380,0.05,0.12,-0.99,3.23,2.26,1.89
44.2410,0.05,0.12,-0.99,3.30,2.20,1.77
44.2570,0.05,0.12,-0.99,3.36,2.50,1.77
44.2800,0.05,0.12,-0.99,3.23,2.44,1.77
44.2960,0.05,0.12,-0.99,3.30,2.44,1.83
44.3130,0.05,0.12,-0.99,3.11,2.69,1.83
44.3310,0.05,0.12,-0.99,3.23,2.56,1.89
44.3460,0.05,0.12,-1.00,3.30,2.32,1.77
44.3610,0.05,0.12,-0.99,3.30,2.01,1.77
44.3780,0.05,0.12,-0.99,3.30,2.50,1.95
44.3930,0.05,0.12,-0.99,3.11,2.44,1.71
44.4090,0.05,0.12,-0.99,3.23,2.26,1.65
44.4120,0.05,0.12,-0.99,3.23,2.50,1.83
44.4300,0.05,0.12,-0.99,3.23,2.26,1.77
44.4440,0.05,0.12,-0.99,3.17,2.44,1.77
44.4680,0.05,0.12,-1.00,3.17,2.08,1.77
44.4850,0.05,0.12,-0.99,3.42,2.56,1.83
44.5010,0.05,0.12,-1.00,3.36,2.56,1.77
44.5160,0.05,0.12,-0.99,3.30,2.38,1.65
44.5320,0.05,0.12,-1.00,3.17,2.08,1.71
44.5470,0.05,0.12,-0.99,3.36,2.38,1.83
44.5640,0.05,0.12,-0.99,3.42,2.56,1.95
44.5800,0.05,0.12,-0.99,3.42,2.56,1.89
44.5960,0.05,0.12,-0.99,3.42,2.44,1.77
44.6120,0.05,0.12,-0.99,3.54,2.38,1.65
44.6280,0.05,0.12,-0.99,3.36,2.50,1.95
44.6440,0.05,0.12,-0.99,3.42,2.26,1.95
44.6580,0.05,0.12,-0.99,3.48,1.89,1.83
44.6730,0.05,0.12,-0.99,3.42,2.44,1.77
44.6840,0.05,0.12,-0.99,3.36,2.32,1.71
44.7000,0.05,0.12,-0.99,3.23,2.69,1.89
44.7160,0.05,0.12,-0.99,3.11,2.44,1.89
44.7330,0.05,0.12,-1.00,3.17,2.69,2.01
44.7490,0.05,0.12,-0.99,3.36,1.89,1.71
44.7650,0.05,0.12,-0.99,3.36,2.32,1.71
44.7810,0.05,0.12,-1.00,3.30,2.69,1.77
44.7960,0.05,0.12,-0.99,3.23,2.44,1.77
44.8110,0.05,0.12,-1.00,3.42,2.38,1.95
44.8280,0.05,0.12,-0.99,3.48,2.44,1.77
44.8320,0.05,0.12,-0.99,3.36,2.56,1.83
44.8540,0.05,0.12,-0.99,3.30,2.26,1.77
44.8710,0.05,0.12,-0.99,3.17,2.26,1.89
44.8870,0.05,0.12,-0.99,3.05,2.01,1.95
44.9030,0.05,0.12,-0.99,3.30,2.38,1.77
44.9190,0.05,0.12,-0.99,3.11,2.50,1.89
44.9370,0.05,0.12,-0.99,3.17,2.50,1.77
44.9530,0.05,0.12,-0.99,3.30,2.81,1.95
44.9690,0.05,0.12,-0.99,3.48,2.69,1.83
44.9840,0.05,0.12,-0.99,3.36,2.50,1.89
44.9990,0.05,0.12,-0.99,3.17,2.38,1.83
45.0140,0.05,0.12,-0.99,3.30,1.89,1.83
45.0270,0.05,0.12,-0.99,3.17,2.50,1.83
45.0350,0.05,0.12,-0.99,3.42,2.32,1.95
45.0600,0.05,0.12,-0.99,3.42,2.01,1.77
45.0610,0.05,0.12,-0.99,3.23,2.20,1.71
45.0770,0.05,0.12,-0.99,3.36,2.32,1.71
45.0930,0.05,0.12,-0.99,3.30,2.26,1.83
45.1100,0.05,0.12,-0.99,3.42,2.50,1.83
45.1270,0.05,0.12,-0.99,3.30,2.20,1.77
45.1550,0.05,0.12,-0.99,3.30,2.62,1.89
45.1700,0.05,0.12,-0.99,3.05,2.56,1.77
45.1850,0.05,0.12,-0.99,3.48,2.50,1.71
45.1950,0.05,0.12,-0.99,3.30,2.56,1.71
45.2120,0.05,0.12,-0.99,3.17,2.69,1.83
45.2290,0.05,0.12,-0.99,3.23,2.44,1.71
45.2460,0.05,0.12,-0.99,3.23,2.50,1.65
45.2610,0.05,0.12,-0.99,3.30,2.81,1.83
45.2770,0.05,0.12,-0.99,3.17,2.50,1.77
45.2930,0.05,0.12,-0.99,3.48,2.26,1.71
45.2950,0.05,0.12,-1.00,3.30,2.62,1.95
45.3250,0.05,0.12,-0.99,3.48,2.14,1.83
45.3410,0.05,0.12,-0.99,3.36,2.26,1.71
45.3570,0.05,0.12,-0.99,3.30,2.69,1.71
45.3730,0.05,0.12,-0.99,3.36,2.69,1.83
45.3890,0.05,0.12,-0.99,3.11,2.50,1.83
45.3950,0.05,0.12,-0.99,3.30,2.44,1.65
45.4110,0.05,0.12,-0.99,3.23,2.56,1.89
45.4310,0.05,0.12,-1.00,3.23,2.62,1.83
45.4470,0.05,0.12,-0.99,3.23,2.44,1.77
45.4630,0.05,0.12,-1.00,3.30,2.20,1.89
45.4790,0.05,0.12,-1.00,3.23,2.38,1.83
45.4940,0.05,0.12,-0.99,3.23,2.87,1.77
45.5110,0.05,0.12,-0.99,3.30,2.38,1.77
45.5250,0.05,0.12,-1.00,3.11,2.93,1.83
45.5420,0.05,0.12,-0.99,3.17,2.56,1.83
45.5570,0.05,0.12,-0.99,3.11,2.56,1.83
45.5740,0.05,0.12,-1.00,3.11,2.50,1.77
45.5890,0.05,0.12,-1.00,3.23,2.81,1.77
45.6040,0.05,0.12,-0.99,3.30,2.38,1.83
45.6140,0.05,0.12,-0.99,3.30,2.69,1.77
45.6300,0.05,0.12,-0.99,3.11,2.69,1.83
45.6480,0.05,0.12,-0.99,3.11,2.50,1.89
45.6640,0.05,0.12,-0.99,3.17,2.93,1.89
45.6800,0.05,0.12,-0.99,3.23,2.56,1.95
45.6950,0.05,0.12,-0.99,3.36,2.26,1.77
45.7100,0.05,0.12,-0.99,3.54,2.38,1.89
45.7260,0.05,0.12,-0.99,3.36,2.50,1.83
45.7420,0.05,0.12,-0.99,3.42,2.38,1.77
45.7570,0.05,0.12,-0.99,3.36,2.69,1.95
45.7730,0.05,0.12,-0.99,3.30,2.56,1.77
45.7890,0.05,0.12,-0.99,3.36,2.75,1.89
45.7950,0.05,0.12,-0.99,3.23,2.38,1.71
45.8110,0.05,0.12,-0.99,3.36,2.62,1.77
45.8350,0.05,0.12,-0.99,3.30,2.26,1.71
45.8510,0.05,0.12,-0.99,3.30,2.38,1.71
45.8670,0.05,0.12,-0.99,3.42,2.01,1.83
45.8830,0.05,0.12,-0.99,3.17,2.56,1.71
45.9000,0.05,0.12,-0.99,3.36,2.56,1.89
45.9170,0.05,0.12,-0.99,3.11,2.69,1.77
45.9250,0.05,0.12,-0.99,3.36,2.56,1.95
45.9490,0.05,0.12,-1.00,3.36,2.26,1.83
45.9640,0.05,0.12,-0.99,3.17,2.56,1.83
45.9660,0.05,0.12,-0.99,3.23,2.26,1.77
45.9820,0.05,0.12,-0.99,3.54,2.50,1.89
46.0040,0.05,0.12,-1.00,3.36,2.26,1.71
46.0240,0.05,0.12,-0.99,3.30,2.32,1.77
46.0370,0.05,0.12,-0.99,3.42,2.20,1.77
46.0540,0.05,0.12,-0.99,3.23,2.38,1.71
46.0700,0.05,0.12,-0.99,3.36,2.44,1.77
46.0870,0.05,0.12,-0.99,3.36,2.44,1.89
46.1040,0.05,0.12,-0.99,3.23,2.50,1.89
46.1200,0.05,0.12,-0.99,3.42,2.26,1.77
46.1360,0.05,0.12,-0.99,3.42,2.32,1.89
46.1530,0.05,0.12,-0.99,3.42,2.26,1.83
46.1690,0.05,0.12,-0.99,3.36,2.01,1.71
46.1700,0.05,0.12,-0.99,3.17,2.26,1.77
46.1860,0.05,0.12,-0.99,3.48,2.44,1.65
46.2150,0.05,0.12,-0.99,3.23,2.26,1.71
46.2230,0.05,0.12,-0.99,3.48,2.50,1.71
46.2370,0.05,0.12,-0.99,3.36,2.38,1.65
46.2560,0.05,0.12,-0.99,3.48,2.81,1.83
46.2730,0.05,0.12,-0.99,3.17,2.20,1.89
46.2900,0.05,0.12,-0.99,3.48,2.32,1.83
46.3070,0.05,0.12,-0.99,3.30,2.14,1.89
46.3240,0.05,0.12,-0.99,3.17,2.50,1.83
46.3390,0.05,0.12,-0.99,3.42,2.08,1.77
46.3560,0.05,0.12,-0.99,3.48,2.44,1.89
46.3710,0.05,0.12,-0.99,3.36,2.38,1.83
46.3730,0.05,0.12,-0.99,3.11,2.75,1.71
46.4040,0.05,0.12,-0.99,3.30,2.38,1.77
46.4190,0.05,0.12,-0.99,3.36,2.44,2.01
46.4350,0.05,0.12,-0.99,3.17,2.75,1.89
46.4510,0.05,0.12,-0.99,3.11,2.62,1.77
46.4660,0.05,0.12,-0.99,3.30,2.69,1.83
46.4810,0.05,0.12,-0.99,3.30,2.81,1.77
46.4890,0.05,0.12,-0.99,3.23,2.69,1.83
46.5060,0.05,0.12,-0.99,3.30,2.32,1.89
46.5220,0.05,0.12,-0.99,3.42,2.87,1.95
46.5410,0.05,0.12,-0.99,3.48,2.56,1.77
46.5440,0.05,0.12,-0.99,3.17,2.44,1.77
46.5590,0.05,0.12,-0.99,3.23,2.56,1.77
46.5820,0.05,0.12,-0.99,3.30,2.75,1.89
46.5980,0.05,0.12,-0.99,3.30,2.81,1.89
46.6150,0.05,0.12,-0.99,3.23,3.05,1.77
46.6310,0.05,0.12,-0.99,3.30,2.32,1.83
46.6480,0.05,0.12,-0.99,3.23,2.32,1.77
46.6640,0.05,0.12,-0.99,3.17,2.50,1.83
46.6800,0.05,0.12,-0.99,3.23,2.62,1.89
46.6960,0.05,0.12,-0.99,3.42,2.26,1.77
46.7120,0.05,0.12,-0.99,3.23,2.75,1.83
46.7220,0.05,0.12,-0.99,3.42,2.56,1.83
46.7300,0.05,0.12,-0.99,3.48,2.14,1.77
46.7520,0.05,0.12,-0.99,3.30,2.32,1.65
46.7700,0.05,0.12,-0.99,3.30,2.62,1.71
46.7860,0.05,0.12,-0.99,3.42,2.32,1.65
46.8030,0.05,0.12,-0.99,3.17,2.69,1.89
46.8030,0.05,0.12,-0.99,3.05,2.69,1.89
46.8210,0.05,0.12,-1.00,3.23,2.56,1.77
46.8360,0.05,0.12,-1.00,3.11,2.50,1.83
46.8530,0.05,0.12,-1.00,3.23,2.20,1.77
46.8690,0.05,0.12,-0.99,3.30,2.69,1.77
46.8940,0.05,0.12,-1.00,3.17,2.62,1.83
46.9030,0.05,0.12,-0.99,3.23,2.93,1.83
46.9210,0.05,0.12,-0.99,3.23,2.69,1.83
46.9360,0.05,0.12,-1.00,3.30,2.44,1.89
46.9510,0.05,0.12,-1.00,3.23,2.14,1.83
46.9690,0.05,0.12,-1.00,3.54,2.20,1.65
46.9850,0.05,0.12,-0.99,3.36,2.75,1.89
47.0020,0.05,0.12,-0.99,3.17,2.50,1.77
47.0190,0.05,0.12,-0.99,3.17,2.44,1.89
47.0340,0.05,0.12,-0.99,3.54,2.38,1.89
47.0500,0.05,0.12,-0.99,3.48,2.81,1.71
47.0660,0.05,0.12,-0.99,3.36,2.56,1.65
47.0830,0.05,0.12,-1.00,3.30,2.50,1.77
47.0980,0.05,0.12,-0.99,3.36,2.69,1.89
47.1020,0.05,0.12,-0.99,3.48,2.26,1.71
47.1200,0.05,0.12,-0.99,3.42,2.01,1.77
47.1340,0.05,0.12,-0.99,3.36,2.56,1.83
47.1570,0.05,0.12,-0.99,3.30,2.38,1.77
47.1730,0.05,0.12,-0.99,3.23,2.38,1.77
47.1910,0.05,0.12,-0.99,3.36,2.44,1.89
47.2070,0.05,0.12,-0.99,3.36,2.44,1.83
47.2230,0.05,0.12,-1.00,3.23,2.50,1.77
47.2390,0.05,0.12,-0.99,3.30,2.44,1.89
47.2540,0.05,0.12,-0.99,3.23,2.44,1.59
47.2700,0.05,0.12,-0.99,3.30,2.56,1.77
47.2850,0.05,0.12,-0.99,3.23,2.56,1.83
47.3010,0.05,0.12,-0.99,3.11,2.56,1.83
47.3170,0.05,0.12,-0.99,3.36,2.26,1.77
47.3330,0.05,0.12,-0.99,3.23,2.50,1.83
47.3480,0.05,0.12,-0.99,3.36,2.32,1.77
47.3630,0.05,0.12,-0.99,3.23,2.26,1.95
47.3730,0.05,0.12,-0.99,3.48,2.20,1.71
47.3900,0.05,0.12,-0.99,3.30,2.26,1.83
47.4070,0.05,0.12,-0.99,3.36,2.26,1.71
47.4220,0.05,0.12,-0.99,3.36,2.56,1.77
47.4390,0.05,0.12,-0.99,3.36,2.32,1.95
47.4560,0.05,0.12,-1.00,3.17,2.26,1.65
47.4730,0.05,0.12,-0.99,3.23,2.32,1.71
47.4880,0.05,0.12,-1.00,3.23,2.08,1.71
47.5030,0.05,0.12,-0.99,3.23,2.44,1.95
47.5180,0.05,0.12,-0.99,3.42,1.77,1.83
47.5340,0.05,0.12,-1.00,3.17,2.62,1.77
47.5390,0.05,0.12,-0.99,3.17,2.62,1.77
47.5550,0.05,0.12,-0.99,3.30,2.62,1.95
47.5750,0.05,0.12,-0.99,3.54,2.20,1.89
47.5930,0.05,0.12,-0.99,3.23,2.38,2.01
47.6080,0.05,0.12,-0.99,3.30,2.44,1.83
47.6250,0.05,0.12,-1.00,3.30,2.56,1.89
47.6410,0.05,0.12,-0.99,3.05,2.62,1.71
47.6570,0.05,0.12,-0.99,3.23,2.87,1.89
47.6720,0.05,0.12,-0.99,3.23,2.75,2.01
47.6890,0.05,0.12,-0.99,3.11,2.62,1.77
47.7040,0.05,0.12,-1.00,3.23,2.38,1.89
47.7190,0.05,0.12,-0.99,3.23,2.75,1.83
47.7350,0.05,0.12,-0.99,3.23,2.50,1.95
47.7410,0.05,0.12,-1.00,3.23,2.26,1.77
47.7570,0.05,0.12,-0.99,2.93,2.50,1.83
47.7810,0.05,0.12,-0.99,3.42,2.32,1.71
47.7970,0.05,0.12,-1.00,3.17,2.38,1.77
47.8130,0.05,0.12,-0.99,3.36,2.56,1.77
47.8190,0.05,0.12,-0.99,3.36,2.20,1.83
47.8440,0.05,0.12,-0.99,3.36,2.62,1.83
47.8610,0.05,0.12,-0.99,3.23,2.56,1.77
47.8650,0.05,0.12,-0.99,3.05,2.50,1.77
47.8810,0.05,0.12,-0.99,3.23,2.50,1.83
47.9020,0.05,0.12,-0.99,3.30,2.32,1.71
47.9190,0.05,0.12,-0.99,3.17,2.75,1.65
47.9350,0.05,0.12,-0.99,3.42,2.38,1.83
47.9520,0.05,0.12,-0.99,3.42,2.26,1.65
47.9680,0.05,0.12,-1.00,3.05,2.75,1.83
47.9850,0.05,0.12,-1.00,2.99,2.87,1.77
48.0010,0.05,0.12,-0.99,3.17,2.93,1.89
