Timestamp, AccX, AccY, AccZ, GyroX, GyroY, GyroZ
0.0140,0.03,0.10,-1.00,3.30,3.42,1.65
0.0290,0.04,0.10,-1.00,3.17,3.17,2.08
0.0440,0.05,0.10,-0.99,2.99,3.30,2.14
0.0590,0.06,0.10,-0.99,3.11,3.48,1.89
0.0750,0.05,0.09,-0.99,3.30,3.36,1.71
0.0830,0.02,0.12,-1.00,3.36,3.11,2.14
0.1010,0.04,0.11,-1.00,3.17,2.75,1.65
0.1160,0.07,0.10,-0.99,3.23,3.11,1.83
0.1330,0.07,0.12,-0.99,3.17,3.30,2.01
0.1500,0.04,0.12,-1.00,3.42,3.23,1.89
0.1670,0.04,0.12,-1.00,3.36,3.11,1.77
0.1830,0.04,0.12,-1.00,3.05,2.99,2.08
0.1990,0.06,0.12,-0.99,3.17,3.17,1.83
0.2150,0.06,0.12,-0.99,3.30,3.17,1.89
0.2310,0.03,0.14,-1.00,3.54,3.54,1.95
0.2480,0.03,0.14,-1.00,3.17,2.75,1.83
0.2630,0.06,0.12,-0.99,3.05,2.62,1.89
0.2780,0.07,0.13,-0.99,3.11,3.36,1.89
0.2840,0.05,0.13,-0.99,3.11,3.54,1.95
0.3100,0.04,0.13,-1.00,3.30,3.17,1.89
0.3250,0.05,0.14,-0.99,3.23,2.99,1.89
0.3330,0.09,0.13,-0.99,3.23,2.93,1.77
0.3500,0.07,0.12,-0.99,3.17,2.99,1.95
0.3670,0.05,0.13,-1.00,3.36,3.17,2.14
0.3830,0.03,0.13,-1.00,3.11,3.30,1.95
0.4000,0.05,0.12,-1.00,2.99,2.93,1.89
0.4170,0.06,0.12,-0.99,3.11,3.11,1.95
0.4330,0.05,0.12,-1.00,3.23,3.11,1.95
0.4510,0.04,0.12,-1.00,3.30,3.17,1.89
0.4660,0.04,0.12,-1.00,3.17,2.93,1.83
0.4830,0.05,0.11,-0.99,3.23,2.81,1.83
0.5000,0.06,0.11,-0.99,3.30,3.05,1.95
0.5150,0.04,0.11,-1.00,3.23,3.30,2.08
0.5310,0.03,0.11,-1.00,3.36,2.99,2.01
0.5480,0.05,0.11,-0.99,2.99,3.17,1.83
0.5500,0.06,0.11,-0.99,3.17,3.05,1.89
0.5670,0.05,0.11,-0.99,3.23,3.36,1.89
0.5830,0.04,0.11,-1.00,3.05,2.99,2.01
0.6040,0.04,0.12,-1.00,3.30,2.87,1.71
0.6210,0.05,0.11,-0.99,3.23,3.05,1.83
0.6390,0.06,0.11,-0.99,3.23,2.75,1.89
0.6540,0.05,0.12,-0.99,3.23,3.30,2.01
0.6710,0.04,0.12,-1.00,3.17,3.42,1.95
0.6720,0.05,0.12,-1.00,3.17,2.99,2.01
0.7020,0.06,0.12,-0.99,2.99,2.87,1.83
0.7050,0.06,0.12,-0.99,3.36,3.36,1.83
0.7290,0.05,0.12,-0.99,3.36,3.17,1.83
0.7370,0.04,0.13,-1.00,3.48,3.17,1.95
0.7580,0.05,0.13,-0.99,3.42,2.62,1.71
0.7750,0.06,0.12,-0.99,3.11,2.99,2.08
0.7910,0.05,0.13,-0.99,3.42,2.99,1.89
0.8090,0.05,0.13,-1.00,3.42,2.81,1.89
0.8250,0.04,0.13,-1.00,3.60,2.75,1.89
0.8410,0.05,0.12,-1.00,3.23,2.99,1.83
0.8560,0.06,0.12,-0.99,3.23,3.23,1.89
0.8600,0.05,0.12,-0.99,3.30,3.17,1.89
0.8750,0.04,0.12,-1.00,3.23,2.69,1.83
0.9040,0.04,0.12,-1.00,3.11,3.11,1.89
0.9200,0.05,0.12,-0.99,3.36,2.81,1.89
0.9350,0.05,0.12,-0.99,3.48,2.44,1.83
0.9500,0.05,0.12,-1.00,3.36,2.99,1.89
0.9660,0.04,0.12,-1.00,3.17,3.11,1.83
0.9760,0.05,0.11,-1.00,3.30,2.56,1.89
0.9910,0.05,0.11,-0.99,3.30,3.11,1.83
1.0090,0.05,0.11,-0.99,3.23,3.23,1.77
1.0260,0.04,0.11,-1.00,3.30,3.23,1.95
1.0410,0.04,0.12,-1.00,3.23,2.81,1.89
1.0580,0.05,0.11,-0.99,3.23,3.17,2.01
1.0740,0.05,0.11,-0.99,3.17,3.05,2.08
1.0890,0.05,0.12,-0.99,3.36,3.05,2.01
1.0930,0.04,0.12,-1.00,3.48,2.93,2.01
1.1210,0.04,0.12,-0.99,3.30,2.93,1.89
1.1290,0.05,0.12,-0.99,3.30,2.93,1.95
1.1420,0.06,0.12,-0.99,3.54,2.87,1.95
1.1680,0.05,0.12,-1.00,3.23,3.11,2.01
1.1760,0.04,0.13,-1.00,3.36,2.75,1.83
1.1990,0.05,0.12,-0.99,3.36,2.87,1.71
1.2090,0.05,0.12,-0.99,3.17,2.99,1.89
1.2290,0.05,0.12,-0.99,3.42,2.93,1.89
1.2420,0.05,0.12,-1.00,3.30,2.44,1.71
1.2580,0.04,0.13,-1.00,3.17,2.81,1.83
1.2750,0.05,0.12,-0.99,2.99,2.56,1.83
1.2920,0.05,0.12,-0.99,3.48,2.87,1.89
1.3080,0.05,0.12,-1.00,3.11,3.05,1.83
1.3240,0.04,0.12,-1.00,3.36,2.99,1.77
1.3390,0.04,0.12,-1.00,3.17,2.93,1.83
1.3540,0.05,0.12,-0.99,2.99,2.81,1.89
1.3580,0.05,0.12,-0.99,3.23,2.87,1.83
1.3740,0.05,0.12,-1.00,3.11,3.05,1.89
1.3950,0.04,0.12,-1.00,3.54,2.69,1.83
1.4110,0.05,0.11,-0.99,3.30,2.50,1.71
1.4300,0.05,0.11,-0.99,3.42,2.87,1.77
1.4450,0.05,0.11,-0.99,3.48,2.93,1.71
1.4620,0.04,0.12,-1.00,3.23,3.11,2.01
1.4770,0.04,0.12,-1.00,3.23,2.69,1.83
1.4950,0.05,0.12,-0.99,3.48,2.93,1.83
1.5110,0.05,0.11,-0.99,3.17,2.81,1.89
1.5270,0.05,0.12,-1.00,3.48,3.05,2.01
1.5440,0.04,0.12,-1.00,3.17,2.81,2.01
1.5590,0.05,0.12,-0.99,3.30,2.93,1.95
1.5750,0.05,0.12,-0.99,3.42,2.87,1.89
1.5900,0.05,0.12,-0.99,3.42,3.05,1.89
1.6050,0.05,0.12,-1.00,3.23,2.87,2.08
1.6210,0.05,0.12,-1.00,3.23,3.23,1.89
1.6360,0.05,0.12,-0.99,3.11,2.75,1.83
1.6450,0.05,0.12,-0.99,3.11,2.50,1.95
1.6610,0.05,0.12,-0.99,3.48,2.75,1.77
1.6810,0.05,0.12,-1.00,3.30,2.93,1.83
1.6830,0.05,0.12,-1.00,3.23,2.38,1.83
1.6990,0.05,0.12,-0.99,3.17,2.56,1.83
1.7160,0.05,0.12,-0.99,3.30,2.87,1.89
1.7330,0.05,0.12,-0.99,3.36,2.69,1.77
1.7490,0.05,0.12,-1.00,3.30,2.69,1.83
1.7650,0.05,0.12,-0.99,3.42,2.99,1.95
1.7880,0.05,0.12,-1.00,3.30,2.87,1.83
1.8040,0.05,0.12,-0.99,3.30,3.11,1.89
1.8210,0.05,0.12,-0.99,3.36,2.99,1.89
1.8380,0.05,0.12,-1.00,3.30,2.75,1.83
1.8530,0.05,0.12,-1.00,3.36,2.75,1.77
1.8700,0.05,0.12,-0.99,3.42,2.87,1.71
1.8860,0.05,0.12,-0.99,3.42,2.69,1.89
1.9030,0.04,0.12,-1.00,3.42,3.11,1.89
1.9040,0.05,0.12,-1.00,3.42,2.62,1.77
1.9310,0.05,0.12,-0.99,3.11,2.87,1.71
1.9430,0.05,0.12,-0.99,3.23,3.05,1.95
1.9590,0.05,0.12,-0.99,3.30,2.81,2.08
1.9770,0.05,0.12,-0.99,3.30,2.56,1.89
1.9940,0.05,0.12,-1.00,3.42,2.87,1.83
2.0090,0.05,0.12,-0.99,3.30,2.93,2.08
2.0260,0.05,0.12,-1.00,3.23,2.81,1.83
2.0430,0.05,0.12,-1.00,3.36,2.99,1.89
2.0590,0.05,0.12,-1.00,3.30,2.93,1.89
2.0750,0.05,0.12,-0.99,3.17,2.62,2.01
2.0900,0.05,0.12,-0.99,3.36,3.23,1.95
2.1050,0.05,0.12,-1.00,3.17,2.81,1.89
2.1110,0.05,0.12,-1.00,3.23,3.11,1.95
2.1310,0.05,0.12,-1.00,3.23,2.81,1.89
2.1430,0.05,0.12,-1.00,3.36,2.99,1.89
2.1620,0.05,0.12,-1.00,3.54,2.93,2.01
2.1790,0.05,0.12,-0.99,3.42,2.56,1.71
2.1950,0.05,0.12,-0.99,3.36,2.56,1.77
2.2140,0.05,0.12,-1.00,3.42,3.17,1.83
2.2300,0.05,0.12,-0.99,3.30,2.50,1.89
2.2450,0.05,0.12,-0.99,3.36,3.11,1.83
2.2610,0.05,0.12,-1.00,3.30,2.75,1.77
2.2760,0.05,0.12,-1.00,3.17,2.62,1.83
2.2790,0.05,0.12,-0.99,3.36,2.87,1.89
2.3080,0.05,0.12,-1.00,2.99,3.17,2.01
2.3160,0.05,0.12,-1.00,3.23,3.17,2.01
2.3320,0.05,0.12,-0.99,3.17,2.99,1.95
2.3490,0.05,0.12,-1.00,3.42,2.87,1.77
2.3660,0.05,0.12,-1.00,3.17,3.11,1.95
2.3820,0.05,0.12,-0.99,3.30,3.17,1.83
2.3980,0.05,0.12,-1.00,3.30,2.93,1.89
2.4150,0.05,0.12,-0.99,3.30,2.69,2.01
2.4320,0.05,0.12,-1.00,3.30,3.17,1.95
2.4470,0.05,0.12,-0.99,3.23,2.99,1.89
2.4500,0.05,0.12,-0.99,3.54,2.93,1.77
2.4650,0.05,0.12,-0.99,3.36,3.05,1.89
2.4820,0.05,0.12,-0.99,3.23,2.69,1.95
2.4990,0.05,0.12,-1.00,3.05,3.11,2.01
2.5160,0.05,0.12,-1.00,2.99,3.36,2.08
2.5320,0.05,0.12,-0.99,3.11,2.69,1.65
2.5530,0.05,0.12,-1.00,3.17,3.30,1.95
2.5700,0.05,0.12,-1.00,3.11,3.11,1.83
2.5870,0.05,0.12,-0.99,3.11,2.62,1.83
2.6040,0.05,0.12,-0.99,3.17,2.87,1.89
2.6190,0.05,0.12,-1.00,3.23,2.81,1.89
2.6370,0.05,0.12,-0.99,3.23,2.62,1.89
2.6530,0.05,0.12,-0.99,3.11,2.69,1.71
2.6700,0.05,0.12,-1.00,3.30,2.50,1.89
2.6860,0.05,0.12,-1.00,3.48,2.56,1.89
2.7020,0.05,0.12,-1.00,3.11,3.05,1.83
2.7180,0.05,0.12,-0.99,3.11,2.81,1.83
2.7340,0.05,0.12,-0.99,3.11,3.17,1.89
2.7370,0.05,0.12,-0.99,3.30,2.93,2.01
2.7660,0.05,0.12,-1.00,3.30,2.75,1.89
2.7690,0.05,0.12,-0.99,3.17,2.93,2.08
2.7880,0.05,0.12,-0.99,3.05,3.17,1.95
2.8040,0.05,0.12,-1.00,3.30,2.81,1.83
2.8230,0.05,0.12,-1.00,3.17,2.99,1.77
2.8390,0.05,0.12,-1.00,3.42,2.99,1.83
2.8570,0.05,0.12,-0.99,3.30,2.93,1.83
2.8730,0.05,0.12,-0.99,3.42,2.99,1.89
2.8900,0.05,0.12,-0.99,2.99,3.17,1.89
2.9060,0.05,0.12,-1.00,3.17,2.62,1.89
2.9210,0.05,0.12,-0.99,3.30,2.62,1.71
2.9330,0.05,0.12,-0.99,3.11,2.99,1.83
2.9390,0.05,0.12,-0.99,3.30,2.99,1.89
2.9610,0.05,0.12,-0.99,3.36,3.05,1.95
2.9780,0.05,0.12,-0.99,3.23,3.11,1.77
2.9950,0.05,0.12,-0.99,3.23,2.87,1.89
3.0120,0.05,0.12,-1.00,3.11,2.99,1.83
3.0260,0.05,0.12,-1.00,3.05,2.93,1.83
3.0330,0.05,0.12,-1.00,3.23,2.56,1.89
3.0580,0.05,0.12,-1.00,3.11,2.81,1.83
3.0740,0.05,0.12,-1.00,3.30,2.81,1.95
3.0890,0.05,0.12,-1.00,3.23,2.93,1.89
3.1040,0.05,0.12,-0.99,3.30,3.23,1.77
3.1120,0.05,0.12,-1.00,3.11,3.11,1.89
3.1330,0.05,0.12,-1.00,3.23,2.93,1.83
3.1450,0.05,0.12,-0.99,3.11,3.17,1.95
3.1650,0.05,0.12,-0.99,3.11,3.30,1.83
3.1820,0.05,0.12,-0.99,3.23,3.11,1.77
3.1980,0.05,0.12,-1.00,3.30,3.11,1.95
3.2150,0.05,0.12,-0.99,3.23,3.11,1.95
3.2300,0.05,0.12,-1.00,3.30,3.23,1.95
3.2330,0.05,0.12,-1.00,3.11,3.30,1.95
3.2490,0.05,0.12,-0.99,3.17,3.23,1.83
3.2660,0.05,0.12,-1.00,2.99,2.93,1.89
3.2820,0.05,0.12,-1.00,3.17,2.69,1.71
3.3040,0.05,0.12,-0.99,3.17,3.05,1.77
3.3210,0.05,0.12,-0.99,3.05,3.23,1.83
3.3380,0.05,0.12,-1.00,3.23,2.93,1.77
3.3540,0.05,0.12,-1.00,3.23,2.87,1.89
3.3720,0.05,0.12,-0.99,3.23,2.93,1.95
3.3880,0.05,0.12,-0.99,3.36,3.23,1.95
3.3910,0.05,0.12,-1.00,3.36,3.17,1.83
3.4060,0.05,0.12,-0.99,3.30,3.17,1.83
3.4300,0.05,0.12,-1.00,3.30,3.17,2.01
3.4460,0.05,0.12,-0.99,3.23,2.87,1.95
3.4640,0.05,0.12,-0.99,3.30,2.93,1.83
3.4800,0.05,0.12,-0.99,3.11,3.17,2.08
3.4960,0.05,0.12,-1.00,3.11,3.30,1.89
3.5120,0.05,0.12,-0.99,3.17,2.87,1.95
3.5280,0.05,0.12,-1.00,3.17,3.05,1.89
3.5440,0.05,0.12,-0.99,3.30,2.81,1.95
3.5470,0.05,0.12,-0.99,3.42,2.69,1.83
3.5620,0.05,0.12,-1.00,3.30,3.05,2.01
3.5850,0.05,0.12,-0.99,3.11,3.11,1.89
3.6020,0.05,0.12,-0.99,3.23,2.81,1.83
3.6190,0.05,0.12,-0.99,3.17,2.93,1.89
3.6370,0.05,0.12,-0.99,3.11,2.75,2.01
3.6520,0.05,0.12,-1.00,3.23,3.23,2.01
3.6690,0.05,0.12,-1.00,3.23,3.36,1.83
3.6850,0.05,0.12,-0.99,3.30,3.11,2.01
3.7020,0.05,0.12,-1.00,3.23,2.99,1.83
3.7170,0.05,0.12,-0.99,3.30,3.05,1.89
3.7330,0.05,0.12,-1.00,3.36,3.05,2.01
3.7360,0.05,0.12,-0.99,3.11,2.81,1.83
3.7650,0.05,0.12,-1.00,3.30,2.87,2.01
3.7690,0.05,0.12,-0.99,3.42,2.93,1.83
3.7850,0.05,0.12,-1.00,2.99,3.23,1.95
3.8080,0.05,0.12,-1.00,3.23,2.93,1.83
3.8250,0.05,0.12,-0.99,3.23,2.81,1.83
3.8420,0.05,0.12,-1.00,3.36,2.81,1.77
3.8590,0.05,0.12,-1.00,3.36,2.75,1.95
3.8750,0.05,0.12,-0.99,3.30,3.23,1.83
3.8760,0.05,0.12,-1.00,3.23,3.05,1.89
3.9060,0.05,0.12,-1.00,3.30,2.93,1.89
3.9210,0.05,0.12,-1.00,3.05,2.93,1.59
3.9360,0.05,0.12,-0.99,3.23,3.11,1.89
3.9520,0.05,0.12,-0.99,3.05,2.81,1.89
3.9680,0.05,0.12,-0.99,3.23,3.05,1.89
3.9840,0.05,0.12,-1.00,3.30,3.36,1.89
4.0000,0.05,0.12,-1.00,3.30,3.05,1.71
4.0150,0.05,0.12,-0.99,3.17,2.99,1.77
4.0250,0.05,0.12,-1.00,3.11,2.93,1.95
4.0410,0.05,0.12,-1.00,3.36,2.87,1.89
4.0570,0.05,0.12,-0.99,3.05,2.81,1.89
4.0760,0.05,0.12,-0.99,3.23,3.17,2.08
4.0810,0.05,0.12,-1.00,3.11,3.23,1.95
4.0970,0.05,0.12,-0.99,3.05,3.23,1.83
4.1140,0.05,0.12,-0.99,3.30,3.36,1.83
4.1350,0.05,0.12,-1.00,3.11,2.93,1.83
4.1480,0.05,0.12,-1.00,3.30,2.81,2.08
4.1630,0.05,0.12,-0.99,3.30,2.75,2.01
4.1800,0.05,0.12,-0.99,3.30,3.36,1.71
4.1970,0.05,0.12,-0.99,3.23,2.87,1.89
4.2140,0.05,0.12,-1.00,3.36,2.93,1.95
4.2300,0.05,0.12,-1.00,3.17,2.99,1.95
4.2350,0.05,0.12,-0.99,3.17,2.93,1.95
4.2620,0.05,0.12,-0.99,3.30,3.11,1.95
4.2640,0.05,0.12,-0.99,3.42,2.81,1.89
4.2810,0.05,0.12,-1.00,3.23,3.11,1.89
4.2980,0.05,0.12,-1.00,2.99,3.30,1.83
4.3130,0.05,0.12,-0.99,3.11,2.50,1.89
4.3350,0.05,0.12,-1.00,3.42,2.99,1.83
4.3510,0.05,0.12,-0.99,3.30,3.11,2.08
4.3680,0.05,0.12,-0.99,3.23,2.93,1.83
4.3840,0.05,0.12,-1.00,3.23,2.99,1.71
4.4000,0.05,0.12,-1.00,3.23,2.81,1.89
4.4180,0.05,0.12,-1.00,3.30,3.11,1.83
4.4330,0.05,0.12,-0.99,3.23,2.87,1.89
4.4350,0.05,0.12,-0.99,3.54,2.99,1.83
4.4520,0.05,0.12,-1.00,3.23,2.99,1.89
4.4690,0.05,0.12,-0.99,3.36,2.75,1.83
4.4840,0.05,0.12,-1.00,3.23,2.32,1.83
4.5000,0.05,0.12,-0.99,3.23,2.69,1.95
4.5270,0.05,0.12,-0.99,3.17,2.99,1.83
4.5380,0.05,0.12,-1.00,3.36,2.75,2.01
4.5550,0.05,0.12,-1.00,3.11,2.99,1.89
4.5710,0.05,0.12,-1.00,3.17,2.75,1.77
4.5870,0.05,0.12,-0.99,3.36,2.50,1.83
4.6030,0.05,0.12,-0.99,3.30,2.87,1.95
4.6190,0.05,0.12,-1.00,3.23,2.81,1.77
4.6350,0.05,0.12,-0.99,3.17,3.11,1.89
4.6370,0.05,0.12,-1.00,3.23,3.11,1.95
4.6600,0.05,0.12,-0.99,3.23,2.93,1.89
4.6760,0.05,0.12,-0.99,3.42,2.50,1.77
4.6940,0.05,0.12,-0.99,3.23,2.99,1.83
4.7100,0.05,0.12,-1.00,3.05,3.36,1.83
4.7260,0.05,0.12,-0.99,3.36,2.99,1.89
4.7420,0.05,0.12,-0.99,3.30,3.17,2.01
4.7580,0.05,0.12,-0.99,3.30,3.11,1.83
4.7740,0.05,0.12,-1.00,3.17,2.81,1.89
4.7890,0.05,0.12,-1.00,3.23,2.44,1.89
4.8050,0.05,0.12,-0.99,3.36,2.81,1.83
4.8200,0.05,0.12,-1.00,3.17,2.75,1.77
4.8360,0.05,0.12,-0.99,3.36,3.05,1.77
4.8430,0.05,0.12,-1.00,3.23,2.93,1.89
4.8600,0.05,0.12,-0.99,3.36,3.36,2.01
4.8760,0.05,0.12,-1.00,3.23,2.75,1.83
4.8960,0.05,0.12,-1.00,3.17,2.87,1.95
4.9130,0.05,0.12,-1.00,3.17,3.11,1.89
4.9290,0.05,0.12,-0.99,3.30,2.81,1.71
4.9460,0.05,0.12,-0.99,3.42,2.75,1.83
4.9620,0.05,0.12,-0.99,3.23,3.17,1.89
4.9780,0.05,0.12,-1.00,3.17,3.17,1.95
4.9940,0.05,0.12,-0.99,3.23,2.81,1.89
5.0100,0.05,0.12,-1.00,3.17,2.93,2.01
5.0130,0.05,0.12,-0.99,3.05,3.05,1.83
5.0350,0.05,0.12,-1.00,3.17,2.99,2.08
5.0490,0.05,0.12,-1.00,3.23,3.66,1.83
5.0670,0.05,0.12,-0.99,3.11,3.36,1.89
5.0830,0.05,0.12,-1.00,3.05,3.42,2.01
5.1030,0.05,0.12,-0.99,3.23,2.93,1.89
5.1190,0.05,0.12,-1.00,2.99,3.36,1.95
5.1350,0.05,0.12,-1.00,3.48,2.93,1.95
5.1510,0.05,0.12,-1.00,3.23,2.93,1.95
5.1540,0.05,0.12,-0.99,3.11,3.05,1.83
5.1830,0.05,0.12,-0.99,3.42,3.11,1.83
5.1990,0.05,0.12,-1.00,3.30,3.05,1.83
5.2150,0.05,0.12,-0.99,3.42,2.93,1.77
5.2310,0.05,0.12,-1.00,3.17,2.93,1.89
5.2460,0.05,0.12,-0.99,3.17,2.93,1.89
5.2620,0.05,0.12,-1.00,3.05,3.17,1.89
5.2770,0.05,0.12,-0.99,3.17,3.11,1.89
5.2860,0.05,0.12,-0.99,2.99,3.17,1.89
5.3040,0.05,0.12,-0.99,3.30,2.93,1.89
5.3200,0.05,0.12,-1.00,3.42,3.11,1.89
5.3370,0.05,0.12,-1.00,3.17,2.99,1.95
5.3530,0.05,0.12,-0.99,3.11,3.23,1.89
5.3700,0.05,0.12,-0.99,3.30,3.17,1.89
5.3860,0.05,0.12,-1.00,3.30,2.99,2.01
5.4010,0.05,0.12,-0.99,3.30,3.05,1.95
5.4040,0.05,0.12,-0.99,3.36,2.81,1.89
5.4330,0.05,0.12,-1.00,3.30,3.23,1.83
5.4490,0.05,0.12,-1.00,3.23,3.11,2.01
5.4650,0.05,0.12,-0.99,3.30,3.48,1.95
5.4710,0.05,0.12,-0.99,3.23,3.23,2.08
5.4950,0.05,0.12,-1.00,3.36,2.99,1.89
5.5030,0.05,0.12,-1.00,3.05,2.75,1.89
5.5200,0.05,0.12,-0.99,3.23,3.30,1.95
5.5380,0.05,0.12,-1.00,3.42,3.11,1.95
5.5530,0.05,0.12,-0.99,3.42,3.23,1.89
5.5700,0.05,0.12,-0.99,3.30,3.23,2.01
5.5870,0.05,0.12,-1.00,3.23,2.87,1.83
5.6040,0.05,0.12,-0.99,3.23,3.05,1.77
5.6210,0.05,0.12,-1.00,3.30,2.99,1.77
5.6370,0.05,0.12,-0.99,3.30,2.93,1.89
5.6530,0.05,0.12,-0.99,3.05,3.54,1.89
5.6690,0.05,0.12,-1.00,3.11,2.87,1.95
5.6710,0.05,0.12,-0.99,3.17,3.11,1.83
5.7010,0.05,0.12,-0.99,3.48,3.17,2.01
5.7170,0.05,0.12,-1.00,3.05,2.99,2.01
5.7330,0.05,0.12,-0.99,3.17,3.11,1.89
5.7500,0.05,0.12,-0.99,3.23,2.81,1.95
5.7650,0.05,0.12,-1.00,3.23,3.23,1.89
5.7690,0.05,0.12,-0.99,3.17,3.48,1.95
5.7850,0.05,0.12,-1.00,3.30,3.05,2.01
5.8090,0.05,0.12,-1.00,3.11,3.17,1.89
5.8260,0.05,0.12,-1.00,3.17,2.75,1.89
5.8420,0.05,0.12,-0.99,3.30,2.93,2.01
5.8580,0.05,0.12,-1.00,3.23,2.93,1.77
5.8740,0.05,0.12,-0.99,3.11,3.48,1.83
5.8890,0.05,0.12,-0.99,3.30,2.87,1.95
5.8930,0.05,0.12,-0.99,3.17,3.11,2.01
5.9190,0.05,0.12,-1.00,3.23,3.30,1.95
5.9340,0.05,0.12,-1.00,3.42,2.62,1.83
5.9440,0.05,0.12,-1.00,3.17,2.62,1.89
5.9600,0.05,0.12,-1.00,3.17,3.11,1.89
5.9770,0.05,0.12,-1.00,3.30,3.17,1.89
5.9920,0.05,0.12,-1.00,3.17,2.99,2.01
6.0100,0.05,0.12,-0.99,3.11,3.54,2.08
6.0260,0.05,0.12,-0.99,3.30,2.93,1.83
6.0430,0.05,0.12,-1.00,3.30,3.23,1.77
6.0590,0.05,0.12,-0.99,3.05,3.36,2.01
6.0750,0.05,0.12,-0.99,3.17,3.05,1.95
6.0910,0.05,0.12,-0.99,3.11,3.36,1.89
6.1060,0.05,0.12,-1.00,3.36,2.99,2.01
6.1220,0.05,0.12,-0.99,3.30,3.05,1.83
6.1380,0.05,0.12,-0.99,3.17,3.05,2.01
6.1550,0.05,0.12,-0.99,3.17,2.87,1.83
6.1700,0.05,0.12,-0.99,3.11,3.11,1.95
6.1860,0.05,0.12,-1.00,3.05,3.05,1.95
6.2030,0.05,0.12,-0.99,3.23,3.30,1.95
6.2100,0.05,0.12,-0.99,3.23,3.42,2.08
6.2280,0.05,0.12,-0.99,3.23,3.17,1.77
6.2440,0.05,0.12,-0.99,3.17,3.42,1.77
6.2600,0.05,0.12,-0.99,3.30,3.17,1.89
6.2770,0.05,0.12,-1.00,3.17,2.87,2.01
6.2940,0.05,0.12,-1.00,3.23,2.87,1.89
6.3110,0.05,0.12,-0.99,3.42,2.99,2.01
6.3270,0.05,0.12,-0.99,3.11,3.17,2.08
6.3430,0.05,0.12,-0.99,3.17,3.11,1.83
6.3590,0.05,0.12,-0.99,3.30,3.30,2.01
6.3750,0.05,0.12,-1.00,2.99,3.23,1.95
6.3910,0.05,0.12,-0.99,3.11,3.23,2.01
6.4060,0.05,0.12,-1.00,3.11,3.05,1.89
6.4210,0.05,0.12,-0.99,3.11,3.17,1.95
6.4360,0.05,0.12,-0.99,3.23,2.99,1.95
6.4520,0.05,0.12,-1.00,3.17,3.42,1.89
6.4680,0.05,0.12,-1.00,3.30,3.42,2.08
6.4770,0.05,0.12,-1.00,3.11,3.05,1.95
6.4930,0.05,0.12,-1.00,3.17,3.48,1.83
6.5100,0.05,0.12,-0.99,3.42,3.05,1.71
6.5260,0.05,0.12,-1.00,3.30,3.11,1.95
6.5440,0.05,0.12,-0.99,3.23,3.36,2.14
6.5600,0.05,0.12,-1.00,3.17,3.11,1.95
6.5760,0.05,0.12,-1.00,3.36,2.81,1.65
6.5920,0.05,0.12,-0.99,3.23,3.17,1.95
6.6080,0.05,0.12,-0.99,3.36,3.11,1.95
6.6230,0.05,0.12,-0.99,3.42,3.11,1.89
6.6390,0.05,0.12,-0.99,3.42,2.87,1.77
6.6540,0.05,0.12,-0.99,3.17,2.87,1.95
6.6600,0.05,0.12,-1.00,3.11,3.23,1.95
6.6770,0.05,0.12,-0.99,2.99,3.11,1.95
6.6990,0.05,0.12,-1.00,3.42,2.87,1.89
6.7150,0.05,0.12,-1.00,3.17,2.87,1.77
6.7320,0.05,0.12,-1.00,3.17,3.30,1.89
6.7480,0.05,0.12,-1.00,3.17,3.17,1.89
6.7640,0.05,0.12,-1.00,3.30,3.05,1.83
6.7660,0.05,0.12,-1.00,3.54,2.75,1.95
6.7820,0.05,0.12,-1.00,3.11,3.05,1.95
6.8050,0.05,0.12,-1.00,3.11,2.99,1.83
6.8210,0.05,0.12,-0.99,3.30,2.81,1.89
6.8390,0.05,0.12,-1.00,3.11,2.93,2.08
6.8540,0.05,0.12,-1.00,3.11,3.11,1.89
6.8710,0.05,0.12,-0.99,3.48,3.17,2.08
6.8880,0.05,0.12,-0.99,3.17,2.99,1.89
6.9030,0.05,0.12,-1.00,3.17,3.30,2.01
6.9190,0.05,0.12,-0.99,3.11,2.81,1.95
6.9340,0.05,0.12,-0.99,3.05,2.69,1.89
6.9500,0.05,0.12,-1.00,3.11,3.05,1.95
6.9660,0.05,0.12,-0.99,3.17,3.05,1.83
6.9820,0.05,0.12,-0.99,3.23,3.05,1.89
6.9980,0.05,0.12,-1.00,3.23,2.99,1.77
7.0140,0.05,0.12,-0.99,3.11,3.05,1.95
7.0220,0.05,0.12,-0.99,3.11,2.75,1.89
7.0380,0.05,0.12,-0.99,3.11,2.93,1.89
7.0600,0.05,0.12,-0.99,3.17,2.93,1.95
7.0760,0.05,0.12,-1.00,3.17,3.05,1.83
7.0920,0.05,0.12,-0.99,3.30,3.48,2.08
7.1080,0.05,0.12,-0.99,3.17,3.48,1.89
7.1110,0.05,0.12,-1.00,3.11,2.93,1.95
7.1380,0.05,0.12,-1.00,3.30,2.93,1.89
7.1480,0.05,0.12,-0.99,3.17,2.99,1.89
7.1640,0.05,0.12,-1.00,3.17,3.30,1.83
7.1820,0.05,0.12,-0.99,3.11,3.17,1.83
7.1980,0.05,0.12,-0.99,3.17,2.93,1.83
7.2140,0.05,0.12,-1.00,3.23,3.17,1.95
7.2310,0.05,0.12,-0.99,3.30,3.05,1.89
7.2470,0.05,0.12,-0.99,3.05,3.11,1.83
7.2640,0.05,0.12,-0.99,3.36,3.05,1.89
7.2650,0.05,0.12,-1.00,3.23,3.11,2.01
7.2820,0.05,0.12,-0.99,3.17,3.23,2.01
7.3120,0.05,0.12,-1.00,3.36,3.17,2.01
7.3280,0.05,0.12,-1.00,2.99,3.30,1.89
7.3390,0.05,0.12,-1.00,3.23,3.17,1.89
7.3490,0.05,0.12,-1.00,3.30,2.99,2.01
7.3760,0.05,0.12,-0.99,3.17,3.17,1.89
7.3920,0.05,0.12,-0.99,3.17,3.48,1.89
7.4020,0.05,0.12,-0.99,3.36,3.05,1.89
7.4180,0.05,0.12,-1.00,3.30,3.36,1.83
7.4380,0.05,0.12,-1.00,3.30,3.48,1.95
7.4530,0.05,0.12,-1.00,3.30,2.93,1.83
7.4690,0.05,0.12,-1.00,3.11,3.05,1.83
7.4850,0.05,0.12,-1.00,3.11,3.23,1.83
7.4890,0.05,0.12,-1.00,3.23,2.99,1.83
7.5160,0.05,0.12,-0.99,2.93,3.36,1.89
7.5320,0.05,0.12,-0.99,3.17,2.99,1.83
7.5390,0.05,0.12,-1.00,3.11,3.23,2.01
7.5540,0.05,0.12,-1.00,3.11,3.48,1.95
7.5790,0.05,0.12,-1.00,3.05,2.87,1.89
7.5880,0.05,0.12,-1.00,3.23,2.99,2.01
7.6100,0.05,0.12,-1.00,3.11,3.05,1.83
7.6210,0.05,0.12,-0.99,2.99,3.05,1.89
7.6390,0.05,0.12,-0.99,3.23,2.93,1.77
7.6540,0.05,0.12,-0.99,3.30,3.05,1.83
7.6550,0.05,0.12,-0.99,3.17,2.99,1.95
7.6860,0.05,0.12,-0.99,3.11,2.99,1.89
7.7020,0.05,0.12,-0.99,3.11,2.62,1.89
7.7180,0.05,0.12,-1.00,3.17,3.11,1.95
7.7340,0.05,0.12,-0.99,3.23,2.87,1.77
7.7500,0.05,0.12,-0.99,3.17,2.93,1.95
7.7660,0.05,0.12,-0.99,3.23,2.99,1.89
7.7820,0.05,0.12,-1.00,3.23,3.05,1.77
7.7990,0.05,0.12,-1.00,2.99,3.05,2.01
7.8140,0.05,0.12,-0.99,3.17,3.17,1.83
7.8290,0.05,0.12,-0.99,3.17,3.11,1.89
7.8400,0.05,0.12,-1.00,3.23,3.11,1.77
7.8540,0.05,0.12,-0.99,3.05,3.23,1.83
7.8710,0.05,0.12,-1.00,3.23,3.48,2.01
7.8880,0.05,0.12,-1.00,3.30,2.81,1.65
7.9040,0.05,0.12,-0.99,3.23,3.05,1.89
7.9050,0.05,0.12,-0.99,3.11,3.30,2.08
7.9360,0.05,0.12,-1.00,3.11,3.42,1.89
7.9520,0.05,0.12,-1.00,3.05,2.81,1.83
7.9550,0.05,0.12,-1.00,2.99,2.87,2.08
7.9710,0.05,0.12,-0.99,3.23,3.30,2.01
7.9990,0.05,0.12,-1.00,3.42,2.75,1.95
8.0130,0.05,0.12,-1.00,3.23,2.99,1.83
8.0250,0.05,0.12,-1.00,3.17,3.05,1.83
8.0420,0.05,0.12,-1.00,2.93,3.17,1.83
8.0590,0.05,0.12,-0.99,3.42,3.42,1.89
8.0740,0.05,0.12,-0.99,3.11,3.11,2.01
8.0900,0.05,0.12,-0.99,3.05,3.60,1.89
8.1050,0.05,0.12,-0.99,3.23,2.93,1.89
8.1200,0.05,0.12,-1.00,3.30,2.81,1.83
8.1250,0.05,0.12,-1.00,3.36,2.93,2.01
8.1400,0.05,0.12,-0.99,3.23,3.11,1.89
8.1670,0.05,0.12,-1.00,3.36,3.05,1.77
8.1780,0.05,0.12,-0.99,3.23,2.81,1.77
8.1940,0.05,0.12,-1.00,3.17,2.99,1.77
8.2100,0.05,0.12,-1.00,3.17,3.11,1.95
8.2280,0.05,0.12,-1.00,3.30,3.05,2.08
8.2450,0.05,0.12,-0.99,3.17,3.17,1.95
8.2600,0.05,0.12,-1.00,3.17,3.11,1.89
8.2770,0.05,0.12,-0.99,3.11,2.87,1.71
8.2780,0.05,0.12,-1.00,3.23,2.87,1.89
8.3070,0.05,0.12,-0.99,3.17,3.17,2.01
8.3220,0.05,0.12,-0.99,3.30,3.30,1.89
8.3370,0.05,0.12,-1.00,3.11,3.05,1.89
8.3520,0.05,0.12,-0.99,3.36,2.81,1.95
8.3670,0.05,0.12,-1.00,3.36,2.99,1.95
8.3820,0.05,0.12,-0.99,3.36,3.23,1.95
8.3940,0.05,0.12,-1.00,3.30,2.99,1.89
8.4100,0.05,0.12,-0.99,3.23,2.99,2.01
8.4270,0.05,0.12,-1.00,3.17,3.23,1.83
8.4430,0.05,0.12,-0.99,3.42,2.87,1.77
8.4580,0.05,0.12,-1.00,3.36,2.99,1.95
8.4600,0.05,0.12,-1.00,3.11,2.81,2.08
8.4890,0.05,0.12,-0.99,3.30,3.23,1.89
8.5040,0.05,0.12,-0.99,3.05,2.99,1.83
8.5110,0.05,0.12,-1.00,3.17,3.23,1.95
8.5340,0.05,0.12,-0.99,3.17,2.87,1.83
8.5430,0.05,0.12,-1.00,3.11,3.30,2.01
8.5610,0.05,0.12,-0.99,3.17,2.99,1.83
8.5770,0.05,0.12,-0.99,3.23,3.17,2.01
8.5940,0.05,0.12,-0.99,3.30,3.05,1.89
8.6100,0.05,0.12,-1.00,3.11,3.17,2.14
8.6270,0.05,0.12,-0.99,3.11,2.99,1.89
8.6440,0.05,0.12,-1.00,3.17,3.23,1.89
8.6590,0.05,0.12,-0.99,3.11,3.42,1.83
8.6750,0.05,0.12,-1.00,3.17,2.99,1.89
8.6920,0.05,0.12,-1.00,3.17,3.48,2.01
8.7070,0.05,0.12,-0.99,3.30,2.81,1.77
8.7110,0.05,0.12,-1.00,3.36,3.30,1.95
8.7270,0.05,0.12,-0.99,3.17,2.99,1.83
8.7480,0.05,0.12,-1.00,3.11,3.72,2.08
8.7650,0.05,0.12,-0.99,3.30,3.42,2.08
8.7830,0.05,0.12,-1.00,3.11,3.17,1.95
8.7980,0.05,0.12,-1.00,3.48,2.93,1.89
8.8140,0.05,0.12,-1.00,3.11,2.93,1.83
8.8160,0.05,0.12,-0.99,3.30,3.30,1.95
8.8430,0.05,0.12,-1.00,3.30,3.23,1.89
8.8610,0.05,0.12,-0.99,3.11,3.17,1.89
8.8640,0.05,0.12,-0.99,3.36,2.99,2.08
8.8810,0.05,0.12,-0.99,3.23,2.99,2.01
8.8990,0.05,0.12,-1.00,3.36,3.17,1.95
8.9250,0.05,0.12,-0.99,3.17,2.99,1.89
8.9320,0.05,0.12,-0.99,3.11,2.99,2.08
8.9480,0.05,0.12,-0.99,3.17,3.30,1.95
8.9640,0.05,0.12,-1.00,3.23,2.75,1.95
8.9810,0.05,0.12,-1.00,3.17,2.99,1.95
8.9980,0.05,0.12,-0.99,3.36,2.87,1.89
9.0150,0.05,0.12,-0.99,3.23,3.05,1.89
9.0310,0.05,0.12,-0.99,3.30,2.81,1.95
9.0480,0.05,0.12,-1.00,3.36,2.93,1.95
9.0640,0.05,0.12,-1.00,3.30,3.05,1.95
9.0800,0.05,0.12,-1.00,3.23,3.11,1.95
9.0820,0.05,0.12,-1.00,3.17,2.87,1.71
9.0980,0.05,0.12,-0.99,3.17,3.30,1.89
9.1140,0.05,0.12,-0.99,3.30,2.87,1.95
9.1430,0.05,0.12,-1.00,3.17,3.05,1.89
9.1590,0.05,0.12,-1.00,3.36,2.93,1.95
9.1750,0.05,0.12,-0.99,3.30,2.99,1.83
9.1850,0.05,0.12,-1.00,3.36,3.60,2.08
9.2020,0.05,0.12,-1.00,3.23,3.11,2.01
9.2190,0.05,0.12,-1.00,3.42,2.69,1.89
9.2350,0.05,0.12,-0.99,3.30,3.05,1.89
9.2520,0.05,0.12,-1.00,3.30,2.69,1.71
9.2680,0.05,0.12,-0.99,3.42,2.99,1.89
9.2690,0.05,0.12,-1.00,3.42,2.93,2.01
9.2990,0.05,0.12,-1.00,3.48,3.05,1.77
9.3150,0.05,0.12,-1.00,3.23,2.81,2.01
9.3320,0.05,0.12,-0.99,3.17,3.36,1.89
9.3470,0.05,0.12,-0.99,3.17,3.23,1.89
9.3640,0.05,0.12,-1.00,3.42,3.05,1.95
9.3680,0.05,0.12,-1.00,3.42,2.81,1.83
9.3840,0.05,0.12,-0.99,3.05,3.30,1.77
9.4060,0.05,0.12,-0.99,3.17,3.11,2.01
9.4240,0.05,0.12,-0.99,3.23,2.81,1.89
9.4400,0.05,0.12,-0.99,3.17,3.17,1.95
9.4560,0.05,0.12,-0.99,3.30,3.17,2.01
9.4720,0.05,0.12,-1.00,3.17,3.36,1.89
9.4880,0.05,0.12,-1.00,3.42,2.99,1.95
9.5040,0.05,0.12,-1.00,3.23,3.36,1.83
9.5190,0.05,0.12,-1.00,3.23,2.99,1.83
9.5350,0.05,0.12,-1.00,3.36,2.81,1.95
9.5510,0.05,0.12,-0.99,3.30,2.99,1.89
9.5670,0.05,0.12,-0.99,3.17,2.81,1.65
9.5830,0.05,0.12,-1.00,3.23,2.99,1.89
9.5900,0.05,0.12,-0.99,3.30,3.23,1.89
9.6060,0.05,0.12,-0.99,3.11,3.54,2.01
9.6280,0.05,0.12,-0.99,3.11,3.42,1.95
9.6460,0.05,0.12,-1.00,3.17,2.99,1.65
9.6620,0.05,0.12,-1.00,3.05,3.42,2.01
9.6790,0.05,0.12,-1.00,3.36,2.81,1.83
9.6940,0.05,0.12,-1.00,3.36,3.23,1.83
9.7100,0.05,0.12,-1.00,3.42,3.05,1.83
9.7260,0.05,0.12,-1.00,3.11,2.81,1.83
9.7400,0.05,0.12,-0.99,3.48,3.05,1.89
9.7560,0.05,0.12,-0.99,3.17,2.99,1.95
9.7720,0.05,0.12,-0.99,3.17,2.87,1.95
9.7870,0.05,0.12,-1.00,3.23,2.62,2.01
9.8030,0.05,0.12,-1.00,3.36,2.93,1.95
9.8130,0.05,0.12,-1.00,3.23,2.69,1.83
9.8290,0.05,0.12,-1.00,3.23,2.75,1.89
9.8460,0.05,0.12,-0.99,3.23,2.99,1.83
9.8620,0.05,0.12,-0.99,3.30,3.05,1.89
9.8790,0.05,0.12,-1.00,3.23,2.93,1.89
9.8950,0.05,0.12,-1.00,3.23,3.05,1.89
9.9120,0.05,0.12,-1.00,3.23,2.81,1.89
9.9280,0.05,0.12,-1.00,3.11,3.11,1.95
9.9430,0.05,0.12,-1.00,3.48,2.87,1.83
9.9600,0.05,0.12,-0.99,3.36,2.75,1.71
9.9620,0.05,0.12,-1.00,3.30,2.81,1.83
9.9910,0.05,0.12,-0.99,3.11,3.30,1.89
9.9980,0.05,0.12,-1.00,3.17,2.99,1.89
10.0140,0.05,0.12,-1.00,3.42,2.99,1.89
10.0300,0.05,0.12,-1.00,3.11,3.23,1.83
10.0510,0.05,0.12,-1.00,3.05,3.17,1.95
10.0520,0.05,0.12,-1.00,3.11,2.99,1.83
10.0830,0.05,0.12,-0.99,2.99,3.23,1.89
10.0990,0.05,0.12,-1.00,3.23,2.87,1.83
10.1150,0.05,0.12,-1.00,3.36,2.75,1.89
10.1320,0.05,0.12,-1.00,3.23,2.93,1.89
10.1470,0.05,0.12,-1.00,3.23,3.17,2.01
10.1520,0.05,0.12,-1.00,3.17,2.93,2.01
10.1680,0.05,0.12,-1.00,3.05,3.60,1.89
10.1890,0.05,0.12,-0.99,3.30,2.99,1.95
10.2040,0.05,0.12,-1.00,3.17,3.11,1.83
10.2210,0.05,0.12,-1.00,3.05,2.99,1.89
10.2380,0.05,0.12,-0.99,3.30,2.62,1.95
10.2540,0.05,0.12,-1.00,3.36,2.93,1.77
10.2690,0.05,0.12,-0.99,3.23,2.87,1.89
10.2850,0.05,0.12,-0.99,3.23,2.69,1.89
10.3020,0.05,0.12,-1.00,3.17,3.17,1.83
10.3050,0.05,0.12,-0.99,3.42,2.93,1.89
10.3200,0.05,0.12,-0.99,3.30,2.69,1.89
10.3440,0.05,0.12,-0.99,3.36,2.69,1.89
10.3570,0.05,0.12,-1.00,3.17,2.99,1.89
10.3740,0.05,0.12,-1.00,3.42,2.32,1.77
10.3900,0.05,0.12,-1.00,3.48,2.44,1.77
10.4080,0.05,0.12,-0.99,3.23,2.50,1.77
10.4240,0.05,0.12,-1.00,3.36,2.87,1.89
10.4410,0.05,0.12,-0.99,3.05,3.30,1.89
10.4560,0.05,0.12,-1.00,3.11,2.56,2.01
10.4570,0.05,0.12,-1.00,3.11,3.17,1.83
10.4740,0.05,0.12,-1.00,3.42,2.99,1.89
10.4950,0.05,0.12,-0.99,3.36,2.93,1.83
10.5120,0.05,0.12,-0.99,3.17,2.93,1.77
10.5280,0.05,0.12,-1.00,3.36,2.81,1.77
10.5450,0.05,0.12,-1.00,3.23,2.56,1.71
10.5610,0.05,0.12,-0.99,3.30,3.11,1.83
10.5780,0.05,0.12,-0.99,3.30,2.99,1.83
10.5950,0.05,0.12,-1.00,3.48,3.05,1.95
10.6110,0.05,0.12,-1.00,3.23,2.75,1.77
10.6270,0.05,0.12,-0.99,3.36,2.44,1.77
10.6420,0.05,0.12,-0.99,3.23,2.99,1.83
10.6570,0.05,0.12,-1.00,3.30,2.87,1.77
10.6730,0.05,0.12,-0.99,3.17,2.93,1.83
10.6880,0.05,0.12,-1.00,3.17,2.87,1.77
10.7020,0.05,0.12,-0.99,3.17,2.87,1.77
10.7120,0.05,0.12,-1.00,3.23,2.93,1.89
10.7280,0.05,0.12,-0.99,3.23,2.69,1.83
10.7450,0.05,0.12,-0.99,2.99,3.11,2.01
10.7620,0.05,0.12,-0.99,3.11,2.69,1.83
10.7770,0.05,0.12,-0.99,3.23,2.81,1.89
10.7920,0.05,0.12,-0.99,3.30,2.81,1.71
10.8080,0.05,0.12,-0.99,3.23,2.69,1.95
10.8240,0.05,0.12,-1.00,3.23,2.93,1.83
10.8400,0.05,0.12,-1.00,3.36,2.50,1.65
10.8560,0.05,0.12,-0.99,3.23,2.93,1.89
10.8710,0.05,0.12,-0.99,3.17,3.05,1.83
10.8790,0.05,0.12,-0.99,3.30,2.62,1.83
10.8950,0.05,0.12,-0.99,3.23,2.62,1.77
10.9170,0.05,0.12,-0.99,3.30,2.44,1.65
10.9320,0.05,0.12,-0.99,3.30,2.50,1.71
10.9490,0.05,0.12,-1.00,3.42,2.32,1.77
10.9650,0.05,0.12,-1.00,3.17,2.56,1.71
10.9800,0.05,0.12,-0.99,3.42,2.62,1.71
10.9820,0.05,0.12,-1.00,3.42,2.38,1.77
10.9980,0.05,0.12,-1.00,3.30,2.81,1.83
11.0260,0.05,0.12,-0.99,3.30,2.44,1.77
11.0370,0.05,0.12,-0.99,3.48,2.56,1.83
11.0520,0.05,0.12,-1.00,3.42,2.50,1.83
11.0690,0.05,0.12,-1.00,3.17,2.62,1.77
11.0870,0.05,0.12,-1.00,3.36,2.38,1.89
11.1030,0.05,0.12,-0.99,3.36,2.62,1.77
11.1190,0.05,0.12,-0.99,3.23,2.75,1.89
11.1350,0.05,0.12,-1.00,3.23,2.81,1.95
11.1510,0.05,0.12,-0.99,3.42,2.50,1.59
11.1670,0.05,0.12,-0.99,3.30,2.75,1.83
11.1840,0.05,0.12,-0.99,3.36,2.87,1.83
11.2000,0.05,0.12,-0.99,3.36,2.44,1.89
11.2150,0.05,0.12,-0.99,3.23,2.50,1.83
11.2320,0.05,0.12,-1.00,3.30,2.99,1.95
11.2470,0.05,0.12,-0.99,3.54,2.69,1.77
11.2630,0.05,0.12,-0.99,3.48,2.44,1.83
11.2790,0.05,0.12,-0.99,3.23,2.50,1.83
11.2950,0.05,0.12,-0.99,3.36,2.44,1.89
11.3040,0.05,0.12,-0.99,3.48,2.75,1.95
11.3200,0.05,0.12,-0.99,3.48,2.81,1.89
11.3360,0.05,0.12,-1.00,3.36,3.23,1.89
11.3530,0.05,0.12,-1.00,3.36,2.69,1.89
11.3710,0.05,0.12,-0.99,3.36,2.62,1.89
11.3710,0.05,0.12,-0.99,3.42,2.38,1.77
11.4020,0.05,0.12,-0.99,3.36,2.87,1.83
11.4170,0.05,0.12,-1.00,3.48,2.56,1.89
11.4330,0.05,0.12,-1.00,3.42,2.69,1.89
11.4460,0.05,0.12,-1.00,3.23,2.87,1.89
11.4540,0.05,0.12,-0.99,3.48,2.56,1.95
11.4770,0.05,0.12,-0.99,3.54,2.38,1.83
11.4950,0.05,0.12,-0.99,3.36,2.81,1.71
11.5110,0.05,0.12,-0.99,3.30,2.56,1.83
11.5270,0.05,0.12,-1.00,3.42,2.50,1.89
11.5440,0.05,0.12,-1.00,3.23,2.69,1.89
11.5600,0.05,0.12,-1.00,3.11,2.56,1.89
11.5760,0.05,0.12,-1.00,3.42,2.69,1.83
11.5910,0.05,0.12,-1.00,3.36,2.75,1.77
11.6070,0.05,0.12,-1.00,3.23,2.69,1.95
11.6220,0.05,0.12,-0.99,3.42,2.56,1.95
11.6370,0.05,0.12,-0.99,3.30,2.75,1.83
11.6520,0.05,0.12,-1.00,3.36,2.56,1.77
11.6610,0.05,0.12,-0.99,3.30,2.81,1.77
11.6780,0.05,0.12,-1.00,3.23,2.93,2.01
11.6940,0.05,0.12,-0.99,3.30,2.62,1.89
11.7100,0.05,0.12,-0.99,3.30,2.93,1.77
11.7270,0.05,0.12,-1.00,3.36,2.69,1.89
11.7440,0.05,0.12,-1.00,3.42,2.50,2.01
11.7610,0.05,0.12,-1.00,3.36,3.11,1.71
11.7770,0.05,0.12,-1.00,3.48,2.56,1.71
11.7930,0.05,0.12,-0.99,3.30,2.87,1.95
11.8090,0.05,0.12,-0.99,3.54,2.50,1.83
11.8250,0.05,0.12,-1.00,3.11,2.81,1.89
11.8410,0.05,0.12,-1.00,3.42,2.38,1.77
11.8460,0.05,0.12,-1.00,3.42,2.81,1.77
11.8590,0.05,0.12,-0.99,3.36,2.75,1.83
11.8820,0.05,0.12,-0.99,3.60,2.81,1.71
11.8980,0.05,0.12,-1.00,3.36,2.50,1.71
11.9150,0.05,0.12,-1.00,3.42,2.62,1.95
11.9320,0.05,0.12,-0.99,3.42,2.69,1.95
11.9480,0.05,0.12,-0.99,3.60,2.44,1.83
11.9640,0.05,0.12,-0.99,3.42,2.32,1.77
11.9810,0.05,0.12,-0.99,3.54,2.38,1.89
11.9970,0.05,0.12,-0.99,3.42,2.38,1.95
11.9990,0.05,0.12,-1.00,3.23,2.75,1.95
12.0300,0.05,0.12,-0.99,3.30,2.50,1.89
12.0450,0.05,0.12,-1.00,3.36,2.93,1.77
12.0480,0.05,0.12,-0.99,3.60,2.99,1.95
12.0780,0.05,0.12,-1.00,3.30,2.50,1.89
12.0920,0.05,0.12,-0.99,3.30,2.75,1.77
12.0970,0.05,0.12,-1.00,3.42,2.56,1.89
12.1150,0.05,0.12,-0.99,3.48,2.75,1.77
12.1310,0.05,0.12,-1.00,3.42,2.50,1.83
12.1540,0.05,0.12,-1.00,3.36,2.75,1.89
12.1700,0.05,0.12,-1.00,3.30,2.44,1.83
12.1860,0.05,0.12,-0.99,3.30,3.05,2.01
12.1880,0.05,0.12,-0.99,3.30,3.23,2.01
12.2040,0.05,0.12,-0.99,3.42,2.81,1.89
12.2310,0.05,0.12,-0.99,3.30,2.93,1.89
12.2410,0.05,0.12,-1.00,3.23,2.50,1.83
12.2590,0.05,0.12,-1.00,3.42,2.62,1.77
12.2750,0.05,0.12,-0.99,3.30,2.87,1.77
12.2920,0.05,0.12,-0.99,3.36,2.62,1.89
12.3080,0.05,0.12,-0.99,3.23,2.56,1.77
12.3240,0.05,0.12,-0.99,3.54,2.81,1.83
12.3400,0.05,0.12,-1.00,3.54,2.50,2.01
12.3550,0.05,0.12,-0.99,3.42,2.87,1.89
12.3700,0.05,0.12,-1.00,3.42,2.81,1.83
12.3860,0.05,0.12,-1.00,3.54,2.14,1.71
12.4020,0.05,0.12,-0.99,3.05,2.81,1.89
12.4170,0.05,0.12,-1.00,3.42,2.93,1.83
12.4320,0.05,0.12,-0.99,3.42,2.75,1.89
12.4470,0.05,0.12,-0.99,3.42,2.75,1.83
12.4580,0.05,0.12,-1.00,3.48,2.87,1.95
12.4750,0.05,0.12,-1.00,3.48,2.26,1.77
12.4910,0.05,0.12,-1.00,3.23,2.44,1.77
12.5080,0.05,0.12,-1.00,3.36,2.75,1.95
12.5260,0.05,0.12,-0.99,3.42,2.69,1.77
12.5410,0.05,0.12,-0.99,3.42,2.56,1.95
12.5570,0.05,0.12,-1.00,3.36,2.38,1.77
12.5720,0.05,0.12,-1.00,3.23,2.26,1.83
12.5870,0.05,0.12,-1.00,3.42,2.26,1.89
12.6030,0.05,0.12,-1.00,3.42,2.81,1.77
12.6190,0.05,0.12,-1.00,3.42,2.38,1.89
12.6350,0.05,0.12,-0.99,3.60,2.26,1.77
12.6500,0.05,0.12,-0.99,3.42,2.69,1.71
12.6670,0.05,0.12,-0.99,3.23,2.75,1.89
12.6820,0.05,0.12,-1.00,3.60,2.62,1.95
12.6970,0.05,0.12,-0.99,3.42,2.69,1.89
12.7080,0.05,0.12,-0.99,3.78,2.01,1.83
12.7240,0.05,0.12,-0.99,3.48,2.62,1.89
12.7420,0.05,0.12,-0.99,3.54,2.93,1.95
12.7580,0.05,0.12,-0.99,3.36,2.56,1.95
12.7740,0.05,0.12,-1.00,3.36,2.62,1.77
12.7900,0.05,0.12,-1.00,3.48,2.62,1.89
12.8060,0.05,0.12,-0.99,3.48,2.50,1.83
12.8220,0.05,0.12,-0.99,3.72,2.32,1.77
12.8360,0.05,0.12,-0.99,3.54,2.75,1.83
12.8520,0.05,0.12,-1.00,3.54,2.62,1.89
12.8680,0.05,0.12,-1.00,3.54,2.44,1.83
12.8830,0.05,0.12,-0.99,3.48,2.69,1.83
12.8980,0.05,0.12,-0.99,3.42,2.62,1.95
12.9130,0.05,0.12,-0.99,3.36,2.93,1.95
12.9250,0.05,0.12,-1.00,3.36,2.69,1.89
12.9420,0.05,0.12,-0.99,3.48,2.38,1.83
12.9580,0.05,0.12,-1.00,3.36,2.75,2.01
12.9740,0.05,0.12,-1.00,3.36,2.56,1.71
12.9910,0.05,0.12,-0.99,3.42,2.62,1.89
13.0060,0.05,0.12,-0.99,3.54,2.50,1.95
13.0220,0.05,0.12,-0.99,3.30,3.17,1.89
13.0370,0.05,0.12,-1.00,3.36,2.50,1.83
13.0530,0.05,0.12,-0.99,3.36,2.56,1.77
13.0590,0.05,0.12,-1.00,3.42,2.69,1.83
13.0860,0.05,0.12,-1.00,3.36,2.62,1.83
13.1020,0.05,0.12,-1.00,3.48,2.56,1.83
13.1180,0.05,0.12,-0.99,3.30,2.62,2.01
13.1340,0.05,0.12,-1.00,3.42,2.75,1.83
13.1490,0.05,0.12,-1.00,3.17,2.69,2.01
13.1650,0.05,0.12,-0.99,3.42,2.56,1.83
13.1750,0.05,0.12,-1.00,3.36,2.56,1.95
13.1920,0.05,0.12,-1.00,3.30,2.81,1.89
13.2080,0.05,0.12,-0.99,3.23,2.81,1.83
13.2250,0.05,0.12,-0.99,3.72,2.32,1.77
13.2420,0.05,0.12,-1.00,3.17,2.75,1.89
13.2580,0.05,0.12,-0.99,3.36,2.38,1.89
13.2740,0.05,0.12,-0.99,3.42,2.56,1.89
13.2900,0.05,0.12,-1.00,3.42,2.38,1.71
13.3060,0.05,0.12,-1.00,3.36,2.56,1.83
13.3200,0.05,0.12,-0.99,3.48,2.62,1.77
13.3350,0.05,0.12,-1.00,3.42,2.75,1.89
13.3500,0.05,0.12,-1.00,3.42,3.11,2.01
13.3660,0.05,0.12,-1.00,3.42,2.62,1.95
13.3800,0.05,0.12,-0.99,3.30,2.75,1.83
13.3920,0.05,0.12,-1.00,3.30,2.62,1.83
13.4080,0.05,0.12,-0.99,3.23,3.11,1.83
13.4250,0.05,0.12,-1.00,3.54,2.56,1.71
13.4420,0.05,0.12,-1.00,3.48,2.93,1.83
13.4580,0.05,0.12,-0.99,3.42,2.75,1.89
13.4730,0.05,0.12,-0.99,3.30,2.93,1.83
13.4870,0.05,0.12,-0.99,3.42,2.14,1.83
13.5030,0.05,0.12,-1.00,3.36,2.62,1.89
13.5190,0.05,0.12,-1.00,3.36,2.81,1.71
13.5350,0.05,0.12,-0.99,3.42,2.62,1.89
13.5500,0.05,0.12,-1.00,3.30,2.50,1.77
13.5570,0.05,0.12,-1.00,3.54,2.44,1.89
13.5790,0.05,0.12,-0.99,3.48,2.44,1.89
13.5960,0.05,0.12,-0.99,3.36,3.11,1.89
13.6130,0.05,0.12,-0.99,3.60,2.38,1.83
13.6290,0.05,0.12,-1.00,3.48,2.69,1.71
13.6300,0.05,0.12,-0.99,3.30,2.81,1.83
13.6500,0.05,0.12,-0.99,3.54,2.69,1.77
13.6630,0.05,0.12,-1.00,3.36,3.11,1.89
13.6800,0.05,0.12,-1.00,3.30,2.81,1.95
13.6960,0.05,0.12,-0.99,3.48,2.56,1.77
13.7140,0.05,0.12,-0.99,3.54,2.69,1.83
13.7300,0.05,0.12,-0.99,3.42,2.62,1.89
13.7580,0.05,0.12,-1.00,3.42,2.81,1.77
13.7730,0.05,0.12,-1.00,3.42,2.62,1.77
13.7830,0.05,0.12,-1.00,3.17,2.81,1.95
13.8000,0.05,0.12,-0.99,3.48,3.42,1.83
13.8160,0.05,0.12,-0.99,3.30,2.87,1.95
13.8320,0.05,0.12,-0.99,3.36,2.87,2.01
13.8490,0.05,0.12,-1.00,3.54,2.38,1.77
13.8660,0.05,0.12,-0.99,3.30,2.20,1.89
13.8820,0.05,0.12,-1.00,3.48,2.38,1.71
13.8990,0.05,0.12,-1.00,3.54,2.26,1.71
13.9000,0.05,0.12,-0.99,3.36,2.99,1.89
13.9310,0.05,0.12,-1.00,3.48,2.38,1.95
13.9470,0.05,0.12,-0.99,3.36,2.50,1.89
13.9640,0.05,0.12,-0.99,3.36,2.99,1.95
13.9800,0.05,0.12,-0.99,3.48,2.32,1.71
13.9960,0.05,0.12,-0.99,3.36,2.56,1.71
13.9990,0.05,0.12,-1.00,3.36,2.93,1.95
14.0150,0.05,0.12,-1.00,3.48,2.38,1.95
14.0370,0.05,0.12,-0.99,3.30,2.56,1.89
14.0540,0.05,0.12,-1.00,3.42,2.56,1.89
14.0700,0.05,0.12,-0.99,3.48,2.56,1.71
14.0880,0.05,0.12,-1.00,3.30,2.75,1.95
14.1030,0.05,0.12,-0.99,3.30,2.38,1.95
14.1200,0.05,0.12,-0.99,3.48,2.44,1.83
14.1350,0.05,0.12,-1.00,3.42,2.32,1.83
14.1510,0.05,0.12,-1.00,3.60,2.38,1.83
14.1670,0.05,0.12,-1.00,3.54,2.44,1.95
14.1700,0.05,0.12,-0.99,3.36,2.44,1.83
14.1980,0.05,0.12,-1.00,3.48,2.69,1.71
14.2080,0.05,0.12,-0.99,3.48,2.62,1.95
14.2250,0.05,0.12,-0.99,3.54,2.99,1.83
14.2420,0.05,0.12,-1.00,3.23,2.38,1.83
14.2580,0.05,0.12,-1.00,3.42,2.93,1.83
14.2740,0.05,0.12,-0.99,3.36,3.05,1.95
14.2920,0.05,0.12,-1.00,3.17,3.11,1.95
14.3060,0.05,0.12,-0.99,3.23,2.81,1.89
14.3210,0.05,0.12,-0.99,3.36,2.87,1.95
14.3370,0.05,0.12,-1.00,3.36,2.87,1.77
14.3500,0.05,0.12,-1.00,3.30,2.75,2.01
14.3570,0.05,0.12,-0.99,3.36,2.93,1.89
14.3790,0.05,0.12,-1.00,3.42,2.69,1.89
14.3960,0.05,0.12,-0.99,3.23,2.38,1.77
14.4130,0.05,0.12,-1.00,3.42,2.44,1.83
14.4290,0.05,0.12,-1.00,3.36,2.44,1.89
14.4460,0.05,0.12,-0.99,3.42,2.50,1.89
14.4500,0.05,0.12,-1.00,3.36,2.75,1.89
14.4620,0.05,0.12,-0.99,3.48,2.75,1.89
14.4800,0.05,0.12,-0.99,3.48,2.99,1.83
14.4960,0.05,0.12,-1.00,3.54,2.99,1.83
14.5110,0.05,0.12,-1.00,3.36,2.87,1.83
14.5320,0.05,0.12,-0.99,3.60,2.14,1.83
14.5500,0.05,0.12,-1.00,3.23,2.62,1.71
14.5650,0.05,0.12,-0.99,3.42,2.87,1.65
14.5830,0.05,0.12,-0.99,3.42,2.93,2.01
14.5990,0.05,0.12,-1.00,3.42,2.75,1.83
14.6160,0.05,0.12,-0.99,3.42,2.69,1.77
14.6320,0.05,0.12,-0.99,3.48,2.62,1.83
14.6500,0.05,0.12,-0.99,3.42,2.75,1.89
14.6650,0.05,0.12,-0.99,3.23,2.81,1.83
14.6820,0.05,0.12,-1.00,3.42,2.62,1.89
14.6980,0.05,0.12,-0.99,3.23,2.81,1.95
14.7130,0.05,0.12,-1.00,3.42,2.26,1.77
14.7290,0.05,0.12,-1.00,3.42,2.50,1.83
14.7310,0.05,0.12,-1.00,3.17,2.81,1.77
14.7500,0.05,0.12,-1.00,3.42,2.50,1.83
14.7700,0.05,0.12,-0.99,3.30,2.69,1.77
14.7850,0.05,0.12,-1.00,3.30,2.75,1.83
14.8010,0.05,0.12,-1.00,3.36,2.69,2.08
14.8210,0.05,0.12,-0.99,3.66,2.44,1.95
14.8230,0.05,0.12,-1.00,3.66,2.56,1.89
14.8500,0.05,0.12,-0.99,3.48,2.75,1.89
14.8580,0.05,0.12,-1.00,3.36,2.62,2.01
14.8740,0.05,0.12,-1.00,3.54,2.62,1.89
14.8890,0.05,0.12,-1.00,3.30,2.99,2.01
14.9100,0.05,0.12,-0.99,3.17,2.62,1.89
14.9260,0.05,0.12,-0.99,3.42,2.50,1.89
14.9430,0.05,0.12,-1.00,3.36,2.56,1.83
14.9600,0.05,0.12,-0.99,3.54,2.26,1.77
14.9750,0.05,0.12,-1.00,3.17,2.56,1.89
14.9910,0.05,0.12,-0.99,3.17,2.99,1.89
15.0060,0.05,0.12,-0.99,3.36,2.69,1.83
15.0210,0.05,0.12,-1.00,3.23,2.62,1.89
15.0260,0.05,0.12,-1.00,3.30,2.62,2.01
15.0500,0.05,0.12,-1.00,3.54,2.75,2.08
15.0640,0.05,0.12,-1.00,3.36,2.99,1.89
15.0810,0.05,0.12,-1.00,3.30,2.56,1.89
15.0970,0.05,0.12,-0.99,3.48,2.56,1.95
15.1130,0.05,0.12,-1.00,3.23,2.81,1.77
15.1300,0.05,0.12,-1.00,3.36,2.69,1.77
15.1450,0.05,0.12,-1.00,3.23,2.93,1.83
15.1620,0.05,0.12,-0.99,3.36,2.56,1.89
15.1780,0.05,0.12,-0.99,3.48,2.62,1.89
15.1950,0.05,0.12,-0.99,3.42,2.50,1.95
15.2130,0.05,0.12,-1.00,3.54,2.69,1.71
15.2140,0.05,0.12,-0.99,3.54,2.69,1.71
15.2310,0.05,0.12,-0.99,3.48,2.44,1.89
15.2500,0.05,0.12,-0.99,3.42,2.50,1.83
15.2690,0.05,0.12,-0.99,3.36,2.75,1.95
15.2920,0.05,0.12,-0.99,3.36,2.69,2.01
15.3020,0.05,0.12,-1.00,3.48,2.32,1.89
15.3190,0.05,0.12,-0.99,3.48,2.20,1.77
15.3350,0.05,0.12,-1.00,3.60,2.87,1.95
15.3520,0.05,0.12,-0.99,3.48,2.75,1.89
15.3680,0.05,0.12,-1.00,3.36,2.93,1.89
15.3840,0.05,0.12,-0.99,3.23,2.62,1.77
15.3990,0.05,0.12,-1.00,3.54,2.32,1.89
15.4150,0.05,0.12,-0.99,3.48,2.62,1.83
15.4200,0.05,0.12,-0.99,3.30,2.69,1.83
15.4350,0.05,0.12,-0.99,3.36,2.44,1.95
15.4530,0.05,0.12,-1.00,3.30,2.81,1.77
15.4770,0.05,0.12,-1.00,3.11,3.05,1.95
15.4860,0.05,0.12,-0.99,3.23,2.81,1.83
15.5030,0.05,0.12,-1.00,3.30,3.05,1.77
15.5190,0.05,0.12,-0.99,3.23,2.87,1.89
15.5350,0.05,0.12,-1.00,3.54,2.75,1.77
15.5530,0.05,0.12,-1.00,3.36,2.93,1.95
15.5690,0.05,0.12,-0.99,3.30,2.75,1.95
15.5840,0.05,0.12,-0.99,3.42,2.50,1.89
15.6010,0.05,0.12,-0.99,3.23,2.81,1.83
15.6180,0.05,0.12,-1.00,3.23,2.81,1.83
15.6330,0.05,0.12,-1.00,3.42,2.38,1.83
15.6490,0.05,0.12,-0.99,3.60,2.50,2.01
15.6650,0.05,0.12,-0.99,3.42,2.50,1.89
15.6800,0.05,0.12,-0.99,3.48,2.62,1.77
15.6950,0.05,0.12,-0.99,3.30,2.62,1.71
15.7020,0.05,0.12,-1.00,3.48,2.26,1.83
15.7240,0.05,0.12,-1.00,3.48,2.69,1.89
15.7360,0.05,0.12,-0.99,3.42,2.50,1.89
15.7520,0.05,0.12,-0.99,3.60,2.56,1.77
15.7690,0.05,0.12,-0.99,3.48,2.75,1.89
15.7850,0.05,0.12,-1.00,3.54,2.81,1.89
15.8020,0.05,0.12,-1.00,3.48,2.26,1.83
15.8030,0.05,0.12,-0.99,3.36,2.56,1.77
15.8340,0.05,0.12,-1.00,3.23,2.75,1.71
15.8500,0.05,0.12,-0.99,3.36,2.75,1.89
15.8660,0.05,0.12,-0.99,3.36,2.87,1.89
15.8690,0.05,0.12,-1.00,3.48,2.69,1.89
15.8850,0.05,0.12,-1.00,3.23,2.62,1.83
15.9070,0.05,0.12,-1.00,3.36,2.75,1.89
15.9260,0.05,0.12,-0.99,3.42,2.81,1.95
15.9410,0.05,0.12,-0.99,3.42,3.17,1.95
15.9570,0.05,0.12,-1.00,3.48,2.93,1.83
15.9740,0.05,0.12,-0.99,3.30,2.62,1.89
15.9890,0.05,0.12,-1.00,3.48,2.62,1.95
16.0040,0.05,0.12,-0.99,3.48,2.50,1.95
16.0200,0.05,0.12,-0.99,3.36,2.50,1.95
16.0360,0.05,0.12,-0.99,3.23,2.81,1.83
16.0510,0.05,0.12,-0.99,3.23,2.81,1.77
16.0660,0.05,0.12,-1.00,3.42,2.56,1.95
16.0820,0.05,0.12,-1.00,3.30,2.56,1.71
16.0970,0.05,0.12,-1.00,3.48,2.56,1.77
16.1080,0.05,0.12,-1.00,3.48,2.50,1.71
16.1240,0.05,0.12,-0.99,3.42,2.69,1.95
16.1400,0.05,0.12,-0.99,3.36,2.75,1.89
16.1570,0.05,0.12,-1.00,3.30,2.81,1.89
16.1740,0.05,0.12,-0.99,3.42,2.56,1.77
16.1900,0.05,0.12,-1.00,3.17,2.99,1.83
16.2060,0.05,0.12,-1.00,3.42,2.81,1.89
16.2210,0.05,0.12,-0.99,3.23,2.75,1.95
16.2360,0.05,0.12,-0.99,3.30,3.05,1.71
16.2520,0.05,0.12,-0.99,3.48,2.99,1.89
16.2560,0.05,0.12,-0.99,3.36,2.99,1.89
16.2790,0.05,0.12,-1.00,3.60,3.05,1.95
16.2960,0.05,0.12,-0.99,3.42,2.50,1.95
16.3130,0.05,0.12,-0.99,3.30,2.87,1.95
16.3300,0.05,0.12,-0.99,3.36,2.81,1.95
16.3460,0.05,0.12,-1.00,3.30,2.99,1.77
16.3520,0.05,0.12,-0.99,3.23,3.05,1.77
16.3780,0.05,0.12,-0.99,3.36,2.87,1.95
16.3940,0.05,0.12,-0.99,3.54,2.99,1.89
16.4110,0.05,0.12,-0.99,3.36,2.87,1.89
16.4120,0.05,0.12,-1.00,3.30,2.62,1.83
16.4290,0.05,0.12,-0.99,3.36,2.75,1.95
16.4520,0.05,0.12,-0.99,3.48,2.75,1.83
16.4680,0.05,0.12,-0.99,3.54,2.62,1.83
16.4830,0.05,0.12,-1.00,3.42,2.69,1.89
16.4990,0.05,0.12,-1.00,3.30,3.05,1.95
16.5190,0.05,0.12,-1.00,3.11,2.81,1.89
16.5340,0.05,0.12,-0.99,3.48,2.93,1.77
16.5500,0.05,0.12,-1.00,3.23,3.05,1.89
16.5660,0.05,0.12,-1.00,3.54,2.50,1.89
16.5680,0.05,0.12,-1.00,3.30,2.69,1.77
16.5960,0.05,0.12,-0.99,3.60,2.99,1.95
16.6030,0.05,0.12,-0.99,3.23,3.23,2.01
16.6270,0.05,0.12,-0.99,3.42,2.50,1.89
16.6360,0.05,0.12,-0.99,3.23,2.87,1.95
16.6570,0.05,0.12,-0.99,3.05,3.05,1.95
16.6690,0.05,0.12,-0.99,3.17,2.87,1.89
16.6850,0.05,0.12,-1.00,3.42,2.81,1.89
16.7030,0.05,0.12,-0.99,3.36,2.75,1.71
16.7050,0.05,0.12,-0.99,3.42,3.17,1.89
16.7350,0.05,0.12,-0.99,3.30,2.69,1.89
16.7500,0.05,0.12,-1.00,3.42,2.44,1.71
16.7660,0.05,0.12,-0.99,3.36,2.93,1.95
16.7830,0.05,0.12,-1.00,3.30,2.62,1.77
16.7980,0.05,0.12,-0.99,3.17,2.87,1.83
16.8130,0.05,0.12,-0.99,3.36,2.50,1.83
16.8280,0.05,0.12,-0.99,3.23,2.93,1.89
16.8380,0.05,0.12,-0.99,3.42,2.93,1.89
16.8560,0.05,0.12,-1.00,3.48,2.99,2.08
16.8730,0.05,0.12,-1.00,3.30,2.93,1.95
16.8890,0.05,0.12,-1.00,3.23,2.93,1.95
16.9060,0.05,0.12,-1.00,3.23,2.81,1.83
16.9220,0.05,0.12,-1.00,3.30,2.62,1.89
16.9370,0.05,0.12,-1.00,3.60,2.93,1.89
16.9530,0.05,0.12,-0.99,3.30,2.99,1.89
16.9680,0.05,0.12,-1.00,3.48,2.69,1.89
16.9840,0.05,0.12,-0.99,3.36,2.87,1.89
16.9890,0.05,0.12,-1.00,3.36,2.81,1.71
17.0160,0.05,0.12,-1.00,3.48,3.11,1.77
17.0320,0.05,0.12,-0.99,3.30,2.93,1.89
17.0480,0.05,0.12,-0.99,3.42,2.75,1.83
17.0630,0.05,0.12,-1.00,3.23,2.69,1.95
17.0780,0.05,0.12,-1.00,3.48,2.56,1.77
17.0940,0.05,0.12,-0.99,3.30,2.99,1.89
17.1050,0.05,0.12,-1.00,3.30,2.56,1.77
17.1220,0.05,0.12,-1.00,3.42,2.81,1.89
17.1380,0.05,0.12,-0.99,3.30,2.93,1.89
17.1550,0.05,0.12,-0.99,3.11,2.93,1.89
17.1590,0.05,0.12,-0.99,3.30,2.69,1.83
17.1860,0.05,0.12,-0.99,3.36,2.62,1.83
17.2020,0.05,0.12,-1.00,3.23,2.62,1.83
17.2170,0.05,0.12,-0.99,3.48,2.44,1.83
17.2250,0.05,0.12,-1.00,3.48,2.69,1.77
17.2480,0.05,0.12,-1.00,3.42,2.62,1.71
17.2590,0.05,0.12,-1.00,3.23,3.05,1.83
17.2750,0.05,0.12,-1.00,3.17,2.99,1.89
17.2930,0.05,0.12,-1.00,3.48,2.44,1.83
17.3090,0.05,0.12,-0.99,3.48,2.75,2.01
17.3260,0.05,0.12,-0.99,3.17,2.69,1.83
17.3280,0.05,0.12,-0.99,3.36,2.56,1.83
17.3530,0.05,0.12,-0.99,3.48,2.62,2.01
17.3740,0.05,0.12,-0.99,3.48,2.56,1.95
17.3900,0.05,0.12,-0.99,3.23,2.69,1.65
17.4050,0.05,0.12,-0.99,3.23,2.62,1.95
17.4210,0.05,0.12,-0.99,3.30,2.50,1.77
17.4360,0.05,0.12,-0.99,3.36,2.56,1.83
17.4420,0.05,0.12,-1.00,3.30,2.75,1.77
17.4570,0.05,0.12,-0.99,3.30,2.69,1.71
17.4800,0.05,0.12,-1.00,3.17,2.62,1.89
17.4970,0.05,0.12,-0.99,3.48,2.69,1.77
17.4980,0.05,0.12,-0.99,3.42,2.81,1.77
17.5290,0.05,0.12,-0.99,3.48,2.69,1.89
17.5460,0.05,0.12,-0.99,3.30,2.50,1.89
17.5620,0.05,0.12,-0.99,3.30,2.87,2.01
17.5780,0.05,0.12,-1.00,3.36,2.62,1.77
17.5940,0.05,0.12,-0.99,3.48,2.50,1.89
17.5960,0.05,0.12,-0.99,3.48,2.44,1.77
17.6120,0.05,0.12,-0.99,3.42,3.05,1.95
17.6400,0.05,0.12,-1.00,3.23,2.69,1.83
17.6540,0.05,0.12,-1.00,3.42,2.87,2.01
17.6670,0.05,0.12,-1.00,3.17,3.05,2.08
17.6840,0.05,0.12,-1.00,3.11,2.93,1.95
17.7010,0.05,0.12,-0.99,3.42,2.56,1.89
17.7170,0.05,0.12,-0.99,3.60,2.75,1.83
17.7330,0.05,0.12,-0.99,3.36,3.05,1.89
17.7510,0.05,0.12,-1.00,3.42,2.81,1.77
17.7660,0.05,0.12,-1.00,3.42,2.69,1.83
17.7820,0.05,0.12,-1.00,3.42,2.69,1.89
17.7980,0.05,0.12,-0.99,3.66,2.56,1.59
17.8010,0.05,0.12,-1.00,3.66,2.32,1.83
17.8160,0.05,0.12,-0.99,3.54,2.32,1.89
17.8320,0.05,0.12,-0.99,3.42,2.99,1.83
17.8550,0.05,0.12,-0.99,3.48,2.26,1.83
17.8710,0.05,0.12,-0.99,3.30,2.69,1.89
17.8880,0.05,0.12,-1.00,3.54,2.56,1.89
17.9040,0.05,0.12,-1.00,3.36,2.62,1.83
17.9190,0.05,0.12,-0.99,3.11,2.62,1.89
17.9350,0.05,0.12,-1.00,3.36,2.87,1.89
17.9510,0.05,0.12,-0.99,3.36,2.69,1.89
17.9660,0.05,0.12,-1.00,3.54,2.81,1.77
17.9820,0.05,0.12,-0.99,3.30,2.56,1.83
17.9970,0.05,0.12,-1.00,3.42,2.62,1.83
18.0120,0.05,0.12,-1.00,3.42,2.81,1.77
18.0280,0.05,0.12,-1.00,3.23,2.99,1.77
18.0430,0.05,0.12,-0.99,3.60,2.50,1.83
18.0550,0.05,0.12,-0.99,3.30,3.11,1.83
18.0710,0.05,0.12,-0.99,3.30,2.56,1.77
18.0890,0.05,0.12,-0.99,3.42,2.44,1.77
18.1050,0.05,0.12,-1.00,3.30,2.87,1.95
18.1200,0.05,0.12,-0.99,3.36,2.44,1.95
18.1350,0.05,0.12,-0.99,3.36,2.69,1.77
18.1500,0.05,0.12,-1.00,3.54,2.69,1.77
18.1620,0.05,0.12,-1.00,3.30,2.75,1.77
18.1780,0.05,0.12,-0.99,3.23,2.69,1.89
18.1950,0.05,0.12,-1.00,3.05,2.93,1.77
18.2110,0.05,0.12,-0.99,3.42,2.87,1.71
18.2280,0.05,0.12,-1.00,3.54,2.81,1.83
18.2290,0.05,0.12,-0.99,3.48,2.50,1.77
18.2600,0.05,0.12,-1.00,3.48,2.87,1.89
18.2760,0.05,0.12,-0.99,3.48,2.81,1.77
18.2920,0.05,0.12,-1.00,3.60,2.44,1.71
18.2940,0.05,0.12,-0.99,3.17,2.69,1.71
18.3100,0.05,0.12,-1.00,3.42,2.56,1.83
18.3320,0.05,0.12,-1.00,3.36,2.62,1.83
18.3490,0.05,0.12,-1.00,3.48,2.75,1.89
18.3650,0.05,0.12,-1.00,3.42,2.56,1.65
18.3820,0.05,0.12,-1.00,3.36,2.93,1.89
18.3990,0.05,0.12,-1.00,3.36,2.81,1.89
18.4150,0.05,0.12,-1.00,3.48,2.69,1.95
18.4310,0.05,0.12,-1.00,3.36,2.87,1.71
18.4480,0.05,0.12,-1.00,3.48,2.38,1.95
18.4640,0.05,0.12,-1.00,3.36,2.75,1.77
18.4800,0.05,0.12,-0.99,3.17,2.87,2.01
18.4960,0.05,0.12,-0.99,3.48,2.69,1.83
18.4980,0.05,0.12,-1.00,3.48,2.56,2.01
18.5150,0.05,0.12,-0.99,3.48,2.99,2.08
18.5360,0.05,0.12,-0.99,3.48,2.69,1.83
18.5550,0.05,0.12,-1.00,3.54,2.62,1.77
18.5690,0.05,0.12,-0.99,3.36,2.93,1.77
18.5860,0.05,0.12,-0.99,3.36,2.38,1.77
18.6020,0.05,0.12,-1.00,3.30,2.26,1.83
18.6180,0.05,0.12,-1.00,3.30,2.69,1.95
18.6340,0.05,0.12,-1.00,3.23,2.50,1.83
18.6500,0.05,0.12,-1.00,3.42,2.38,1.83
18.6660,0.05,0.12,-0.99,3.36,2.87,1.77
18.6820,0.05,0.12,-0.99,3.48,2.69,1.83
18.6980,0.05,0.12,-0.99,3.36,2.62,1.95
18.7140,0.05,0.12,-0.99,3.42,2.75,2.01
18.7300,0.05,0.12,-1.00,3.48,2.62,1.89
18.7360,0.05,0.12,-0.99,3.60,2.75,1.95
18.7550,0.05,0.12,-0.99,3.48,2.38,1.83
18.7720,0.05,0.12,-0.99,3.42,2.50,1.95
18.7900,0.05,0.12,-1.00,3.36,3.05,1.83
18.8060,0.05,0.12,-1.00,3.54,2.62,1.89
18.8220,0.05,0.12,-1.00,3.54,2.38,1.77
18.8370,0.05,0.12,-0.99,3.60,2.62,1.71
18.8520,0.05,0.12,-1.00,3.30,2.81,1.83
18.8670,0.05,0.12,-0.99,3.30,2.50,1.89
18.8820,0.05,0.12,-0.99,3.36,2.69,1.83
18.8980,0.05,0.12,-1.00,3.30,2.44,1.89
18.9140,0.05,0.12,-0.99,3.42,2.99,1.89
18.9290,0.05,0.12,-1.00,3.30,2.62,1.89
18.9390,0.05,0.12,-1.00,3.36,2.62,1.89
18.9560,0.05,0.12,-1.00,3.48,2.75,1.89
18.9720,0.05,0.12,-1.00,3.42,2.81,1.95
18.9890,0.05,0.12,-0.99,3.48,2.50,2.01
19.0050,0.05,0.12,-0.99,3.30,2.75,1.95
19.0200,0.05,0.12,-1.00,3.72,2.56,1.89
19.0360,0.05,0.12,-1.00,3.48,2.38,2.01
19.0520,0.05,0.12,-1.00,3.23,2.87,1.89
19.0670,0.05,0.12,-1.00,3.42,2.81,1.95
19.0720,0.05,0.12,-1.00,3.48,2.81,1.95
19.0880,0.05,0.12,-1.00,3.36,2.62,1.89
19.1110,0.05,0.12,-1.00,3.48,2.75,1.77
19.1280,0.05,0.12,-0.99,3.30,3.23,1.95
19.1440,0.05,0.12,-1.00,3.42,2.75,1.77
19.1610,0.05,0.12,-0.99,3.48,2.81,1.89
19.1760,0.05,0.12,-1.00,3.30,3.17,1.83
19.1920,0.05,0.12,-1.00,3.42,2.75,2.01
19.2080,0.05,0.12,-0.99,3.30,3.05,1.95
19.2230,0.05,0.12,-1.00,3.30,2.50,1.89
19.2380,0.05,0.12,-1.00,3.42,2.75,1.89
19.2530,0.05,0.12,-1.00,3.05,2.99,1.83
19.2680,0.05,0.12,-0.99,3.30,3.05,1.89
19.2780,0.05,0.12,-0.99,3.54,2.56,1.89
19.2950,0.05,0.12,-1.00,3.54,2.75,1.95
19.3110,0.05,0.12,-1.00,3.30,2.87,1.83
19.3280,0.05,0.12,-1.00,3.42,2.44,1.83
19.3450,0.05,0.12,-1.00,3.36,2.62,1.83
19.3620,0.05,0.12,-0.99,3.36,2.56,1.83
19.3770,0.05,0.12,-1.00,3.36,2.56,1.95
19.3940,0.05,0.12,-1.00,3.60,2.38,1.95
19.4100,0.05,0.12,-0.99,3.36,2.44,1.89
19.4260,0.05,0.12,-0.99,3.36,2.62,1.77
19.4410,0.05,0.12,-1.00,3.42,2.56,1.83
19.4560,0.05,0.12,-1.00,3.48,2.87,1.89
19.4610,0.05,0.12,-1.00,3.30,3.17,1.89
19.4830,0.05,0.12,-1.00,3.30,2.62,1.95
19.4990,0.05,0.12,-0.99,3.23,3.05,1.83
19.5150,0.05,0.12,-0.99,3.42,2.99,1.89
19.5320,0.05,0.12,-1.00,3.36,3.11,1.95
19.5480,0.05,0.12,-0.99,3.42,2.93,1.77
19.5640,0.05,0.12,-0.99,3.42,2.62,1.77
19.5800,0.05,0.12,-0.99,3.42,3.11,1.95
19.5960,0.05,0.12,-1.00,3.17,2.87,1.83
19.5990,0.05,0.12,-1.00,3.60,3.05,1.77
19.6150,0.05,0.12,-1.00,3.42,2.93,1.89
19.6420,0.05,0.12,-0.99,3.54,2.56,1.83
19.6560,0.05,0.12,-0.99,3.30,2.93,1.89
19.6680,0.05,0.12,-0.99,3.36,2.44,1.71
19.6870,0.05,0.12,-0.99,3.36,2.50,1.77
19.7020,0.05,0.12,-1.00,3.42,2.87,1.83
19.7180,0.05,0.12,-1.00,3.30,2.87,2.01
19.7330,0.05,0.12,-1.00,3.30,2.50,1.77
19.7480,0.05,0.12,-0.99,3.11,2.32,1.89
19.7580,0.05,0.12,-0.99,3.17,2.56,1.95
19.7730,0.05,0.12,-1.00,3.36,2.93,1.89
19.7950,0.05,0.12,-1.00,3.11,2.99,1.95
19.7960,0.05,0.12,-0.99,3.48,2.69,1.83
19.8120,0.05,0.12,-0.99,3.42,2.93,1.95
19.8290,0.05,0.12,-1.00,3.30,2.69,1.95
19.8570,0.05,0.12,-0.99,3.42,2.87,1.95
19.8720,0.05,0.12,-1.00,3.48,2.75,1.89
19.8810,0.05,0.12,-0.99,3.36,3.23,1.95
19.8970,0.05,0.12,-1.00,3.48,2.56,1.95
19.9140,0.05,0.12,-0.99,3.11,3.05,1.89
19.9320,0.05,0.12,-0.99,3.48,3.05,2.01
19.9480,0.05,0.12,-0.99,3.36,2.93,1.95
19.9640,0.05,0.12,-1.00,3.48,2.93,1.83
19.9810,0.05,0.12,-0.99,3.23,3.11,2.01
19.9960,0.05,0.12,-0.99,3.48,2.87,1.83
20.0110,0.05,0.12,-0.99,3.30,3.23,1.95
20.0260,0.05,0.12,-0.99,3.42,2.81,1.89
20.0300,0.05,0.12,-0.99,3.30,3.17,1.89
20.0460,0.05,0.12,-1.00,3.42,2.75,1.83
20.0620,0.05,0.12,-1.00,3.36,2.81,1.95
20.0780,0.05,0.12,-0.99,3.48,2.56,2.01
20.0930,0.05,0.12,-0.99,3.42,2.81,1.89
20.1130,0.05,0.12,-1.00,3.48,2.81,1.89
20.1300,0.05,0.12,-0.99,3.36,3.17,1.83
20.1470,0.05,0.12,-0.99,3.11,2.87,1.89
20.1640,0.05,0.12,-0.99,3.23,2.99,1.77
20.1790,0.05,0.12,-0.99,3.30,2.62,1.95
20.1940,0.05,0.12,-1.00,3.36,2.75,1.95
20.1970,0.05,0.12,-0.99,3.30,2.81,2.01
20.2130,0.05,0.12,-1.00,3.42,2.62,1.89
20.2360,0.05,0.12,-1.00,3.36,2.99,1.89
20.2530,0.05,0.12,-0.99,3.23,2.87,1.89
20.2690,0.05,0.12,-0.99,3.54,2.56,1.83
20.2840,0.05,0.12,-0.99,3.36,2.69,1.89
20.2870,0.05,0.12,-0.99,3.42,2.69,1.83
20.3020,0.05,0.12,-1.00,3.42,2.56,1.77
20.3200,0.05,0.12,-0.99,3.42,2.81,1.83
20.3480,0.05,0.12,-0.99,3.42,2.75,1.95
20.3570,0.05,0.12,-1.00,3.17,2.62,1.89
20.3700,0.05,0.12,-0.99,3.42,2.87,1.83
20.3920,0.05,0.12,-0.99,3.36,2.69,2.01
20.4080,0.05,0.12,-0.99,3.23,2.75,1.83
20.4250,0.05,0.12,-0.99,3.60,2.99,1.83
20.4420,0.05,0.12,-0.99,3.30,2.87,1.95
20.4570,0.05,0.12,-1.00,3.36,2.81,1.71
20.4740,0.05,0.12,-1.00,3.48,2.87,1.89
20.4900,0.05,0.12,-1.00,3.42,2.50,1.89
20.4920,0.05,0.12,-0.99,3.30,2.75,1.83
20.5080,0.05,0.12,-1.00,3.36,2.75,1.89
20.5280,0.05,0.12,-1.00,3.42,2.75,1.95
20.5450,0.05,0.12,-1.00,3.36,2.56,1.89
20.5630,0.05,0.12,-0.99,3.17,2.50,1.83
20.5780,0.05,0.12,-1.00,3.30,2.62,1.71
20.5960,0.05,0.12,-0.99,3.17,2.87,1.95
20.6120,0.05,0.12,-0.99,3.30,2.81,1.95
20.6270,0.05,0.12,-0.99,3.48,2.69,1.95
20.6280,0.05,0.12,-0.99,3.30,2.99,1.77
20.6570,0.05,0.12,-0.99,3.23,2.87,1.83
20.6620,0.05,0.12,-0.99,3.30,3.05,1.89
20.6790,0.05,0.12,-0.99,3.23,2.62,1.83
20.6950,0.05,0.12,-1.00,3.36,2.99,1.95
20.7170,0.05,0.12,-1.00,3.23,2.75,1.83
20.7340,0.05,0.12,-0.99,3.36,2.93,1.89
20.7500,0.05,0.12,-0.99,3.48,2.87,1.77
20.7670,0.05,0.12,-1.00,3.30,2.75,1.89
20.7840,0.05,0.12,-0.99,3.17,2.62,2.01
20.8000,0.05,0.12,-0.99,3.42,2.81,1.83
20.8160,0.05,0.12,-1.00,3.23,2.69,1.83
20.8320,0.05,0.12,-0.99,3.54,2.69,1.89
20.8480,0.05,0.12,-0.99,3.11,2.93,1.83
20.8640,0.05,0.12,-1.00,3.54,2.56,1.83
20.8800,0.05,0.12,-1.00,3.42,2.50,1.95
20.8960,0.05,0.12,-0.99,3.11,2.81,2.01
20.9110,0.05,0.12,-0.99,3.23,2.99,1.77
20.9260,0.05,0.12,-0.99,3.17,2.99,1.83
20.9340,0.05,0.12,-0.99,3.36,2.69,1.89
20.9510,0.05,0.12,-1.00,3.54,2.81,1.89
20.9660,0.05,0.12,-1.00,3.23,2.87,1.95
20.9820,0.05,0.12,-0.99,3.54,2.38,1.89
21.0020,0.05,0.12,-0.99,3.23,2.99,1.83
21.0180,0.05,0.12,-1.00,3.48,2.62,1.89
21.0340,0.05,0.12,-1.00,3.30,2.81,1.89
21.0500,0.05,0.12,-1.00,3.30,3.05,2.01
21.0650,0.05,0.12,-1.00,3.42,2.93,1.95
21.0800,0.05,0.12,-0.99,3.36,2.87,1.89
21.0950,0.05,0.12,-0.99,3.42,2.62,1.71
21.1100,0.05,0.12,-1.00,3.48,2.75,1.89
21.1200,0.05,0.12,-1.00,3.48,2.69,1.83
21.1360,0.05,0.12,-1.00,3.23,2.87,1.89
21.1580,0.05,0.12,-0.99,3.42,2.75,1.95
21.1600,0.05,0.12,-0.99,3.23,3.05,1.95
21.1900,0.05,0.12,-0.99,3.23,3.05,2.01
21.2050,0.05,0.12,-0.99,3.23,2.93,1.89
21.2200,0.05,0.12,-0.99,3.30,2.87,1.77
21.2350,0.05,0.12,-0.99,3.42,3.05,1.83
21.2510,0.05,0.12,-1.00,3.42,2.32,1.95
21.2660,0.05,0.12,-1.00,3.36,2.87,2.01
21.2810,0.05,0.12,-1.00,3.42,3.54,2.08
21.2920,0.05,0.12,-0.99,3.42,2.56,1.89
21.3080,0.05,0.12,-0.99,3.42,2.75,1.89
21.3250,0.05,0.12,-0.99,3.42,2.50,1.89
21.3420,0.05,0.12,-0.99,3.42,2.75,2.01
21.3590,0.05,0.12,-0.99,3.42,2.50,1.83
21.3750,0.05,0.12,-0.99,3.42,2.93,1.77
21.3900,0.05,0.12,-1.00,3.11,3.11,1.83
21.4060,0.05,0.12,-1.00,3.30,2.44,1.89
21.4210,0.05,0.12,-0.99,3.23,2.81,1.89
21.4360,0.05,0.12,-0.99,3.23,2.81,1.89
21.4420,0.05,0.12,-1.00,3.30,2.87,1.89
21.4580,0.05,0.12,-0.99,3.42,2.81,1.77
21.4800,0.05,0.12,-0.99,3.23,2.81,1.95
21.4960,0.05,0.12,-1.00,3.48,2.69,1.77
21.4980,0.05,0.12,-0.99,3.30,2.75,1.89
21.5140,0.05,0.12,-0.99,3.36,3.05,1.83
21.5420,0.05,0.12,-0.99,3.42,2.75,1.77
21.5470,0.05,0.12,-0.99,3.36,2.87,1.89
21.5640,0.05,0.12,-0.99,3.42,2.81,1.83
21.5800,0.05,0.12,-1.00,2.99,3.05,1.83
21.5970,0.05,0.12,-1.00,3.36,3.17,1.95
21.6130,0.05,0.12,-0.99,3.30,2.69,2.01
21.6330,0.05,0.12,-1.00,3.48,2.14,1.77
21.6500,0.05,0.12,-0.99,3.54,2.44,1.83
21.6660,0.05,0.12,-1.00,3.30,2.56,1.83
21.6690,0.05,0.12,-0.99,3.48,2.69,1.89
21.6840,0.05,0.12,-1.00,3.36,2.62,1.77
21.7120,0.05,0.12,-1.00,3.11,2.69,1.83
21.7180,0.05,0.12,-1.00,3.17,2.75,1.83
21.7340,0.05,0.12,-1.00,2.99,2.56,1.89
21.7580,0.05,0.12,-0.99,3.23,3.36,1.89
21.7740,0.05,0.12,-0.99,3.36,2.87,2.01
21.7890,0.05,0.12,-1.00,3.36,3.11,1.95
21.8040,0.05,0.12,-1.00,3.42,2.81,1.77
21.8210,0.05,0.12,-0.99,3.42,2.69,1.65
21.8370,0.05,0.12,-0.99,3.17,2.75,1.89
21.8510,0.05,0.12,-1.00,3.60,2.75,1.77
21.8590,0.05,0.12,-0.99,3.36,2.81,1.83
21.8710,0.05,0.12,-0.99,3.36,2.69,1.89
21.8930,0.05,0.12,-1.00,3.30,2.56,1.95
21.9100,0.05,0.12,-1.00,3.48,2.69,1.95
21.9280,0.05,0.12,-0.99,3.30,2.87,1.95
21.9440,0.05,0.12,-1.00,3.23,2.75,1.89
21.9600,0.05,0.12,-0.99,3.36,2.56,2.08
21.9750,0.05,0.12,-1.00,3.36,2.56,1.83
21.9910,0.05,0.12,-1.00,3.54,2.69,1.83
21.9940,0.05,0.12,-0.99,3.36,2.56,1.77
22.0090,0.05,0.12,-1.00,3.23,2.99,1.83
22.0300,0.05,0.12,-0.99,3.23,2.75,1.95
22.0460,0.05,0.12,-1.00,3.42,2.62,1.83
22.0640,0.05,0.12,-0.99,3.30,2.56,1.89
22.0800,0.05,0.12,-0.99,3.30,2.69,1.77
22.0960,0.05,0.12,-1.00,3.42,2.62,1.83
22.0970,0.05,0.12,-1.00,3.17,2.50,1.83
22.1130,0.05,0.12,-0.99,3.48,2.44,1.95
22.1300,0.05,0.12,-1.00,3.23,2.69,1.89
22.1470,0.05,0.12,-0.99,3.48,2.87,1.95
22.1630,0.05,0.12,-1.00,3.42,2.56,2.01
22.1790,0.05,0.12,-1.00,3.42,2.81,1.89
22.2030,0.05,0.12,-0.99,3.36,2.56,1.89
22.2190,0.05,0.12,-1.00,3.42,2.50,1.95
22.2360,0.05,0.12,-0.99,3.48,2.75,1.89
22.2510,0.05,0.12,-1.00,3.30,2.81,1.89
22.2680,0.05,0.12,-1.00,3.48,2.50,1.71
22.2840,0.05,0.12,-0.99,3.23,2.75,1.95
22.3000,0.05,0.12,-0.99,3.36,2.75,2.01
22.3160,0.05,0.12,-0.99,3.48,2.99,1.95
22.3200,0.05,0.12,-1.00,3.30,2.99,1.95
22.3350,0.05,0.12,-1.00,3.42,2.87,1.77
22.3600,0.05,0.12,-0.99,3.42,2.69,1.89
22.3760,0.05,0.12,-0.99,3.36,2.75,1.83
22.3920,0.05,0.12,-1.00,3.36,2.75,1.89
22.4070,0.05,0.12,-0.99,3.66,2.99,1.95
22.4230,0.05,0.12,-0.99,3.54,2.62,1.83
22.4380,0.05,0.12,-1.00,3.60,2.50,1.89
22.4530,0.05,0.12,-1.00,3.17,2.69,1.83
22.4690,0.05,0.12,-1.00,3.42,3.05,2.01
22.4850,0.05,0.12,-1.00,3.23,2.62,1.89
22.5000,0.05,0.12,-1.00,3.48,2.50,1.95
22.5150,0.05,0.12,-0.99,3.36,2.62,1.77
22.5310,0.05,0.12,-1.00,3.30,2.87,1.89
22.5420,0.05,0.12,-1.00,3.30,3.05,1.77
22.5600,0.05,0.12,-0.99,3.42,2.81,1.89
22.5760,0.05,0.12,-1.00,3.36,2.75,2.01
22.5920,0.05,0.12,-0.99,3.30,2.75,1.83
22.6070,0.05,0.12,-1.00,3.30,2.81,1.89
22.6220,0.05,0.12,-0.99,3.36,2.26,1.89
22.6370,0.05,0.12,-0.99,3.36,2.50,1.89
22.6520,0.05,0.12,-1.00,3.36,2.50,1.83
22.6680,0.05,0.12,-0.99,3.11,2.44,1.71
22.6840,0.05,0.12,-0.99,3.48,2.75,1.83
22.6990,0.05,0.12,-1.00,3.42,2.44,1.71
22.7080,0.05,0.12,-0.99,3.36,2.44,1.71
22.7250,0.05,0.12,-1.00,3.17,2.75,1.89
22.7460,0.05,0.12,-1.00,3.42,2.50,1.89
22.7630,0.05,0.12,-1.00,3.30,2.81,1.95
22.7780,0.05,0.12,-1.00,3.36,2.99,1.89
22.7800,0.05,0.12,-0.99,3.48,2.81,2.01
22.7970,0.05,0.12,-0.99,3.23,2.99,1.89
22.8120,0.05,0.12,-1.00,3.42,2.69,1.89
22.8410,0.05,0.12,-1.00,3.42,2.99,1.83
22.8510,0.05,0.12,-0.99,3.30,2.93,1.77
22.8680,0.05,0.12,-0.99,3.60,2.20,1.77
22.8850,0.05,0.12,-0.99,3.36,2.56,1.65
22.9020,0.05,0.12,-0.99,3.30,3.17,2.01
22.9180,0.05,0.12,-0.99,3.36,2.75,1.89
22.9340,0.05,0.12,-0.99,3.30,3.05,1.83
22.9500,0.05,0.12,-0.99,3.23,2.99,2.08
22.9610,0.05,0.12,-0.99,3.30,3.11,1.89
22.9820,0.05,0.12,-1.00,3.36,2.62,1.95
22.9970,0.05,0.12,-1.00,3.36,2.69,1.77
23.0120,0.05,0.12,-0.99,3.36,2.87,1.95
23.0170,0.05,0.12,-1.00,3.42,2.93,1.95
23.0340,0.05,0.12,-0.99,3.17,2.87,1.95
23.0590,0.05,0.12,-0.99,3.42,2.87,1.77
23.0700,0.05,0.12,-1.00,3.42,2.75,1.83
23.0860,0.05,0.12,-1.00,3.42,2.69,1.77
23.1030,0.05,0.12,-1.00,3.48,2.69,1.83
23.1190,0.05,0.12,-1.00,3.30,2.75,1.89
23.1340,0.05,0.12,-0.99,3.66,2.75,1.77
23.1480,0.05,0.12,-0.99,3.42,2.50,2.01
23.1640,0.05,0.12,-1.00,3.05,2.81,1.83
23.1780,0.05,0.12,-1.00,3.30,2.75,1.89
23.1930,0.05,0.12,-1.00,3.36,2.87,1.83
23.2090,0.05,0.12,-0.99,3.36,2.87,1.89
23.2200,0.05,0.12,-0.99,3.30,2.32,2.01
23.2370,0.05,0.12,-1.00,3.36,2.44,1.83
23.2530,0.05,0.12,-1.00,3.42,2.75,1.77
23.2690,0.05,0.12,-1.00,3.23,2.99,1.89
23.2850,0.05,0.12,-1.00,3.42,2.69,1.83
23.3010,0.05,0.12,-1.00,3.48,2.14,1.83
23.3170,0.05,0.12,-1.00,3.30,2.50,1.83
23.3320,0.05,0.12,-0.99,3.42,2.32,1.71
23.3370,0.05,0.12,-1.00,3.17,2.75,1.71
23.3610,0.05,0.12,-1.00,3.42,3.05,1.89
23.3750,0.05,0.12,-1.00,3.42,2.81,1.95
23.3910,0.05,0.12,-0.99,3.48,2.62,1.83
23.4080,0.05,0.12,-1.00,3.54,2.50,1.89
23.4260,0.05,0.12,-0.99,3.42,2.44,1.83
23.4420,0.05,0.12,-0.99,3.42,2.93,1.89
23.4580,0.05,0.12,-0.99,3.30,2.99,1.95
23.4740,0.05,0.12,-0.99,3.42,2.69,1.95
23.4900,0.05,0.12,-1.00,3.42,2.69,1.95
23.5060,0.05,0.12,-0.99,3.23,3.17,1.95
23.5220,0.05,0.12,-1.00,3.42,2.75,1.83
23.5370,0.05,0.12,-0.99,3.17,2.99,2.08
23.5520,0.05,0.12,-1.00,3.48,2.62,1.95
23.5620,0.05,0.12,-1.00,3.48,2.75,1.89
23.5740,0.05,0.12,-0.99,3.42,2.69,1.89
23.5970,0.05,0.12,-0.99,3.23,3.11,1.83
23.6120,0.05,0.12,-1.00,3.36,2.75,1.83
23.6150,0.05,0.12,-1.00,3.30,2.69,1.89
23.6440,0.05,0.12,-1.00,3.17,2.75,2.01
23.6590,0.05,0.12,-0.99,3.36,2.56,1.89
23.6640,0.05,0.12,-0.99,3.36,2.75,1.95
23.6800,0.05,0.12,-0.99,3.42,2.44,1.77
23.7000,0.05,0.12,-0.99,3.36,2.81,2.01
23.7170,0.05,0.12,-0.99,3.60,2.26,1.83
23.7350,0.05,0.12,-1.00,3.54,2.99,1.89
23.7500,0.05,0.12,-1.00,3.36,3.11,1.95
23.7660,0.05,0.12,-0.99,3.48,2.38,1.95
23.7690,0.05,0.12,-0.99,3.30,2.75,1.89
23.7840,0.05,0.12,-1.00,3.17,3.05,1.83
23.8060,0.05,0.12,-1.00,3.36,2.56,1.89
23.8230,0.05,0.12,-1.00,3.36,2.75,1.89
23.8390,0.05,0.12,-1.00,3.30,2.93,1.83
23.8550,0.05,0.12,-0.99,3.17,2.32,1.77
23.8720,0.05,0.12,-1.00,3.17,3.05,1.89
23.8750,0.05,0.12,-0.99,3.36,2.38,1.83
23.9030,0.05,0.12,-1.00,3.54,2.81,1.89
23.9180,0.05,0.12,-0.99,3.23,2.75,1.89
23.9260,0.05,0.12,-0.99,3.23,2.62,1.89
23.9480,0.05,0.12,-0.99,3.48,2.69,1.83
23.9620,0.05,0.12,-0.99,3.36,2.50,1.77
23.9750,0.05,0.12,-1.00,3.30,3.05,1.83
23.9920,0.05,0.12,-1.00,3.11,2.99,2.08
24.0090,0.05,0.12,-0.99,3.36,2.69,1.71
24.0250,0.05,0.12,-0.99,3.54,2.75,1.95
24.0410,0.05,0.12,-1.00,3.42,2.87,1.89
24.0560,0.05,0.12,-1.00,3.30,2.93,2.01
24.0620,0.05,0.12,-0.99,3.11,2.81,1.89
24.0740,0.05,0.12,-0.99,3.23,2.93,1.95
24.0960,0.05,0.12,-0.99,3.42,2.56,2.01
24.1130,0.05,0.12,-1.00,3.48,2.50,1.95
24.1310,0.05,0.12,-0.99,3.36,2.69,1.89
24.1460,0.05,0.12,-1.00,3.36,2.38,1.89
24.1630,0.05,0.12,-0.99,3.30,2.38,1.83
24.1790,0.05,0.12,-1.00,3.05,2.81,1.89
24.1950,0.05,0.12,-0.99,3.17,2.56,1.83
24.2120,0.05,0.12,-1.00,3.36,2.93,1.77
24.2130,0.05,0.12,-1.00,3.23,2.69,1.77
24.2440,0.05,0.12,-1.00,3.36,2.62,1.89
24.2590,0.05,0.12,-0.99,3.17,2.69,1.89
24.2640,0.05,0.12,-1.00,3.54,2.93,1.77
24.2800,0.05,0.12,-0.99,3.36,2.56,1.77
24.3020,0.05,0.12,-0.99,3.42,2.69,1.77
24.3190,0.05,0.12,-1.00,3.23,2.69,1.83
24.3350,0.05,0.12,-0.99,3.42,2.69,1.83
24.3520,0.05,0.12,-0.99,3.54,2.69,1.83
24.3670,0.05,0.12,-1.00,3.23,2.50,1.89
24.3830,0.05,0.12,-1.00,3.30,2.38,1.83
24.3990,0.05,0.12,-1.00,3.30,2.56,1.89
24.4030,0.05,0.12,-1.00,3.36,2.75,1.77
24.4180,0.05,0.12,-0.99,3.36,2.99,1.77
24.4460,0.05,0.12,-1.00,3.48,2.75,1.89
24.4570,0.05,0.12,-1.00,3.48,2.69,1.89
24.4720,0.05,0.12,-0.99,3.36,2.87,1.95
24.4910,0.05,0.12,-1.00,3.48,2.62,1.83
24.4940,0.05,0.12,-0.99,3.54,2.75,1.89
24.5110,0.05,0.12,-0.99,3.36,2.50,1.89
24.5270,0.05,0.12,-1.00,3.23,2.81,1.95
24.5450,0.05,0.12,-1.00,3.36,2.44,1.83
24.5630,0.05,0.12,-1.00,3.42,2.69,1.95
24.5790,0.05,0.12,-1.00,3.17,2.62,1.77
24.5960,0.05,0.12,-0.99,3.42,2.62,1.77
24.6130,0.05,0.12,-0.99,3.42,2.50,1.83
24.6290,0.05,0.12,-1.00,3.11,2.50,1.71
24.6450,0.05,0.12,-0.99,3.42,2.62,1.83
24.6610,0.05,0.12,-1.00,3.36,2.87,2.01
24.6780,0.05,0.12,-1.00,3.42,2.56,1.89
24.6930,0.05,0.12,-1.00,3.30,2.75,1.95
24.7080,0.05,0.12,-1.00,3.30,2.69,1.83
24.7120,0.05,0.12,-1.00,3.30,2.99,1.95
24.7280,0.05,0.12,-1.00,3.42,2.69,1.95
24.7500,0.05,0.12,-0.99,3.42,2.69,1.89
24.7650,0.05,0.12,-1.00,3.42,2.81,1.83
24.7820,0.05,0.12,-1.00,3.30,2.50,1.89
24.8000,0.05,0.12,-1.00,3.48,2.75,2.01
24.8150,0.05,0.12,-0.99,3.48,2.69,1.95
24.8330,0.05,0.12,-1.00,3.23,2.81,1.83
24.8330,0.05,0.12,-0.99,3.42,2.75,1.89
24.8650,0.05,0.12,-1.00,3.42,2.81,1.89
24.8800,0.05,0.12,-1.00,3.17,2.69,1.89
24.8950,0.05,0.12,-1.00,3.05,3.11,2.01
24.8990,0.05,0.12,-1.00,3.42,2.81,1.89
24.9150,0.05,0.12,-0.99,3.36,2.81,1.77
24.9360,0.05,0.12,-1.00,3.30,2.87,1.83
24.9530,0.05,0.12,-1.00,3.11,2.56,1.77
24.9690,0.05,0.12,-0.99,3.30,2.93,1.89
24.9850,0.05,0.12,-1.00,3.11,2.93,1.77
24.9890,0.05,0.12,-1.00,3.30,2.56,1.95
25.0160,0.05,0.12,-0.99,3.42,2.81,1.77
25.0220,0.05,0.12,-0.99,3.30,2.75,2.08
25.0380,0.05,0.12,-0.99,3.30,2.69,1.77
25.0600,0.05,0.12,-1.00,3.36,2.56,1.83
25.0770,0.05,0.12,-1.00,3.05,3.17,1.95
25.0940,0.05,0.12,-1.00,3.42,3.05,1.89
25.1100,0.05,0.12,-1.00,3.11,2.99,1.77
25.1270,0.05,0.12,-0.99,3.36,2.93,1.89
25.1430,0.05,0.12,-0.99,3.05,2.93,1.89
25.1590,0.05,0.12,-0.99,3.23,2.93,1.89
25.1750,0.05,0.12,-0.99,3.48,2.62,1.95
25.1910,0.05,0.12,-0.99,3.30,2.81,1.83
25.2080,0.05,0.12,-1.00,3.36,2.56,1.83
25.2240,0.05,0.12,-0.99,3.36,3.05,1.89
25.2400,0.05,0.12,-0.99,3.17,2.75,1.77
25.2560,0.05,0.12,-0.99,3.36,2.32,2.01
25.2720,0.05,0.12,-1.00,3.30,2.87,1.89
25.2870,0.05,0.12,-1.00,3.42,3.17,1.83
25.2930,0.05,0.12,-1.00,3.23,3.11,1.83
25.3100,0.05,0.12,-0.99,3.23,2.93,1.77
25.3300,0.05,0.12,-1.00,3.17,2.50,1.95
25.3480,0.05,0.12,-1.00,3.11,3.05,1.95
25.3640,0.05,0.12,-1.00,3.23,2.62,2.01
25.3800,0.05,0.12,-0.99,3.42,2.87,1.77
25.3810,0.05,0.12,-0.99,3.30,2.99,2.08
25.4120,0.05,0.12,-0.99,3.23,2.93,2.08
25.4280,0.05,0.12,-1.00,3.36,2.93,1.95
25.4440,0.05,0.12,-1.00,3.23,3.11,1.95
25.4470,0.05,0.12,-1.00,3.36,3.11,1.89
25.4640,0.05,0.12,-1.00,3.30,2.75,2.01
25.4860,0.05,0.12,-0.99,3.30,2.69,1.89
25.5020,0.05,0.12,-0.99,3.36,3.05,2.20
25.5180,0.05,0.12,-0.99,3.23,2.69,1.83
25.5350,0.05,0.12,-0.99,3.48,2.69,1.83
25.5510,0.05,0.12,-0.99,3.36,2.38,1.83
25.5670,0.05,0.12,-0.99,3.42,2.69,1.83
25.5830,0.05,0.12,-1.00,3.23,2.50,2.01
25.5990,0.05,0.12,-0.99,3.42,3.11,2.01
25.6020,0.05,0.12,-0.99,3.17,3.11,1.95
25.6180,0.05,0.12,-1.00,3.17,2.99,2.01
25.6400,0.05,0.12,-1.00,3.30,2.44,1.77
25.6570,0.05,0.12,-0.99,3.36,2.56,1.71
25.6730,0.05,0.12,-0.99,3.42,2.50,1.95
25.6900,0.05,0.12,-0.99,3.36,2.81,1.89
25.7060,0.05,0.12,-0.99,3.11,2.50,1.95
25.7220,0.05,0.12,-1.00,3.30,2.93,2.14
25.7380,0.05,0.12,-1.00,3.11,2.99,1.83
25.7530,0.05,0.12,-0.99,3.17,2.87,1.95
25.7680,0.05,0.12,-0.99,3.42,2.93,2.01
25.7730,0.05,0.12,-1.00,3.36,3.30,1.89
25.7890,0.05,0.12,-1.00,3.30,2.62,1.95
25.8100,0.05,0.12,-1.00,3.42,3.11,1.83
25.8270,0.05,0.12,-1.00,3.36,2.62,1.83
25.8440,0.05,0.12,-0.99,3.17,3.36,2.01
25.8590,0.05,0.12,-0.99,3.23,2.69,1.83
25.8760,0.05,0.12,-0.99,3.30,2.99,2.08
25.8920,0.05,0.12,-1.00,3.30,2.75,1.95
25.8940,0.05,0.12,-1.00,3.42,2.81,1.77
25.9240,0.05,0.12,-1.00,3.36,2.93,1.77
25.9400,0.05,0.12,-0.99,2.99,3.17,1.77
25.9430,0.05,0.12,-1.00,3.11,3.23,1.95
25.9720,0.05,0.12,-1.00,3.30,2.75,1.89
25.9870,0.05,0.12,-1.00,3.17,3.11,1.95
25.9960,0.05,0.12,-0.99,3.17,2.87,1.83
26.0130,0.05,0.12,-1.00,3.17,2.99,1.83
26.0290,0.05,0.12,-1.00,3.42,2.75,2.01
26.0460,0.05,0.12,-1.00,3.30,3.05,2.01
26.0630,0.05,0.12,-0.99,3.36,2.75,1.77
26.0650,0.05,0.12,-0.99,3.11,2.62,1.77
26.0950,0.05,0.12,-1.00,3.30,2.81,1.77
26.1110,0.05,0.12,-1.00,3.05,2.87,1.89
26.1130,0.05,0.12,-0.99,3.42,2.44,2.01
26.1430,0.05,0.12,-1.00,3.30,2.87,1.83
26.1460,0.05,0.12,-1.00,3.30,2.87,1.83
26.1750,0.05,0.12,-0.99,3.36,2.93,1.83
26.1920,0.05,0.12,-0.99,3.30,2.93,1.95
26.1960,0.05,0.12,-0.99,3.17,2.87,1.89
26.2120,0.05,0.12,-1.00,3.48,2.69,1.83
26.2290,0.05,0.12,-1.00,3.11,3.30,1.95
26.2450,0.05,0.12,-0.99,3.23,2.75,1.77
26.2650,0.05,0.12,-0.99,3.36,2.87,1.89
26.2800,0.05,0.12,-0.99,3.23,3.17,1.83
26.2970,0.05,0.12,-1.00,3.42,2.81,1.83
26.3140,0.05,0.12,-0.99,3.36,2.56,1.83
26.3300,0.05,0.12,-1.00,3.17,2.75,1.95
26.3460,0.05,0.12,-1.00,3.42,2.56,1.83
26.3620,0.05,0.12,-0.99,3.23,3.05,2.01
26.3780,0.05,0.12,-0.99,3.36,2.87,1.83
26.3940,0.05,0.12,-1.00,3.36,3.30,1.89
26.3970,0.05,0.12,-1.00,3.30,2.81,1.95
26.4130,0.05,0.12,-0.99,3.30,2.81,1.83
26.4350,0.05,0.12,-1.00,3.36,2.99,1.65
26.4520,0.05,0.12,-1.00,3.17,3.30,1.77
26.4690,0.05,0.12,-1.00,3.36,2.75,2.01
26.4860,0.05,0.12,-1.00,3.23,2.99,1.95
26.4860,0.05,0.12,-1.00,3.36,3.17,1.95
26.5170,0.05,0.12,-1.00,3.36,2.62,1.89
26.5330,0.05,0.12,-0.99,3.36,2.93,2.08
26.5490,0.05,0.12,-0.99,3.11,3.05,2.08
26.5640,0.05,0.12,-0.99,3.48,2.62,1.89
26.5800,0.05,0.12,-0.99,3.36,2.38,1.83
26.5860,0.05,0.12,-1.00,3.17,2.44,1.83
26.6030,0.05,0.12,-1.00,3.30,2.38,1.89
26.6260,0.05,0.12,-0.99,3.36,2.69,1.89
26.6410,0.05,0.12,-0.99,3.36,2.44,1.83
26.6530,0.05,0.12,-0.99,3.30,3.17,1.83
26.6690,0.05,0.12,-1.00,3.23,2.69,1.71
26.6870,0.05,0.12,-1.00,3.30,2.87,1.71
26.7030,0.05,0.12,-1.00,3.42,3.05,1.83
26.7180,0.05,0.12,-1.00,3.23,2.87,2.01
26.7210,0.05,0.12,-0.99,3.17,2.93,1.95
26.7360,0.05,0.12,-0.99,3.23,2.62,1.95
26.7580,0.05,0.12,-0.99,3.23,2.99,2.08
26.7750,0.05,0.12,-0.99,3.11,3.11,1.89
26.7920,0.05,0.12,-0.99,3.42,2.69,1.71
26.8080,0.05,0.12,-0.99,3.54,2.56,1.89
26.8250,0.05,0.12,-1.00,3.36,2.81,1.89
26.8410,0.05,0.12,-0.99,3.36,2.75,1.83
26.8570,0.05,0.12,-0.99,3.23,2.75,1.95
26.8730,0.05,0.12,-0.99,3.17,2.99,1.95
26.8890,0.05,0.12,-0.99,3.66,2.99,1.95
26.9050,0.05,0.12,-0.99,3.05,3.05,1.89
26.9200,0.05,0.12,-0.99,3.48,3.17,1.83
26.9350,0.05,0.12,-0.99,3.36,2.56,1.89
26.9500,0.05,0.12,-0.99,3.23,2.75,1.83
26.9650,0.05,0.12,-0.99,3.42,2.99,1.83
26.9750,0.05,0.12,-1.00,3.30,2.93,1.83
26.9920,0.05,0.12,-0.99,3.36,2.81,1.95
27.0090,0.05,0.12,-1.00,3.36,2.62,1.77
27.0240,0.05,0.12,-0.99,3.48,2.69,1.77
27.0400,0.05,0.12,-1.00,3.23,2.69,1.83
27.0560,0.05,0.12,-0.99,3.36,2.99,2.01
27.0720,0.05,0.12,-1.00,3.42,2.87,1.77
27.0880,0.05,0.12,-1.00,3.23,2.93,1.95
27.1030,0.05,0.12,-0.99,3.23,3.23,1.95
27.1180,0.05,0.12,-1.00,3.17,2.69,1.77
27.1250,0.05,0.12,-0.99,3.30,2.81,1.95
27.1410,0.05,0.12,-1.00,3.48,3.05,2.01
27.1610,0.05,0.12,-1.00,3.54,2.62,1.77
27.1790,0.05,0.12,-1.00,3.30,2.87,1.89
27.1940,0.05,0.12,-0.99,3.36,2.62,1.83
27.2110,0.05,0.12,-0.99,3.42,2.62,1.95
27.2280,0.05,0.12,-0.99,3.30,2.93,1.89
27.2440,0.05,0.12,-1.00,3.48,2.81,2.01
27.2600,0.05,0.12,-0.99,3.30,3.11,1.83
27.2650,0.05,0.12,-1.00,3.05,2.99,2.01
27.2770,0.05,0.12,-1.00,3.05,3.23,2.01
27.2950,0.05,0.12,-1.00,3.17,3.05,2.01
27.3110,0.05,0.12,-1.00,3.30,2.87,1.83
27.3320,0.05,0.12,-1.00,3.30,2.75,1.89
27.3490,0.05,0.12,-1.00,3.54,2.81,1.83
27.3660,0.05,0.12,-0.99,3.30,3.17,1.77
27.3830,0.05,0.12,-0.99,3.48,2.69,1.89
27.3980,0.05,0.12,-1.00,3.23,2.87,1.95
27.4150,0.05,0.12,-0.99,3.17,3.11,1.95
27.4320,0.05,0.12,-1.00,3.23,2.50,1.95
27.4470,0.05,0.12,-1.00,3.30,2.93,2.01
27.4630,0.05,0.12,-0.99,3.30,2.56,1.89
27.4660,0.05,0.12,-1.00,3.48,2.81,1.83
27.4940,0.05,0.12,-0.99,3.36,2.75,1.83
27.4990,0.05,0.12,-0.99,3.42,2.32,1.77
27.5150,0.05,0.12,-0.99,3.54,2.81,1.77
27.5360,0.05,0.12,-1.00,3.42,3.17,2.08
27.5520,0.05,0.12,-1.00,3.60,2.87,1.83
27.5690,0.05,0.12,-1.00,3.23,2.81,1.83
27.5850,0.05,0.12,-0.99,3.30,2.69,1.83
27.6000,0.05,0.12,-1.00,3.30,2.87,1.89
27.6160,0.05,0.12,-0.99,3.54,2.56,1.71
27.6190,0.05,0.12,-0.99,3.11,2.44,1.77
27.6360,0.05,0.12,-0.99,3.48,2.75,1.83
27.6630,0.05,0.12,-1.00,3.30,2.99,2.01
27.6800,0.05,0.12,-0.99,3.17,2.56,1.83
27.6950,0.05,0.12,-0.99,3.48,2.81,1.83
27.7110,0.05,0.12,-0.99,3.42,2.93,1.83
27.7200,0.05,0.12,-1.00,3.23,2.81,1.95
27.7360,0.05,0.12,-1.00,3.42,2.93,1.89
27.7560,0.05,0.12,-1.00,3.42,2.99,1.95
27.7730,0.05,0.12,-0.99,3.30,2.75,1.89
27.7880,0.05,0.12,-0.99,3.30,2.99,1.95
27.8030,0.05,0.12,-0.99,3.30,2.69,1.89
27.8180,0.05,0.12,-1.00,3.23,2.93,1.89
27.8330,0.05,0.12,-1.00,3.23,2.87,2.01
27.8480,0.05,0.12,-0.99,3.23,3.11,1.95
27.8630,0.05,0.12,-1.00,3.17,2.81,1.89
27.8730,0.05,0.12,-0.99,3.42,3.05,1.89
27.8900,0.05,0.12,-1.00,3.30,2.99,2.01
27.9060,0.05,0.12,-0.99,3.23,3.17,2.14
27.9240,0.05,0.12,-1.00,3.30,2.75,1.77
27.9390,0.05,0.12,-0.99,3.23,2.93,1.83
27.9560,0.05,0.12,-1.00,3.54,2.81,1.89
27.9720,0.05,0.12,-0.99,3.48,2.81,1.89
27.9880,0.05,0.12,-1.00,3.36,2.69,1.89
28.0030,0.05,0.12,-0.99,3.48,3.05,2.08
28.0070,0.05,0.12,-0.99,3.23,2.87,2.14
28.0230,0.05,0.12,-1.00,3.36,2.99,1.95
28.0440,0.05,0.12,-1.00,3.42,2.81,2.01
28.0650,0.05,0.12,-0.99,3.48,3.30,1.89
28.0770,0.05,0.12,-1.00,3.30,3.48,2.01
28.0950,0.05,0.12,-0.99,3.48,2.99,1.89
28.1110,0.05,0.12,-1.00,3.36,3.17,2.08
28.1270,0.05,0.12,-0.99,3.30,2.99,1.95
28.1430,0.05,0.12,-0.99,3.30,2.93,2.01
28.1590,0.05,0.12,-1.00,3.05,2.93,1.89
28.1740,0.05,0.12,-1.00,3.54,3.11,1.89
28.1770,0.05,0.12,-0.99,3.48,2.56,1.83
28.1930,0.05,0.12,-0.99,3.54,3.23,2.01
28.2140,0.05,0.12,-0.99,3.36,2.81,1.89
28.2310,0.05,0.12,-0.99,3.42,2.56,1.83
28.2480,0.05,0.12,-1.00,3.36,2.62,1.95
28.2650,0.05,0.12,-1.00,3.54,2.99,1.95
28.2810,0.05,0.12,-0.99,3.36,2.81,1.77
28.2980,0.05,0.12,-0.99,3.60,2.99,2.01
28.3140,0.05,0.12,-1.00,3.54,2.62,1.83
28.3300,0.05,0.12,-0.99,3.17,2.62,1.83
28.3320,0.05,0.12,-0.99,3.05,2.56,1.89
28.3610,0.05,0.12,-1.00,3.11,2.99,1.83
28.3650,0.05,0.12,-0.99,3.30,2.99,1.89
28.3810,0.05,0.12,-0.99,3.30,2.87,1.95
28.4090,0.05,0.12,-0.99,3.30,2.93,1.83
28.4250,0.05,0.12,-1.00,3.42,2.56,1.83
28.4310,0.05,0.12,-0.99,3.36,2.75,1.83
28.4470,0.05,0.12,-0.99,3.48,2.75,2.01
28.4730,0.05,0.12,-0.99,3.30,2.93,1.83
28.4840,0.05,0.12,-0.99,3.42,2.87,1.83
28.5010,0.05,0.12,-1.00,3.36,2.99,1.95
28.5170,0.05,0.12,-0.99,3.48,2.87,1.83
28.5340,0.05,0.12,-1.00,3.54,2.87,1.95
28.5500,0.05,0.12,-0.99,3.05,3.17,1.77
28.5660,0.05,0.12,-1.00,3.23,2.75,1.89
28.5820,0.05,0.12,-0.99,3.36,3.05,1.83
28.5970,0.05,0.12,-0.99,3.17,3.11,1.89
28.6130,0.05,0.12,-0.99,3.48,2.50,1.77
28.6280,0.05,0.12,-1.00,3.48,3.05,1.83
28.6340,0.05,0.12,-1.00,3.23,2.75,2.01
28.6490,0.05,0.12,-0.99,3.17,2.99,1.83
28.6720,0.05,0.12,-0.99,3.36,2.69,1.77
28.6880,0.05,0.12,-0.99,3.30,3.17,2.01
28.7050,0.05,0.12,-0.99,3.23,2.62,1.83
28.7210,0.05,0.12,-1.00,3.30,2.81,1.95
28.7360,0.05,0.12,-1.00,3.42,2.81,1.83
28.7510,0.05,0.12,-0.99,3.23,3.17,1.95
28.7650,0.05,0.12,-0.99,3.36,2.75,2.01
28.7710,0.05,0.12,-1.00,3.48,2.81,1.89
28.7910,0.05,0.12,-1.00,3.17,3.11,1.89
28.8080,0.05,0.12,-0.99,3.42,2.50,1.83
28.8240,0.05,0.12,-0.99,3.36,3.17,2.01
28.8410,0.05,0.12,-1.00,3.36,2.87,1.95
28.8580,0.05,0.12,-0.99,3.11,3.17,1.95
28.8740,0.05,0.12,-0.99,3.54,2.69,2.08
28.8900,0.05,0.12,-0.99,3.17,2.75,1.95
28.9060,0.05,0.12,-0.99,3.23,2.87,1.95
28.9230,0.05,0.12,-0.99,3.36,3.05,1.95
28.9390,0.05,0.12,-1.00,3.05,3.11,2.01
28.9540,0.05,0.12,-1.00,3.30,2.81,1.95
28.9660,0.05,0.12,-1.00,3.30,2.87,1.83
28.9740,0.05,0.12,-1.00,3.54,2.99,2.01
28.9930,0.05,0.12,-1.00,3.30,2.75,1.95
29.0100,0.05,0.12,-1.00,3.42,2.75,1.89
29.0270,0.05,0.12,-0.99,3.54,2.69,1.83
29.0440,0.05,0.12,-0.99,3.42,2.69,1.83
29.0610,0.05,0.12,-1.00,3.36,3.05,1.89
29.0770,0.05,0.12,-0.99,3.60,2.38,2.01
29.0930,0.05,0.12,-1.00,3.42,2.50,1.89
29.1090,0.05,0.12,-1.00,3.23,2.44,1.89
29.1250,0.05,0.12,-0.99,3.23,3.30,1.83
29.1410,0.05,0.12,-0.99,3.30,2.87,1.89
29.1440,0.05,0.12,-0.99,3.36,2.87,1.95
29.1730,0.05,0.12,-1.00,3.23,2.75,1.89
29.1880,0.05,0.12,-0.99,3.36,2.87,1.95
29.1970,0.05,0.12,-0.99,3.36,2.93,1.83
29.2140,0.05,0.12,-0.99,3.17,2.69,2.08
29.2300,0.05,0.12,-0.99,3.42,2.75,1.95
29.2470,0.05,0.12,-0.99,3.23,2.93,1.89
29.2640,0.05,0.12,-0.99,3.36,2.81,1.95
29.2800,0.05,0.12,-0.99,3.36,2.99,1.89
29.2960,0.05,0.12,-0.99,3.60,2.81,1.95
29.2970,0.05,0.12,-1.00,3.42,2.75,2.08
29.3290,0.05,0.12,-0.99,3.42,2.81,2.01
29.3440,0.05,0.12,-0.99,3.36,2.75,1.89
29.3600,0.05,0.12,-1.00,3.30,3.23,1.77
29.3660,0.05,0.12,-1.00,3.36,2.75,1.83
29.3790,0.05,0.12,-0.99,3.42,2.87,2.01
29.4020,0.05,0.12,-0.99,3.23,2.93,1.89
29.4170,0.05,0.12,-1.00,3.23,2.93,1.89
29.4340,0.05,0.12,-1.00,3.36,2.50,1.89
29.4520,0.05,0.12,-0.99,3.42,2.93,1.89
29.4670,0.05,0.12,-1.00,3.60,2.38,1.89
29.4830,0.05,0.12,-1.00,3.36,2.93,1.71
29.4990,0.05,0.12,-0.99,3.30,3.05,1.89
29.5140,0.05,0.12,-1.00,3.36,2.87,1.95
29.5310,0.05,0.12,-0.99,3.36,2.20,1.95
29.5460,0.05,0.12,-0.99,3.36,2.75,1.83
29.5610,0.05,0.12,-1.00,3.30,2.93,1.83
29.5770,0.05,0.12,-1.00,3.42,2.62,1.95
29.5860,0.05,0.12,-0.99,3.48,2.50,1.83
29.6020,0.05,0.12,-1.00,3.48,2.32,1.89
29.6240,0.05,0.12,-1.00,3.23,2.62,1.83
29.6400,0.05,0.12,-0.99,3.42,2.56,1.89
29.6570,0.05,0.12,-0.99,3.23,3.05,1.95
29.6730,0.05,0.12,-1.00,3.48,2.62,1.95
29.6880,0.05,0.12,-0.99,3.42,2.44,1.71
29.7040,0.05,0.12,-1.00,3.48,2.81,1.89
29.7200,0.05,0.12,-1.00,3.42,2.50,1.89
29.7350,0.05,0.12,-0.99,3.54,2.50,1.89
29.7400,0.05,0.12,-0.99,3.54,2.62,1.89
29.7560,0.05,0.12,-1.00,3.48,2.62,1.77
29.7780,0.05,0.12,-0.99,3.42,2.81,1.89
29.7950,0.05,0.12,-0.99,3.23,3.11,1.83
29.8120,0.05,0.12,-0.99,3.48,2.26,1.77
29.8290,0.05,0.12,-0.99,3.30,2.87,1.83
29.8440,0.05,0.12,-1.00,3.30,2.93,1.83
29.8460,0.05,0.12,-1.00,3.42,2.75,1.95
29.8670,0.05,0.12,-0.99,3.17,2.87,1.71
29.8930,0.05,0.12,-1.00,3.48,2.69,1.89
29.9090,0.05,0.12,-0.99,3.42,2.50,1.89
29.9110,0.05,0.12,-1.00,3.60,2.69,1.71
29.9280,0.05,0.12,-1.00,3.36,3.11,1.89
29.9570,0.05,0.12,-1.00,3.30,2.99,2.01
29.9670,0.05,0.12,-0.99,3.30,3.17,2.01
29.9820,0.05,0.12,-1.00,3.11,3.17,1.83
30.0000,0.05,0.12,-0.99,3.36,2.75,1.83
30.0150,0.05,0.12,-1.00,3.30,3.05,1.83
30.0340,0.05,0.12,-1.00,3.36,2.87,1.83
30.0490,0.05,0.12,-0.99,3.42,2.93,2.01
30.0650,0.05,0.12,-1.00,3.42,2.99,1.95
30.0670,0.05,0.12,-1.00,3.42,2.81,1.95
30.0970,0.05,0.12,-1.00,3.30,2.99,1.89
30.1130,0.05,0.12,-0.99,3.30,3.05,1.95
30.1300,0.05,0.12,-0.99,3.23,3.11,1.95
30.1460,0.05,0.12,-1.00,3.23,2.87,1.89
30.1610,0.05,0.12,-1.00,3.30,2.99,1.89
30.1670,0.05,0.12,-0.99,3.42,2.93,1.95
30.1920,0.05,0.12,-0.99,3.42,2.69,1.77
30.2080,0.05,0.12,-0.99,3.17,2.99,2.01
30.2180,0.05,0.12,-0.99,3.36,3.05,1.89
30.2340,0.05,0.12,-1.00,3.36,2.81,1.83
30.2500,0.05,0.12,-0.99,3.36,2.62,1.83
30.2670,0.05,0.12,-0.99,3.48,2.69,1.83
30.2830,0.05,0.12,-1.00,3.30,2.87,1.83
30.3000,0.05,0.12,-1.00,3.54,2.56,1.77
30.3160,0.05,0.12,-0.99,3.23,2.56,1.95
30.3320,0.05,0.12,-1.00,3.23,3.17,1.89
30.3490,0.05,0.12,-1.00,3.42,2.75,1.83
30.3510,0.05,0.12,-1.00,3.36,2.81,1.77
30.3800,0.05,0.12,-1.00,3.42,2.62,1.89
30.3960,0.05,0.12,-1.00,3.42,3.11,1.95
30.4110,0.05,0.12,-1.00,3.48,2.62,1.95
30.4280,0.05,0.12,-1.00,3.54,2.87,1.83
30.4450,0.05,0.12,-0.99,3.42,2.69,1.95
30.4510,0.05,0.12,-0.99,3.36,2.69,1.83
30.4690,0.05,0.12,-1.00,3.36,2.81,1.83
30.4840,0.05,0.12,-1.00,3.48,2.38,2.01
30.5030,0.05,0.12,-1.00,3.36,2.56,1.89
30.5200,0.05,0.12,-1.00,3.36,2.62,1.89
30.5360,0.05,0.12,-0.99,3.36,2.38,1.77
30.5530,0.05,0.12,-1.00,3.30,2.62,1.77
30.5680,0.05,0.12,-1.00,3.17,2.93,2.08
30.5840,0.05,0.12,-0.99,3.30,2.62,1.83
30.6010,0.05,0.12,-0.99,3.23,2.56,1.77
30.6170,0.05,0.12,-1.00,3.11,2.81,1.83
30.6330,0.05,0.12,-0.99,3.30,2.62,1.77
30.6500,0.05,0.12,-1.00,3.42,2.69,1.77
30.6660,0.05,0.12,-1.00,3.42,2.69,1.89
30.6700,0.05,0.12,-0.99,3.23,2.87,1.89
30.6870,0.05,0.12,-1.00,3.48,2.44,1.89
30.7080,0.05,0.12,-0.99,3.48,2.75,1.89
30.7250,0.05,0.12,-1.00,3.54,3.17,1.77
30.7420,0.05,0.12,-1.00,3.30,2.99,1.83
30.7580,0.05,0.12,-1.00,3.23,2.50,1.95
30.7750,0.05,0.12,-1.00,3.36,2.93,1.89
30.7760,0.05,0.12,-0.99,3.36,2.69,1.89
30.8080,0.05,0.12,-1.00,3.48,2.93,1.83
30.8230,0.05,0.12,-1.00,3.36,2.81,1.95
30.8250,0.05,0.12,-0.99,3.42,2.56,1.89
30.8410,0.05,0.12,-1.00,3.30,2.69,1.89
30.8690,0.05,0.12,-1.00,3.30,2.69,1.89
30.8790,0.05,0.12,-0.99,3.36,2.69,1.83
30.8960,0.05,0.12,-0.99,3.42,2.81,1.83
30.9120,0.05,0.12,-0.99,3.30,2.75,2.14
30.9290,0.05,0.12,-1.00,3.30,2.50,1.83
30.9460,0.05,0.12,-1.00,3.30,2.75,1.89
30.9620,0.05,0.12,-0.99,3.30,2.38,1.83
30.9770,0.05,0.12,-1.00,3.17,2.50,1.83
30.9940,0.05,0.12,-0.99,3.30,2.81,1.89
31.0090,0.05,0.12,-0.99,3.30,2.50,1.77
31.0250,0.05,0.12,-0.99,3.23,2.99,1.83
31.0290,0.05,0.12,-1.00,3.30,2.62,1.71
31.0570,0.05,0.12,-0.99,3.42,2.75,1.83
31.0690,0.05,0.12,-1.00,3.42,2.87,1.83
31.0790,0.05,0.12,-0.99,3.36,2.69,1.89
31.0990,0.05,0.12,-1.00,3.36,2.81,2.08
31.1160,0.05,0.12,-0.99,3.30,2.56,1.89
31.1330,0.05,0.12,-1.00,3.17,2.99,1.83
31.1490,0.05,0.12,-1.00,3.11,2.87,1.95
31.1670,0.05,0.12,-0.99,3.36,2.93,1.77
31.1830,0.05,0.12,-1.00,3.42,2.62,1.83
31.1990,0.05,0.12,-0.99,3.30,2.62,1.77
31.2150,0.05,0.12,-0.99,3.48,2.69,1.83
31.2310,0.05,0.12,-0.99,3.30,2.93,1.95
31.2470,0.05,0.12,-0.99,3.30,2.87,1.89
31.2630,0.05,0.12,-1.00,3.48,2.81,1.95
31.2790,0.05,0.12,-0.99,3.42,2.62,1.77
31.2940,0.05,0.12,-0.99,3.48,2.75,1.83
31.3090,0.05,0.12,-0.99,3.54,2.50,1.83
31.3240,0.05,0.12,-0.99,3.23,2.56,1.83
31.3400,0.05,0.12,-1.00,3.54,2.32,1.89
31.3490,0.05,0.12,-0.99,3.30,2.75,1.89
31.3690,0.05,0.12,-0.99,3.23,2.87,1.89
31.3830,0.05,0.12,-0.99,3.17,2.99,1.89
31.3990,0.05,0.12,-0.99,3.42,2.75,1.95
31.4160,0.05,0.12,-0.99,3.60,2.01,1.95
31.4330,0.05,0.12,-0.99,3.36,2.32,1.77
31.4490,0.05,0.12,-0.99,3.48,2.62,2.01
31.4650,0.05,0.12,-1.00,3.30,2.81,1.89
31.4800,0.05,0.12,-0.99,3.17,2.62,1.71
31.4960,0.05,0.12,-0.99,3.36,2.75,1.83
31.5000,0.05,0.12,-0.99,3.54,2.81,1.71
31.5150,0.05,0.12,-1.00,3.48,2.44,1.83
31.5390,0.05,0.12,-1.00,3.36,2.69,1.95
31.5550,0.05,0.12,-1.00,3.30,2.56,1.89
31.5720,0.05,0.12,-1.00,3.48,2.62,1.83
31.5890,0.05,0.12,-1.00,3.11,2.93,2.01
31.6050,0.05,0.12,-0.99,3.30,2.75,1.83
31.6220,0.05,0.12,-1.00,3.30,3.17,1.89
31.6370,0.05,0.12,-1.00,3.48,2.56,1.95
31.6520,0.05,0.12,-1.00,3.36,2.75,1.83
31.6680,0.05,0.12,-0.99,3.42,2.32,1.77
31.6830,0.05,0.12,-0.99,3.30,2.93,2.01
31.6890,0.05,0.12,-1.00,3.30,3.05,1.83
31.7160,0.05,0.12,-1.00,3.48,3.11,1.89
31.7210,0.05,0.12,-1.00,3.42,2.69,1.89
31.7380,0.05,0.12,-0.99,3.23,2.93,2.01
31.7570,0.05,0.12,-0.99,3.54,2.50,1.83
31.7740,0.05,0.12,-1.00,3.23,2.62,1.89
31.7900,0.05,0.12,-1.00,3.11,2.99,1.83
31.8080,0.05,0.12,-0.99,3.30,2.50,2.01
31.8240,0.05,0.12,-0.99,3.48,2.69,1.77
31.8400,0.05,0.12,-1.00,3.36,2.87,1.89
31.8560,0.05,0.12,-0.99,3.36,2.93,1.83
31.8710,0.05,0.12,-1.00,3.36,2.93,1.71
31.8870,0.05,0.12,-1.00,3.30,2.93,1.89
31.9020,0.05,0.12,-1.00,3.30,2.44,1.77
31.9170,0.05,0.12,-1.00,3.17,3.11,1.95
31.9340,0.05,0.12,-0.99,3.11,2.81,1.89
31.9490,0.05,0.12,-1.00,3.42,2.81,2.01
31.9640,0.05,0.12,-0.99,3.17,2.56,1.77
31.9740,0.05,0.12,-1.00,3.11,2.93,1.77
31.9900,0.05,0.12,-1.00,3.23,2.69,1.95
32.0070,0.05,0.12,-0.99,3.30,2.87,1.89
32.0220,0.05,0.12,-1.00,3.36,2.81,1.89
32.0400,0.05,0.12,-0.99,3.17,2.81,1.83
32.0550,0.05,0.12,-0.99,2.99,2.87,1.65
32.0710,0.05,0.12,-0.99,2.99,2.81,1.83
32.0860,0.05,0.12,-1.00,3.42,2.81,1.77
32.0950,0.05,0.12,-1.00,3.17,2.99,1.77
32.1110,0.05,0.12,-1.00,3.23,2.26,1.83
32.1280,0.05,0.12,-1.00,3.30,2.62,1.83
32.1450,0.05,0.12,-0.99,3.36,2.50,1.77
32.1610,0.05,0.12,-0.99,3.17,2.81,2.01
32.1780,0.05,0.12,-0.99,3.30,2.44,2.01
32.1940,0.05,0.12,-1.00,3.36,2.62,1.89
32.2110,0.05,0.12,-1.00,3.42,2.69,1.89
32.2120,0.05,0.12,-1.00,3.60,2.56,1.77
32.2430,0.05,0.12,-0.99,3.36,2.69,2.01
32.2450,0.05,0.12,-1.00,3.23,2.93,2.01
32.2750,0.05,0.12,-0.99,3.30,2.32,1.89
32.2780,0.05,0.12,-0.99,3.30,2.69,1.89
32.2940,0.05,0.12,-1.00,3.42,2.62,1.95
32.3160,0.05,0.12,-0.99,3.36,2.93,1.77
32.3390,0.05,0.12,-1.00,3.17,2.56,1.83
32.3500,0.05,0.12,-0.99,3.23,2.81,1.95
32.3700,0.05,0.12,-0.99,3.54,2.75,1.89
32.3810,0.05,0.12,-1.00,3.30,2.69,1.89
32.3990,0.05,0.12,-0.99,3.42,2.69,1.83
32.4150,0.05,0.12,-0.99,3.17,2.81,1.83
32.4320,0.05,0.12,-0.99,3.23,2.99,1.95
32.4490,0.05,0.12,-1.00,3.23,2.62,1.83
32.4650,0.05,0.12,-0.99,3.42,2.38,1.71
32.4820,0.05,0.12,-0.99,3.23,2.93,1.95
32.4970,0.05,0.12,-1.00,3.42,2.87,1.89
32.5130,0.05,0.12,-1.00,3.48,2.87,1.83
32.5160,0.05,0.12,-0.99,3.48,2.62,1.95
32.5320,0.05,0.12,-1.00,3.42,2.87,1.89
32.5550,0.05,0.12,-0.99,3.36,2.69,1.89
32.5720,0.05,0.12,-0.99,3.30,2.69,1.89
32.5870,0.05,0.12,-0.99,3.36,2.81,1.83
32.6050,0.05,0.12,-1.00,3.36,2.75,2.01
32.6210,0.05,0.12,-0.99,3.23,2.75,2.08
32.6360,0.05,0.12,-0.99,3.23,2.93,2.01
32.6510,0.05,0.12,-1.00,3.42,2.62,1.77
32.6670,0.05,0.12,-1.00,3.17,2.56,1.95
32.6820,0.05,0.12,-0.99,3.36,2.62,1.89
32.6880,0.05,0.12,-1.00,3.30,2.44,1.71
32.7030,0.05,0.12,-1.00,3.23,2.87,1.83
32.7240,0.05,0.12,-1.00,3.11,3.11,1.77
32.7410,0.05,0.12,-0.99,3.48,2.26,1.89
32.7570,0.05,0.12,-1.00,3.17,2.93,1.95
32.7730,0.05,0.12,-1.00,3.23,2.99,1.83
32.7900,0.05,0.12,-0.99,3.17,2.81,1.83
32.8060,0.05,0.12,-1.00,3.23,2.62,1.89
32.8230,0.05,0.12,-1.00,3.11,2.75,2.01
32.8390,0.05,0.12,-0.99,3.36,2.75,1.83
32.8550,0.05,0.12,-0.99,3.30,2.93,1.71
32.8700,0.05,0.12,-1.00,3.42,2.87,1.95
32.8850,0.05,0.12,-0.99,3.54,2.99,1.77
32.9010,0.05,0.12,-0.99,3.36,2.87,1.83
32.9160,0.05,0.12,-0.99,3.23,2.87,1.89
32.9320,0.05,0.12,-1.00,3.30,2.38,1.89
32.9400,0.05,0.12,-1.00,3.30,2.62,1.95
32.9560,0.05,0.12,-1.00,3.11,2.75,1.89
32.9780,0.05,0.12,-1.00,3.36,2.99,1.77
32.9950,0.05,0.12,-0.99,3.05,2.87,1.89
33.0110,0.05,0.12,-1.00,3.30,3.05,1.89
33.0270,0.05,0.12,-1.00,3.42,2.99,1.89
33.0280,0.05,0.12,-1.00,3.23,2.69,1.77
33.0450,0.05,0.12,-0.99,3.66,2.69,1.77
33.0750,0.05,0.12,-1.00,3.23,2.99,1.89
33.0910,0.05,0.12,-1.00,3.17,2.50,1.95
33.1080,0.05,0.12,-1.00,3.05,2.93,1.95
33.1120,0.05,0.12,-1.00,3.17,2.93,1.89
33.1290,0.05,0.12,-0.99,3.17,2.38,1.95
33.1560,0.05,0.12,-0.99,3.36,2.75,1.77
33.1710,0.05,0.12,-1.00,3.17,2.69,1.95
33.1860,0.05,0.12,-0.99,3.23,2.81,1.89
33.1950,0.05,0.12,-1.00,3.30,2.32,1.95
33.2110,0.05,0.12,-1.00,3.48,2.32,1.83
33.2310,0.05,0.12,-0.99,3.42,2.87,1.89
33.2490,0.05,0.12,-1.00,3.23,2.81,1.83
33.2650,0.05,0.12,-1.00,3.17,3.17,1.95
33.2810,0.05,0.12,-1.00,3.30,2.99,1.89
33.2970,0.05,0.12,-0.99,3.23,3.05,1.89
33.3140,0.05,0.12,-1.00,3.23,2.56,1.89
33.3300,0.05,0.12,-1.00,3.48,2.87,1.83
33.3470,0.05,0.12,-1.00,3.30,3.05,1.95
33.3490,0.05,0.12,-0.99,3.48,2.93,1.83
33.3780,0.05,0.12,-0.99,3.36,2.81,1.89
33.3820,0.05,0.12,-1.00,3.48,2.69,1.71
33.3980,0.05,0.12,-1.00,3.48,3.05,1.89
33.4190,0.05,0.12,-0.99,3.30,2.75,2.01
33.4350,0.05,0.12,-1.00,3.36,2.56,1.89
33.4520,0.05,0.12,-0.99,3.36,2.44,1.71
33.4690,0.05,0.12,-0.99,3.23,2.69,1.83
33.4850,0.05,0.12,-1.00,3.42,2.50,1.95
33.5010,0.05,0.12,-1.00,3.23,3.05,1.89
33.5160,0.05,0.12,-0.99,3.36,2.69,1.89
33.5320,0.05,0.12,-0.99,3.30,3.05,2.01
33.5350,0.05,0.12,-1.00,3.11,2.56,1.89
33.5510,0.05,0.12,-0.99,3.30,2.56,1.83
33.5790,0.05,0.12,-1.00,3.42,2.56,1.89
33.5890,0.05,0.12,-1.00,3.48,2.38,1.83
33.6050,0.05,0.12,-1.00,3.42,2.50,1.83
33.6220,0.05,0.12,-1.00,3.36,2.50,1.89
33.6390,0.05,0.12,-1.00,3.36,2.69,1.83
33.6560,0.05,0.12,-1.00,3.48,2.81,1.83
33.6720,0.05,0.12,-1.00,3.36,2.50,1.83
33.6870,0.05,0.12,-1.00,3.42,2.44,1.95
33.7030,0.05,0.12,-1.00,3.48,2.87,1.71
33.7180,0.05,0.12,-0.99,3.36,2.81,1.83
33.7230,0.05,0.12,-0.99,3.36,2.87,1.89
33.7390,0.05,0.12,-1.00,3.42,2.56,1.89
33.7610,0.05,0.12,-1.00,3.23,2.75,1.77
33.7790,0.05,0.12,-0.99,3.30,2.93,1.95
33.7960,0.05,0.12,-0.99,3.23,2.56,1.83
33.8110,0.05,0.12,-0.99,3.23,2.62,1.83
33.8270,0.05,0.12,-1.00,3.30,2.69,1.95
33.8440,0.05,0.12,-1.00,3.23,2.87,1.89
33.8600,0.05,0.12,-1.00,3.17,2.62,1.71
33.8750,0.05,0.12,-0.99,3.36,2.81,1.89
33.8930,0.05,0.12,-0.99,3.30,2.50,1.77
33.9080,0.05,0.12,-1.00,3.30,2.69,1.89
33.9110,0.05,0.12,-1.00,3.23,2.69,1.95
33.9270,0.05,0.12,-0.99,3.48,2.56,2.01
33.9510,0.05,0.12,-1.00,3.30,2.26,1.77
33.9680,0.05,0.12,-1.00,3.17,3.05,1.83
33.9840,0.05,0.12,-1.00,3.36,2.99,1.71
34.0000,0.05,0.12,-0.99,3.30,2.75,1.83
34.0010,0.05,0.12,-1.00,3.30,2.69,2.01
34.0320,0.05,0.12,-0.99,3.54,2.38,1.77
34.0480,0.05,0.12,-0.99,3.48,2.75,1.95
34.0640,0.05,0.12,-1.00,3.36,2.87,1.83
34.0800,0.05,0.12,-0.99,3.36,2.62,1.77
34.0960,0.05,0.12,-0.99,3.42,2.26,1.83
34.1120,0.05,0.12,-1.00,3.36,2.75,1.89
34.1270,0.05,0.12,-0.99,3.30,2.62,1.83
34.1340,0.05,0.12,-0.99,3.30,2.56,1.89
34.1500,0.05,0.12,-1.00,3.17,2.69,1.77
34.1700,0.05,0.12,-0.99,3.42,2.44,1.89
34.1860,0.05,0.12,-0.99,3.23,2.62,1.95
34.2020,0.05,0.12,-0.99,3.48,2.69,1.83
34.2170,0.05,0.12,-0.99,3.54,2.32,1.95
34.2340,0.05,0.12,-1.00,3.36,2.44,1.83
34.2490,0.05,0.12,-0.99,3.36,2.69,1.71
34.2530,0.05,0.12,-1.00,3.36,2.50,1.89
34.2730,0.05,0.12,-0.99,3.42,2.69,1.89
34.2910,0.05,0.12,-1.00,3.30,2.75,1.83
34.3090,0.05,0.12,-1.00,3.30,2.87,1.95
34.3250,0.05,0.12,-1.00,3.36,2.62,1.89
34.3410,0.05,0.12,-1.00,3.42,2.44,1.83
34.3580,0.05,0.12,-1.00,3.30,2.50,2.01
34.3740,0.05,0.12,-1.00,3.42,2.38,1.95
34.3910,0.05,0.12,-0.99,3.30,2.69,1.77
34.4070,0.05,0.12,-1.00,3.42,2.32,1.77
34.4230,0.05,0.12,-0.99,3.42,2.32,1.83
34.4400,0.05,0.12,-0.99,3.42,2.32,1.77
34.4550,0.05,0.12,-0.99,3.42,2.87,2.08
34.4570,0.05,0.12,-0.99,3.48,2.50,1.71
34.4730,0.05,0.12,-1.00,3.30,2.81,1.83
34.4940,0.05,0.12,-1.00,3.30,2.56,1.89
34.5110,0.05,0.12,-1.00,3.42,2.38,1.89
34.5280,0.05,0.12,-1.00,3.30,2.62,1.83
34.5440,0.05,0.12,-0.99,3.36,2.44,1.77
34.5610,0.05,0.12,-0.99,3.36,2.75,1.89
34.5790,0.05,0.12,-1.00,3.42,2.50,2.08
34.5950,0.05,0.12,-0.99,3.36,2.75,1.83
34.6110,0.05,0.12,-0.99,3.42,2.75,1.77
34.6270,0.05,0.12,-1.00,3.30,2.87,1.95
34.6430,0.05,0.12,-1.00,3.36,2.14,1.95
34.6450,0.05,0.12,-1.00,3.30,2.38,1.59
34.6740,0.05,0.12,-0.99,3.42,2.38,1.71
34.6780,0.05,0.12,-0.99,3.36,3.11,1.95
34.6940,0.05,0.12,-0.99,3.36,2.99,1.89
34.7230,0.05,0.12,-1.00,3.60,2.56,1.95
34.7320,0.05,0.12,-1.00,3.23,2.87,1.77
34.7490,0.05,0.12,-0.99,3.30,2.50,2.01
34.7650,0.05,0.12,-0.99,3.54,2.56,1.89
34.7840,0.05,0.12,-1.00,3.48,2.32,1.83
34.8000,0.05,0.12,-1.00,3.23,2.62,1.83
34.8160,0.05,0.12,-0.99,3.36,2.44,1.95
34.8170,0.05,0.12,-0.99,3.54,2.38,1.89
34.8480,0.05,0.12,-0.99,3.54,2.69,1.83
34.8640,0.05,0.12,-1.00,3.42,2.44,1.89
34.8800,0.05,0.12,-0.99,3.60,2.50,1.77
34.8960,0.05,0.12,-1.00,3.23,2.75,1.77
34.9120,0.05,0.12,-1.00,3.36,2.87,1.71
34.9280,0.05,0.12,-1.00,3.48,2.56,1.89
34.9340,0.05,0.12,-1.00,3.36,2.87,1.77
34.9490,0.05,0.12,-0.99,3.54,2.50,1.89
34.9740,0.05,0.12,-1.00,3.54,2.44,1.77
34.9890,0.05,0.12,-1.00,3.54,2.75,1.83
35.0060,0.05,0.12,-0.99,3.54,2.69,1.89
35.0220,0.05,0.12,-0.99,3.36,2.93,1.95
35.0390,0.05,0.12,-0.99,3.42,2.50,1.95
35.0560,0.05,0.12,-0.99,3.23,2.62,1.77
35.0720,0.05,0.12,-0.99,3.48,2.38,1.83
35.0880,0.05,0.12,-1.00,3.36,3.05,1.95
35.1040,0.05,0.12,-0.99,3.23,2.93,1.89
35.1200,0.05,0.12,-1.00,3.36,2.75,1.89
35.1350,0.05,0.12,-1.00,3.36,2.38,1.83
35.1500,0.05,0.12,-1.00,3.36,2.75,1.83
35.1550,0.05,0.12,-0.99,3.36,2.62,1.83
35.1740,0.05,0.12,-0.99,3.36,2.75,1.77
35.1920,0.05,0.12,-1.00,3.36,2.75,1.95
35.2090,0.05,0.12,-1.00,3.48,2.87,1.83
35.2260,0.05,0.12,-1.00,3.42,2.75,1.89
35.2430,0.05,0.12,-0.99,3.23,2.69,1.77
35.2590,0.05,0.12,-1.00,3.17,3.11,2.01
35.2750,0.05,0.12,-0.99,3.23,3.30,1.77
35.2910,0.05,0.12,-1.00,2.99,3.30,1.89
35.3070,0.05,0.12,-0.99,3.17,2.50,1.95
35.3230,0.05,0.12,-0.99,3.05,3.05,1.89
35.3260,0.05,0.12,-1.00,3.23,2.93,2.01
35.3410,0.05,0.12,-1.00,3.30,2.81,2.01
35.3640,0.05,0.12,-1.00,3.48,2.75,1.89
35.3800,0.05,0.12,-0.99,3.36,2.87,1.89
35.3990,0.05,0.12,-0.99,3.17,2.93,2.01
35.4140,0.05,0.12,-1.00,3.42,2.62,1.95
35.4310,0.05,0.12,-1.00,3.30,2.81,1.71
35.4470,0.05,0.12,-1.00,3.48,2.75,1.89
35.4630,0.05,0.12,-0.99,3.30,2.50,1.83
35.4790,0.05,0.12,-1.00,3.23,2.69,1.83
35.4950,0.05,0.12,-1.00,3.36,2.87,1.95
35.4980,0.05,0.12,-1.00,3.36,2.56,1.89
35.5130,0.05,0.12,-0.99,3.48,2.56,1.83
35.5290,0.05,0.12,-1.00,3.23,2.87,1.89
35.5580,0.05,0.12,-0.99,3.48,2.32,1.71
35.5670,0.05,0.12,-0.99,3.30,2.81,1.83
35.5850,0.05,0.12,-0.99,3.36,2.75,1.77
35.6010,0.05,0.12,-0.99,3.23,2.62,1.89
35.6200,0.05,0.12,-1.00,3.36,2.38,1.77
35.6350,0.05,0.12,-0.99,3.23,2.87,1.77
35.6510,0.05,0.12,-1.00,3.23,2.62,1.71
35.6660,0.05,0.12,-0.99,3.30,2.56,1.77
35.6820,0.05,0.12,-0.99,3.42,2.56,1.95
35.6980,0.05,0.12,-1.00,3.23,2.81,1.95
35.7130,0.05,0.12,-1.00,3.30,2.69,1.89
35.7290,0.05,0.12,-1.00,3.48,2.81,1.65
35.7430,0.05,0.12,-1.00,3.42,2.99,1.89
35.7550,0.05,0.12,-0.99,3.48,3.05,1.89
35.7710,0.05,0.12,-0.99,3.42,3.05,1.89
35.7880,0.05,0.12,-0.99,3.48,2.62,1.89
35.8040,0.05,0.12,-1.00,3.23,2.62,1.89
35.8210,0.05,0.12,-1.00,3.17,2.81,1.89
35.8380,0.05,0.12,-1.00,3.36,2.75,1.83
35.8530,0.05,0.12,-0.99,3.30,2.32,1.77
35.8680,0.05,0.12,-1.00,3.30,2.75,1.77
35.8840,0.05,0.12,-1.00,3.23,2.50,1.83
35.8990,0.05,0.12,-1.00,3.48,2.50,1.71
35.9150,0.05,0.12,-1.00,3.23,2.75,1.65
35.9210,0.05,0.12,-1.00,3.30,2.69,2.01
35.9370,0.05,0.12,-0.99,3.48,2.81,1.95
35.9580,0.05,0.12,-0.99,3.42,2.81,2.01
35.9750,0.05,0.12,-0.99,3.42,2.69,1.95
35.9930,0.05,0.12,-1.00,3.36,2.99,1.83
36.0080,0.05,0.12,-1.00,3.42,2.56,1.89
36.0240,0.05,0.12,-1.00,3.36,2.50,1.83
36.0410,0.05,0.12,-0.99,3.36,2.56,1.77
36.0570,0.05,0.12,-1.00,3.36,2.93,1.95
36.0730,0.05,0.12,-1.00,3.42,2.69,1.89
36.0880,0.05,0.12,-1.00,3.42,3.11,1.77
36.0910,0.05,0.12,-1.00,3.42,3.05,1.95
36.1060,0.05,0.12,-0.99,3.66,2.38,1.89
36.1280,0.05,0.12,-0.99,3.30,2.56,1.77
36.1460,0.05,0.12,-1.00,3.36,2.75,1.77
36.1620,0.05,0.12,-0.99,3.30,3.05,1.95
36.1790,0.05,0.12,-1.00,3.30,2.62,1.95
36.1950,0.05,0.12,-1.00,3.60,2.50,1.95
36.2110,0.05,0.12,-0.99,3.30,2.62,1.95
36.2280,0.05,0.12,-1.00,3.48,2.69,1.89
36.2450,0.05,0.12,-0.99,3.54,2.56,1.83
36.2610,0.05,0.12,-1.00,3.54,2.38,1.95
36.2770,0.05,0.12,-0.99,3.36,2.81,1.89
36.2780,0.05,0.12,-0.99,3.30,2.81,1.83
36.3090,0.05,0.12,-1.00,3.42,2.69,1.83
36.3120,0.05,0.12,-0.99,3.36,2.50,1.83
36.3280,0.05,0.12,-0.99,3.36,2.38,1.77
36.3490,0.05,0.12,-0.99,3.42,2.44,1.95
36.3660,0.05,0.12,-1.00,3.23,2.99,1.95
36.3820,0.05,0.12,-0.99,3.42,2.99,1.83
36.3990,0.05,0.12,-0.99,3.48,2.26,1.77
36.4160,0.05,0.12,-0.99,3.36,2.87,1.83
36.4330,0.05,0.12,-1.00,3.30,2.69,1.89
36.4490,0.05,0.12,-1.00,3.36,2.81,1.89
36.4650,0.05,0.12,-1.00,3.30,2.99,1.83
36.4810,0.05,0.12,-1.00,3.23,2.81,1.89
36.4980,0.05,0.12,-0.99,3.36,2.81,1.89
36.5140,0.05,0.12,-0.99,3.23,2.87,2.14
36.5300,0.05,0.12,-0.99,3.23,2.93,1.77
36.5460,0.05,0.12,-0.99,3.36,2.62,1.71
36.5610,0.05,0.12,-0.99,3.48,2.62,1.83
36.5670,0.05,0.12,-1.00,3.23,2.99,1.71
36.5830,0.05,0.12,-0.99,3.36,2.87,2.14
36.6060,0.05,0.12,-1.00,3.30,2.99,1.89
36.6160,0.05,0.12,-1.00,3.36,2.87,1.83
36.6330,0.05,0.12,-0.99,3.36,2.87,1.83
36.6490,0.05,0.12,-1.00,3.42,2.56,1.95
36.6660,0.05,0.12,-1.00,3.23,2.62,1.77
36.6820,0.05,0.12,-0.99,3.30,2.87,1.89
36.6980,0.05,0.12,-1.00,3.30,2.81,1.95
36.7140,0.05,0.12,-1.00,3.36,2.81,1.89
36.7300,0.05,0.12,-0.99,3.42,2.75,1.83
36.7450,0.05,0.12,-0.99,3.36,2.87,2.01
36.7610,0.05,0.12,-0.99,3.54,2.50,1.83
36.7770,0.05,0.12,-1.00,3.42,2.38,1.89
36.7820,0.05,0.12,-1.00,3.36,2.75,1.95
36.8030,0.05,0.12,-1.00,3.30,2.56,1.83
36.8190,0.05,0.12,-1.00,3.11,2.81,1.89
36.8350,0.05,0.12,-1.00,3.36,2.75,1.77
36.8530,0.05,0.12,-1.00,3.36,2.44,1.89
36.8690,0.05,0.12,-0.99,3.48,2.81,1.95
36.8840,0.05,0.12,-0.99,3.54,2.75,1.95
36.8990,0.05,0.12,-1.00,3.54,2.38,1.71
36.9150,0.05,0.12,-0.99,3.42,2.56,1.89
36.9310,0.05,0.12,-0.99,3.42,2.75,1.89
36.9360,0.05,0.12,-1.00,3.23,2.44,1.89
36.9520,0.05,0.12,-0.99,3.36,2.50,1.89
36.9770,0.05,0.12,-0.99,3.23,2.32,1.95
36.9910,0.05,0.12,-0.99,3.36,2.75,1.83
37.0070,0.05,0.12,-1.00,3.23,2.56,1.89
37.0240,0.05,0.12,-0.99,3.30,2.75,2.08
37.0410,0.05,0.12,-0.99,3.48,2.32,1.89
37.0570,0.05,0.12,-0.99,3.17,2.50,1.83
37.0730,0.05,0.12,-0.99,3.42,2.99,1.89
37.0900,0.05,0.12,-1.00,3.36,2.56,2.01
37.1050,0.05,0.12,-1.00,3.48,2.75,2.01
37.1230,0.05,0.12,-1.00,3.48,2.44,1.77
37.1380,0.05,0.12,-1.00,3.23,2.75,1.77
37.1540,0.05,0.12,-1.00,3.30,2.81,1.83
37.1570,0.05,0.12,-0.99,3.42,2.56,1.89
37.1770,0.05,0.12,-0.99,3.36,2.56,1.89
37.1930,0.05,0.12,-1.00,3.60,2.87,1.95
37.2090,0.05,0.12,-1.00,3.42,2.56,1.65
37.2270,0.05,0.12,-1.00,3.36,2.75,1.95
37.2430,0.05,0.12,-0.99,3.42,2.69,1.95
37.2610,0.05,0.12,-1.00,3.48,2.32,1.77
37.2770,0.05,0.12,-0.99,3.30,2.69,2.01
37.2940,0.05,0.12,-0.99,3.36,2.75,1.95
37.2940,0.05,0.12,-0.99,3.30,2.81,1.65
37.3250,0.05,0.12,-0.99,3.36,2.44,1.89
37.3270,0.05,0.12,-0.99,3.23,2.75,1.65
37.3430,0.05,0.12,-1.00,3.30,2.69,1.83
37.3600,0.05,0.12,-1.00,3.54,2.81,1.83
37.3770,0.05,0.12,-1.00,3.30,2.69,1.83
37.3930,0.05,0.12,-0.99,3.11,2.93,1.77
37.4200,0.05,0.12,-0.99,3.23,2.50,1.77
37.4290,0.05,0.12,-0.99,3.30,2.50,1.77
37.4460,0.05,0.12,-1.00,3.23,2.75,1.77
37.4620,0.05,0.12,-0.99,3.48,2.56,1.83
37.4790,0.05,0.12,-1.00,3.54,2.56,1.83
37.4950,0.05,0.12,-1.00,3.30,2.50,1.89
37.5110,0.05,0.12,-0.99,3.17,2.69,1.95
37.5270,0.05,0.12,-1.00,3.60,2.44,1.83
37.5420,0.05,0.12,-0.99,3.30,2.56,1.83
37.5460,0.05,0.12,-0.99,3.42,2.69,1.77
37.5620,0.05,0.12,-0.99,3.48,2.62,1.83
37.5830,0.05,0.12,-0.99,3.48,2.50,1.95
37.6000,0.05,0.12,-0.99,3.23,2.50,1.83
37.6170,0.05,0.12,-1.00,3.36,2.81,1.95
37.6330,0.05,0.12,-0.99,3.54,2.69,1.95
37.6490,0.05,0.12,-1.00,3.05,2.56,1.83
37.6660,0.05,0.12,-1.00,3.48,2.56,1.71
37.6810,0.05,0.12,-0.99,3.23,2.81,1.83
37.6840,0.05,0.12,-0.99,3.36,2.38,1.77
37.7010,0.05,0.12,-1.00,3.48,2.81,1.89
37.7270,0.05,0.12,-0.99,3.36,2.56,1.83
37.7370,0.05,0.12,-1.00,3.36,2.56,1.77
37.7530,0.05,0.12,-1.00,3.48,2.38,1.77
37.7700,0.05,0.12,-0.99,3.36,2.75,1.95
37.7870,0.05,0.12,-0.99,3.36,2.20,1.65
37.8030,0.05,0.12,-1.00,3.36,2.26,1.89
37.8200,0.05,0.12,-1.00,3.48,2.50,1.95
37.8370,0.05,0.12,-1.00,3.54,2.50,2.01
37.8520,0.05,0.12,-0.99,3.42,2.38,1.83
37.8670,0.05,0.12,-0.99,3.36,2.44,1.95
37.8830,0.05,0.12,-0.99,3.42,2.62,1.71
37.8990,0.05,0.12,-0.99,3.30,2.38,1.83
37.9150,0.05,0.12,-0.99,3.36,2.08,1.95
37.9310,0.05,0.12,-0.99,3.23,2.44,1.71
37.9470,0.05,0.12,-0.99,3.23,2.62,1.83
37.9630,0.05,0.12,-0.99,3.36,2.69,1.89
37.9770,0.05,0.12,-1.00,3.42,2.50,1.77
37.9870,0.05,0.12,-1.00,3.23,2.50,1.83
38.0040,0.05,0.12,-1.00,3.36,2.50,1.71
38.0200,0.05,0.12,-1.00,3.36,2.81,1.71
38.0390,0.05,0.12,-0.99,3.05,2.99,1.83
38.0550,0.05,0.12,-1.00,3.48,2.50,1.71
38.0700,0.05,0.12,-0.99,3.48,2.32,1.83
38.0850,0.05,0.12,-1.00,3.30,2.93,2.01
38.1010,0.05,0.12,-0.99,3.17,2.62,2.01
38.1160,0.05,0.12,-1.00,3.23,2.38,1.89
38.1320,0.05,0.12,-1.00,3.30,2.81,1.77
38.1460,0.05,0.12,-0.99,3.36,2.69,1.95
38.1560,0.05,0.12,-0.99,3.36,2.56,1.71
38.1740,0.05,0.12,-0.99,3.30,2.75,1.71
38.1890,0.05,0.12,-1.00,3.17,2.56,1.83
38.2070,0.05,0.12,-0.99,3.30,2.69,1.71
38.2230,0.05,0.12,-1.00,3.23,2.75,1.77
38.2400,0.05,0.12,-0.99,3.11,2.69,2.08
38.2560,0.05,0.12,-0.99,3.30,2.50,1.95
38.2710,0.05,0.12,-1.00,3.42,2.69,1.89
38.2870,0.05,0.12,-0.99,3.42,2.20,1.77
38.3030,0.05,0.12,-0.99,3.42,2.26,1.71
38.3080,0.05,0.12,-0.99,3.30,2.75,1.83
38.3340,0.05,0.12,-0.99,3.30,2.38,1.77
38.3500,0.05,0.12,-0.99,3.42,2.69,1.89
38.3640,0.05,0.12,-1.00,3.30,2.50,1.77
38.3790,0.05,0.12,-0.99,3.48,2.75,1.95
38.3880,0.05,0.12,-0.99,3.30,2.50,1.89
38.4080,0.05,0.12,-1.00,3.30,2.62,1.89
38.4250,0.05,0.12,-1.00,3.05,2.75,1.89
38.4410,0.05,0.12,-0.99,3.30,2.69,1.83
38.4570,0.05,0.12,-1.00,3.36,2.69,1.83
38.4740,0.05,0.12,-1.00,3.42,2.56,1.89
38.4900,0.05,0.12,-1.00,3.36,2.32,1.89
38.5060,0.05,0.12,-1.00,3.30,2.26,1.65
38.5220,0.05,0.12,-0.99,3.30,2.81,1.77
38.5250,0.05,0.12,-1.00,3.42,2.62,1.83
38.5410,0.05,0.12,-1.00,3.36,2.20,1.77
38.5630,0.05,0.12,-0.99,3.54,2.38,1.95
38.5810,0.05,0.12,-1.00,3.48,2.56,1.83
38.5960,0.05,0.11,-0.99,3.60,2.56,1.65
38.6140,0.05,0.12,-0.99,3.30,2.93,1.77
38.6290,0.05,0.12,-1.00,3.54,2.62,1.89
38.6460,0.05,0.12,-1.00,3.48,2.50,1.65
38.6620,0.07,0.15,-0.99,3.72,2.14,4.46
38.6780,0.05,0.13,-0.99,2.87,1.71,7.26
38.6940,0.06,0.11,-1.00,2.44,1.22,11.23
38.7100,0.05,0.09,-1.00,2.56,1.40,9.58
38.7250,0.06,0.11,-1.00,2.87,2.08,5.49
38.7300,0.06,0.10,-1.00,2.69,1.89,6.84
38.7450,0.05,0.17,-0.99,1.40,0.31,17.03
38.7680,0.01,0.18,-0.99,2.32,1.16,11.54
38.7850,0.00,0.15,-0.99,2.20,0.85,13.31
38.7850,0.05,0.12,-1.00,2.01,0.31,18.86
38.8160,0.07,0.09,-1.00,2.26,0.85,15.69
38.8310,0.06,0.10,-0.99,3.17,2.32,5.55
38.8470,0.02,0.07,-1.00,3.05,2.26,4.15
38.8630,0.04,0.17,-0.99,2.81,1.28,10.07
38.8680,0.02,0.21,-0.99,2.56,1.22,27.89
38.8830,0.01,0.16,-0.99,1.59,-0.37,23.13
38.9020,0.02,0.09,-1.00,0.43,-2.26,34.24
38.9200,0.08,0.09,-0.99,0.98,-1.77,31.01
38.9370,0.08,0.10,-1.00,2.14,0.00,17.15
38.9540,0.01,0.11,-1.00,3.05,1.53,8.42
38.9700,0.03,0.11,-1.00,3.05,1.16,8.06
38.9860,0.06,0.11,-0.99,2.62,1.16,10.44
39.0020,0.05,0.11,-1.00,2.32,2.14,9.70
39.0180,0.05,0.09,-1.00,2.50,1.53,9.89
39.0200,0.07,0.11,-0.99,2.56,1.46,11.35
39.0490,0.07,0.13,-0.99,3.23,1.71,9.95
39.0650,0.06,0.13,-0.99,3.36,2.20,6.84
39.0810,0.04,0.10,-0.99,3.17,2.32,5.31
39.0970,0.05,0.09,-0.99,3.05,2.14,6.35
39.1120,0.06,0.10,-1.00,2.99,2.08,6.59
39.1200,0.07,0.15,-0.99,3.30,2.56,4.70
39.1370,0.08,0.11,-1.00,3.30,2.81,0.31
39.1530,0.04,0.12,-1.00,3.36,3.36,-3.05
39.1700,0.02,0.12,-1.00,3.78,3.30,-3.36
39.1860,0.05,0.11,-1.00,3.85,3.23,-2.62
39.2030,0.04,0.13,-1.00,3.97,3.42,-2.87
39.2190,0.04,0.13,-1.00,3.48,3.30,-0.12
39.2360,0.04,0.10,-1.00,3.17,2.56,2.20
39.2520,0.06,0.07,-1.00,2.87,2.32,4.46
39.2540,0.07,0.13,-0.99,3.72,2.87,-0.37
39.2800,0.06,0.12,-1.00,4.33,3.30,-4.46
39.2870,0.07,0.11,-0.99,4.52,4.09,-5.07
39.3030,0.06,0.11,-1.00,4.21,3.66,-5.31
39.3310,0.03,0.13,-1.00,4.09,3.97,-6.65
39.3370,0.03,0.13,-0.99,3.78,3.60,-3.72
39.3630,0.03,0.15,-0.99,3.23,3.11,0.67
39.3780,0.04,0.12,-0.99,2.99,2.56,3.11
39.3920,0.04,0.12,-1.00,3.11,2.50,2.99
39.4020,0.06,0.13,-0.99,2.87,2.20,2.93
39.4200,0.06,0.12,-0.99,3.17,2.75,2.14
39.4360,0.05,0.12,-1.00,3.30,2.99,1.89
39.4530,0.04,0.12,-1.00,3.30,2.56,1.89
39.4700,0.05,0.12,-1.00,3.17,2.62,1.89
39.4860,0.05,0.10,-0.99,2.75,2.69,2.50
39.5030,0.04,0.11,-1.00,3.23,2.38,4.33
39.5180,0.05,0.12,-1.00,3.36,2.32,4.52
39.5330,0.05,0.13,-0.99,3.60,2.32,3.23
39.5500,0.05,0.12,-0.99,3.48,2.50,1.77
39.5650,0.06,0.11,-0.99,3.54,2.44,1.77
39.5810,0.04,0.11,-1.00,3.36,2.75,2.01
39.5970,0.03,0.09,-1.00,3.17,2.62,3.85
39.6130,0.05,0.10,-1.00,3.30,1.95,5.25
39.6290,0.05,0.06,-1.00,3.11,2.20,4.09
39.6440,0.03,0.06,-1.00,3.42,2.08,5.43
39.6590,0.06,0.14,-0.99,3.36,2.38,6.29
39.6700,0.06,0.16,-0.99,3.30,2.26,4.39
39.6870,0.05,0.11,-0.99,2.99,2.44,1.95
39.7060,0.05,0.11,-0.99,3.05,2.87,1.95
39.7230,0.04,0.10,-1.00,3.48,2.50,2.50
39.7390,0.03,0.09,-1.00,3.60,2.32,4.27
39.7550,0.03,0.08,-1.00,3.23,2.14,6.47
39.7710,0.05,0.13,-0.99,2.81,2.20,7.63
39.7870,0.04,0.12,-1.00,2.81,1.83,7.14
39.7910,0.05,0.17,-0.99,2.87,1.53,7.08
39.8180,0.05,0.15,-0.99,2.93,2.32,3.60
39.8330,0.06,0.13,-0.99,3.05,1.95,3.23
39.8490,0.05,0.10,-0.99,3.23,2.32,3.66
39.8560,0.02,0.06,-1.00,3.36,1.83,7.08
39.8730,0.05,0.08,-1.00,3.05,1.46,10.62
39.8890,0.07,0.16,-0.99,2.99,1.34,8.73
39.9070,0.07,0.18,-0.98,3.54,2.62,5.31
39.9230,0.05,0.12,-0.99,3.48,2.62,2.26
39.9390,0.05,0.12,-1.00,3.48,2.75,2.01
39.9560,0.07,0.10,-1.00,3.78,2.75,1.95
39.9740,0.04,0.10,-1.00,3.54,2.38,1.71
39.9900,0.03,0.10,-1.00,3.30,2.44,3.66
40.0060,0.04,0.14,-0.99,3.17,2.38,4.46
40.0220,0.05,0.18,-0.99,1.89,1.34,12.63
40.0380,0.06,0.15,-0.99,2.99,2.01,7.87
40.0530,0.03,0.10,-1.00,3.42,1.89,5.07
40.0680,0.05,0.12,-1.00,2.99,1.77,5.37
40.0840,0.05,0.11,-0.99,3.11,2.08,5.13
40.0990,0.06,0.14,-0.99,3.05,2.20,4.27
40.1060,0.06,0.12,-0.99,3.23,2.38,2.38
40.1220,0.04,0.12,-1.00,3.36,2.56,1.89
40.1400,0.05,0.12,-0.99,3.30,2.38,1.77
40.1570,0.05,0.12,-0.99,3.23,2.62,1.77
40.1730,0.05,0.12,-0.99,3.30,2.62,1.95
40.1900,0.05,0.12,-0.99,3.36,2.56,2.01
40.2070,0.05,0.11,-0.99,3.91,2.38,1.89
40.2230,0.05,0.11,-0.99,3.48,2.62,1.89
40.2250,0.05,0.12,-0.99,3.66,2.44,1.95
40.2560,0.05,0.12,-0.99,3.36,2.62,1.83
40.2710,0.04,0.12,-1.00,3.30,2.56,1.89
40.2870,0.05,0.12,-1.00,3.48,2.50,1.95
40.2910,0.05,0.11,-0.99,3.54,2.44,1.65
40.3070,0.05,0.11,-0.99,3.30,2.50,1.83
40.3270,0.05,0.11,-1.00,3.30,2.32,1.83
40.3450,0.05,0.11,-0.99,2.99,2.38,1.83
40.3610,0.05,0.12,-0.99,2.93,2.32,1.77
40.3780,0.05,0.13,-1.00,3.48,2.14,1.59
40.3940,0.05,0.10,-1.00,3.48,2.44,1.22
40.4110,0.04,0.12,-1.00,3.30,2.14,1.77
40.4280,0.05,0.12,-0.99,3.42,2.75,1.71
40.4430,0.05,0.13,-0.99,3.30,2.38,0.85
40.4450,0.05,0.14,-0.99,3.48,2.87,-0.31
40.4610,0.06,0.12,-0.99,3.60,2.75,-0.43
40.4920,0.06,0.12,-0.99,3.60,2.93,0.18
40.5080,0.05,0.12,-1.00,3.85,2.93,-0.43
40.5110,0.06,0.11,-0.99,3.91,3.17,-0.24
40.5280,0.05,0.12,-0.99,3.78,2.93,-0.61
40.5440,0.05,0.14,-0.99,3.91,2.99,-1.34
40.5600,0.05,0.13,-1.00,3.54,2.99,-1.53
40.5820,0.05,0.15,-0.99,3.42,3.17,-1.71
40.5970,0.06,0.16,-0.99,3.85,3.30,-2.26
40.6150,0.05,0.15,-0.99,4.52,4.27,-6.84
40.6310,0.06,0.14,-0.99,4.94,4.82,-11.72
40.6470,0.06,0.14,-0.99,4.82,5.68,-15.93
40.6520,0.06,0.12,-0.99,4.88,5.49,-16.60
40.6770,0.05,0.10,-1.00,5.31,5.00,-15.99
40.6920,0.04,0.07,-1.00,4.76,4.82,-12.27
40.7070,0.04,0.10,-1.00,3.91,3.66,-5.92
40.7190,0.06,0.14,-0.99,3.60,2.93,-3.36
40.7350,0.06,0.13,-0.99,3.97,2.87,-3.05
40.7520,0.05,0.10,-0.99,4.09,3.23,-3.11
40.7550,0.04,0.09,-1.00,3.72,3.17,-3.17
40.7840,0.04,0.12,-1.00,3.48,3.23,-2.38
40.7990,0.04,0.11,-1.00,3.36,2.38,0.98
40.8160,0.05,0.12,-1.00,3.05,2.14,4.39
40.8320,0.05,0.15,-0.99,2.81,1.65,7.26
40.8480,0.05,0.12,-0.99,2.87,1.46,7.69
40.8620,0.05,0.12,-0.99,2.81,1.83,7.57
40.8770,0.05,0.10,-1.00,2.81,1.71,6.77
40.8880,0.05,0.12,-0.99,2.75,1.89,8.36
40.9050,0.06,0.16,-0.99,2.99,1.77,8.48
40.9210,0.05,0.14,-0.99,2.81,1.34,9.64
40.9370,0.06,0.13,-0.99,2.62,0.92,13.00
40.9530,0.06,0.09,-0.99,2.32,0.85,15.38
40.9680,0.05,0.08,-1.00,2.14,1.04,14.59
40.9840,0.05,0.07,-1.00,2.38,0.98,11.54
40.9920,0.04,0.05,-1.00,2.62,1.71,8.24
41.0080,0.05,0.11,-0.99,2.99,2.20,5.31
41.0250,0.06,0.15,-0.99,3.36,2.56,3.17
41.0410,0.04,0.10,-1.00,3.60,2.69,3.17
41.0580,0.04,0.08,-0.97,3.05,1.95,5.98
41.0740,0.05,0.10,-1.00,2.87,1.95,6.29
41.0890,0.06,0.10,-1.00,2.99,2.14,5.62
41.1040,0.06,0.16,-0.99,3.42,2.01,4.94
41.1190,0.04,0.15,-0.99,3.30,1.53,8.18
41.1350,0.04,0.13,-1.00,2.62,0.85,11.72
41.1500,0.04,0.12,-0.99,2.50,0.79,14.28
41.1580,0.04,0.10,-1.00,2.26,0.73,13.43
41.1750,0.05,0.09,-1.00,2.56,0.85,11.41
41.1910,0.05,0.10,-1.00,2.99,1.77,7.14
41.2080,0.05,0.11,-0.99,3.23,1.65,5.43
41.2240,0.06,0.10,-0.99,3.17,1.71,7.51
41.2410,0.05,0.11,-1.00,3.30,2.14,6.41
41.2580,0.05,0.10,-1.00,3.48,1.89,4.70
41.2740,0.05,0.11,-1.00,3.30,1.83,4.15
41.2910,0.05,0.12,-0.99,3.17,1.89,4.94
41.3070,0.05,0.12,-0.99,2.75,2.08,6.16
41.3220,0.05,0.12,-1.00,2.93,1.71,5.92
41.3380,0.05,0.16,-0.99,3.42,2.38,3.72
41.3540,0.05,0.19,-0.99,3.60,2.26,1.46
41.3700,0.07,0.20,-0.98,4.33,2.69,-1.65
41.3840,0.05,0.12,-0.99,4.33,2.93,-1.65
41.3990,0.04,0.07,-1.00,3.60,2.08,4.46
41.4080,0.05,0.06,-1.00,2.62,0.98,9.58
41.4230,0.06,0.09,-1.00,2.75,1.59,8.36
41.4460,0.06,0.14,-0.99,3.36,2.20,4.46
41.4620,0.04,0.18,-0.99,3.66,2.56,2.56
41.4780,0.03,0.13,-1.00,3.60,2.01,3.48
41.4820,0.03,0.10,-1.00,3.11,1.77,6.35
41.4970,0.05,0.05,-1.00,2.56,1.10,10.68
41.5250,0.06,0.05,-1.01,2.14,0.67,11.96
41.5400,0.05,0.12,-1.00,2.50,1.46,7.75
41.5470,0.07,0.18,-0.98,2.99,2.75,5.00
41.5630,0.05,0.16,-0.99,3.60,2.69,1.83
41.5820,0.04,0.10,-0.99,3.05,2.26,3.54
41.5960,0.05,0.06,-1.00,2.69,1.77,7.14
41.6120,0.06,0.08,-1.00,2.93,2.20,5.55
41.6300,0.06,0.10,-0.99,3.23,2.32,2.81
41.6460,0.06,0.15,-0.99,3.72,2.62,1.10
41.6630,0.10,0.18,-0.98,4.33,2.69,0.06
41.6790,0.07,0.13,-0.99,3.60,2.20,4.33
41.6940,0.02,0.08,-1.00,2.56,1.22,10.44
41.7020,0.01,0.06,-1.01,2.62,1.04,10.25
41.7240,0.05,0.10,-1.00,3.23,2.26,4.21
41.7350,0.05,0.11,-1.00,3.30,2.56,2.50
41.7510,0.05,0.13,-0.99,3.23,2.14,3.17
41.7710,0.06,0.13,-0.99,2.99,1.89,5.68
41.7880,0.06,0.09,-1.00,2.93,1.89,4.88
41.8040,0.05,0.10,-1.00,3.17,1.95,3.91
41.8200,0.06,0.10,-1.00,2.93,2.87,4.21
41.8360,0.06,0.12,-0.99,2.93,2.69,4.15
41.8520,0.09,0.19,-0.99,3.30,2.56,2.56
41.8670,0.06,0.16,-0.98,3.30,2.50,2.14
41.8830,0.07,0.14,-0.99,3.23,2.20,5.37
41.9000,-0.01,0.04,-1.01,2.69,1.95,9.52
41.9160,0.02,0.08,-1.00,2.81,1.65,7.87
41.9320,0.06,0.11,-1.00,3.30,2.50,2.69
41.9460,0.05,0.12,-1.00,2.75,2.99,2.38
41.9620,0.11,0.18,-0.98,3.11,2.81,1.65
41.9770,0.03,0.11,-0.99,4.03,3.66,-4.39
41.9880,0.03,0.11,-1.00,3.91,3.78,-2.87
42.0050,0.02,0.06,-1.00,3.60,3.05,-1.89
42.0220,0.04,0.11,-1.00,3.30,2.38,1.46
42.0380,0.05,0.12,-0.99,3.11,2.62,1.77
42.0540,0.07,0.13,-0.99,3.23,2.56,1.40
42.0700,0.06,0.13,-0.99,3.72,3.30,1.04
42.0860,0.04,0.10,-1.00,3.72,2.69,3.36
42.1010,0.04,0.10,-1.00,3.66,2.69,3.60
42.1160,0.04,0.11,-1.00,3.91,2.75,2.44
42.1320,0.04,0.11,-1.00,3.54,2.38,2.38
42.1480,0.05,0.11,-1.00,3.42,1.95,1.77
42.1620,0.06,0.12,-0.99,2.75,2.62,1.53
42.1770,0.06,0.13,-0.99,2.93,2.69,0.00
42.1890,0.03,0.07,-1.02,3.23,2.99,-1.22
42.2060,0.05,0.10,-1.00,3.11,3.23,1.95
42.2210,0.02,-0.03,-1.02,2.32,1.95,7.87
42.2390,0.11,0.14,-0.99,2.62,1.77,9.34
42.2560,-0.00,0.23,-1.00,4.82,4.09,-7.08
42.2710,0.05,0.12,-0.98,4.39,3.11,-0.79
42.2870,0.06,0.11,-0.99,3.23,2.93,1.95
42.3030,0.05,0.11,-1.00,3.23,2.93,2.14
42.3180,0.05,0.12,-1.00,3.48,2.56,1.83
42.3330,0.06,0.12,-0.99,3.54,2.26,1.77
42.3490,0.06,0.12,-1.00,3.42,2.93,1.95
42.3640,0.04,0.12,-0.99,3.48,2.62,2.08
42.3790,0.04,0.12,-1.00,3.36,2.56,1.77
42.3890,0.05,0.12,-1.00,3.30,2.50,1.77
42.4050,0.05,0.12,-0.99,3.48,2.62,1.89
42.4220,0.06,0.12,-0.99,3.23,2.44,1.95
42.4390,0.05,0.12,-1.00,3.36,2.44,1.83
42.4540,0.05,0.12,-1.00,3.42,2.75,1.83
42.4700,0.05,0.12,-0.99,3.48,2.56,1.83
42.4860,0.06,0.12,-0.99,3.36,2.50,1.95
42.5010,0.05,0.12,-1.00,3.30,2.62,2.08
42.5160,0.04,0.12,-1.00,3.48,2.69,1.95
42.5320,0.05,0.12,-1.00,3.42,3.05,2.08
42.5480,0.05,0.12,-1.00,3.30,2.62,1.95
42.5630,0.06,0.11,-0.99,3.23,2.93,1.83
42.5780,0.05,0.11,-1.00,3.23,2.56,1.83
42.5880,0.05,0.11,-1.00,3.05,2.69,2.01
42.6050,0.05,0.11,-1.00,3.30,2.81,1.95
42.6230,0.05,0.11,-0.99,3.48,2.56,1.95
42.6390,0.05,0.11,-1.00,3.36,2.62,1.71
42.6550,0.05,0.11,-1.00,3.42,2.56,1.71
42.6720,0.04,0.11,-1.00,3.23,2.50,1.89
42.6870,0.05,0.11,-1.00,3.42,2.56,1.95
42.7030,0.06,0.11,-0.99,3.36,2.44,1.89
42.7180,0.05,0.11,-1.00,3.30,2.50,1.83
42.7330,0.05,0.12,-0.99,3.36,2.69,1.77
42.7490,0.05,0.12,-1.00,3.48,2.56,1.71
42.7650,0.05,0.12,-1.00,3.42,2.69,1.95
42.7720,0.05,0.12,-0.99,3.23,2.99,1.83
42.7880,0.05,0.12,-1.00,3.30,2.99,1.83
42.8110,0.05,0.12,-0.99,3.36,2.75,2.01
42.8260,0.05,0.12,-1.00,3.17,2.87,1.95
42.8430,0.06,0.12,-0.99,3.36,2.62,1.95
42.8590,0.06,0.12,-0.99,3.36,2.93,1.89
42.8760,0.05,0.12,-0.99,3.30,2.87,1.89
42.8920,0.05,0.12,-1.00,3.17,2.75,1.83
42.9080,0.05,0.12,-0.99,3.30,3.11,2.01
42.9250,0.05,0.12,-1.00,3.36,3.05,1.89
42.9410,0.05,0.12,-0.99,3.48,2.87,1.95
42.9560,0.05,0.12,-1.00,3.11,2.93,2.01
42.9600,0.05,0.12,-0.99,3.30,2.93,2.01
42.9840,0.05,0.11,-0.99,3.36,2.62,1.89
42.9930,0.06,0.11,-0.99,3.42,2.93,1.83
43.0150,0.05,0.11,-1.00,3.11,2.87,1.89
43.0310,0.05,0.11,-1.00,3.23,3.05,1.77
43.0490,0.05,0.11,-1.00,3.36,2.56,1.77
43.0650,0.05,0.11,-1.00,3.17,2.56,1.89
43.0820,0.05,0.11,-1.00,3.30,2.56,1.83
43.0980,0.05,0.11,-1.00,3.30,2.75,1.89
43.1140,0.05,0.11,-1.00,3.42,3.05,1.89
43.1160,0.05,0.11,-1.00,3.36,2.81,2.08
43.1320,0.05,0.11,-0.99,3.48,2.69,1.95
43.1610,0.05,0.12,-1.00,3.36,2.81,1.89
43.1760,0.05,0.12,-1.00,3.42,2.81,1.71
43.1870,0.05,0.12,-0.99,3.60,2.01,1.77
43.2040,0.05,0.12,-1.00,3.48,2.50,1.89
43.2200,0.05,0.12,-1.00,3.42,2.44,1.83
43.2370,0.05,0.12,-0.99,3.36,2.81,2.01
43.2540,0.05,0.12,-0.99,3.17,2.93,1.89
43.2690,0.05,0.12,-0.99,3.42,2.69,1.71
43.2860,0.05,0.12,-0.99,3.23,2.62,1.95
43.3010,0.05,0.12,-1.00,3.17,2.75,1.89
43.3160,0.05,0.12,-1.00,3.30,2.69,1.89
43.3310,0.05,0.12,-1.00,3.54,2.50,2.01
43.3460,0.05,0.12,-1.00,3.36,2.56,1.77
43.3600,0.05,0.12,-1.00,3.17,2.62,1.83
43.3750,0.05,0.12,-0.99,3.36,2.69,1.89
43.3870,0.05,0.11,-1.00,3.36,2.81,2.01
43.4030,0.05,0.11,-0.99,3.48,2.62,1.89
43.4200,0.05,0.11,-0.99,3.30,2.32,1.89
43.4350,0.05,0.11,-1.00,3.11,2.99,1.83
43.4510,0.05,0.11,-1.00,3.48,3.11,2.01
43.4660,0.05,0.11,-1.00,3.42,2.81,1.95
43.4810,0.05,0.11,-1.00,3.23,2.38,1.95
43.4960,0.05,0.11,-0.99,3.17,2.38,1.83
43.5100,0.05,0.11,-1.00,3.42,2.62,1.89
43.5260,0.05,0.11,-1.00,3.48,2.62,1.89
43.5370,0.05,0.11,-1.00,3.36,2.99,1.89
43.5530,0.05,0.11,-1.00,3.36,2.32,1.83
43.5710,0.05,0.11,-0.99,3.66,2.56,1.83
43.5870,0.05,0.12,-1.00,3.23,3.11,1.83
43.6040,0.05,0.12,-1.00,3.36,2.75,1.83
43.6190,0.05,0.12,-0.99,3.23,3.17,1.89
43.6350,0.05,0.12,-0.99,3.36,2.75,1.95
43.6510,0.05,0.12,-1.00,3.36,2.62,1.83
43.6670,0.05,0.12,-0.99,3.48,2.50,1.83
43.6830,0.05,0.12,-1.00,3.36,2.26,1.89
43.6870,0.05,0.12,-0.99,3.48,2.69,1.77
43.7030,0.05,0.12,-0.99,3.36,2.56,1.89
43.7240,0.05,0.12,-0.99,3.48,2.56,1.83
43.7410,0.05,0.12,-1.00,3.30,2.32,1.77
43.7590,0.05,0.12,-1.00,3.36,2.26,1.83
43.7740,0.05,0.12,-1.00,3.42,2.32,1.77
43.7900,0.05,0.11,-0.99,3.54,2.38,1.77
43.8080,0.05,0.11,-1.00,3.48,2.56,1.83
43.8240,0.05,0.12,-1.00,3.17,2.50,1.83
43.8410,0.05,0.11,-0.99,3.42,2.69,1.89
43.8570,0.05,0.11,-0.99,3.36,2.38,1.71
43.8720,0.05,0.11,-0.99,3.42,2.62,2.01
43.8880,0.05,0.11,-1.00,3.42,2.62,1.83
43.8900,0.05,0.11,-1.00,3.30,2.69,1.83
43.9190,0.05,0.12,-1.00,3.36,2.62,1.89
43.9350,0.05,0.11,-0.99,3.48,2.38,1.89
43.9500,0.05,0.11,-1.00,3.23,2.56,1.83
43.9600,0.05,0.11,-1.00,3.48,2.38,1.77
43.9770,0.05,0.12,-0.99,3.48,2.75,1.83
43.9930,0.05,0.12,-0.99,3.48,2.26,1.89
44.0100,0.05,0.12,-0.99,3.48,2.56,1.77
44.0280,0.05,0.12,-0.99,3.17,2.93,2.01
44.0430,0.05,0.12,-1.00,3.48,2.44,1.89
44.0590,0.05,0.12,-1.00,3.42,2.26,1.83
44.0740,0.06,0.13,-1.01,1.95,2.81,2.01
44.0890,0.14,0.31,-1.03,-2.62,4.21,-2.62
44.1040,0.02,0.05,-0.89,-8.24,8.24,-19.84
44.1140,-0.02,0.03,-0.95,5.43,6.23,-20.69
44.1320,0.02,0.12,-1.16,17.15,1.83,-6.41
44.1470,0.06,0.08,-0.95,5.43,1.83,3.72
44.1640,0.06,0.09,-1.00,4.27,2.01,1.83
44.1810,0.05,0.11,-1.00,3.91,2.32,1.83
44.1970,0.05,0.11,-0.99,3.85,1.83,1.71
44.2140,0.05,0.11,-1.00,3.78,2.08,1.83
44.2150,0.05,0.11,-1.00,3.66,2.62,2.01
44.2460,0.05,0.11,-1.00,3.60,2.75,1.83
44.2620,0.05,0.11,-1.00,3.11,2.69,1.89
44.2780,0.05,0.10,-1.00,2.99,2.56,1.71
44.2940,0.06,0.10,-1.00,3.05,2.50,1.53
44.3100,0.04,0.11,-1.00,2.81,2.87,1.65
44.3250,0.04,0.11,-1.00,2.81,2.56,1.53
44.3310,0.05,0.12,-1.01,2.38,2.62,1.65
44.3590,0.05,0.11,-0.99,-6.47,4.21,1.28
44.3760,0.05,0.10,-0.98,-5.13,4.09,1.22
44.3920,0.04,0.09,-0.98,-0.12,3.17,1.53
44.4080,0.04,0.10,-0.99,5.13,2.62,1.95
44.4240,0.05,0.10,-0.98,8.48,2.08,2.20
44.4310,0.05,0.11,-1.00,9.64,1.89,2.20
44.4460,0.05,0.12,-1.00,8.30,1.89,2.08
44.4690,0.05,0.13,-1.01,7.93,2.01,1.77
44.4840,0.06,0.14,-1.02,5.07,2.08,1.71
44.4990,0.04,0.10,-0.98,3.60,2.38,1.71
44.5040,0.05,0.12,-1.00,3.11,2.32,1.71
44.5190,0.05,0.13,-1.01,2.50,2.50,1.46
44.5420,0.05,0.11,-0.99,-0.67,3.05,1.59
44.5570,0.05,0.11,-0.99,0.73,2.87,1.46
44.5740,0.05,0.11,-0.99,1.89,2.44,1.65
44.5910,0.04,0.11,-0.99,3.05,2.38,1.71
44.6080,0.04,0.10,-0.98,4.39,2.38,1.77
44.6250,0.05,0.10,-0.99,6.84,1.34,1.77
44.6410,0.05,0.11,-0.99,6.65,1.65,2.08
44.6570,0.07,0.11,-1.03,6.53,1.77,1.83
44.6740,0.05,0.11,-1.01,4.03,1.59,1.77
44.6900,0.04,0.11,-1.00,4.33,2.01,1.83
44.7050,0.05,0.10,-1.00,3.85,2.26,1.71
44.7070,0.05,0.10,-1.00,3.11,2.38,2.75
44.7230,0.05,0.11,-1.00,2.32,2.26,3.78
44.7450,0.05,0.12,-1.00,2.32,2.38,4.03
44.7610,0.05,0.12,-0.99,2.20,2.50,2.87
44.7780,0.05,0.16,-1.05,1.28,2.75,2.01
44.7950,0.06,0.10,-0.97,-4.03,3.66,2.01
44.8120,0.06,0.11,-0.99,-1.40,3.42,1.53
44.8270,0.04,0.11,-1.00,-1.40,3.36,1.46
44.8440,0.04,0.10,-0.99,-3.17,3.97,1.40
44.8600,0.04,0.08,-0.97,0.85,2.69,1.46
44.8750,0.05,0.10,-0.99,7.14,1.83,1.89
44.8870,0.05,0.11,-1.00,8.30,1.71,2.14
44.8940,0.02,0.09,-1.02,5.55,1.95,2.81
44.9170,0.06,0.10,-1.00,1.53,1.83,6.65
44.9350,0.05,0.10,-1.00,1.22,1.53,7.14
44.9500,0.07,0.12,-1.01,0.85,1.83,7.51
44.9660,0.05,0.12,-1.00,-3.97,2.99,5.55
44.9680,0.04,0.09,-0.98,-3.54,3.23,3.60
44.9870,0.05,0.10,-1.00,0.92,2.62,3.23
45.0120,0.07,0.07,-0.94,10.86,0.55,2.50
45.0200,0.12,0.44,-1.29,50.48,-5.07,4.39
45.0430,0.03,0.11,-0.96,5.49,1.59,1.89
45.0540,0.05,0.12,-1.01,4.21,1.89,1.89
45.0700,0.05,0.12,-0.99,3.72,1.65,1.59
45.0870,0.06,0.11,-0.99,3.54,1.83,1.71
45.1030,0.06,0.10,-0.99,3.42,2.14,2.01
45.1200,0.04,0.11,-0.99,2.93,2.69,3.23
45.1350,0.03,0.11,-1.00,2.26,2.87,3.36
45.1500,0.06,0.10,-0.99,1.89,2.69,3.17
45.1660,0.07,0.13,-1.05,0.92,3.17,2.87
45.1820,0.04,0.09,-1.02,-6.41,3.54,3.97
45.1980,0.04,0.07,-0.99,-6.16,3.17,5.92
45.2140,0.05,0.10,-0.97,0.31,2.26,5.86
45.2200,0.05,0.10,-1.00,4.52,1.71,3.54
45.2360,0.07,0.11,-1.00,3.23,2.20,3.36
45.2580,0.04,0.11,-1.00,1.34,3.11,2.01
45.2750,0.03,0.08,-0.97,0.79,2.50,1.22
45.2910,0.05,0.12,-1.01,6.29,1.59,1.53
45.3080,0.05,0.13,-1.00,4.15,1.83,2.08
45.3240,0.03,0.15,-1.01,1.77,1.77,7.69
45.3410,0.04,0.13,-1.00,-2.87,1.89,12.63
45.3560,0.05,0.09,-0.98,-2.87,2.14,10.50
45.3710,0.05,0.10,-0.90,6.35,0.98,6.71
45.3870,0.06,0.16,-0.98,34.24,-1.95,0.00
45.4030,0.07,0.18,-1.08,6.10,2.62,-6.16
45.4180,0.05,0.10,-1.01,5.49,3.54,-6.59
45.4330,0.05,0.05,-1.04,4.58,3.66,-7.20
45.4410,0.01,0.04,-1.01,4.15,3.11,-4.27
45.4590,0.05,0.11,-0.99,3.60,2.38,2.01
45.4750,0.05,0.11,-1.00,3.36,2.20,1.77
45.4920,0.05,0.11,-1.00,3.30,2.56,1.83
45.5080,0.05,0.11,-1.00,3.30,2.50,1.95
45.5240,0.05,0.11,-1.00,3.42,2.62,1.83
45.5410,0.05,0.11,-0.99,3.42,2.62,1.89
45.5580,0.05,0.11,-1.00,3.30,2.69,1.83
45.5740,0.04,0.11,-1.00,3.42,2.75,1.83
45.5900,0.05,0.11,-0.99,3.30,2.87,1.89
45.5920,0.05,0.10,-0.99,3.42,1.83,2.01
45.6080,0.05,0.11,-1.00,3.54,1.95,1.89
45.6290,0.05,0.11,-1.00,3.97,2.32,1.83
45.6470,0.05,0.11,-0.99,3.85,2.38,1.83
45.6640,0.05,0.12,-0.99,3.66,3.05,1.65
45.6800,0.05,0.11,-0.99,3.36,3.05,1.59
45.6960,0.04,0.12,-0.99,2.87,3.05,1.95
45.7130,0.04,0.09,-0.99,1.77,2.81,1.46
45.7290,0.06,0.14,-0.98,2.08,3.78,-2.32
45.7460,0.06,0.15,-1.03,-2.99,4.82,1.65
45.7620,0.05,0.14,-1.02,-11.66,4.94,0.67
45.7780,0.08,0.17,-0.97,-13.79,5.25,-3.60
45.7940,0.07,0.15,-0.77,4.52,3.97,-8.61
45.7970,0.08,0.08,-0.97,45.10,-1.40,-13.12
45.8260,-0.02,0.03,-1.11,8.79,4.39,-13.24
45.8420,0.05,0.13,-1.03,3.85,3.30,-0.43
45.8460,0.04,0.13,-1.00,3.36,2.81,1.89
45.8620,0.06,0.12,-0.99,3.48,2.38,1.77
45.8840,0.06,0.11,-0.99,3.36,2.50,1.77
45.9010,0.05,0.12,-1.00,3.11,2.93,1.89
45.9170,0.04,0.11,-1.00,3.11,2.81,1.89
45.9310,0.05,0.11,-0.99,3.17,2.50,1.89
45.9470,0.05,0.11,-0.99,3.23,2.62,1.89
45.9620,0.05,0.11,-1.00,3.23,2.50,1.95
45.9770,0.05,0.10,-1.00,3.42,2.81,1.89
45.9910,0.04,0.11,-1.00,3.30,2.75,1.89
46.0070,0.05,0.10,-1.00,3.11,2.69,1.83
46.0170,0.06,0.10,-0.99,3.30,2.32,1.83
46.0340,0.06,0.11,-0.99,3.36,2.56,2.01
46.0510,0.05,0.11,-1.00,3.36,2.99,1.89
46.0670,0.05,0.11,-1.00,3.30,2.69,1.89
46.0820,0.05,0.11,-1.00,3.48,2.87,2.01
46.0970,0.05,0.12,-0.99,3.42,2.93,1.95
46.1120,0.06,0.11,-0.99,3.42,3.23,1.89
46.1270,0.04,0.12,-1.00,3.36,2.93,2.01
46.1410,0.04,0.12,-1.00,3.23,2.93,1.95
46.1570,0.06,0.12,-0.99,3.48,2.56,1.83
46.1670,0.06,0.12,-0.99,3.30,3.05,1.95
46.1840,0.05,0.13,-0.99,3.42,2.38,1.71
46.1990,0.05,0.12,-1.00,3.30,2.62,1.89
46.2180,0.05,0.13,-0.99,3.42,2.87,1.77
46.2330,0.05,0.13,-0.99,3.36,2.38,1.71
46.2490,0.06,0.12,-1.00,3.30,2.81,1.71
46.2520,0.05,0.12,-0.99,3.23,2.81,1.83
46.2680,0.04,0.13,-1.00,3.17,3.11,1.83
46.2910,0.05,0.12,-0.99,3.11,2.38,1.77
46.3090,0.06,0.12,-1.00,3.05,2.56,1.89
46.3250,0.05,0.12,-1.00,3.36,2.75,2.01
46.3410,0.05,0.12,-0.99,3.36,2.44,1.83
46.3430,0.05,0.12,-1.00,3.42,2.32,1.83
46.3590,0.05,0.12,-1.00,3.30,2.75,1.89
46.3890,0.06,0.11,-0.99,3.30,2.81,1.77
46.3920,0.05,0.11,-0.99,3.36,2.81,2.08
46.4080,0.04,0.11,-1.00,3.30,3.05,1.95
46.4250,0.05,0.11,-1.00,3.17,2.81,1.83
46.4430,0.05,0.11,-0.99,3.23,3.11,1.89
46.4590,0.05,0.11,-1.00,3.42,2.44,1.89
46.4760,0.05,0.11,-1.00,3.30,2.87,2.01
46.4920,0.05,0.11,-1.00,3.48,2.87,2.08
46.5080,0.05,0.11,-1.00,3.30,2.62,1.89
46.5270,0.05,0.11,-0.99,3.42,2.69,1.83
46.5450,0.05,0.11,-1.00,3.17,2.87,1.89
46.5620,0.04,0.12,-1.00,3.30,2.62,2.01
46.5780,0.05,0.12,-1.00,3.11,2.81,1.83
46.5940,0.05,0.12,-1.00,3.30,2.99,1.89
46.6100,0.06,0.12,-0.99,3.30,2.93,1.89
46.6260,0.05,0.12,-0.99,3.30,2.50,1.77
46.6420,0.05,0.12,-1.00,3.54,2.56,1.77
46.6440,0.05,0.12,-1.00,3.23,2.99,1.83
46.6600,0.05,0.12,-0.99,3.36,2.56,1.77
46.6830,0.05,0.12,-0.99,3.42,2.38,1.89
46.6990,0.05,0.12,-0.99,3.36,2.56,1.77
46.7160,0.05,0.12,-0.99,3.23,2.69,1.89
46.7330,0.05,0.12,-1.00,3.23,2.81,2.01
46.7490,0.05,0.12,-0.99,3.17,2.69,1.89
46.7500,0.05,0.12,-0.99,3.30,2.69,1.83
46.7810,0.05,0.12,-1.00,3.23,3.11,1.95
46.7960,0.05,0.12,-1.00,3.30,2.62,1.95
46.8120,0.05,0.12,-0.99,3.17,2.56,1.95
46.8290,0.05,0.11,-1.00,3.17,3.05,1.89
46.8440,0.05,0.11,-1.00,3.17,2.62,1.89
46.8490,0.05,0.11,-0.99,3.48,2.44,1.83
46.8650,0.05,0.11,-0.99,3.23,3.17,2.01
46.8870,0.05,0.11,-1.00,3.17,2.69,1.83
46.9040,0.06,0.11,-0.99,3.23,2.69,1.77
46.9200,0.05,0.11,-1.00,3.17,2.99,1.89
46.9350,0.05,0.11,-1.00,3.36,3.17,2.01
46.9380,0.05,0.11,-1.00,3.30,2.87,1.89
46.9660,0.05,0.11,-0.99,3.30,2.93,1.95
46.9820,0.05,0.11,-0.99,3.42,2.56,1.95
46.9980,0.05,0.12,-0.99,3.30,3.23,1.95
47.0140,0.05,0.12,-1.00,3.23,2.38,1.83
47.0290,0.05,0.12,-0.99,3.11,2.99,2.01
47.0370,0.05,0.12,-0.99,3.30,3.05,1.95
47.0600,0.05,0.12,-0.99,3.48,3.36,1.83
47.0710,0.05,0.12,-1.00,3.30,2.69,1.71
47.0870,0.05,0.12,-1.00,3.23,2.69,1.83
47.1050,0.05,0.12,-0.99,3.30,2.44,1.89
47.1200,0.05,0.12,-0.99,3.17,2.99,1.89
47.1350,0.05,0.12,-1.00,3.48,2.93,2.08
47.1380,0.05,0.12,-0.99,3.17,2.75,1.89
47.1540,0.05,0.12,-1.00,3.30,2.38,1.83
47.1750,0.05,0.12,-0.99,3.30,2.75,1.89
47.1920,0.05,0.12,-0.99,3.30,2.75,2.08
47.2100,0.05,0.12,-1.00,3.36,2.38,1.95
47.2260,0.05,0.12,-1.00,3.36,2.62,1.71
47.2440,0.05,0.11,-0.99,3.42,2.87,1.77
47.2590,0.05,0.11,-0.99,3.54,2.62,1.83
47.2760,0.05,0.11,-1.00,3.23,2.81,1.89
47.2910,0.05,0.11,-1.00,3.36,2.81,1.77
47.3080,0.05,0.11,-1.00,3.23,2.93,1.83
47.3230,0.05,0.11,-0.99,3.54,2.50,1.89
47.3260,0.05,0.11,-0.99,3.36,2.93,2.08
47.3420,0.05,0.11,-0.99,3.05,2.81,1.95
47.3670,0.05,0.11,-1.00,3.30,3.17,1.95
47.3830,0.05,0.11,-1.00,3.42,2.81,1.89
47.3910,0.05,0.11,-0.99,3.17,2.75,1.77
47.4140,0.05,0.12,-1.00,3.30,2.99,1.89
47.4310,0.05,0.12,-0.99,3.30,2.56,1.77
47.4470,0.05,0.12,-0.99,3.42,2.81,1.89
47.4630,0.05,0.12,-0.99,3.17,3.23,1.83
47.4790,0.05,0.12,-1.00,3.48,2.81,1.77
47.4940,0.05,0.12,-1.00,3.42,2.93,1.89
47.5000,0.05,0.12,-1.00,3.42,3.05,1.95
47.5150,0.05,0.12,-1.00,3.42,2.75,1.83
47.5400,0.05,0.12,-1.00,3.30,2.93,1.95
47.5400,0.05,0.12,-1.00,3.30,2.87,1.89
47.5560,0.05,0.12,-1.00,3.36,2.99,1.95
47.5870,0.05,0.12,-0.99,3.42,2.87,1.77
47.6030,0.05,0.12,-0.99,3.42,2.81,1.95
47.6190,0.05,0.12,-0.99,3.17,2.81,1.95
47.6230,0.05,0.12,-1.00,3.23,2.75,2.01
47.6500,0.05,0.12,-1.00,3.30,2.93,1.89
47.6660,0.05,0.12,-1.00,3.36,3.23,2.08
47.6820,0.05,0.11,-1.00,3.36,2.50,1.89
47.6950,0.05,0.11,-0.99,3.30,2.69,1.89
47.7050,0.05,0.11,-1.00,3.23,2.75,1.95
47.7220,0.05,0.11,-1.00,3.48,2.69,2.01
47.7380,0.05,0.11,-1.00,3.30,2.87,2.01
47.7560,0.05,0.11,-1.00,3.11,2.44,2.14
47.7720,0.03,0.00,-1.02,2.69,2.50,4.39
47.7880,-0.09,-0.04,-1.03,2.50,1.10,13.24
47.8040,-0.06,-0.03,-1.03,2.44,0.55,14.89
47.8200,0.05,0.12,-1.00,2.01,-0.18,20.87
47.8350,0.18,0.25,-0.96,2.01,0.73,17.15
47.8500,0.17,0.28,-0.96,2.56,1.46,10.50
47.8650,0.05,0.14,-1.00,2.81,2.81,2.62
47.8800,0.05,0.13,-1.00,3.30,2.87,1.83
47.8950,0.05,0.12,-0.99,3.17,2.87,1.95
47.9060,0.05,0.12,-1.00,3.23,2.87,2.08
47.9220,0.05,0.12,-0.99,3.54,2.81,1.77
47.9390,0.05,0.12,-0.99,3.11,3.05,1.83
47.9560,0.05,0.12,-1.00,3.17,2.93,1.83
47.9720,0.05,0.11,-0.99,3.36,2.93,1.83
47.9870,0.05,0.10,-0.99,3.17,2.93,2.01
48.0030,0.05,0.10,-0.99,2.99,2.56,4.76
48.0050,0.06,0.14,-0.99,2.93,2.38,5.07
48.0210,0.18,0.37,-0.95,3.17,3.17,-0.61
48.0370,0.11,0.33,-0.96,6.16,7.08,-24.05
48.0590,-0.06,-0.06,-1.04,5.98,5.43,-13.85
48.0760,0.06,0.01,-1.00,2.56,1.77,11.17
48.0930,0.07,0.10,-1.00,2.99,3.17,1.89
