Timestamp, AccX, AccY, AccZ, GyroX, GyroY, GyroZ
0.0120,0.07,0.11,-0.99,3.17,1.53,1.34
0.0270,0.08,0.09,-0.99,3.17,1.95,1.46
0.0420,0.02,0.11,-1.01,3.17,1.77,2.01
0.0570,0.03,0.12,-1.00,3.23,1.22,1.77
0.0720,0.10,0.09,-0.98,3.30,1.16,1.22
0.0830,0.06,0.12,-0.99,3.30,1.71,2.01
0.0990,0.03,0.13,-1.00,3.42,1.83,1.59
0.1170,0.04,0.11,-1.00,3.36,1.83,1.22
0.1310,0.06,0.12,-0.99,3.30,1.16,1.83
0.1470,0.07,0.13,-0.99,3.23,1.46,1.77
0.1610,0.08,0.11,-0.99,3.23,2.01,1.34
0.1770,0.05,0.12,-0.99,3.23,1.95,1.71
0.1920,0.02,0.14,-1.00,3.17,1.65,1.83
0.2070,0.06,0.12,-0.99,3.11,1.16,1.28
0.2220,0.08,0.12,-0.98,3.30,1.16,1.71
0.2370,0.06,0.13,-0.99,3.11,1.89,1.77
0.2490,0.04,0.13,-1.00,3.30,1.89,1.59
0.2660,0.04,0.12,-1.00,2.99,1.89,1.83
0.2820,0.06,0.13,-0.99,3.17,1.59,1.77
0.2970,0.08,0.12,-0.98,3.23,1.53,1.53
0.3120,0.08,0.12,-0.99,3.30,1.89,1.59
0.3270,0.03,0.13,-1.00,3.36,1.83,1.83
0.3420,0.04,0.12,-1.00,3.23,1.34,1.53
0.3570,0.07,0.11,-0.99,3.23,1.28,1.59
0.3720,0.07,0.12,-0.99,3.23,1.53,1.83
0.3870,0.06,0.12,-0.99,3.17,1.71,1.77
0.4000,0.04,0.11,-1.00,3.11,2.08,1.77
0.4170,0.04,0.12,-1.00,3.17,1.34,1.83
0.4330,0.07,0.11,-0.99,3.23,1.71,1.40
0.4500,0.07,0.11,-0.99,3.30,1.65,1.53
0.4650,0.04,0.12,-1.00,3.42,2.08,1.71
0.4810,0.03,0.12,-1.00,3.36,1.77,1.71
0.4960,0.05,0.11,-1.00,3.30,1.10,1.71
0.5100,0.07,0.11,-0.99,3.36,1.40,1.71
0.5260,0.06,0.11,-0.99,3.17,1.34,1.53
0.5410,0.05,0.11,-1.00,3.23,1.77,1.53
0.5560,0.04,0.12,-1.00,3.36,2.14,1.65
0.5710,0.05,0.12,-0.99,3.23,1.53,1.65
0.5820,0.07,0.11,-0.99,3.23,1.16,1.77
0.5990,0.06,0.12,-0.99,3.30,1.65,1.71
0.6160,0.04,0.12,-1.00,3.30,1.95,1.77
0.6330,0.04,0.12,-1.00,3.42,1.46,1.59
0.6490,0.06,0.12,-0.99,3.17,1.28,1.65
0.6640,0.07,0.12,-0.99,3.36,1.77,1.71
0.6800,0.06,0.12,-0.99,3.30,1.59,1.59
0.6950,0.04,0.13,-1.00,3.11,1.71,1.71
0.7110,0.05,0.13,-0.99,3.36,1.59,1.34
0.7180,0.07,0.12,-0.99,3.30,1.59,1.65
0.7420,0.07,0.12,-0.99,3.05,1.53,1.59
0.7580,0.05,0.12,-1.00,3.36,2.01,1.71
0.7730,0.04,0.12,-1.00,3.30,1.40,1.59
0.7880,0.05,0.12,-0.99,3.11,1.53,1.59
0.7990,0.07,0.12,-0.99,3.36,1.53,1.65
0.8180,0.07,0.12,-0.99,3.17,1.53,1.59
0.8330,0.05,0.12,-1.00,2.99,1.83,1.65
0.8490,0.04,0.12,-1.00,3.23,2.08,1.59
0.8650,0.06,0.12,-0.99,3.23,1.71,1.59
0.8800,0.06,0.11,-0.99,3.17,1.83,1.59
0.8950,0.05,0.11,-0.99,3.36,1.40,1.59
0.9110,0.05,0.11,-1.00,3.23,1.59,1.40
0.9260,0.05,0.11,-1.00,3.30,1.83,1.77
0.9410,0.06,0.11,-0.99,2.99,1.46,1.53
0.9520,0.07,0.11,-0.99,3.30,1.77,1.59
0.9690,0.05,0.12,-0.99,3.17,1.77,1.59
0.9860,0.05,0.12,-1.00,3.42,1.65,1.65
1.0030,0.05,0.12,-0.99,3.17,1.53,1.71
1.0180,0.06,0.12,-0.99,3.11,1.59,1.53
1.0340,0.06,0.12,-0.99,3.11,1.40,1.53
1.0480,0.05,0.12,-0.99,3.36,1.89,1.59
1.0520,0.05,0.12,-1.00,3.23,1.71,1.59
1.0800,0.06,0.12,-0.99,3.17,1.28,1.77
1.0940,0.06,0.12,-0.99,3.17,1.53,1.65
1.1090,0.06,0.12,-0.99,3.11,2.08,1.71
1.1200,0.05,0.12,-0.99,3.11,1.77,1.59
1.1370,0.05,0.12,-0.99,3.30,1.59,1.65
1.1540,0.06,0.12,-0.99,3.17,1.46,1.65
1.1700,0.06,0.12,-0.99,3.23,1.34,1.59
1.1860,0.06,0.12,-0.99,3.23,1.71,1.59
1.2010,0.05,0.12,-0.99,3.11,1.95,1.77
1.2150,0.05,0.12,-0.99,3.23,1.53,1.46
1.2300,0.06,0.12,-0.99,3.36,1.40,1.59
1.2360,0.06,0.12,-0.99,3.11,1.65,1.65
1.2530,0.06,0.12,-0.99,3.17,1.89,1.59
1.2720,0.05,0.12,-1.00,3.23,1.65,1.71
1.2890,0.05,0.12,-0.99,3.23,1.65,1.77
1.3060,0.06,0.12,-0.99,3.23,1.46,1.59
1.3220,0.06,0.12,-0.99,3.11,2.32,1.71
1.3380,0.05,0.12,-0.99,3.17,1.65,1.71
1.3550,0.05,0.12,-1.00,3.23,1.77,1.71
1.3710,0.06,0.11,-0.99,3.23,1.71,1.77
1.3730,0.06,0.11,-0.99,3.23,1.83,1.53
1.4020,0.06,0.12,-0.99,3.11,1.83,1.71
1.4180,0.05,0.12,-1.00,3.30,1.89,1.65
1.4340,0.05,0.12,-0.99,2.99,1.83,1.65
1.4420,0.06,0.12,-0.99,3.11,1.59,1.71
1.4580,0.06,0.12,-0.99,3.05,1.59,1.71
1.4740,0.05,0.12,-0.99,3.42,1.95,1.65
1.4930,0.05,0.12,-1.00,3.23,1.34,1.46
1.5080,0.06,0.12,-0.99,3.11,1.83,1.65
1.5240,0.06,0.12,-0.99,3.11,1.53,1.77
1.5410,0.06,0.12,-0.99,3.36,1.77,1.59
1.5580,0.05,0.12,-0.99,3.05,1.95,1.71
1.5740,0.05,0.12,-0.99,3.23,1.83,1.65
1.5900,0.06,0.12,-0.99,3.30,1.89,1.71
1.6050,0.06,0.12,-0.99,3.42,1.46,1.53
1.6180,0.06,0.12,-0.99,3.42,1.71,1.65
1.6380,0.05,0.12,-0.99,3.30,2.08,1.77
1.6530,0.05,0.12,-0.99,3.05,1.95,1.65
1.6610,0.06,0.12,-0.99,3.23,1.71,1.65
1.6770,0.06,0.12,-0.99,3.42,1.46,1.77
1.7000,0.05,0.12,-0.99,3.30,1.53,1.83
1.7150,0.05,0.12,-1.00,3.17,1.89,1.65
1.7300,0.05,0.12,-0.99,3.23,1.77,1.53
1.7450,0.06,0.12,-0.99,3.36,1.40,1.53
1.7600,0.06,0.12,-0.99,3.48,1.53,1.59
1.7760,0.05,0.12,-0.99,3.23,1.53,1.40
1.7900,0.05,0.12,-0.99,3.42,1.40,1.71
1.8040,0.06,0.12,-0.99,3.11,1.65,1.77
1.8190,0.06,0.12,-0.99,3.23,2.08,1.71
1.8320,0.06,0.12,-0.99,3.05,1.89,1.71
1.8480,0.05,0.12,-1.00,3.17,1.89,1.83
1.8650,0.05,0.12,-1.00,3.17,1.53,1.65
1.8800,0.06,0.12,-0.99,3.23,1.71,1.65
1.8950,0.06,0.12,-0.99,3.11,1.59,1.77
1.9100,0.06,0.12,-0.99,3.23,1.46,1.65
1.9270,0.05,0.12,-1.00,3.17,1.71,1.59
1.9430,0.05,0.12,-0.99,2.99,1.77,1.65
1.9590,0.06,0.12,-0.99,3.23,1.59,1.59
1.9750,0.06,0.12,-0.99,3.23,1.46,1.71
1.9900,0.05,0.12,-0.99,3.30,1.59,1.65
2.0060,0.05,0.12,-0.99,3.11,1.59,1.59
2.0210,0.05,0.12,-0.99,3.11,1.53,1.65
2.0330,0.06,0.12,-0.99,3.05,1.22,1.46
2.0490,0.06,0.12,-0.99,3.17,1.95,1.83
2.0660,0.05,0.12,-1.00,3.17,1.40,1.53
2.0830,0.05,0.12,-0.99,3.17,1.59,1.59
2.0990,0.06,0.12,-0.99,3.23,1.59,1.53
2.1150,0.06,0.12,-0.99,3.30,1.95,1.53
2.1300,0.06,0.12,-0.99,3.23,1.77,1.65
2.1450,0.05,0.12,-0.99,3.17,1.95,1.77
2.1600,0.05,0.12,-0.99,3.11,1.83,1.71
2.1760,0.06,0.12,-1.00,3.11,1.89,1.46
2.1900,0.06,0.12,-0.99,3.30,1.71,1.59
2.1990,0.06,0.12,-0.99,3.48,1.65,1.65
2.2200,0.05,0.12,-0.99,3.23,1.89,1.59
2.2340,0.05,0.12,-0.99,3.17,1.53,1.71
2.2510,0.06,0.12,-0.99,3.30,1.83,1.77
2.2670,0.06,0.12,-0.99,3.11,1.95,1.59
2.2830,0.05,0.12,-0.99,3.42,1.71,1.59
2.2970,0.05,0.12,-0.99,3.17,1.46,1.71
2.3130,0.06,0.12,-0.99,3.05,1.59,1.77
2.3280,0.06,0.12,-0.99,3.23,1.89,1.65
2.3430,0.06,0.12,-0.99,3.42,1.65,1.59
2.3590,0.05,0.12,-0.99,3.23,1.65,1.59
2.3740,0.05,0.12,-0.99,3.36,1.71,1.71
2.3890,0.06,0.12,-0.99,3.17,1.83,1.77
2.4010,0.06,0.12,-0.99,3.42,2.01,1.77
2.4190,0.05,0.12,-0.99,3.30,1.83,1.71
2.4340,0.05,0.12,-0.99,3.30,1.77,1.53
2.4520,0.06,0.12,-0.99,3.30,1.65,1.53
2.4670,0.06,0.12,-0.99,3.36,1.89,1.71
2.4680,0.06,0.12,-0.99,3.36,1.77,1.77
2.4990,0.05,0.12,-0.99,3.23,1.59,1.77
2.5140,0.05,0.12,-0.99,3.05,1.83,1.71
2.5290,0.06,0.12,-0.99,3.23,1.59,1.53
2.5450,0.06,0.12,-0.99,3.36,1.95,1.83
2.5610,0.06,0.12,-0.99,3.23,1.46,1.65
2.5760,0.05,0.12,-0.99,3.23,1.59,1.59
2.5910,0.05,0.12,-0.99,3.30,1.71,1.53
2.6060,0.06,0.12,-0.99,3.30,1.89,1.71
2.6200,0.06,0.12,-0.99,3.23,1.71,1.71
2.6340,0.05,0.12,-0.99,3.36,1.59,1.71
2.6500,0.05,0.12,-0.99,3.23,1.53,1.65
2.6670,0.06,0.12,-0.99,3.36,1.59,1.77
2.6820,0.06,0.12,-0.99,3.36,1.53,1.71
2.6970,0.06,0.12,-0.99,3.30,2.14,1.59
2.7120,0.06,0.12,-0.99,3.17,1.65,1.65
2.7200,0.05,0.12,-0.99,3.30,1.71,1.59
2.7330,0.06,0.12,-0.99,3.17,1.89,1.65
2.7530,0.06,0.12,-0.99,3.23,1.77,1.77
2.7700,0.05,0.12,-1.00,3.17,1.95,1.71
2.7860,0.06,0.12,-0.99,3.17,1.83,1.53
2.8040,0.05,0.12,-0.99,3.42,1.71,1.59
2.8200,0.06,0.12,-0.99,3.17,1.65,1.59
2.8360,0.06,0.12,-0.99,3.36,1.83,1.65
2.8520,0.06,0.12,-1.00,3.05,1.71,1.53
2.8670,0.05,0.12,-0.99,3.17,1.71,1.59
2.8820,0.06,0.12,-0.99,3.17,1.83,1.71
2.8970,0.06,0.12,-0.99,3.23,1.65,1.71
2.9120,0.06,0.12,-0.99,3.05,1.89,1.77
2.9270,0.05,0.12,-0.99,3.23,1.89,1.77
2.9420,0.06,0.12,-1.00,3.23,1.95,1.83
2.9530,0.06,0.12,-0.99,3.11,1.71,1.71
2.9690,0.06,0.12,-0.99,3.17,1.89,1.77
2.9890,0.06,0.12,-0.99,3.23,1.46,1.71
3.0050,0.06,0.12,-1.00,3.17,1.46,1.83
3.0210,0.05,0.12,-0.99,3.17,2.01,1.77
3.0360,0.06,0.12,-0.99,3.30,1.46,1.59
3.0510,0.06,0.12,-0.99,3.23,1.53,1.53
3.0660,0.05,0.12,-1.00,3.42,1.71,1.71
3.0810,0.05,0.12,-0.99,3.30,1.77,1.65
3.0900,0.06,0.12,-0.99,3.05,1.59,1.53
3.1060,0.06,0.12,-0.99,3.30,1.53,1.71
3.1260,0.06,0.12,-0.99,3.05,1.83,1.65
3.1420,0.06,0.12,-0.99,3.23,1.95,1.59
3.1570,0.05,0.12,-0.99,3.36,1.65,1.65
3.1730,0.06,0.12,-0.99,3.23,1.71,1.59
3.1790,0.06,0.12,-0.99,3.36,1.53,1.59
3.1950,0.06,0.12,-0.99,3.30,1.77,1.65
3.2150,0.05,0.12,-0.99,3.30,1.59,1.71
3.2320,0.05,0.12,-0.99,3.23,1.71,1.65
3.2490,0.06,0.12,-0.99,3.17,2.08,1.77
3.2650,0.06,0.12,-0.99,3.36,1.65,1.71
3.2810,0.06,0.12,-0.99,3.05,1.71,1.77
3.2960,0.05,0.12,-0.99,3.30,1.71,1.71
3.3110,0.06,0.12,-0.99,3.11,1.89,1.59
3.3270,0.06,0.12,-0.99,3.17,1.53,1.53
3.3330,0.06,0.12,-0.99,3.23,1.95,1.59
3.3570,0.06,0.12,-0.99,3.30,1.71,1.65
3.3720,0.05,0.12,-0.99,3.30,1.71,1.83
3.3820,0.06,0.12,-0.99,3.23,1.83,1.71
3.3990,0.06,0.12,-0.99,3.17,1.71,1.83
3.4150,0.05,0.12,-0.99,3.36,1.89,1.71
3.4330,0.05,0.12,-0.99,3.23,2.14,1.77
3.4490,0.05,0.12,-0.99,3.11,1.77,1.71
3.4640,0.05,0.12,-0.99,3.36,1.89,1.71
3.4790,0.06,0.12,-0.99,3.30,1.95,1.83
3.4950,0.05,0.12,-0.99,3.30,1.83,1.59
3.5110,0.06,0.12,-0.99,3.30,1.83,1.53
3.5260,0.06,0.12,-0.99,3.30,2.01,1.89
3.5330,0.06,0.12,-0.99,3.23,1.53,1.77
3.5490,0.05,0.12,-0.99,3.30,1.59,1.59
3.5690,0.05,0.12,-0.99,3.36,1.89,1.65
3.5870,0.05,0.12,-0.99,3.11,1.77,1.65
3.6030,0.06,0.12,-0.99,3.17,1.71,1.65
3.6200,0.06,0.12,-0.99,3.17,1.83,1.65
3.6360,0.05,0.12,-0.99,3.30,1.65,1.65
3.6520,0.06,0.12,-0.99,3.30,1.83,1.65
3.6680,0.06,0.12,-0.99,3.23,1.83,1.59
3.6830,0.06,0.12,-0.99,3.23,1.59,1.59
3.6990,0.06,0.12,-0.99,3.23,1.65,1.65
3.7140,0.06,0.12,-0.99,3.17,2.08,1.83
3.7300,0.06,0.12,-0.99,3.42,1.77,1.77
3.7450,0.06,0.12,-0.99,3.30,1.71,1.65
3.7600,0.06,0.12,-0.99,3.30,1.53,1.71
3.7750,0.06,0.12,-0.99,3.30,2.20,1.59
3.7870,0.06,0.12,-0.99,3.11,1.83,1.77
3.8030,0.05,0.12,-0.99,3.30,1.83,1.59
3.8220,0.06,0.12,-0.99,3.17,1.71,1.59
3.8360,0.06,0.12,-0.99,3.23,1.59,1.59
3.8530,0.06,0.12,-0.99,3.42,1.46,1.71
3.8700,0.05,0.12,-0.99,2.87,1.89,1.65
3.8860,0.06,0.12,-0.99,3.11,1.65,1.59
3.9020,0.06,0.12,-0.99,3.17,1.59,1.59
3.9180,0.06,0.12,-0.99,3.23,1.46,1.53
3.9220,0.06,0.12,-0.99,3.23,1.71,1.59
3.9490,0.06,0.12,-0.99,3.23,1.95,1.71
3.9560,0.06,0.12,-0.99,3.17,1.59,1.77
3.9720,0.06,0.12,-0.99,3.30,2.32,1.71
3.9880,0.06,0.12,-0.99,3.23,1.83,1.65
4.0090,0.05,0.12,-0.99,3.42,1.59,1.77
4.0250,0.06,0.12,-0.99,3.42,1.71,1.46
4.0420,0.06,0.12,-0.99,3.17,1.77,1.71
4.0430,0.06,0.12,-0.99,3.23,1.59,1.65
4.0730,0.05,0.12,-0.99,3.36,1.95,1.71
4.0890,0.05,0.12,-0.99,3.36,1.83,1.83
4.1040,0.06,0.12,-0.99,3.11,1.89,1.65
4.1200,0.06,0.12,-0.99,3.23,1.53,1.65
4.1360,0.06,0.12,-0.99,3.30,1.95,1.65
4.1520,0.06,0.12,-0.99,3.48,1.71,1.71
4.1590,0.05,0.12,-0.99,3.42,1.71,1.71
4.1740,0.06,0.12,-0.99,3.36,1.77,1.59
4.1950,0.06,0.12,-0.99,3.11,1.77,1.59
4.2110,0.05,0.12,-0.99,3.17,1.28,1.59
4.2280,0.06,0.12,-0.99,3.11,1.59,1.65
4.2450,0.06,0.12,-0.99,3.17,1.59,1.65
4.2610,0.05,0.12,-0.99,3.36,1.53,1.71
4.2760,0.05,0.12,-0.99,3.17,1.77,1.77
4.2920,0.05,0.12,-0.99,3.11,1.83,1.59
4.2950,0.06,0.12,-0.99,3.11,2.14,1.77
4.3220,0.06,0.12,-0.99,3.30,1.65,1.59
4.3380,0.06,0.12,-0.99,3.17,1.59,1.59
4.3530,0.06,0.12,-0.99,3.11,2.14,1.77
4.3680,0.05,0.12,-1.00,3.23,1.89,1.65
4.3780,0.06,0.12,-1.00,3.23,1.83,1.65
4.3950,0.06,0.12,-0.99,3.23,1.89,1.59
4.4130,0.05,0.12,-0.99,3.30,1.77,1.46
4.4280,0.06,0.12,-0.99,3.17,1.71,1.65
4.4430,0.06,0.12,-0.99,3.17,1.71,1.65
4.4590,0.06,0.12,-0.99,3.36,1.95,1.65
4.4740,0.06,0.12,-0.99,3.23,1.95,1.65
4.4800,0.06,0.12,-0.99,3.30,1.95,1.71
4.4970,0.06,0.12,-0.99,3.23,1.89,1.65
4.5180,0.05,0.12,-0.99,3.23,2.08,1.83
4.5350,0.06,0.12,-0.99,3.11,1.65,1.89
4.5520,0.06,0.12,-0.99,3.23,1.46,1.83
4.5690,0.06,0.12,-0.99,3.36,1.65,1.71
4.5840,0.05,0.12,-0.99,3.30,1.71,1.77
4.6000,0.05,0.12,-0.99,3.42,1.53,1.59
4.6160,0.06,0.12,-0.99,3.30,1.77,1.77
4.6320,0.05,0.12,-0.99,3.23,1.22,1.53
4.6350,0.06,0.12,-0.99,3.30,1.53,1.71
4.6510,0.05,0.12,-0.99,3.17,1.59,1.71
4.6730,0.06,0.12,-0.99,3.36,1.34,1.65
4.6890,0.06,0.12,-0.99,3.23,1.71,1.71
4.7050,0.06,0.12,-0.99,3.17,2.01,1.77
4.7230,0.05,0.12,-0.99,3.05,1.77,1.77
4.7390,0.05,0.12,-0.99,3.11,2.20,1.65
4.7550,0.06,0.12,-0.99,3.17,1.46,1.59
4.7720,0.06,0.12,-0.99,3.30,1.40,1.59
4.7730,0.06,0.12,-0.99,3.17,1.77,1.59
4.8040,0.05,0.12,-0.99,2.99,1.83,1.77
4.8200,0.06,0.12,-0.99,3.30,1.77,1.83
4.8350,0.06,0.12,-0.99,3.17,1.59,1.59
4.8520,0.05,0.12,-0.99,3.30,1.83,1.53
4.8560,0.05,0.12,-0.99,3.11,1.71,1.46
4.8850,0.05,0.12,-0.99,3.11,2.08,1.71
4.8910,0.05,0.12,-0.99,3.05,1.95,1.77
4.9080,0.06,0.12,-0.99,3.17,1.71,1.77
4.9330,0.05,0.12,-0.99,3.11,1.71,1.53
4.9480,0.06,0.12,-0.99,3.17,1.65,1.77
4.9580,0.06,0.12,-0.99,3.05,1.77,1.65
4.9750,0.06,0.12,-0.99,2.99,2.26,1.71
4.9900,0.06,0.12,-0.99,3.11,1.83,1.71
5.0080,0.06,0.12,-0.99,3.23,1.59,1.65
5.0230,0.06,0.12,-0.99,3.23,1.95,1.59
5.0390,0.06,0.12,-0.99,3.48,1.65,1.53
5.0550,0.06,0.12,-0.99,3.23,1.34,1.59
5.0700,0.06,0.12,-0.99,3.23,1.77,1.77
5.0850,0.05,0.12,-0.99,3.30,1.83,1.53
5.0960,0.05,0.12,-0.99,3.17,1.71,1.65
5.1130,0.06,0.12,-0.99,3.11,1.65,1.65
5.1310,0.05,0.12,-0.99,3.23,1.65,1.71
5.1460,0.05,0.12,-0.99,3.05,1.83,1.77
5.1620,0.06,0.12,-0.99,3.17,1.77,1.71
5.1780,0.05,0.12,-0.99,3.23,1.53,1.59
5.1940,0.06,0.12,-0.99,3.11,1.71,1.65
5.1960,0.06,0.12,-0.99,3.23,1.34,1.77
5.2120,0.06,0.12,-0.99,3.30,1.22,1.59
5.2390,0.06,0.12,-0.99,3.17,1.65,1.53
5.2500,0.06,0.12,-0.99,3.11,1.77,1.59
5.2670,0.06,0.12,-0.99,3.30,1.95,1.71
5.2830,0.06,0.12,-0.99,3.17,1.53,1.59
5.3000,0.06,0.12,-0.99,3.23,1.46,1.65
5.3170,0.06,0.12,-0.99,3.23,1.53,1.46
5.3330,0.05,0.12,-0.99,3.23,1.53,1.71
5.3490,0.06,0.12,-0.99,3.23,1.71,1.71
5.3650,0.06,0.12,-0.99,2.99,1.77,1.53
5.3810,0.06,0.12,-0.99,3.23,1.65,1.71
5.3960,0.06,0.12,-0.99,3.23,1.71,1.65
5.4110,0.06,0.12,-0.99,3.17,1.53,1.77
5.4260,0.06,0.12,-0.99,3.11,1.59,1.65
5.4410,0.06,0.12,-0.99,3.23,1.89,1.59
5.4560,0.06,0.12,-0.99,3.17,2.08,1.77
5.4670,0.06,0.12,-0.99,3.17,1.65,1.59
5.4830,0.06,0.12,-0.99,3.30,1.28,1.65
5.5010,0.05,0.12,-0.99,3.23,1.65,1.83
5.5180,0.06,0.12,-0.99,3.23,1.95,1.65
5.5330,0.06,0.12,-0.99,3.17,1.83,1.71
5.5490,0.06,0.12,-0.99,3.36,1.65,1.65
5.5650,0.06,0.12,-0.99,3.17,1.95,1.59
5.5820,0.05,0.12,-0.99,3.30,1.53,1.65
5.5970,0.05,0.12,-0.99,3.11,1.65,1.83
5.6120,0.05,0.12,-0.99,3.17,1.71,1.59
5.6280,0.06,0.12,-0.99,3.11,1.59,1.59
5.6430,0.05,0.12,-0.99,3.17,1.40,1.71
5.6590,0.06,0.12,-0.99,3.30,1.71,1.77
5.6740,0.06,0.12,-0.99,3.11,1.89,1.71
5.6890,0.06,0.12,-0.99,3.17,1.59,1.71
5.7000,0.06,0.12,-0.99,3.05,1.83,1.65
5.7170,0.06,0.12,-0.99,3.23,1.71,1.77
5.7340,0.06,0.12,-0.99,3.17,1.65,1.65
5.7500,0.05,0.12,-0.99,3.23,1.40,1.40
5.7670,0.06,0.12,-0.99,3.17,1.53,1.65
5.7830,0.05,0.12,-0.99,3.17,1.59,1.83
5.7990,0.06,0.12,-0.99,3.05,1.83,1.59
5.8150,0.05,0.12,-1.00,3.17,1.65,1.89
5.8300,0.05,0.12,-0.99,3.17,1.59,1.71
5.8340,0.05,0.12,-0.99,3.30,2.01,1.71
5.8500,0.06,0.12,-0.99,3.30,1.53,1.53
5.8720,0.05,0.12,-1.00,3.23,1.40,1.59
5.8880,0.06,0.12,-0.99,3.30,1.40,1.59
5.9040,0.06,0.12,-0.99,3.17,1.46,1.53
5.9200,0.06,0.12,-0.99,3.36,1.10,1.46
5.9370,0.06,0.12,-0.99,3.36,1.83,1.77
5.9540,0.06,0.12,-0.99,3.17,1.46,1.59
5.9550,0.06,0.12,-1.00,3.23,1.83,1.71
5.9700,0.06,0.12,-0.99,3.17,1.59,1.71
6.0020,0.06,0.12,-0.99,3.11,1.65,1.53
6.0180,0.06,0.12,-0.99,3.23,1.34,1.65
6.0250,0.06,0.12,-0.99,3.30,1.34,1.53
6.0360,0.06,0.12,-0.99,3.30,1.46,1.59
6.0580,0.06,0.12,-0.99,3.30,1.46,1.59
6.0750,0.06,0.12,-0.99,3.17,1.65,1.53
6.0920,0.06,0.12,-0.99,3.23,1.46,1.71
6.1070,0.05,0.12,-0.99,3.11,1.53,1.65
6.1250,0.06,0.12,-1.00,3.36,1.53,1.65
6.1410,0.05,0.12,-0.99,3.17,1.40,1.65
6.1560,0.06,0.12,-0.99,3.36,1.77,1.65
6.1720,0.06,0.12,-0.99,3.23,1.83,1.59
6.1760,0.06,0.12,-0.99,3.23,1.59,1.71
6.1910,0.05,0.12,-0.99,3.17,2.01,1.59
6.2150,0.06,0.12,-0.99,3.17,1.65,1.65
6.2310,0.06,0.12,-0.99,2.99,1.53,1.53
6.2480,0.06,0.12,-0.99,2.99,1.71,1.77
6.2650,0.06,0.12,-0.99,3.17,2.01,1.65
6.2810,0.06,0.12,-0.99,3.30,1.53,1.65
6.2970,0.05,0.12,-0.99,3.23,1.65,1.71
6.3120,0.06,0.12,-0.99,3.30,1.65,1.59
6.3270,0.06,0.12,-0.99,3.23,1.71,1.83
6.3430,0.06,0.12,-0.99,3.30,1.71,1.71
6.3490,0.06,0.12,-0.99,3.11,1.95,1.46
6.3650,0.05,0.12,-0.99,3.36,1.53,1.65
6.3860,0.05,0.12,-0.99,3.30,1.28,1.65
6.4020,0.06,0.12,-0.99,3.23,1.83,1.59
6.4190,0.06,0.12,-0.99,3.36,1.59,1.77
6.4360,0.05,0.12,-0.99,3.23,1.28,1.65
6.4530,0.05,0.12,-0.99,3.11,1.46,1.77
6.4680,0.06,0.12,-0.99,3.17,1.46,1.46
6.4850,0.06,0.12,-0.99,3.36,1.59,1.65
6.5010,0.05,0.12,-0.99,3.30,1.89,1.71
6.5160,0.06,0.12,-0.99,3.23,1.83,1.46
6.5330,0.06,0.12,-0.99,3.17,1.53,1.65
6.5480,0.05,0.12,-1.00,2.99,1.53,1.77
6.5640,0.05,0.12,-0.99,3.30,1.59,1.71
6.5790,0.05,0.12,-0.99,3.30,1.53,1.83
6.5940,0.06,0.12,-0.99,3.17,1.71,1.53
6.6030,0.05,0.12,-0.99,3.30,1.40,1.77
6.6250,0.06,0.12,-0.99,3.30,1.53,1.71
6.6410,0.05,0.12,-0.99,3.23,1.59,1.71
6.6570,0.06,0.12,-0.99,3.23,1.71,1.77
6.6740,0.06,0.12,-0.99,3.23,1.40,1.77
6.6900,0.06,0.12,-0.99,3.36,1.83,1.59
6.7050,0.05,0.12,-0.99,3.30,1.71,1.83
6.7220,0.05,0.12,-0.99,3.23,1.46,1.65
6.7250,0.05,0.12,-0.99,3.11,1.59,1.59
6.7410,0.06,0.12,-0.99,3.11,1.59,1.46
6.7640,0.06,0.12,-0.99,3.11,1.95,1.71
6.7800,0.06,0.12,-0.99,3.11,1.95,1.83
6.7980,0.06,0.12,-0.99,3.17,1.59,1.65
6.8140,0.06,0.12,-0.99,3.11,1.59,1.65
6.8290,0.05,0.12,-0.99,3.23,1.83,1.53
6.8440,0.05,0.12,-0.99,2.99,1.95,1.71
6.8470,0.05,0.12,-0.99,3.17,1.71,1.77
6.8630,0.06,0.12,-0.99,3.23,1.22,1.77
6.8850,0.05,0.12,-0.99,3.05,1.95,1.77
6.9030,0.05,0.12,-0.99,2.99,1.89,1.65
6.9180,0.06,0.12,-0.99,3.23,1.65,1.77
6.9350,0.06,0.12,-0.99,3.42,1.53,1.53
6.9520,0.06,0.12,-0.99,3.11,1.95,1.65
6.9680,0.06,0.12,-0.99,3.17,1.59,1.71
6.9840,0.05,0.12,-0.99,3.23,1.71,1.53
6.9990,0.06,0.12,-0.99,3.05,1.77,1.65
7.0020,0.06,0.12,-0.99,3.11,1.83,1.46
7.0320,0.05,0.12,-0.99,3.30,1.71,1.53
7.0470,0.05,0.12,-0.99,3.17,1.65,1.59
7.0630,0.05,0.12,-0.99,2.99,1.53,1.77
7.0780,0.06,0.12,-0.99,3.23,1.59,1.59
7.0880,0.06,0.12,-1.00,3.36,1.83,1.71
7.1050,0.05,0.12,-0.99,3.30,1.65,1.71
7.1220,0.06,0.12,-0.99,3.23,1.71,1.89
7.1380,0.05,0.12,-0.99,3.23,1.89,1.71
7.1550,0.06,0.12,-0.99,2.99,1.53,1.53
7.1710,0.05,0.12,-0.99,3.05,1.71,1.71
7.1870,0.06,0.12,-0.99,3.36,1.65,1.83
7.1890,0.05,0.12,-0.99,3.17,1.53,1.71
7.2200,0.05,0.12,-0.99,3.23,1.71,1.59
7.2350,0.05,0.12,-0.99,3.23,1.53,1.59
7.2380,0.06,0.12,-0.99,3.30,1.59,1.65
7.2540,0.06,0.12,-1.00,3.30,1.40,1.53
7.2810,0.06,0.12,-0.99,3.36,1.53,1.59
7.2900,0.06,0.12,-0.99,3.23,1.53,1.59
7.3060,0.06,0.12,-0.99,3.48,1.34,1.59
7.3260,0.06,0.12,-0.99,3.17,1.89,1.46
7.3420,0.06,0.12,-1.00,3.17,1.77,1.65
7.3590,0.05,0.12,-0.99,3.17,1.77,1.65
7.3750,0.06,0.12,-0.99,3.30,1.77,1.65
7.3920,0.05,0.12,-0.99,3.23,1.89,1.65
7.3930,0.05,0.12,-1.00,3.30,1.46,1.65
7.4240,0.06,0.12,-0.99,3.30,1.59,1.71
7.4400,0.06,0.12,-0.99,3.17,1.83,1.53
7.4570,0.05,0.12,-0.99,3.11,1.65,1.77
7.4730,0.05,0.12,-0.99,3.11,1.95,1.83
7.4770,0.06,0.12,-0.99,3.23,1.46,1.71
7.4930,0.06,0.12,-0.99,3.23,1.65,1.59
7.5090,0.06,0.12,-0.99,3.30,1.65,1.53
7.5350,0.06,0.12,-0.99,3.36,1.65,1.46
7.5460,0.06,0.12,-0.99,3.11,1.71,1.65
7.5630,0.06,0.12,-0.99,3.17,1.71,1.65
7.5800,0.05,0.12,-0.99,3.36,1.53,1.71
7.5960,0.05,0.12,-0.99,3.11,1.95,1.65
7.6110,0.05,0.12,-0.99,3.17,1.65,1.65
7.6260,0.06,0.12,-0.99,3.11,1.65,1.59
7.6420,0.06,0.12,-0.99,3.23,1.77,1.71
7.6590,0.05,0.12,-0.99,3.23,1.59,1.59
7.6740,0.06,0.12,-0.99,3.23,1.71,1.83
7.6900,0.06,0.12,-0.99,3.30,1.71,1.77
7.7050,0.06,0.12,-0.99,3.23,1.89,1.65
7.7210,0.05,0.12,-0.99,3.23,1.59,1.65
7.7360,0.06,0.12,-0.99,3.30,1.46,1.65
7.7460,0.05,0.12,-0.99,3.30,1.71,1.65
7.7620,0.06,0.12,-0.99,3.30,1.59,1.65
7.7790,0.06,0.12,-0.99,3.23,1.95,1.53
7.7960,0.05,0.12,-0.99,3.23,2.01,1.53
7.8110,0.06,0.12,-0.99,3.30,1.46,1.65
7.8260,0.05,0.12,-0.99,3.30,1.28,1.59
7.8420,0.06,0.12,-0.99,3.17,1.71,1.59
7.8580,0.05,0.12,-0.99,3.42,1.53,1.59
7.8740,0.06,0.12,-0.99,2.99,1.65,1.71
7.8900,0.06,0.12,-0.99,3.23,1.59,1.71
7.9070,0.05,0.12,-0.99,3.42,1.71,1.65
7.9220,0.06,0.12,-0.99,3.11,1.53,1.59
7.9390,0.06,0.12,-0.99,3.30,1.77,1.71
7.9550,0.06,0.12,-0.99,3.17,1.65,1.65
7.9700,0.06,0.12,-0.99,3.17,2.14,1.71
7.9850,0.06,0.12,-0.99,3.23,1.59,1.71
7.9960,0.05,0.12,-0.99,3.11,1.46,1.71
8.0130,0.06,0.12,-0.99,3.23,1.71,1.71
8.0300,0.06,0.12,-0.99,3.42,1.77,1.65
8.0450,0.06,0.12,-0.99,3.17,1.89,1.65
8.0610,0.06,0.12,-0.99,3.11,1.71,1.71
8.0630,0.06,0.12,-0.99,3.23,1.65,1.83
8.0790,0.05,0.12,-0.99,3.17,1.89,1.65
8.1060,0.06,0.12,-0.99,3.17,1.65,1.65
8.1210,0.05,0.12,-0.99,3.17,1.77,1.71
8.1330,0.05,0.12,-0.99,3.42,1.59,1.53
8.1490,0.06,0.12,-0.99,3.30,1.40,1.46
8.1660,0.06,0.12,-0.99,3.17,1.40,1.59
8.1820,0.06,0.12,-0.99,3.30,1.46,1.53
8.1980,0.06,0.12,-0.99,3.23,1.95,1.77
8.2150,0.06,0.12,-0.99,3.36,1.53,1.65
8.2260,0.06,0.12,-0.99,3.30,1.71,1.59
8.2470,0.05,0.12,-0.99,2.99,1.34,1.77
8.2620,0.05,0.12,-0.99,3.11,1.46,1.77
8.2770,0.05,0.12,-0.99,3.23,1.59,1.65
8.2930,0.06,0.12,-0.99,3.23,1.77,1.77
8.3080,0.06,0.12,-0.99,3.23,1.53,1.83
8.3240,0.06,0.12,-0.99,3.30,1.65,1.71
8.3400,0.05,0.12,-0.99,3.23,1.34,1.65
8.3550,0.06,0.12,-0.99,3.30,1.83,1.59
8.3660,0.06,0.12,-0.99,3.42,1.34,1.59
8.3820,0.06,0.12,-0.99,3.42,1.65,1.71
8.3980,0.06,0.12,-0.99,3.23,1.40,1.77
8.4150,0.05,0.12,-0.99,3.05,1.95,1.71
8.4320,0.06,0.12,-0.99,3.30,1.53,1.65
8.4480,0.06,0.12,-0.99,3.30,1.59,1.77
8.4640,0.05,0.12,-0.99,3.36,1.46,1.83
8.4790,0.06,0.12,-0.99,3.36,1.83,1.71
8.4950,0.05,0.12,-0.99,3.42,1.65,1.83
8.5100,0.06,0.12,-0.99,3.30,1.71,1.71
8.5260,0.06,0.12,-0.99,3.48,1.59,1.77
8.5410,0.06,0.12,-0.99,3.30,1.46,1.71
8.5580,0.06,0.12,-0.99,3.48,1.46,1.59
8.5730,0.05,0.12,-0.99,3.54,1.46,1.59
8.5880,0.06,0.12,-1.00,3.42,1.77,1.53
8.5990,0.06,0.12,-0.99,3.48,1.77,1.71
8.6160,0.06,0.12,-0.99,3.23,1.83,1.53
8.6320,0.06,0.12,-0.99,3.30,2.01,1.71
8.6490,0.06,0.12,-0.99,3.30,1.83,1.65
8.6650,0.05,0.12,-0.99,3.42,1.77,1.71
8.6820,0.06,0.12,-0.99,3.30,1.34,1.53
8.6980,0.06,0.12,-0.99,3.48,1.59,1.71
8.7130,0.06,0.12,-0.99,3.30,1.53,1.77
8.7280,0.06,0.12,-0.99,3.30,1.65,1.71
8.7330,0.05,0.12,-0.99,3.42,1.59,1.71
8.7490,0.06,0.12,-0.99,3.42,1.34,1.59
8.7690,0.05,0.12,-0.99,3.36,1.59,1.65
8.7860,0.06,0.12,-0.99,3.11,1.65,1.65
8.8030,0.06,0.12,-0.99,3.23,1.53,1.77
8.8190,0.06,0.12,-0.99,3.30,1.59,1.71
8.8350,0.06,0.12,-0.99,3.48,1.46,1.65
8.8520,0.05,0.12,-0.99,3.42,1.65,1.65
8.8690,0.06,0.12,-0.99,3.11,1.71,1.53
8.8850,0.06,0.12,-0.99,3.23,1.59,1.59
8.9010,0.06,0.12,-0.99,3.23,1.71,1.65
8.9170,0.06,0.12,-0.99,3.48,1.59,1.71
8.9320,0.06,0.12,-0.99,3.30,1.40,1.71
8.9480,0.05,0.12,-0.99,3.17,1.34,1.65
8.9640,0.06,0.12,-0.99,3.11,1.71,1.59
8.9790,0.06,0.12,-0.99,3.23,1.77,1.71
8.9940,0.06,0.12,-0.99,3.36,1.59,1.65
9.0030,0.06,0.12,-1.00,3.30,1.71,1.77
9.0250,0.06,0.12,-0.99,3.36,1.04,1.65
9.0360,0.06,0.12,-0.99,3.17,1.95,1.71
9.0520,0.06,0.12,-0.99,3.23,1.53,1.71
9.0690,0.05,0.12,-0.99,3.11,1.40,1.53
9.0870,0.05,0.12,-0.99,3.23,1.53,1.59
9.1030,0.06,0.12,-0.99,3.11,1.53,1.71
9.1200,0.06,0.12,-0.99,3.11,1.34,1.59
9.1350,0.06,0.12,-0.99,3.36,1.22,1.65
9.1520,0.05,0.12,-0.99,3.23,1.46,1.59
9.1680,0.06,0.12,-0.99,3.17,1.53,1.53
9.1840,0.05,0.12,-0.99,3.23,1.83,1.77
9.2000,0.06,0.12,-0.99,3.23,1.59,1.71
9.2030,0.05,0.12,-0.99,3.23,1.46,1.77
9.2310,0.05,0.12,-0.99,3.42,1.59,1.65
9.2460,0.06,0.12,-0.99,3.30,1.77,1.65
9.2560,0.06,0.12,-0.99,3.23,1.46,1.65
9.2720,0.05,0.12,-0.99,3.36,1.77,1.71
9.2890,0.05,0.12,-0.99,3.17,1.95,1.83
9.3050,0.06,0.12,-0.99,3.36,1.40,1.65
9.3210,0.06,0.12,-0.99,3.36,1.40,1.53
9.3390,0.05,0.12,-0.99,3.30,1.65,1.53
9.3540,0.06,0.12,-0.99,3.36,1.40,1.71
9.3560,0.06,0.12,-0.99,3.17,1.53,1.65
9.3710,0.05,0.12,-0.99,3.11,1.65,1.71
9.4010,0.06,0.12,-0.99,3.30,1.89,1.65
9.4170,0.06,0.12,-0.99,3.23,1.59,1.77
9.4280,0.06,0.12,-0.99,3.42,1.71,1.59
9.4420,0.05,0.12,-0.99,3.30,1.40,1.65
9.4580,0.06,0.12,-0.99,3.36,1.59,1.71
9.4770,0.06,0.12,-0.99,3.23,1.77,1.53
9.4920,0.06,0.12,-0.99,3.23,1.59,1.65
9.5080,0.06,0.12,-0.99,3.30,1.83,1.71
9.5230,0.05,0.12,-0.99,3.23,1.59,1.59
9.5400,0.06,0.12,-0.99,3.17,1.46,1.59
9.5540,0.06,0.12,-0.99,3.11,1.95,1.59
9.5700,0.06,0.12,-0.99,3.36,1.46,1.53
9.5860,0.06,0.12,-0.99,3.30,1.46,1.59
9.6020,0.06,0.12,-0.99,3.30,1.59,1.65
9.6170,0.06,0.12,-0.99,3.05,1.65,1.53
9.6290,0.06,0.12,-0.99,3.30,1.34,1.53
9.6450,0.06,0.12,-0.99,3.17,1.59,1.71
9.6610,0.06,0.12,-1.00,3.30,1.40,1.65
9.6790,0.05,0.12,-0.99,3.23,1.46,1.65
9.6940,0.06,0.12,-0.99,3.36,1.22,1.59
9.7090,0.06,0.12,-0.99,3.30,1.71,1.53
9.7260,0.06,0.12,-0.99,3.54,1.53,1.65
9.7420,0.06,0.12,-0.99,3.36,1.53,1.59
9.7570,0.06,0.12,-0.99,3.30,1.59,1.71
9.7720,0.05,0.12,-0.99,3.36,1.83,1.65
9.7870,0.06,0.12,-0.99,3.23,1.71,1.65
9.7980,0.06,0.12,-0.99,3.23,1.71,1.71
9.8140,0.06,0.12,-0.99,3.42,1.34,1.65
9.8310,0.05,0.12,-0.99,3.30,1.22,1.71
9.8480,0.06,0.12,-0.99,3.36,1.71,1.77
9.8640,0.05,0.12,-0.99,3.42,1.59,1.59
9.8800,0.06,0.12,-0.99,3.36,1.40,1.71
9.8960,0.06,0.12,-0.99,3.23,1.89,1.71
9.9110,0.05,0.12,-0.99,3.54,1.71,1.77
9.9150,0.06,0.12,-0.99,3.36,1.77,1.59
9.9310,0.06,0.12,-0.99,3.42,1.46,1.77
9.9570,0.06,0.12,-0.99,3.23,1.65,1.83
9.9720,0.06,0.12,-0.99,3.23,1.65,1.71
9.9830,0.06,0.12,-0.99,3.23,1.46,1.71
10.0000,0.06,0.12,-1.00,3.30,1.34,1.65
10.0170,0.06,0.12,-0.99,3.23,1.40,1.59
10.0330,0.06,0.12,-0.99,3.23,1.53,1.71
10.0490,0.06,0.12,-0.99,3.23,1.77,1.77
10.0650,0.05,0.12,-0.99,3.36,1.40,1.65
10.0810,0.06,0.12,-0.99,3.30,1.34,1.65
10.0980,0.06,0.12,-0.99,3.42,1.59,1.71
10.1130,0.06,0.12,-0.99,3.36,1.40,1.65
10.1280,0.05,0.12,-0.99,3.30,1.22,1.59
10.1440,0.06,0.12,-0.99,3.42,1.46,1.59
10.1590,0.06,0.12,-0.99,3.30,1.40,1.65
10.1750,0.06,0.12,-0.99,3.23,1.53,1.53
10.1900,0.06,0.12,-0.99,3.30,1.53,1.65
10.2050,0.06,0.12,-0.99,3.23,1.40,1.71
10.2180,0.06,0.12,-0.99,3.30,1.77,1.65
10.2340,0.06,0.12,-0.99,3.17,1.40,1.71
10.2510,0.06,0.12,-0.99,3.30,1.22,1.77
10.2670,0.06,0.12,-0.99,3.23,1.71,1.59
10.2830,0.05,0.12,-0.99,3.17,1.46,1.59
10.3000,0.05,0.12,-0.99,3.23,1.53,1.71
10.3170,0.05,0.12,-0.99,3.11,1.83,1.65
10.3330,0.05,0.12,-0.99,3.30,1.28,1.71
10.3490,0.05,0.12,-1.00,3.48,1.46,1.77
10.3650,0.06,0.12,-0.99,3.48,1.22,1.65
10.3800,0.06,0.12,-0.99,3.30,1.53,1.71
10.3950,0.05,0.12,-0.99,3.23,1.46,1.65
10.4110,0.05,0.12,-0.99,3.36,0.98,1.71
10.4290,0.06,0.12,-0.99,3.30,1.40,1.65
10.4440,0.05,0.12,-0.99,3.17,1.71,1.59
10.4600,0.05,0.12,-0.99,3.42,1.53,1.53
10.4750,0.05,0.12,-0.99,3.42,1.22,1.59
10.4900,0.06,0.12,-0.99,3.60,1.65,1.71
10.5050,0.06,0.12,-0.99,3.36,1.34,1.65
10.5170,0.06,0.12,-0.99,3.23,1.83,1.71
10.5330,0.05,0.12,-0.99,3.17,1.77,1.53
10.5500,0.06,0.12,-0.99,3.42,1.71,1.71
10.5660,0.06,0.12,-0.99,3.23,1.40,1.59
10.5830,0.06,0.12,-0.99,3.30,1.34,1.59
10.5990,0.05,0.12,-0.99,3.36,1.59,1.77
10.6160,0.05,0.12,-0.99,3.11,1.59,1.71
10.6320,0.06,0.12,-0.99,3.42,1.59,1.65
10.6480,0.05,0.12,-0.99,3.42,1.46,1.65
10.6630,0.05,0.12,-0.99,3.30,1.53,1.46
10.6770,0.05,0.12,-0.99,3.36,1.65,1.71
10.6930,0.06,0.12,-0.99,3.42,1.71,1.65
10.7070,0.06,0.12,-0.99,3.54,1.40,1.65
10.7230,0.06,0.12,-0.99,3.23,2.01,1.71
10.7330,0.06,0.12,-0.99,3.48,1.46,1.77
10.7500,0.06,0.12,-0.99,3.36,1.59,1.59
10.7670,0.05,0.12,-0.99,3.30,1.28,1.65
10.7840,0.05,0.12,-0.99,3.42,1.59,1.65
10.8010,0.06,0.12,-0.99,3.30,1.46,1.59
10.8170,0.05,0.12,-0.99,3.17,1.65,1.71
10.8340,0.06,0.12,-0.99,3.23,1.40,1.59
10.8490,0.06,0.12,-0.99,3.42,1.34,1.53
10.8650,0.05,0.12,-0.99,3.17,1.40,1.53
10.8820,0.06,0.12,-0.99,3.30,1.77,1.71
10.8980,0.06,0.12,-0.99,3.60,1.10,1.46
10.9130,0.06,0.12,-0.99,3.54,1.16,1.59
10.9290,0.06,0.12,-0.99,3.42,1.34,1.83
10.9440,0.06,0.12,-0.99,3.30,1.16,1.65
10.9590,0.06,0.12,-0.99,3.23,1.34,1.40
10.9730,0.05,0.12,-0.99,3.36,1.53,1.46
10.9840,0.05,0.12,-0.99,3.23,1.28,1.65
11.0000,0.06,0.12,-0.99,3.30,1.46,1.65
11.0180,0.06,0.12,-0.99,3.30,1.40,1.65
11.0330,0.05,0.12,-0.99,3.23,1.10,1.65
11.0500,0.06,0.12,-0.99,3.23,1.34,1.53
11.0660,0.05,0.12,-0.99,3.30,1.40,1.40
11.0810,0.06,0.12,-0.99,3.36,1.28,1.46
11.0960,0.06,0.12,-0.99,3.48,1.34,1.53
11.1000,0.06,0.12,-0.99,3.30,1.28,1.59
11.1160,0.06,0.12,-0.99,3.30,1.16,1.53
11.1430,0.06,0.12,-0.99,3.05,1.77,1.71
11.1580,0.06,0.12,-0.99,3.36,1.28,1.59
11.1700,0.05,0.12,-0.99,3.36,1.28,1.65
11.1860,0.06,0.12,-0.99,3.42,1.22,1.65
11.2020,0.06,0.12,-0.99,3.42,1.34,1.77
11.2200,0.06,0.12,-0.99,3.42,1.22,1.59
11.2350,0.06,0.12,-0.99,3.17,1.53,1.59
11.2520,0.06,0.12,-0.99,3.30,1.65,1.71
11.2690,0.06,0.12,-0.99,3.60,1.59,1.71
11.2840,0.06,0.12,-0.99,3.17,1.71,1.65
11.3000,0.06,0.12,-0.99,3.36,1.53,1.65
11.3160,0.06,0.12,-0.99,3.23,1.53,1.71
11.3310,0.05,0.12,-0.99,3.54,1.40,1.77
11.3480,0.05,0.12,-0.99,3.36,1.40,1.71
11.3630,0.06,0.12,-0.99,3.42,0.98,1.53
11.3780,0.06,0.12,-0.99,3.36,1.28,1.65
11.3880,0.06,0.12,-0.99,3.48,1.28,1.71
11.4040,0.05,0.12,-0.99,3.30,1.46,1.71
11.4230,0.06,0.12,-0.99,3.30,1.40,1.59
11.4320,0.06,0.12,-0.99,3.17,1.65,1.65
11.4400,0.06,0.12,-0.99,3.23,1.53,1.59
11.4710,0.05,0.12,-0.99,3.30,1.28,1.71
11.4870,0.06,0.12,-0.99,3.23,1.40,1.71
11.5020,0.05,0.12,-0.99,3.17,1.34,1.71
11.5050,0.05,0.12,-0.99,3.30,1.22,1.65
11.5320,0.06,0.12,-0.99,3.48,1.46,1.65
11.5480,0.05,0.12,-1.00,3.36,1.46,1.71
11.5580,0.06,0.12,-0.99,3.48,1.34,1.59
11.5750,0.06,0.12,-0.99,3.36,1.40,1.53
11.5910,0.06,0.12,-0.99,3.54,1.22,1.46
11.6070,0.06,0.12,-0.99,3.36,1.10,1.59
11.6250,0.05,0.12,-1.00,3.42,0.92,1.65
11.6410,0.06,0.12,-0.99,3.48,1.28,1.59
11.6420,0.05,0.12,-0.99,3.30,0.85,1.53
11.6730,0.06,0.12,-0.99,3.48,1.28,1.71
11.6890,0.05,0.12,-1.00,3.30,1.40,1.59
11.7050,0.06,0.12,-1.00,3.30,1.10,1.34
11.7210,0.05,0.12,-0.99,3.48,1.16,1.53
11.7320,0.06,0.12,-0.99,3.42,1.53,1.59
11.7420,0.05,0.12,-0.99,3.42,1.34,1.65
11.7670,0.05,0.12,-0.99,3.36,0.92,1.53
11.7780,0.06,0.12,-0.99,3.36,0.92,1.71
11.7940,0.05,0.12,-0.99,3.42,1.04,1.65
11.8110,0.06,0.12,-0.99,3.30,0.92,1.59
11.8280,0.05,0.12,-0.99,3.30,1.34,1.53
11.8440,0.06,0.12,-0.99,3.23,1.46,1.71
11.8600,0.06,0.12,-0.99,3.54,1.10,1.77
11.8760,0.05,0.12,-0.99,3.36,1.71,1.53
11.8910,0.05,0.12,-0.99,3.17,1.46,1.59
11.8950,0.05,0.12,-0.99,3.30,1.28,1.59
11.9230,0.05,0.12,-0.99,3.42,1.22,1.65
11.9400,0.05,0.12,-0.99,3.42,1.40,1.65
11.9560,0.06,0.12,-0.99,3.23,1.46,1.59
11.9710,0.06,0.12,-0.99,3.42,1.28,1.59
11.9870,0.06,0.12,-0.99,3.36,1.10,1.53
12.0020,0.05,0.12,-0.99,3.30,1.28,1.71
12.0130,0.06,0.12,-0.99,3.23,1.22,1.46
12.0300,0.06,0.12,-0.99,3.17,1.59,1.46
12.0470,0.06,0.12,-0.99,3.36,1.28,1.46
12.0630,0.05,0.12,-0.99,3.30,1.22,1.53
12.0790,0.06,0.12,-0.99,3.17,1.46,1.65
12.0940,0.06,0.12,-0.99,3.36,1.04,1.53
12.1100,0.06,0.12,-0.99,3.48,1.16,1.46
12.1250,0.05,0.12,-0.99,3.42,0.92,1.65
12.1410,0.06,0.12,-0.99,3.23,1.40,1.59
12.1570,0.06,0.12,-0.99,3.30,1.04,1.65
12.1730,0.06,0.12,-0.99,3.30,0.85,1.59
12.1890,0.06,0.12,-0.99,3.17,1.10,1.59
12.2050,0.06,0.12,-0.99,3.42,1.34,1.65
12.2210,0.06,0.12,-0.99,3.23,1.46,1.71
12.2360,0.06,0.12,-0.99,3.42,1.10,1.59
12.2460,0.06,0.12,-0.99,3.17,0.98,1.65
12.2630,0.06,0.12,-0.99,3.23,1.34,1.77
12.2800,0.06,0.12,-0.99,3.36,1.53,1.65
12.2960,0.06,0.12,-0.99,3.36,1.34,1.71
12.3130,0.06,0.12,-0.99,3.36,1.22,1.53
12.3300,0.06,0.12,-0.99,3.48,1.16,1.71
12.3330,0.05,0.12,-0.99,3.30,1.16,1.65
12.3600,0.06,0.12,-0.99,3.17,1.59,1.71
12.3630,0.06,0.12,-0.99,3.30,1.22,1.53
12.3790,0.06,0.12,-0.99,3.30,1.04,1.46
12.4070,0.06,0.12,-0.99,3.42,1.28,1.59
12.4160,0.05,0.12,-0.99,3.17,1.10,1.53
12.4330,0.05,0.12,-0.99,3.42,0.98,1.46
12.4500,0.06,0.12,-0.99,3.11,1.28,1.65
12.4670,0.06,0.12,-0.99,3.23,1.16,1.71
12.4830,0.06,0.12,-0.99,3.36,1.10,1.53
12.5000,0.05,0.12,-0.99,3.17,1.10,1.53
12.5160,0.05,0.12,-0.99,3.36,1.34,1.65
12.5310,0.06,0.12,-0.99,3.30,1.46,1.65
12.5470,0.06,0.12,-0.99,3.30,0.92,1.59
12.5630,0.06,0.12,-0.99,3.42,1.22,1.46
12.5780,0.06,0.12,-0.99,3.42,1.22,1.59
12.5940,0.06,0.12,-0.99,3.30,1.10,1.53
12.6090,0.06,0.12,-0.99,3.42,1.28,1.59
12.6250,0.06,0.12,-0.99,3.30,1.40,1.65
12.6350,0.06,0.12,-0.99,3.36,1.22,1.40
12.6510,0.06,0.12,-0.99,3.30,1.34,1.83
12.6670,0.05,0.12,-0.99,3.36,0.92,1.59
12.6850,0.06,0.12,-0.99,3.30,1.10,1.65
12.6870,0.06,0.12,-0.99,3.48,1.22,1.77
12.7040,0.05,0.12,-0.99,3.48,0.98,1.65
12.7310,0.06,0.12,-0.99,3.42,1.34,1.53
12.7460,0.06,0.12,-0.99,3.17,1.28,1.53
12.7610,0.06,0.12,-0.99,3.30,1.22,1.53
12.7710,0.05,0.12,-0.99,3.23,1.22,1.59
12.7870,0.06,0.12,-0.99,3.42,0.85,1.59
12.8040,0.05,0.12,-0.99,3.30,0.98,1.53
12.8210,0.06,0.12,-0.99,3.30,1.10,1.71
12.8370,0.06,0.12,-0.99,3.30,1.04,1.65
12.8530,0.06,0.12,-0.99,3.23,1.10,1.53
12.8700,0.06,0.12,-0.99,3.36,0.67,1.65
12.8870,0.06,0.12,-0.99,3.23,0.79,1.53
12.9020,0.05,0.12,-0.99,3.30,0.98,1.59
12.9170,0.06,0.12,-0.99,3.36,1.16,1.59
12.9320,0.06,0.12,-0.99,3.36,1.46,1.59
12.9370,0.06,0.12,-0.99,3.23,1.46,1.65
12.9530,0.05,0.12,-0.99,3.36,1.40,1.53
12.9740,0.06,0.12,-0.99,3.23,1.40,1.65
12.9920,0.05,0.12,-0.99,3.36,1.16,1.59
13.0070,0.06,0.12,-0.99,3.60,1.40,1.59
13.0230,0.05,0.12,-0.99,3.42,0.92,1.59
13.0390,0.06,0.12,-0.99,3.36,1.22,1.65
13.0540,0.06,0.12,-0.99,3.42,1.34,1.65
13.0700,0.05,0.12,-0.99,3.36,1.40,1.53
13.0750,0.05,0.12,-0.99,3.30,0.79,1.46
13.0910,0.05,0.12,-0.99,3.23,1.10,1.46
13.1140,0.05,0.12,-0.99,3.42,1.40,1.53
13.1300,0.06,0.12,-0.99,3.36,1.22,1.53
13.1460,0.06,0.12,-0.99,3.36,0.92,1.59
13.1630,0.06,0.12,-0.99,3.36,1.34,1.53
13.1790,0.06,0.12,-1.00,3.36,1.16,1.65
13.1940,0.06,0.12,-0.99,3.48,0.85,1.65
13.2090,0.06,0.12,-0.99,3.36,0.85,1.65
13.2130,0.06,0.12,-0.99,3.42,1.04,1.65
13.2350,0.05,0.12,-0.99,3.30,1.04,1.53
13.2500,0.06,0.12,-0.99,3.30,1.22,1.71
13.2670,0.06,0.12,-0.99,3.48,1.04,1.65
13.2840,0.06,0.12,-0.99,3.48,1.28,1.53
13.3010,0.05,0.12,-0.99,3.42,1.22,1.59
13.3160,0.06,0.12,-0.99,3.23,1.34,1.53
13.3330,0.06,0.12,-0.99,3.42,0.98,1.71
13.3490,0.06,0.12,-0.99,3.30,0.85,1.59
13.3650,0.05,0.12,-0.99,3.42,1.16,1.65
13.3810,0.06,0.12,-0.99,3.36,0.85,1.40
13.3970,0.06,0.12,-0.99,3.36,1.16,1.53
13.4130,0.05,0.12,-0.99,3.30,1.28,1.59
13.4280,0.06,0.12,-0.99,3.30,0.98,1.46
13.4470,0.06,0.12,-0.99,3.54,1.10,1.59
13.4630,0.06,0.12,-0.99,3.17,1.34,1.83
13.4790,0.06,0.12,-0.99,3.42,0.92,1.53
13.4930,0.05,0.12,-0.99,3.36,1.04,1.59
13.5090,0.06,0.12,-0.99,3.30,1.10,1.46
13.5240,0.06,0.12,-0.99,3.23,0.79,1.59
13.5400,0.05,0.12,-0.99,3.42,1.53,1.65
13.5500,0.06,0.12,-0.99,3.23,0.98,1.46
13.5670,0.06,0.12,-1.00,3.42,1.04,1.71
13.5840,0.06,0.12,-0.99,3.23,1.04,1.46
13.6000,0.05,0.12,-0.99,3.30,1.46,1.59
13.6160,0.05,0.12,-0.99,3.36,0.92,1.53
13.6330,0.06,0.12,-0.99,3.11,1.34,1.53
13.6490,0.05,0.12,-0.99,3.42,0.98,1.53
13.6650,0.06,0.12,-0.99,3.23,0.92,1.40
13.6810,0.06,0.12,-0.99,3.30,1.04,1.53
13.6830,0.06,0.12,-0.99,3.48,0.92,1.59
13.6990,0.06,0.12,-0.99,3.30,1.10,1.53
13.7200,0.06,0.12,-0.99,3.23,0.98,1.65
13.7380,0.05,0.12,-0.99,3.23,1.16,1.46
13.7550,0.05,0.12,-0.99,3.23,1.16,1.53
13.7700,0.06,0.12,-0.99,3.17,1.34,1.59
13.7870,0.05,0.12,-0.99,3.30,1.16,1.53
13.8040,0.05,0.12,-0.99,3.23,0.98,1.46
13.8200,0.06,0.12,-0.99,3.48,1.28,1.65
13.8210,0.06,0.12,-1.00,3.23,0.92,1.53
13.8370,0.06,0.12,-0.99,3.30,1.10,1.59
13.8660,0.05,0.12,-0.99,3.30,1.04,1.53
13.8740,0.05,0.12,-0.99,3.36,1.04,1.53
13.8890,0.05,0.12,-0.99,3.23,0.79,1.53
13.9090,0.06,0.12,-0.99,3.36,0.98,1.71
13.9260,0.05,0.12,-0.99,3.17,1.34,1.65
13.9420,0.06,0.12,-0.99,3.48,0.98,1.53
13.9590,0.06,0.12,-0.99,3.36,1.34,1.71
13.9740,0.06,0.12,-0.99,3.42,1.10,1.65
13.9910,0.06,0.12,-0.99,3.36,1.10,1.53
14.0060,0.06,0.12,-1.00,3.23,1.40,1.65
14.0230,0.06,0.12,-0.99,3.30,0.92,1.65
14.0390,0.05,0.12,-0.99,3.17,1.59,1.71
14.0540,0.06,0.12,-1.00,3.48,1.34,1.65
14.0590,0.06,0.12,-0.99,3.36,1.46,1.53
14.0870,0.06,0.12,-0.99,3.36,1.04,1.53
14.0920,0.05,0.12,-0.99,3.48,1.16,1.53
14.1080,0.05,0.12,-1.00,3.48,1.16,1.77
14.1330,0.06,0.12,-0.99,3.36,1.16,1.59
14.1480,0.06,0.12,-0.99,3.30,1.65,1.65
14.1640,0.06,0.12,-0.99,3.42,1.53,1.71
14.1800,0.06,0.12,-0.99,3.30,1.65,1.83
14.1950,0.05,0.12,-0.99,3.30,0.98,1.59
14.1990,0.05,0.12,-0.99,3.36,0.98,1.53
14.2150,0.05,0.12,-0.99,3.48,1.46,1.59
14.2380,0.06,0.12,-0.99,3.48,0.98,1.71
14.2560,0.06,0.12,-0.99,3.42,1.22,1.71
14.2700,0.05,0.12,-0.99,3.48,1.16,1.71
14.2870,0.06,0.12,-0.99,3.48,1.04,1.53
14.3040,0.05,0.12,-0.99,3.23,1.65,1.53
14.3200,0.05,0.12,-0.99,3.36,1.46,1.65
14.3210,0.06,0.12,-0.99,3.23,1.16,1.59
14.3530,0.05,0.12,-0.99,3.36,1.28,1.65
14.3690,0.06,0.12,-0.99,3.60,1.04,1.53
14.3710,0.06,0.12,-0.99,3.42,1.34,1.65
14.3990,0.06,0.12,-0.99,3.42,1.46,1.65
14.4040,0.05,0.12,-0.99,3.36,1.16,1.65
14.4200,0.06,0.12,-0.99,3.48,0.92,1.65
14.4400,0.05,0.12,-0.99,3.42,1.04,1.71
14.4570,0.06,0.12,-0.99,3.48,1.04,1.71
14.4740,0.06,0.12,-0.99,3.36,1.46,1.59
14.4910,0.06,0.12,-0.99,3.30,1.22,1.77
14.5080,0.05,0.12,-0.99,3.48,1.22,1.65
14.5240,0.05,0.12,-0.99,3.36,1.28,1.53
14.5400,0.06,0.12,-0.99,3.30,1.40,1.59
14.5570,0.06,0.12,-0.99,3.36,1.22,1.46
14.5720,0.06,0.12,-0.99,3.42,1.40,1.59
14.5760,0.06,0.12,-0.99,3.05,1.59,1.53
14.6050,0.06,0.12,-0.99,3.30,1.22,1.59
14.6200,0.05,0.12,-0.99,3.42,1.34,1.59
14.6240,0.06,0.12,-0.99,3.36,1.16,1.53
14.6400,0.05,0.12,-0.99,3.48,1.28,1.71
14.6670,0.06,0.12,-0.99,3.30,1.22,1.59
14.6820,0.06,0.12,-0.99,3.36,1.22,1.53
14.6940,0.06,0.12,-0.99,3.17,1.34,1.77
14.7110,0.06,0.12,-0.99,3.30,1.22,1.53
14.7280,0.06,0.12,-0.99,3.48,1.28,1.46
14.7430,0.06,0.12,-0.99,3.30,1.10,1.46
14.7590,0.05,0.12,-0.99,3.11,1.34,1.65
14.7750,0.06,0.12,-0.99,3.36,1.28,1.53
14.7780,0.06,0.12,-0.99,3.60,0.92,1.40
14.7940,0.06,0.12,-0.99,3.23,1.04,1.59
14.8220,0.05,0.12,-0.99,3.42,0.79,1.59
14.8380,0.06,0.12,-0.99,3.36,1.34,1.59
14.8500,0.06,0.12,-0.99,3.42,0.98,1.53
14.8670,0.06,0.12,-0.99,3.42,1.04,1.65
14.8850,0.05,0.12,-0.99,3.30,1.16,1.59
14.9000,0.05,0.12,-0.99,3.36,1.40,1.59
14.9170,0.06,0.12,-0.99,3.36,0.98,1.46
14.9330,0.05,0.12,-1.00,3.30,1.28,1.65
14.9490,0.05,0.12,-0.99,3.30,1.10,1.59
14.9650,0.05,0.12,-0.99,3.48,1.22,1.59
14.9810,0.06,0.12,-0.99,3.23,0.85,1.65
14.9970,0.06,0.12,-1.00,3.48,0.85,1.53
15.0130,0.06,0.12,-0.99,3.30,0.98,1.53
15.0280,0.06,0.12,-0.99,3.30,1.10,1.59
15.0430,0.06,0.12,-0.99,3.36,1.10,1.53
15.0590,0.06,0.12,-0.99,3.17,1.28,1.59
15.0670,0.06,0.12,-0.99,3.48,1.10,1.65
15.0830,0.06,0.12,-0.99,3.30,1.16,1.65
15.1050,0.05,0.12,-0.99,3.30,1.46,1.65
15.1210,0.06,0.12,-0.99,3.23,0.98,1.59
15.1370,0.05,0.12,-0.99,3.23,1.40,1.53
15.1530,0.06,0.12,-0.99,3.17,1.16,1.65
15.1550,0.06,0.12,-0.99,3.23,1.22,1.34
15.1710,0.05,0.12,-0.99,3.42,1.22,1.46
15.2000,0.05,0.12,-0.99,3.42,0.98,1.53
15.2100,0.05,0.12,-0.99,3.30,1.10,1.59
15.2270,0.05,0.12,-0.99,3.30,1.28,1.65
15.2430,0.06,0.12,-0.99,3.36,1.34,1.59
15.2600,0.06,0.12,-0.99,3.30,1.16,1.53
15.2770,0.06,0.12,-0.99,3.36,1.04,1.46
15.2920,0.05,0.12,-0.99,3.42,1.04,1.46
15.3090,0.06,0.12,-0.99,3.30,0.85,1.59
15.3250,0.06,0.12,-0.99,3.42,0.92,1.53
15.3410,0.06,0.12,-0.99,3.23,1.16,1.65
15.3570,0.06,0.12,-0.99,3.42,0.98,1.59
15.3730,0.06,0.12,-0.99,3.30,1.04,1.53
15.3890,0.06,0.12,-0.99,3.30,0.92,1.65
15.4050,0.05,0.12,-0.99,3.30,1.04,1.71
15.4210,0.06,0.12,-0.99,3.42,1.04,1.59
15.4360,0.06,0.12,-0.99,3.60,0.85,1.46
15.4510,0.06,0.12,-0.99,3.60,0.85,1.46
15.4590,0.05,0.12,-0.99,3.54,1.22,1.71
15.4760,0.05,0.12,-0.99,3.42,0.67,1.53
15.4950,0.06,0.12,-0.99,3.48,0.85,1.59
15.5110,0.06,0.12,-0.99,3.42,0.73,1.53
15.5270,0.06,0.12,-0.99,3.42,0.43,1.53
15.5420,0.06,0.12,-0.99,3.30,0.73,1.59
15.5570,0.05,0.12,-0.99,3.30,0.92,1.59
15.5730,0.06,0.12,-0.99,3.42,0.98,1.59
15.5890,0.06,0.12,-1.00,3.30,0.98,1.65
15.5950,0.06,0.12,-0.99,3.42,0.98,1.53
15.6110,0.06,0.12,-0.99,3.48,0.73,1.65
15.6330,0.06,0.12,-0.99,3.30,1.16,1.59
15.6500,0.06,0.12,-0.99,3.42,0.98,1.59
15.6660,0.05,0.12,-1.00,3.42,1.04,1.59
15.6820,0.06,0.12,-0.99,3.48,1.10,1.53
15.6980,0.06,0.12,-0.99,3.42,0.55,1.65
15.7150,0.05,0.12,-0.99,3.42,1.16,1.59
15.7170,0.05,0.12,-0.99,3.54,0.85,1.59
15.7390,0.06,0.12,-1.00,3.72,0.73,1.53
15.7550,0.06,0.12,-0.99,3.54,1.04,1.59
15.7720,0.06,0.12,-0.99,3.42,1.34,1.65
15.7900,0.06,0.12,-0.99,3.30,1.10,1.65
15.8060,0.06,0.12,-0.99,3.23,1.04,1.53
15.8220,0.06,0.12,-0.99,3.17,1.10,1.53
15.8390,0.05,0.12,-0.99,3.30,1.40,1.46
15.8550,0.06,0.12,-0.99,3.17,1.71,1.83
15.8710,0.06,0.12,-0.99,3.42,1.59,1.53
15.8870,0.06,0.12,-0.99,3.30,1.22,1.53
15.9010,0.05,0.12,-0.99,3.42,0.79,1.65
15.9060,0.06,0.12,-0.99,3.42,1.40,1.59
15.9210,0.05,0.12,-0.99,3.36,1.22,1.53
15.9500,0.06,0.12,-0.99,3.36,1.46,1.59
15.9610,0.06,0.12,-0.99,3.23,1.34,1.53
15.9780,0.06,0.12,-0.99,3.42,1.28,1.53
15.9940,0.05,0.12,-0.99,3.30,1.46,1.65
16.0100,0.05,0.12,-0.99,3.42,1.04,1.71
16.0250,0.06,0.12,-0.99,3.42,1.40,1.53
16.0420,0.05,0.12,-0.99,3.36,1.22,1.65
16.0580,0.05,0.12,-0.99,3.30,1.46,1.83
16.0740,0.06,0.12,-0.99,3.23,1.22,1.71
16.0900,0.06,0.12,-0.99,3.17,0.98,1.59
16.1060,0.06,0.12,-0.99,3.30,0.98,1.59
16.1230,0.06,0.12,-0.99,3.42,1.53,1.53
16.1390,0.06,0.12,-0.99,3.48,1.04,1.71
16.1550,0.06,0.12,-0.99,3.23,1.83,1.53
16.1700,0.06,0.12,-0.99,3.42,1.34,1.53
16.1780,0.05,0.12,-0.99,3.36,1.28,1.59
16.1940,0.06,0.12,-0.99,3.42,1.53,1.83
16.2160,0.06,0.12,-0.99,3.48,1.53,1.53
16.2310,0.06,0.12,-0.99,3.36,1.28,1.46
16.2470,0.05,0.12,-0.99,3.42,1.40,1.59
16.2650,0.06,0.12,-0.99,3.36,1.46,1.65
16.2810,0.06,0.12,-0.99,3.60,0.85,1.53
16.2960,0.05,0.12,-0.99,3.54,1.10,1.71
16.3120,0.05,0.12,-0.99,3.36,1.16,1.65
16.3270,0.06,0.12,-0.99,3.17,0.73,1.71
16.3420,0.05,0.12,-0.99,3.23,1.46,1.83
16.3480,0.06,0.12,-0.99,3.23,1.16,1.77
16.3630,0.06,0.12,-0.99,3.30,1.46,1.71
16.3870,0.06,0.12,-0.99,3.36,1.28,1.65
16.4040,0.06,0.12,-0.99,3.36,1.10,1.59
16.4050,0.06,0.12,-0.99,3.36,1.46,1.71
16.4210,0.06,0.12,-0.99,3.42,1.46,1.83
16.4520,0.05,0.12,-0.99,3.23,1.40,1.71
16.4690,0.05,0.12,-0.99,3.23,1.34,1.65
16.4850,0.06,0.12,-0.99,3.17,1.34,1.71
16.4870,0.05,0.12,-0.99,3.36,1.59,1.59
16.5150,0.06,0.12,-0.99,3.30,1.34,1.65
16.5250,0.06,0.12,-0.99,3.30,1.46,1.77
16.5420,0.06,0.12,-0.99,3.36,1.40,1.65
16.5580,0.06,0.12,-0.99,3.48,1.40,1.59
16.5740,0.06,0.12,-0.99,3.54,1.28,1.65
16.5910,0.06,0.12,-0.99,3.30,1.28,1.46
16.6080,0.06,0.12,-0.99,3.36,1.53,1.46
16.6240,0.05,0.12,-0.99,3.36,1.16,1.46
16.6400,0.05,0.12,-0.99,3.42,1.53,1.65
16.6560,0.06,0.12,-0.99,3.48,1.16,1.59
16.6730,0.05,0.12,-0.99,3.17,1.40,1.53
16.6880,0.06,0.12,-0.99,3.11,1.16,1.59
16.7030,0.06,0.12,-0.99,3.23,1.16,1.59
16.7180,0.06,0.12,-0.99,3.23,1.59,1.71
16.7350,0.05,0.12,-0.99,3.23,1.16,1.59
16.7500,0.06,0.12,-0.99,3.23,1.59,1.65
16.7660,0.06,0.12,-0.99,3.36,1.16,1.59
16.7810,0.06,0.12,-0.99,3.36,1.16,1.59
16.7910,0.06,0.12,-0.99,3.23,1.04,1.65
16.8080,0.06,0.12,-0.99,3.42,1.22,1.59
16.8250,0.06,0.12,-0.99,3.42,0.98,1.71
16.8420,0.06,0.12,-0.99,3.42,1.10,1.59
16.8580,0.06,0.12,-0.99,3.36,0.92,1.65
16.8740,0.06,0.12,-0.99,3.42,1.04,1.59
16.8910,0.06,0.12,-1.00,3.17,1.40,1.53
16.9070,0.05,0.12,-0.99,3.23,1.22,1.59
16.9220,0.06,0.12,-1.00,3.23,1.40,1.65
16.9380,0.06,0.12,-0.99,3.36,1.34,1.53
16.9540,0.06,0.12,-0.99,3.54,0.92,1.59
16.9710,0.06,0.12,-0.99,3.23,1.28,1.65
16.9870,0.06,0.12,-0.99,3.23,1.40,1.71
16.9910,0.06,0.12,-0.99,3.23,1.53,1.77
17.0070,0.06,0.12,-0.99,3.36,1.04,1.53
17.0330,0.05,0.12,-0.99,3.48,0.98,1.65
17.0440,0.06,0.12,-0.99,3.36,1.10,1.53
17.0610,0.06,0.12,-0.99,3.30,1.10,1.65
17.0770,0.06,0.12,-0.99,3.17,1.16,1.65
17.0930,0.05,0.12,-0.99,3.54,0.98,1.53
17.1090,0.05,0.12,-0.99,3.36,1.34,1.59
17.1240,0.05,0.12,-0.99,3.42,0.85,1.40
17.1390,0.05,0.12,-0.99,3.30,1.10,1.53
17.1550,0.05,0.12,-0.99,3.17,1.22,1.59
17.1610,0.06,0.12,-0.99,3.36,0.79,1.59
17.1770,0.06,0.12,-0.99,3.54,1.10,1.71
17.1990,0.06,0.12,-0.99,3.54,1.22,1.65
17.2160,0.06,0.12,-0.99,3.54,1.34,1.53
17.2320,0.06,0.12,-1.00,3.48,1.28,1.71
17.2490,0.05,0.12,-0.99,3.30,1.28,1.65
17.2650,0.06,0.12,-0.99,3.30,1.40,1.53
17.2790,0.06,0.12,-0.99,3.42,1.46,1.59
17.2940,0.05,0.12,-0.99,3.48,1.34,1.59
17.3100,0.06,0.12,-0.99,3.54,1.04,1.59
17.3250,0.06,0.12,-0.99,3.42,0.92,1.65
17.3410,0.05,0.12,-0.99,3.30,0.92,1.53
17.3560,0.05,0.12,-0.99,3.48,1.46,1.59
17.3660,0.05,0.12,-0.99,3.42,1.16,1.71
17.3820,0.05,0.12,-0.99,3.54,0.98,1.59
17.4010,0.05,0.12,-0.99,3.30,1.16,1.53
17.4170,0.06,0.12,-0.99,3.17,1.22,1.71
17.4320,0.06,0.12,-0.99,3.42,1.16,1.83
17.4480,0.06,0.12,-0.99,3.42,1.40,1.59
17.4640,0.05,0.12,-0.99,3.30,1.40,1.65
17.4720,0.05,0.12,-0.99,3.48,1.22,1.53
17.4950,0.06,0.12,-0.99,3.42,1.10,1.71
17.5050,0.06,0.12,-0.99,3.42,1.34,1.71
17.5220,0.06,0.12,-0.99,3.36,1.16,1.59
17.5390,0.06,0.12,-0.99,3.23,0.92,1.59
17.5560,0.05,0.12,-0.99,3.23,1.40,1.53
17.5710,0.05,0.12,-0.99,3.42,1.46,1.59
17.5880,0.05,0.12,-0.99,3.30,1.10,1.46
17.6040,0.06,0.12,-0.99,3.17,1.77,1.65
17.6200,0.05,0.12,-0.99,3.17,1.16,1.65
17.6370,0.05,0.12,-0.99,3.23,1.16,1.71
17.6530,0.06,0.12,-0.99,3.36,1.28,1.53
17.6550,0.05,0.12,-0.99,3.60,0.79,1.53
17.6710,0.06,0.12,-0.99,3.30,1.04,1.40
17.6930,0.06,0.12,-0.99,3.36,0.85,1.65
17.7110,0.05,0.12,-0.99,3.42,0.98,1.59
17.7270,0.06,0.12,-0.99,3.54,0.98,1.46
17.7420,0.06,0.12,-0.99,3.60,1.04,1.53
17.7580,0.06,0.12,-0.99,3.36,1.16,1.77
17.7610,0.06,0.12,-0.99,3.30,1.04,1.53
17.7760,0.06,0.12,-0.99,3.30,1.40,1.59
17.8050,0.05,0.12,-0.99,3.36,1.34,1.59
17.8200,0.06,0.12,-0.99,3.30,1.22,1.71
17.8310,0.06,0.12,-0.99,3.42,1.16,1.83
17.8480,0.06,0.12,-0.99,3.30,1.22,1.65
17.8640,0.06,0.12,-0.99,3.36,0.73,1.46
17.8800,0.06,0.12,-0.99,3.30,1.16,1.59
17.8970,0.06,0.12,-0.99,3.17,1.65,1.71
17.9130,0.06,0.12,-0.99,3.36,1.10,1.53
17.9300,0.05,0.12,-0.99,3.30,1.28,1.65
17.9460,0.06,0.12,-0.99,3.36,1.46,1.59
17.9610,0.06,0.12,-1.00,3.36,1.53,1.71
17.9760,0.06,0.12,-0.99,3.42,1.34,1.65
17.9920,0.06,0.12,-0.99,3.17,1.16,1.53
18.0090,0.06,0.12,-0.99,3.30,1.16,1.65
18.0230,0.06,0.12,-0.99,3.54,0.98,1.53
18.0380,0.05,0.12,-0.99,3.36,0.92,1.53
18.0530,0.05,0.12,-0.99,3.42,0.98,1.53
18.0640,0.06,0.12,-0.99,3.30,1.28,1.65
18.0800,0.06,0.12,-0.99,3.23,1.16,1.65
18.0970,0.06,0.12,-0.99,3.42,0.79,1.65
18.1130,0.06,0.12,-0.99,3.30,1.34,1.46
18.1280,0.06,0.12,-0.99,3.42,1.40,1.59
18.1440,0.05,0.12,-1.00,3.30,1.22,1.71
18.1520,0.05,0.12,-0.99,3.30,0.98,1.59
18.1730,0.05,0.12,-0.99,3.30,1.22,1.53
18.1850,0.05,0.12,-0.99,3.36,1.28,1.65
18.2030,0.06,0.12,-0.99,3.17,1.22,1.71
18.2190,0.06,0.12,-0.99,3.30,1.40,1.71
18.2340,0.05,0.12,-0.99,3.23,1.46,1.71
18.2500,0.06,0.12,-0.99,3.30,1.46,1.59
18.2660,0.06,0.12,-0.99,3.54,1.53,1.59
18.2830,0.05,0.12,-0.99,3.30,1.40,1.77
18.2980,0.06,0.12,-1.00,3.17,1.53,1.89
18.3140,0.05,0.12,-0.99,3.54,1.04,1.53
18.3300,0.06,0.12,-0.99,3.54,1.16,1.53
18.3460,0.05,0.12,-0.99,3.23,1.34,1.59
18.3510,0.06,0.12,-0.99,3.30,1.22,1.53
18.3680,0.05,0.12,-0.99,3.30,1.22,1.53
18.3900,0.06,0.12,-0.99,3.36,1.22,1.53
18.4060,0.05,0.12,-0.99,3.48,1.40,1.59
18.4230,0.06,0.12,-0.99,3.42,1.10,1.40
18.4390,0.05,0.12,-0.99,3.23,0.85,1.40
18.4550,0.05,0.12,-0.99,3.11,1.46,1.77
18.4570,0.05,0.12,-0.99,3.23,1.28,1.59
18.4880,0.06,0.12,-0.99,3.23,1.28,1.65
18.5030,0.05,0.12,-1.00,3.42,1.53,1.53
18.5190,0.05,0.12,-0.99,3.30,1.53,1.59
18.5230,0.05,0.12,-0.99,3.23,1.53,1.71
18.5430,0.05,0.12,-0.99,3.23,1.28,1.65
18.5670,0.06,0.12,-0.99,3.23,1.46,1.53
18.5810,0.06,0.12,-0.99,3.36,1.71,1.65
18.5940,0.06,0.12,-0.99,3.23,1.40,1.46
18.6110,0.06,0.12,-0.99,3.42,1.28,1.46
18.6260,0.06,0.12,-0.99,3.30,1.22,1.53
18.6420,0.05,0.12,-0.99,3.23,1.16,1.65
18.6570,0.06,0.12,-0.99,3.23,1.40,1.46
18.6660,0.05,0.12,-0.99,3.05,1.53,1.59
18.6820,0.05,0.12,-0.99,3.30,1.40,1.59
18.7010,0.06,0.12,-0.99,3.23,1.65,1.71
18.7180,0.06,0.12,-0.99,3.23,1.40,1.59
18.7360,0.06,0.12,-0.99,3.42,1.22,1.65
18.7510,0.05,0.12,-0.99,3.17,1.46,1.59
18.7680,0.05,0.12,-1.00,3.23,1.71,1.77
18.7850,0.06,0.12,-0.99,3.36,1.59,1.65
18.8000,0.05,0.12,-0.99,3.48,1.28,1.59
18.8170,0.06,0.12,-0.99,3.30,1.65,1.71
18.8330,0.05,0.12,-0.99,3.30,1.71,1.65
18.8480,0.05,0.12,-0.99,3.30,1.46,1.59
18.8650,0.06,0.12,-0.99,3.30,1.83,1.59
18.8810,0.06,0.12,-0.99,3.23,1.59,1.65
18.8970,0.06,0.12,-0.99,3.11,1.71,1.53
18.9030,0.06,0.12,-0.99,3.23,1.65,1.59
18.9280,0.06,0.12,-0.99,3.23,1.46,1.65
18.9350,0.06,0.12,-0.99,3.30,2.01,1.59
18.9520,0.06,0.12,-0.99,3.17,1.59,1.53
18.9680,0.06,0.12,-0.99,3.54,1.28,1.59
18.9840,0.06,0.12,-0.99,3.23,1.53,1.65
19.0040,0.06,0.12,-0.99,3.36,1.71,1.65
19.0200,0.06,0.12,-0.99,3.17,1.71,1.65
19.0350,0.06,0.12,-0.99,3.17,1.40,1.65
19.0510,0.05,0.12,-0.99,3.36,1.59,1.65
19.0660,0.05,0.12,-0.99,3.30,1.10,1.59
19.0830,0.06,0.12,-0.99,3.23,1.53,1.65
19.0890,0.05,0.12,-0.99,3.23,1.71,1.65
19.1040,0.05,0.12,-0.99,3.36,1.77,1.65
19.1200,0.06,0.12,-0.99,3.36,1.34,1.53
19.1440,0.05,0.12,-0.99,3.42,1.22,1.65
19.1570,0.06,0.12,-0.99,3.48,1.28,1.59
19.1740,0.06,0.12,-0.99,3.48,1.34,1.65
19.1900,0.06,0.12,-0.99,3.30,1.53,1.77
19.2070,0.06,0.12,-0.99,3.42,1.34,1.59
19.2230,0.05,0.12,-0.99,3.23,1.46,1.71
19.2380,0.06,0.12,-0.99,3.36,1.71,1.59
19.2540,0.06,0.12,-0.99,3.48,0.98,1.65
19.2710,0.05,0.12,-0.99,3.17,1.04,1.71
19.2870,0.05,0.12,-0.99,3.36,1.16,1.65
19.2910,0.06,0.12,-0.99,3.23,1.22,1.65
19.3070,0.06,0.12,-0.99,3.30,1.16,1.53
19.3300,0.06,0.12,-0.99,3.48,1.34,1.53
19.3460,0.05,0.12,-0.99,3.30,1.28,1.53
19.3620,0.06,0.12,-0.99,3.42,1.22,1.59
19.3780,0.06,0.12,-0.99,3.42,1.34,1.53
19.3940,0.05,0.12,-0.99,3.36,1.46,1.53
19.4090,0.06,0.12,-0.99,3.30,1.10,1.53
19.4240,0.06,0.12,-0.99,3.42,1.16,1.71
19.4430,0.05,0.12,-0.99,3.17,1.46,1.65
19.4590,0.06,0.12,-0.99,3.23,1.46,1.59
19.4760,0.05,0.12,-0.99,3.36,1.46,1.53
19.4910,0.06,0.12,-0.99,3.05,1.34,1.59
19.5070,0.05,0.12,-0.99,3.11,1.16,1.40
19.5230,0.05,0.12,-0.99,3.17,1.04,1.59
19.5390,0.06,0.12,-0.99,3.30,1.22,1.65
19.5540,0.06,0.12,-0.99,3.36,1.40,1.59
19.5620,0.06,0.12,-0.99,3.48,1.59,1.53
19.5800,0.06,0.12,-0.99,3.17,1.46,1.46
19.5960,0.06,0.12,-0.99,3.36,1.46,1.71
19.6140,0.06,0.12,-0.99,3.54,1.83,1.59
19.6290,0.06,0.12,-0.99,3.23,1.28,1.53
19.6450,0.06,0.12,-0.99,3.23,1.04,1.59
19.6610,0.05,0.12,-0.99,3.42,0.92,1.59
19.6760,0.06,0.12,-0.99,3.30,1.28,1.59
19.6910,0.05,0.12,-0.99,3.17,1.16,1.59
19.7070,0.06,0.12,-0.99,3.42,1.16,1.65
19.7230,0.06,0.12,-0.99,3.42,1.77,1.83
19.7390,0.06,0.12,-0.99,3.54,1.10,1.59
19.7470,0.06,0.12,-0.99,3.30,1.34,1.59
19.7630,0.06,0.12,-0.99,3.23,1.04,1.65
19.7840,0.06,0.12,-0.99,3.36,1.28,1.65
19.8010,0.06,0.12,-0.99,3.30,1.16,1.53
19.8190,0.06,0.12,-0.99,3.36,1.10,1.65
19.8350,0.06,0.12,-0.99,3.42,1.10,1.46
19.8510,0.06,0.12,-0.99,3.23,1.28,1.65
19.8680,0.06,0.12,-0.99,3.17,1.53,1.65
19.8830,0.06,0.12,-0.99,3.11,1.53,1.53
19.8990,0.06,0.12,-0.99,3.30,1.65,1.65
19.9150,0.06,0.12,-0.99,3.23,1.34,1.71
19.9300,0.06,0.12,-0.99,3.42,1.34,1.71
19.9340,0.05,0.12,-0.99,3.48,1.59,1.65
19.9490,0.06,0.12,-0.99,3.30,1.83,1.71
19.9730,0.05,0.12,-0.99,3.48,1.65,1.65
19.9890,0.06,0.12,-0.99,3.42,1.10,1.71
20.0050,0.06,0.12,-0.99,3.48,1.28,1.65
20.0220,0.06,0.12,-0.99,3.36,1.34,1.71
20.0390,0.06,0.12,-0.99,3.42,1.22,1.59
20.0550,0.06,0.12,-0.99,3.36,1.22,1.59
20.0700,0.06,0.12,-0.99,3.30,1.10,1.65
20.0730,0.05,0.12,-0.99,3.54,1.28,1.59
20.0880,0.06,0.12,-0.99,3.36,0.79,1.59
20.1110,0.05,0.12,-0.99,3.36,1.28,1.71
20.1270,0.05,0.12,-0.99,3.42,1.16,1.65
20.1460,0.06,0.12,-0.99,3.23,0.98,1.65
20.1620,0.06,0.12,-0.99,3.11,1.46,1.53
20.1770,0.06,0.12,-0.99,3.48,1.04,1.65
20.1920,0.06,0.12,-0.99,3.42,1.10,1.53
20.1950,0.06,0.12,-0.99,3.42,1.34,1.65
20.2110,0.06,0.12,-0.99,3.36,1.40,1.65
20.2390,0.05,0.12,-0.99,3.36,0.85,1.46
20.2510,0.06,0.12,-0.99,3.42,1.34,1.65
20.2670,0.06,0.12,-0.99,3.48,1.34,1.65
20.2830,0.05,0.12,-0.99,3.23,1.22,1.83
20.3010,0.06,0.12,-0.99,3.36,1.28,1.59
20.3170,0.06,0.12,-0.99,3.42,1.16,1.59
20.3330,0.05,0.12,-0.99,3.48,1.34,1.46
20.3490,0.05,0.12,-0.99,3.36,1.16,1.65
20.3640,0.05,0.12,-0.99,3.48,0.85,1.65
20.3670,0.05,0.12,-0.99,3.48,1.28,1.46
20.3830,0.06,0.12,-0.99,3.36,1.40,1.77
20.4050,0.05,0.12,-0.99,3.30,1.53,1.77
20.4210,0.05,0.12,-0.99,3.36,1.10,1.71
20.4380,0.06,0.12,-0.99,3.17,1.16,1.59
20.4540,0.06,0.12,-0.99,3.17,1.34,1.53
20.4710,0.05,0.12,-0.99,3.36,1.28,1.59
20.4860,0.05,0.12,-0.99,3.48,1.04,1.46
20.5030,0.05,0.12,-0.99,3.17,1.28,1.53
20.5190,0.06,0.12,-0.99,3.11,1.46,1.71
20.5340,0.05,0.12,-0.99,3.42,1.16,1.65
20.5500,0.06,0.12,-0.99,3.11,1.40,1.46
20.5680,0.05,0.12,-0.99,3.48,1.34,1.65
20.5830,0.06,0.12,-0.99,3.23,1.40,1.59
20.5980,0.06,0.12,-0.99,3.23,1.28,1.59
20.6040,0.06,0.12,-0.99,3.30,1.59,1.53
20.6210,0.05,0.12,-0.99,3.23,1.34,1.59
20.6430,0.06,0.12,-0.99,3.23,1.40,1.59
20.6580,0.05,0.12,-0.99,3.30,1.22,1.59
20.6750,0.06,0.12,-0.99,3.42,1.40,1.71
20.6910,0.05,0.12,-0.99,3.36,1.46,1.77
20.7070,0.05,0.12,-0.99,3.23,1.53,1.77
20.7100,0.06,0.12,-0.99,3.42,1.10,1.53
20.7250,0.06,0.12,-0.99,3.42,1.10,1.46
20.7530,0.05,0.12,-0.99,3.36,1.16,1.65
20.7640,0.06,0.12,-0.99,3.36,1.10,1.59
20.7800,0.05,0.12,-0.99,3.30,1.04,1.59
20.7970,0.06,0.12,-0.99,3.11,1.04,1.46
20.8130,0.06,0.12,-0.99,3.48,1.77,1.59
20.8300,0.06,0.12,-0.99,3.54,1.34,1.77
20.8460,0.05,0.12,-0.99,3.30,1.40,1.65
20.8610,0.05,0.12,-0.99,3.23,1.16,1.65
20.8630,0.06,0.12,-0.99,3.36,1.28,1.77
20.8920,0.05,0.12,-0.99,3.23,1.28,1.77
20.9010,0.06,0.12,-0.99,3.36,1.16,1.46
20.9170,0.05,0.12,-0.99,3.11,0.92,1.59
20.9340,0.06,0.12,-0.99,3.48,1.22,1.59
20.9510,0.05,0.12,-0.99,3.48,1.10,1.65
20.9680,0.06,0.12,-0.99,3.48,1.22,1.40
20.9850,0.06,0.12,-0.99,3.42,1.53,1.59
21.0020,0.05,0.12,-0.99,3.36,1.34,1.53
21.0170,0.06,0.12,-0.99,3.42,1.34,1.65
21.0330,0.06,0.12,-0.99,3.30,1.22,1.46
21.0490,0.06,0.12,-1.00,3.23,1.10,1.65
21.0650,0.06,0.12,-0.99,3.17,1.16,1.59
21.0670,0.05,0.12,-0.99,3.17,1.16,1.46
21.0830,0.06,0.12,-0.99,3.36,1.10,1.71
21.1050,0.05,0.12,-0.99,3.23,1.40,1.77
21.1210,0.06,0.12,-0.99,3.23,1.10,1.71
21.1380,0.06,0.12,-0.99,3.30,1.28,1.65
21.1540,0.06,0.12,-0.99,3.36,1.53,1.71
21.1720,0.06,0.12,-0.99,3.05,1.16,1.46
21.1880,0.05,0.12,-0.99,3.30,1.34,1.59
21.2040,0.06,0.12,-0.99,3.30,1.04,1.53
21.2210,0.06,0.12,-0.99,3.36,1.16,1.53
21.2230,0.06,0.12,-0.99,3.17,1.59,1.65
21.2530,0.06,0.12,-0.99,3.36,1.40,1.71
21.2700,0.05,0.12,-0.99,3.48,1.28,1.65
21.2710,0.06,0.12,-0.99,3.48,1.28,1.46
21.2870,0.05,0.12,-0.99,3.17,1.53,1.59
21.3160,0.06,0.12,-0.99,3.23,1.22,1.53
21.3310,0.05,0.12,-0.99,3.48,1.46,1.53
21.3430,0.06,0.12,-0.99,3.05,1.46,1.71
21.3590,0.06,0.12,-0.99,3.30,1.46,1.59
21.3750,0.05,0.12,-0.99,3.36,1.22,1.59
21.3900,0.06,0.12,-0.99,3.11,1.28,1.53
21.3990,0.05,0.12,-0.99,3.30,1.28,1.59
21.4200,0.05,0.12,-0.99,3.36,1.46,1.59
21.4320,0.06,0.12,-0.99,3.36,1.22,1.46
21.4490,0.05,0.12,-0.99,3.42,1.34,1.77
21.4660,0.06,0.12,-0.99,3.17,1.28,1.53
21.4830,0.05,0.12,-0.99,3.30,1.22,1.59
21.4840,0.05,0.12,-0.99,3.54,0.98,1.59
21.4990,0.05,0.12,-0.99,3.36,1.28,1.59
21.5280,0.05,0.12,-0.99,3.42,1.22,1.59
21.5430,0.06,0.12,-0.99,3.11,1.34,1.59
21.5580,0.05,0.12,-0.99,3.36,1.59,1.71
21.5730,0.06,0.12,-0.99,3.17,1.28,1.53
21.5870,0.06,0.12,-0.99,3.17,1.59,1.71
21.6030,0.06,0.12,-0.99,3.23,1.46,1.71
21.6150,0.05,0.12,-0.99,3.23,1.34,1.71
21.6310,0.06,0.12,-0.99,3.48,1.46,1.65
21.6480,0.05,0.12,-0.99,3.30,1.28,1.71
21.6640,0.05,0.12,-0.99,3.17,1.34,1.46
21.6800,0.06,0.12,-0.99,3.30,1.53,1.59
21.6960,0.05,0.12,-0.99,3.48,1.04,1.46
21.7110,0.05,0.12,-0.99,3.11,1.46,1.59
21.7150,0.06,0.12,-0.99,3.30,1.40,1.53
21.7310,0.05,0.12,-0.99,3.60,1.28,1.59
21.7540,0.05,0.12,-0.99,3.36,1.22,1.40
21.7700,0.05,0.12,-0.99,3.36,1.59,1.65
21.7870,0.06,0.12,-0.99,3.17,1.22,1.65
21.8040,0.06,0.12,-0.99,3.48,1.16,1.59
21.8200,0.06,0.12,-0.99,3.42,1.22,1.65
21.8370,0.06,0.12,-0.99,3.48,1.22,1.53
21.8520,0.06,0.12,-0.99,3.30,1.53,1.59
21.8540,0.06,0.12,-0.99,3.42,1.46,1.65
21.8840,0.06,0.12,-0.99,3.42,1.40,1.53
21.8870,0.06,0.12,-0.99,3.23,1.04,1.59
21.9020,0.05,0.12,-0.99,3.36,1.04,1.65
21.9240,0.06,0.12,-0.99,3.30,1.34,1.46
21.9410,0.05,0.12,-0.99,3.36,0.98,1.59
21.9580,0.06,0.12,-0.99,3.36,1.46,1.83
21.9740,0.06,0.12,-0.99,3.36,1.40,1.59
21.9910,0.05,0.12,-0.99,3.23,1.40,1.71
22.0070,0.06,0.12,-0.99,3.30,1.46,1.71
22.0090,0.05,0.12,-0.99,3.36,1.10,1.71
22.0390,0.06,0.12,-0.99,3.60,0.85,1.53
22.0550,0.06,0.12,-0.99,3.30,1.40,1.65
22.0710,0.06,0.12,-0.99,3.30,1.16,1.59
22.0870,0.05,0.12,-0.99,3.23,1.10,1.59
22.1030,0.06,0.12,-0.99,3.42,1.28,1.71
22.1200,0.06,0.12,-0.99,3.23,1.22,1.65
22.1260,0.06,0.12,-0.99,3.30,1.40,1.59
22.1500,0.06,0.12,-0.99,3.48,1.34,1.65
22.1640,0.06,0.12,-0.99,3.36,1.04,1.59
22.1810,0.06,0.12,-0.99,3.30,1.34,1.59
22.1970,0.06,0.12,-0.99,3.42,1.10,1.83
22.2130,0.06,0.12,-0.99,3.48,1.10,1.59
22.2300,0.06,0.12,-0.99,3.23,1.40,1.71
22.2450,0.06,0.12,-0.99,3.42,1.40,1.65
22.2600,0.05,0.12,-0.99,3.36,1.04,1.65
22.2750,0.05,0.12,-0.99,3.30,1.53,1.59
22.2910,0.05,0.12,-0.99,3.42,1.16,1.59
22.3070,0.06,0.12,-0.99,3.36,1.40,1.71
22.3140,0.06,0.12,-0.99,3.23,1.46,1.65
22.3300,0.06,0.12,-0.99,3.17,1.53,1.59
22.3510,0.05,0.12,-0.99,3.30,1.04,1.65
22.3680,0.05,0.12,-1.00,3.42,1.16,1.59
22.3860,0.06,0.12,-0.99,3.30,1.22,1.65
22.4030,0.06,0.12,-0.99,3.42,1.16,1.59
22.4180,0.05,0.12,-0.99,3.30,1.28,1.65
22.4350,0.06,0.12,-0.99,3.30,1.28,1.71
22.4510,0.06,0.12,-0.99,3.36,1.34,1.71
22.4520,0.06,0.12,-0.99,3.23,1.16,1.53
22.4690,0.05,0.12,-0.99,3.30,1.16,1.59
22.4850,0.06,0.12,-0.99,3.30,1.59,1.65
22.5020,0.06,0.12,-0.99,3.48,1.10,1.59
22.5190,0.06,0.12,-0.99,3.11,0.98,1.65
22.5460,0.06,0.12,-0.99,3.42,1.10,1.53
22.5560,0.05,0.12,-0.99,3.54,0.98,1.46
22.5730,0.05,0.12,-0.99,3.36,1.16,1.65
22.5900,0.05,0.12,-0.99,3.30,1.10,1.46
22.6070,0.06,0.12,-0.99,3.23,1.28,1.65
22.6230,0.06,0.12,-0.99,3.36,1.10,1.53
22.6380,0.05,0.12,-0.99,3.48,1.22,1.59
22.6550,0.05,0.12,-0.99,3.23,1.46,1.77
22.6710,0.06,0.12,-0.99,3.42,1.04,1.59
22.6740,0.06,0.12,-0.99,3.42,1.46,1.46
22.7030,0.06,0.12,-0.99,3.11,1.34,1.71
22.7060,0.05,0.12,-0.99,3.23,1.22,1.53
22.7220,0.06,0.12,-0.99,3.17,1.10,1.53
22.7450,0.06,0.12,-0.99,3.30,1.40,1.59
22.7630,0.06,0.12,-0.99,3.36,1.46,1.65
22.7790,0.06,0.12,-0.99,3.36,1.28,1.46
22.7950,0.06,0.12,-0.99,3.36,1.16,1.59
22.8100,0.06,0.12,-0.99,3.36,1.16,1.59
22.8260,0.05,0.12,-0.99,3.30,1.40,1.40
22.8410,0.06,0.12,-0.99,3.17,1.34,1.59
22.8510,0.05,0.12,-0.99,3.17,1.22,1.53
22.8620,0.05,0.12,-0.99,3.30,1.34,1.65
22.8840,0.05,0.12,-0.99,3.23,1.10,1.53
22.9010,0.06,0.12,-0.99,3.60,0.98,1.59
22.9190,0.06,0.12,-0.99,3.48,1.53,1.65
22.9340,0.06,0.12,-0.99,3.30,1.22,1.59
22.9500,0.06,0.12,-0.99,3.42,1.28,1.46
22.9670,0.06,0.12,-0.99,3.30,1.34,1.53
22.9830,0.05,0.12,-0.99,3.48,0.85,1.53
22.9990,0.05,0.12,-0.99,3.36,1.22,1.71
23.0150,0.06,0.12,-0.99,3.36,1.28,1.59
23.0310,0.05,0.12,-0.99,3.17,1.71,1.65
23.0470,0.05,0.12,-0.99,3.42,1.04,1.65
23.0630,0.06,0.12,-0.99,3.48,1.04,1.59
23.0780,0.06,0.12,-0.99,3.36,1.22,1.59
23.0940,0.06,0.12,-0.99,3.54,0.98,1.71
23.1100,0.06,0.12,-0.99,3.36,1.53,1.59
23.1250,0.05,0.12,-0.99,3.36,1.34,1.71
23.1390,0.06,0.12,-0.99,3.36,1.04,1.77
23.1510,0.06,0.12,-0.99,3.54,1.28,1.59
23.1670,0.06,0.12,-0.99,3.30,1.22,1.65
23.1840,0.06,0.12,-0.99,3.30,1.59,1.77
23.2000,0.05,0.12,-0.99,3.30,1.16,1.46
23.2170,0.06,0.12,-0.99,3.36,1.34,1.71
23.2330,0.06,0.12,-0.99,3.36,1.40,1.59
23.2490,0.06,0.12,-0.99,3.42,1.34,1.65
23.2650,0.06,0.12,-0.99,3.36,0.98,1.53
23.2810,0.06,0.12,-0.99,3.48,0.98,1.65
23.2970,0.06,0.12,-0.99,3.48,1.34,1.71
23.3130,0.05,0.12,-0.99,3.36,1.22,1.59
23.3180,0.06,0.12,-0.99,3.42,1.04,1.53
23.3340,0.06,0.12,-0.99,3.54,1.04,1.65
23.3590,0.06,0.12,-0.99,3.42,0.85,1.65
23.3750,0.05,0.12,-0.99,3.36,1.10,1.53
23.3910,0.06,0.12,-0.99,3.23,1.22,1.65
23.4070,0.06,0.12,-0.99,3.36,1.40,1.59
23.4230,0.06,0.12,-0.99,3.23,1.04,1.46
23.4380,0.05,0.12,-0.99,3.30,0.98,1.46
23.4540,0.06,0.12,-0.99,3.30,1.22,1.46
23.4700,0.06,0.12,-0.99,3.36,1.22,1.53
23.4850,0.05,0.12,-0.99,3.30,1.53,1.65
23.5000,0.05,0.12,-0.99,3.54,1.59,1.46
23.5150,0.05,0.12,-0.99,3.54,0.98,1.65
23.5270,0.05,0.12,-0.99,3.60,0.73,1.59
23.5430,0.06,0.12,-0.99,3.23,1.22,1.59
23.5610,0.05,0.12,-0.99,3.36,0.98,1.53
23.5770,0.06,0.12,-0.99,3.36,1.34,1.65
23.5930,0.05,0.12,-0.99,3.30,1.46,1.65
23.6080,0.05,0.12,-0.99,3.36,0.92,1.65
23.6240,0.05,0.12,-0.99,3.30,1.59,1.59
23.6400,0.05,0.12,-0.99,3.30,0.98,1.65
23.6560,0.06,0.12,-0.99,3.23,1.34,1.65
23.6710,0.06,0.12,-0.99,3.30,1.40,1.77
23.6870,0.06,0.12,-0.99,3.48,1.16,1.34
23.7030,0.05,0.12,-0.99,3.23,1.53,1.46
23.7100,0.06,0.12,-0.99,3.42,1.28,1.65
23.7250,0.05,0.12,-0.99,3.30,1.04,1.65
23.7450,0.05,0.12,-0.99,3.30,0.92,1.65
23.7630,0.05,0.12,-0.99,3.48,0.92,1.59
23.7780,0.05,0.12,-0.99,3.42,1.16,1.65
23.7940,0.06,0.12,-0.99,3.48,0.98,1.59
23.8080,0.05,0.12,-0.99,3.30,1.04,1.40
23.8140,0.06,0.12,-0.99,3.30,1.28,1.53
23.8400,0.06,0.12,-0.99,3.42,1.53,1.59
23.8550,0.05,0.12,-0.99,3.23,1.40,1.59
23.8620,0.05,0.12,-0.99,3.36,1.40,1.53
23.8780,0.05,0.12,-0.99,3.17,1.10,1.59
23.9000,0.06,0.12,-0.99,3.23,0.92,1.65
23.9160,0.06,0.12,-0.99,3.36,1.16,1.46
23.9340,0.06,0.12,-0.99,3.36,1.10,1.65
23.9500,0.06,0.12,-0.99,3.23,1.28,1.71
23.9670,0.05,0.12,-0.99,3.48,1.10,1.46
23.9830,0.05,0.12,-0.99,3.36,1.16,1.53
23.9990,0.06,0.12,-0.99,3.48,0.79,1.59
24.0150,0.05,0.12,-0.99,3.42,0.92,1.65
24.0320,0.06,0.12,-0.99,3.23,1.16,1.53
24.0480,0.06,0.12,-0.99,3.17,1.34,1.77
24.0640,0.06,0.12,-0.99,3.30,1.16,1.59
24.0780,0.05,0.12,-0.99,3.48,1.40,1.53
24.0940,0.06,0.12,-0.99,3.30,1.22,1.71
24.1090,0.06,0.12,-0.99,3.48,1.46,1.59
24.1260,0.06,0.12,-0.99,3.36,1.04,1.59
24.1400,0.06,0.12,-0.99,3.30,1.28,1.59
24.1550,0.05,0.12,-0.99,3.30,1.34,1.71
24.1670,0.06,0.12,-0.99,3.36,0.92,1.53
24.1830,0.05,0.12,-0.99,3.36,0.92,1.59
24.2000,0.06,0.12,-0.99,3.36,1.04,1.53
24.2170,0.05,0.12,-0.99,3.23,1.28,1.71
24.2330,0.06,0.12,-0.99,3.36,1.34,1.77
24.2490,0.06,0.12,-0.99,3.30,1.10,1.59
24.2650,0.06,0.12,-0.99,3.30,1.40,1.65
24.2810,0.05,0.12,-0.99,3.42,0.92,1.46
24.2830,0.05,0.12,-0.99,3.54,0.85,1.65
24.2990,0.05,0.12,-0.99,3.23,1.22,1.53
24.3190,0.06,0.12,-0.99,3.05,1.16,1.53
24.3360,0.06,0.12,-0.99,3.17,1.16,1.46
24.3520,0.06,0.12,-0.99,3.23,1.53,1.65
24.3690,0.06,0.12,-0.99,3.30,1.16,1.53
24.3860,0.05,0.12,-0.99,3.48,1.22,1.53
24.4020,0.05,0.12,-0.99,3.11,0.92,1.40
24.4180,0.06,0.12,-0.99,3.36,0.85,1.53
24.4340,0.06,0.12,-0.99,3.23,0.98,1.59
24.4500,0.06,0.12,-0.99,3.23,1.40,1.53
24.4660,0.06,0.12,-0.99,3.42,1.04,1.59
24.4810,0.06,0.12,-0.99,3.30,1.16,1.65
24.4970,0.06,0.12,-0.99,3.42,1.04,1.65
24.5120,0.06,0.12,-0.99,3.11,1.46,1.59
24.5290,0.06,0.12,-0.99,3.36,1.65,1.71
24.5430,0.05,0.12,-0.99,3.42,1.04,1.77
24.5530,0.06,0.12,-0.99,3.36,1.28,1.59
24.5700,0.06,0.12,-0.99,3.36,1.40,1.65
24.5860,0.06,0.12,-0.99,3.17,1.10,1.71
24.6030,0.06,0.12,-0.99,3.23,0.92,1.53
24.6190,0.05,0.12,-0.99,3.23,1.04,1.59
24.6350,0.05,0.12,-0.99,3.30,1.53,1.59
24.6510,0.05,0.12,-0.99,3.23,1.34,1.46
24.6660,0.06,0.12,-0.99,3.30,1.46,1.65
24.6690,0.05,0.12,-0.99,3.36,1.40,1.71
24.6850,0.06,0.12,-0.99,3.17,1.22,1.65
24.7080,0.05,0.12,-0.99,3.36,1.16,1.46
24.7240,0.05,0.12,-0.99,3.30,1.53,1.71
24.7410,0.06,0.12,-0.99,3.30,1.22,1.59
24.7580,0.06,0.12,-0.99,3.23,1.22,1.71
24.7720,0.06,0.12,-0.99,3.60,0.98,1.53
24.7880,0.06,0.12,-0.99,3.42,1.28,1.53
24.8030,0.06,0.12,-0.99,3.42,1.10,1.53
24.8190,0.06,0.12,-0.99,3.23,1.22,1.65
24.8350,0.06,0.12,-0.99,3.36,1.16,1.65
24.8510,0.06,0.12,-0.99,3.30,1.22,1.59
24.8580,0.05,0.12,-0.99,3.42,1.10,1.65
24.8810,0.05,0.12,-0.99,3.36,1.28,1.71
24.8960,0.06,0.12,-0.99,3.30,1.53,1.53
24.9090,0.06,0.12,-0.99,3.30,1.16,1.59
24.9240,0.05,0.12,-0.99,3.17,1.53,1.53
24.9420,0.06,0.12,-0.99,3.30,0.79,1.65
24.9570,0.06,0.12,-0.99,3.17,1.04,1.46
24.9730,0.06,0.12,-0.99,3.23,0.92,1.53
24.9890,0.05,0.12,-0.99,3.23,1.40,1.65
24.9910,0.06,0.12,-0.99,3.17,1.22,1.59
25.0210,0.06,0.12,-0.99,3.42,1.16,1.71
25.0370,0.06,0.12,-0.99,3.54,1.10,1.65
25.0530,0.06,0.12,-0.99,3.42,1.16,1.59
25.0690,0.06,0.12,-0.99,3.42,1.46,1.71
25.0750,0.05,0.12,-0.99,3.23,1.53,1.59
25.0910,0.06,0.12,-0.99,3.42,1.04,1.71
25.1130,0.06,0.12,-0.99,3.42,0.98,1.46
25.1290,0.05,0.12,-0.99,3.36,1.16,1.71
25.1460,0.05,0.12,-0.99,3.54,1.46,1.65
25.1620,0.06,0.12,-0.99,3.48,1.22,1.46
25.1780,0.05,0.12,-0.99,3.36,1.16,1.59
25.1940,0.06,0.12,-0.99,3.23,1.46,1.65
25.2080,0.06,0.12,-0.99,3.30,1.46,1.77
25.2240,0.06,0.12,-0.99,3.05,1.40,1.59
25.2390,0.05,0.12,-0.99,3.05,1.65,1.53
25.2540,0.06,0.12,-0.99,3.30,1.34,1.59
25.2690,0.06,0.12,-0.99,3.42,1.28,1.65
25.2840,0.06,0.12,-0.99,3.30,1.71,1.65
25.2960,0.05,0.12,-0.99,3.36,1.59,1.65
25.3120,0.05,0.12,-0.99,3.42,1.46,1.59
25.3300,0.06,0.12,-0.99,3.42,1.46,1.53
25.3460,0.06,0.12,-0.99,3.30,1.34,1.59
25.3620,0.05,0.12,-0.99,3.30,1.46,1.71
25.3790,0.05,0.12,-0.99,3.30,1.16,1.65
25.3930,0.05,0.12,-0.99,3.17,1.28,1.65
25.4080,0.06,0.12,-0.99,3.48,1.53,1.53
25.4240,0.05,0.12,-0.99,3.36,1.10,1.59
25.4400,0.05,0.12,-0.99,3.30,1.53,1.71
25.4540,0.06,0.12,-0.99,3.30,1.22,1.59
25.4690,0.05,0.12,-0.99,3.36,1.34,1.65
25.4840,0.05,0.12,-0.99,3.23,1.53,1.65
25.4960,0.05,0.12,-0.99,3.36,1.34,1.53
25.5120,0.06,0.12,-0.99,3.42,1.34,1.65
25.5300,0.06,0.12,-0.99,3.23,1.10,1.71
25.5470,0.06,0.12,-0.99,3.54,1.04,1.65
25.5620,0.06,0.12,-0.99,3.42,1.16,1.71
25.5780,0.06,0.12,-0.99,3.11,1.40,1.46
25.5940,0.05,0.12,-0.99,3.30,0.92,1.65
25.6080,0.06,0.12,-0.99,3.36,0.98,1.53
25.6230,0.05,0.12,-0.99,3.36,1.22,1.53
25.6290,0.06,0.12,-0.99,3.17,1.16,1.65
25.6450,0.06,0.12,-0.99,3.54,0.79,1.53
25.6660,0.06,0.12,-0.99,3.05,1.22,1.65
25.6830,0.06,0.12,-0.99,3.23,1.34,1.65
25.7000,0.06,0.12,-0.99,3.17,1.28,1.71
25.7170,0.06,0.12,-0.99,3.17,1.16,1.71
25.7330,0.06,0.12,-0.99,3.48,1.10,1.59
25.7490,0.05,0.12,-0.99,3.42,0.92,1.59
25.7650,0.06,0.12,-0.99,3.36,1.40,1.71
25.7810,0.06,0.12,-0.99,3.17,1.04,1.53
25.7970,0.06,0.12,-0.99,3.17,1.28,1.53
25.8130,0.05,0.12,-0.99,3.17,1.53,1.59
25.8290,0.06,0.12,-0.99,3.30,1.65,1.59
25.8450,0.06,0.12,-0.99,3.30,1.28,1.59
25.8590,0.05,0.12,-0.99,3.23,1.46,1.71
25.8740,0.05,0.12,-0.99,3.30,1.46,1.46
25.8830,0.06,0.12,-0.99,3.30,1.34,1.53
25.9000,0.06,0.12,-0.99,3.17,1.34,1.53
25.9180,0.06,0.12,-0.99,3.05,1.16,1.46
25.9330,0.05,0.12,-0.99,3.48,1.22,1.59
25.9500,0.05,0.12,-0.99,3.17,1.22,1.71
25.9670,0.05,0.12,-1.00,3.23,1.34,1.53
25.9830,0.06,0.12,-0.99,3.36,1.04,1.65
26.0000,0.06,0.12,-0.99,3.30,1.46,1.65
26.0160,0.05,0.12,-0.99,3.11,1.34,1.46
26.0320,0.06,0.12,-0.99,3.36,1.16,1.65
26.0480,0.05,0.12,-0.99,3.30,1.46,1.59
26.0560,0.06,0.12,-0.99,3.36,1.28,1.59
26.0650,0.05,0.12,-0.99,3.42,1.10,1.53
26.0870,0.06,0.12,-0.99,3.23,1.04,1.71
26.1040,0.06,0.12,-0.99,3.42,1.22,1.59
26.1210,0.06,0.12,-0.99,3.42,1.16,1.65
26.1370,0.06,0.12,-0.99,3.42,1.04,1.46
26.1550,0.06,0.12,-0.99,3.48,1.04,1.34
26.1710,0.05,0.12,-1.00,3.36,1.59,1.65
26.1870,0.05,0.12,-0.99,3.30,0.98,1.59
26.2030,0.06,0.12,-0.99,3.42,0.73,1.53
26.2190,0.06,0.12,-0.99,3.30,1.28,1.59
26.2350,0.06,0.12,-0.99,3.30,0.85,1.59
26.2510,0.05,0.12,-0.99,3.48,1.28,1.59
26.2560,0.05,0.12,-0.99,3.23,1.22,1.53
26.2690,0.05,0.12,-0.99,3.36,1.28,1.71
26.2920,0.06,0.12,-0.99,3.23,1.16,1.53
26.3090,0.05,0.12,-0.99,3.36,1.22,1.59
26.3240,0.06,0.12,-0.99,3.23,1.34,1.83
26.3410,0.06,0.12,-0.99,3.30,1.28,1.59
26.3570,0.06,0.12,-0.99,3.30,1.16,1.53
26.3730,0.05,0.12,-0.99,3.30,1.53,1.59
26.3750,0.06,0.12,-0.99,3.23,1.59,1.59
26.4040,0.06,0.12,-0.99,3.48,1.04,1.46
26.4200,0.06,0.12,-0.99,3.30,1.22,1.59
26.4350,0.05,0.12,-0.99,3.36,1.59,1.59
26.4500,0.05,0.12,-0.99,3.30,0.92,1.59
26.4610,0.06,0.12,-0.99,3.42,1.16,1.65
26.4780,0.06,0.12,-0.99,3.23,1.16,1.59
26.4940,0.06,0.12,-0.99,3.30,1.34,1.65
26.5120,0.06,0.12,-0.99,3.42,1.22,1.59
26.5280,0.06,0.12,-1.00,3.23,1.22,1.71
26.5440,0.06,0.12,-0.99,3.30,1.28,1.59
26.5590,0.06,0.12,-0.99,3.48,1.40,1.71
26.5750,0.05,0.12,-0.99,3.23,1.34,1.77
26.5910,0.06,0.12,-0.99,3.42,1.28,1.46
26.6070,0.05,0.12,-0.99,3.30,1.34,1.65
26.6230,0.05,0.12,-0.99,3.42,1.04,1.40
26.6390,0.05,0.12,-0.99,3.30,1.04,1.59
26.6450,0.06,0.12,-0.99,3.36,1.22,1.65
26.6600,0.05,0.12,-0.99,3.42,0.85,1.59
26.6800,0.06,0.12,-0.99,3.42,1.10,1.46
26.6970,0.05,0.12,-0.99,3.54,1.22,1.59
26.7140,0.06,0.12,-0.99,3.42,0.92,1.59
26.7300,0.06,0.12,-0.99,3.48,0.98,1.59
26.7460,0.06,0.12,-0.99,3.36,0.67,1.46
26.7620,0.06,0.12,-0.99,3.42,1.40,1.59
26.7790,0.06,0.12,-0.99,3.48,1.53,1.65
26.7940,0.05,0.12,-0.99,3.23,1.40,1.71
26.7970,0.05,0.12,-0.99,3.30,1.10,1.65
26.8130,0.05,0.12,-0.99,3.36,1.40,1.65
26.8330,0.06,0.12,-0.99,3.23,1.04,1.46
26.8560,0.06,0.12,-0.99,3.36,1.53,1.59
26.8660,0.06,0.12,-0.99,3.30,1.22,1.65
26.8830,0.06,0.12,-0.99,3.30,1.10,1.46
26.8990,0.06,0.12,-0.99,3.42,0.98,1.53
26.9170,0.05,0.12,-0.99,3.36,1.10,1.65
26.9330,0.05,0.12,-0.99,3.36,1.40,1.53
26.9490,0.06,0.12,-0.99,3.42,1.28,1.65
26.9650,0.05,0.12,-0.99,3.42,1.53,1.71
26.9800,0.05,0.12,-0.99,3.17,1.28,1.46
26.9960,0.06,0.12,-0.99,3.30,1.40,1.59
27.0110,0.05,0.12,-0.99,3.23,1.53,1.59
27.0270,0.06,0.12,-0.99,3.17,1.40,1.53
27.0430,0.06,0.12,-0.99,3.30,1.34,1.59
27.0570,0.06,0.12,-0.99,3.17,1.28,1.59
27.0660,0.06,0.12,-0.99,3.11,1.34,1.77
27.0830,0.06,0.12,-0.99,3.36,0.98,1.59
27.1000,0.06,0.12,-0.99,3.42,1.04,1.59
27.1160,0.05,0.12,-0.99,3.23,1.53,1.46
27.1340,0.05,0.12,-0.99,3.42,0.92,1.59
27.1500,0.05,0.12,-0.99,3.42,1.22,1.46
27.1660,0.05,0.12,-0.99,3.54,1.04,1.77
27.1830,0.06,0.12,-0.99,3.42,1.16,1.53
27.1980,0.06,0.12,-0.99,3.48,1.10,1.59
27.2130,0.06,0.12,-0.99,3.36,0.98,1.59
27.2160,0.06,0.12,-0.99,3.30,1.04,1.59
27.2320,0.06,0.12,-0.99,3.23,1.46,1.65
27.2560,0.05,0.12,-0.99,3.48,1.40,1.65
27.2710,0.06,0.12,-0.99,3.36,1.46,1.65
27.2870,0.06,0.12,-0.99,3.30,1.59,1.71
27.3040,0.06,0.12,-0.99,3.30,1.65,1.71
27.3200,0.05,0.12,-0.99,3.17,1.59,1.53
27.3350,0.06,0.12,-0.99,3.54,1.16,1.53
27.3520,0.06,0.12,-0.99,3.60,1.22,1.59
27.3680,0.06,0.12,-0.99,3.42,0.85,1.46
27.3710,0.06,0.12,-0.99,3.30,1.22,1.46
27.3870,0.06,0.12,-0.99,3.42,1.22,1.59
27.4130,0.06,0.12,-0.99,3.23,1.34,1.53
27.4250,0.06,0.12,-0.99,3.42,1.65,1.46
27.4410,0.05,0.12,-1.00,3.23,1.04,1.40
27.4580,0.05,0.12,-0.99,3.17,1.04,1.59
27.4740,0.05,0.12,-1.00,3.23,1.59,1.59
27.4900,0.06,0.12,-0.99,3.23,1.34,1.71
27.5050,0.05,0.12,-1.00,3.30,1.53,1.65
27.5210,0.06,0.12,-0.99,3.30,0.73,1.65
27.5260,0.06,0.12,-1.00,3.30,1.16,1.65
27.5420,0.06,0.12,-0.99,3.30,1.10,1.65
27.5620,0.05,0.12,-0.99,3.36,1.16,1.59
27.5790,0.06,0.12,-0.99,3.30,1.22,1.65
27.5960,0.06,0.12,-0.99,3.42,0.85,1.53
27.6120,0.06,0.12,-0.99,3.30,1.22,1.53
27.6290,0.06,0.12,-0.99,3.11,1.22,1.53
27.6440,0.05,0.12,-0.99,3.17,1.65,1.65
27.6590,0.06,0.12,-0.99,3.48,0.98,1.53
27.6750,0.05,0.12,-0.99,3.30,1.28,1.65
27.6790,0.06,0.12,-0.99,3.30,1.16,1.65
27.6950,0.05,0.12,-0.99,3.42,1.34,1.46
27.7160,0.05,0.12,-0.99,3.36,1.22,1.53
27.7330,0.06,0.12,-0.99,3.30,1.16,1.59
27.7490,0.06,0.12,-0.99,3.23,1.04,1.65
27.7670,0.06,0.12,-0.99,3.30,0.85,1.65
27.7830,0.06,0.12,-0.99,3.30,1.53,1.65
27.8000,0.06,0.12,-0.99,3.36,1.04,1.46
27.8160,0.06,0.12,-0.99,3.30,1.53,1.65
27.8320,0.06,0.12,-0.99,3.36,1.40,1.71
27.8470,0.05,0.12,-0.99,3.23,0.73,1.65
27.8620,0.06,0.12,-0.99,3.36,0.98,1.65
27.8770,0.06,0.12,-0.99,3.17,1.53,1.53
27.8930,0.05,0.12,-0.99,3.42,1.22,1.53
27.9080,0.06,0.12,-0.99,3.23,1.40,1.71
27.9170,0.06,0.12,-0.99,3.30,1.22,1.77
27.9340,0.05,0.12,-0.99,3.30,1.22,1.59
27.9500,0.05,0.12,-0.99,3.36,1.34,1.65
27.9660,0.06,0.12,-1.00,3.36,1.10,1.53
27.9830,0.06,0.12,-0.99,3.42,1.28,1.71
28.0000,0.06,0.12,-1.00,3.30,1.16,1.65
28.0160,0.06,0.12,-0.99,3.30,1.04,1.59
28.0330,0.05,0.12,-0.99,3.42,1.22,1.65
28.0490,0.06,0.12,-0.99,3.42,1.22,1.59
28.0650,0.06,0.12,-0.99,3.42,1.22,1.53
28.0810,0.06,0.12,-0.99,3.23,1.16,1.46
28.0840,0.06,0.12,-0.99,3.17,1.28,1.65
28.1000,0.06,0.12,-0.99,3.36,1.53,1.65
28.1200,0.06,0.12,-0.99,3.42,1.22,1.77
28.1360,0.06,0.12,-1.00,3.42,0.92,1.40
28.1530,0.06,0.12,-0.99,3.23,1.28,1.65
28.1700,0.05,0.12,-0.99,3.23,1.16,1.53
28.1870,0.06,0.12,-0.99,3.48,1.22,1.46
28.2030,0.06,0.12,-0.99,3.36,1.16,1.53
28.2200,0.05,0.12,-0.99,3.30,1.04,1.53
28.2360,0.06,0.12,-0.99,3.30,1.10,1.53
28.2520,0.05,0.12,-0.99,3.48,0.85,1.65
28.2670,0.06,0.12,-0.99,3.60,1.10,1.53
28.2830,0.06,0.12,-1.00,3.36,1.40,1.65
28.2880,0.06,0.12,-0.99,3.36,1.28,1.53
28.3030,0.06,0.12,-0.99,3.48,1.10,1.46
28.3250,0.06,0.12,-0.99,3.30,1.34,1.65
28.3420,0.06,0.12,-0.99,3.17,1.34,1.65
28.3580,0.05,0.12,-0.99,3.30,1.28,1.59
28.3740,0.06,0.12,-0.99,3.17,1.22,1.40
28.3890,0.05,0.12,-0.99,3.30,1.22,1.46
28.4040,0.05,0.12,-0.99,3.23,1.10,1.46
28.4190,0.05,0.12,-0.99,3.23,1.28,1.53
28.4350,0.06,0.12,-0.99,3.23,1.34,1.59
28.4420,0.06,0.12,-0.99,3.42,0.92,1.59
28.4580,0.05,0.12,-0.99,3.48,1.34,1.53
28.4800,0.05,0.12,-0.99,3.30,1.34,1.65
28.4950,0.05,0.12,-0.99,3.23,1.34,1.65
28.5120,0.06,0.12,-0.99,3.11,1.28,1.71
28.5280,0.06,0.12,-0.99,3.30,0.79,1.53
28.5430,0.06,0.12,-0.99,3.17,1.34,1.53
28.5580,0.05,0.12,-0.99,3.30,1.22,1.59
28.5620,0.06,0.12,-0.99,3.36,1.10,1.53
28.5770,0.06,0.12,-0.99,3.42,1.34,1.59
28.6040,0.06,0.12,-0.99,3.48,1.34,1.65
28.6150,0.05,0.12,-0.99,3.30,1.28,1.71
28.6300,0.06,0.12,-0.99,3.30,1.28,1.71
28.6480,0.06,0.12,-0.99,3.36,1.10,1.53
28.6650,0.06,0.12,-0.99,3.54,0.92,1.40
28.6810,0.06,0.12,-0.99,3.36,1.22,1.46
28.6970,0.06,0.12,-0.99,3.23,1.16,1.65
28.7130,0.05,0.12,-0.99,3.30,1.28,1.59
28.7300,0.06,0.12,-0.99,3.54,1.40,1.59
28.7460,0.06,0.12,-0.99,3.23,1.59,1.59
28.7610,0.06,0.12,-0.99,3.42,1.34,1.77
28.7760,0.05,0.12,-0.99,3.11,1.46,1.65
28.7910,0.06,0.12,-0.99,3.48,0.98,1.46
28.8060,0.05,0.12,-0.99,3.42,1.53,1.59
28.8210,0.05,0.12,-0.99,3.30,1.16,1.65
28.8360,0.06,0.12,-0.99,3.48,1.10,1.71
28.8480,0.06,0.12,-0.99,3.42,1.34,1.59
28.8640,0.06,0.12,-0.99,3.54,1.34,1.53
28.8800,0.06,0.12,-0.99,3.36,1.46,1.71
28.8980,0.06,0.12,-0.99,3.42,0.85,1.65
28.9140,0.05,0.12,-0.99,3.36,1.10,1.59
28.9290,0.06,0.12,-0.99,3.54,1.28,1.53
28.9450,0.05,0.12,-0.99,3.30,1.04,1.71
28.9600,0.06,0.12,-0.99,3.48,1.10,1.59
28.9750,0.05,0.12,-0.99,3.60,1.16,1.53
28.9910,0.06,0.12,-0.99,3.42,1.28,1.59
29.0070,0.05,0.12,-0.99,3.30,1.04,1.71
29.0230,0.06,0.12,-0.99,3.30,1.16,1.59
29.0380,0.05,0.12,-0.99,3.36,1.22,1.53
29.0530,0.06,0.12,-0.99,3.23,1.59,1.59
29.0640,0.06,0.12,-0.99,3.30,1.28,1.59
29.0810,0.06,0.12,-0.99,3.48,1.34,1.65
29.0970,0.06,0.12,-0.99,3.54,1.46,1.65
29.1140,0.05,0.12,-1.00,3.42,1.40,1.71
29.1290,0.05,0.12,-0.99,3.36,1.59,1.71
29.1440,0.06,0.12,-0.99,3.23,1.28,1.71
29.1580,0.06,0.12,-0.99,3.36,1.10,1.53
29.1630,0.06,0.12,-0.99,3.42,1.40,1.59
29.1840,0.06,0.12,-0.99,3.36,0.92,1.53
29.2010,0.06,0.12,-0.99,3.11,1.22,1.83
29.2180,0.06,0.12,-0.99,3.54,1.28,1.71
29.2360,0.05,0.12,-0.99,3.42,1.10,1.71
29.2510,0.06,0.12,-0.99,3.36,1.53,1.46
29.2680,0.06,0.12,-0.99,3.48,1.04,1.65
29.2830,0.05,0.12,-0.99,3.30,1.34,1.59
29.2990,0.06,0.12,-0.99,3.48,1.04,1.59
29.3020,0.06,0.12,-0.99,3.36,1.04,1.53
29.3170,0.06,0.12,-0.99,3.42,1.34,1.46
29.3380,0.06,0.12,-0.99,3.11,1.22,1.59
29.3580,0.06,0.12,-0.99,3.30,1.46,1.83
29.3710,0.05,0.12,-0.99,3.36,1.40,1.65
29.3880,0.05,0.12,-0.99,3.36,1.34,1.83
29.4040,0.06,0.12,-0.99,3.36,1.22,1.71
29.4200,0.06,0.12,-0.99,3.36,1.46,1.65
29.4370,0.06,0.12,-0.99,3.23,1.16,1.59
29.4540,0.06,0.12,-0.99,3.36,0.79,1.40
29.4690,0.06,0.12,-0.99,3.36,1.10,1.59
29.4850,0.06,0.12,-0.99,3.30,1.59,1.59
29.4870,0.05,0.12,-0.99,3.48,0.92,1.71
29.5030,0.05,0.12,-0.99,3.66,1.16,1.59
29.5300,0.06,0.12,-0.99,3.42,1.04,1.53
29.5420,0.06,0.12,-0.99,3.42,1.16,1.59
29.5580,0.06,0.12,-0.99,3.42,1.34,1.53
29.5750,0.05,0.12,-0.99,3.48,0.79,1.65
29.5900,0.06,0.12,-0.99,3.66,1.46,1.77
29.6070,0.06,0.12,-0.99,3.66,0.79,1.71
29.6220,0.05,0.12,-0.99,3.17,1.34,1.65
29.6250,0.05,0.12,-0.99,3.23,1.28,1.65
29.6520,0.06,0.12,-0.99,3.60,1.04,1.59
29.6670,0.05,0.12,-0.99,3.30,0.98,1.40
29.6830,0.06,0.12,-0.99,3.36,1.16,1.59
29.6980,0.05,0.12,-0.99,3.30,1.28,1.53
29.7080,0.06,0.12,-0.99,3.48,1.34,1.53
29.7250,0.06,0.12,-0.99,3.36,1.04,1.65
29.7420,0.05,0.12,-0.99,3.42,1.40,1.59
29.7570,0.06,0.12,-0.99,3.42,1.16,1.59
29.7730,0.05,0.12,-0.99,3.30,0.98,1.53
29.7890,0.06,0.12,-0.99,3.30,0.98,1.53
29.8060,0.06,0.12,-0.99,3.36,1.22,1.53
29.8220,0.05,0.12,-0.99,3.42,1.34,1.46
29.8380,0.05,0.12,-0.99,3.48,0.79,1.71
29.8420,0.06,0.12,-0.99,3.30,1.22,1.59
29.8580,0.06,0.12,-0.99,3.54,1.34,1.83
29.8800,0.06,0.12,-0.99,3.42,1.28,1.65
29.8980,0.05,0.12,-0.99,3.30,0.73,1.46
29.9140,0.05,0.12,-0.99,3.36,0.98,1.59
29.9310,0.06,0.12,-0.99,3.36,1.16,1.53
29.9310,0.05,0.12,-0.99,3.36,0.67,1.59
29.9610,0.05,0.12,-0.99,3.36,1.16,1.65
29.9670,0.05,0.12,-0.99,3.36,1.10,1.59
29.9830,0.05,0.12,-0.99,3.42,0.98,1.53
30.0060,0.06,0.12,-0.99,3.48,0.98,1.53
30.0210,0.06,0.12,-0.99,3.48,1.22,1.59
30.0330,0.06,0.12,-0.99,3.23,1.10,1.46
30.0490,0.06,0.12,-0.99,3.48,1.16,1.59
30.0660,0.05,0.12,-0.99,3.60,0.79,1.46
30.0820,0.06,0.12,-0.99,3.60,1.22,1.59
30.1000,0.05,0.12,-0.99,3.36,0.92,1.65
30.1150,0.06,0.12,-0.99,3.23,1.10,1.40
30.1320,0.06,0.12,-0.99,3.30,1.10,1.53
30.1480,0.05,0.12,-0.99,3.36,1.16,1.40
30.1640,0.06,0.12,-0.99,3.23,1.28,1.53
30.1790,0.06,0.12,-0.99,3.17,1.22,1.65
30.1940,0.06,0.12,-0.99,3.36,1.28,1.53
30.2090,0.06,0.12,-0.99,3.30,1.46,1.59
30.2240,0.06,0.12,-0.99,3.48,1.16,1.65
30.2330,0.06,0.12,-0.99,3.48,1.04,1.65
30.2550,0.06,0.12,-0.99,3.48,1.22,1.59
30.2660,0.06,0.12,-0.99,3.17,1.65,1.65
30.2830,0.06,0.12,-0.99,3.17,1.40,1.65
30.3000,0.05,0.12,-0.99,3.30,0.85,1.77
30.3160,0.06,0.12,-0.99,3.42,1.34,1.65
30.3330,0.06,0.12,-0.99,3.23,1.04,1.53
30.3490,0.06,0.12,-0.99,3.48,1.34,1.71
30.3650,0.05,0.12,-0.99,3.48,1.34,1.71
30.3820,0.06,0.12,-0.99,3.42,1.34,1.40
30.3960,0.06,0.12,-0.99,3.36,1.04,1.59
30.4110,0.06,0.12,-0.99,3.36,1.16,1.53
30.4160,0.05,0.12,-0.99,3.11,1.34,1.53
30.4320,0.06,0.12,-0.99,3.30,1.22,1.40
30.4530,0.06,0.12,-0.99,3.36,1.10,1.59
30.4690,0.05,0.12,-0.99,3.36,1.65,1.59
30.4860,0.05,0.12,-0.99,3.48,0.92,1.53
30.5030,0.06,0.12,-0.99,3.30,0.79,1.53
30.5190,0.06,0.12,-0.99,3.36,1.04,1.59
30.5340,0.05,0.12,-0.99,3.23,1.16,1.53
30.5500,0.06,0.12,-0.99,3.36,1.10,1.59
30.5650,0.06,0.12,-0.99,3.36,1.40,1.53
30.5820,0.06,0.12,-0.99,3.36,1.59,1.59
30.5970,0.05,0.12,-0.99,3.36,1.40,1.53
30.6030,0.06,0.12,-0.99,3.36,1.28,1.59
30.6190,0.05,0.12,-0.99,3.42,1.04,1.53
30.6420,0.05,0.12,-0.99,3.48,1.22,1.40
30.6580,0.06,0.12,-0.99,3.48,1.10,1.59
30.6740,0.05,0.12,-0.99,3.48,1.10,1.59
30.6890,0.06,0.12,-0.99,3.48,1.22,1.59
30.7060,0.05,0.12,-0.99,3.42,1.04,1.53
30.7210,0.06,0.12,-0.99,3.30,1.46,1.65
30.7360,0.05,0.12,-0.99,3.60,1.04,1.53
30.7520,0.06,0.12,-0.99,3.54,1.22,1.59
30.7600,0.05,0.12,-0.99,3.30,1.53,1.59
30.7740,0.05,0.12,-0.99,3.36,1.28,1.53
30.7940,0.06,0.12,-0.99,3.42,1.53,1.40
30.8100,0.06,0.12,-0.99,3.30,1.28,1.46
30.8260,0.06,0.12,-0.99,3.36,1.34,1.59
30.8430,0.05,0.12,-0.99,3.17,1.22,1.59
30.8580,0.06,0.12,-1.00,3.23,1.04,1.59
30.8610,0.06,0.12,-0.99,3.23,1.22,1.59
30.8770,0.06,0.12,-0.99,3.42,0.79,1.71
30.9040,0.05,0.12,-0.99,3.36,1.16,1.53
30.9150,0.06,0.12,-0.99,3.48,1.34,1.65
30.9310,0.05,0.12,-0.99,3.36,1.16,1.71
30.9490,0.06,0.12,-0.99,3.36,1.40,1.77
30.9640,0.05,0.12,-1.00,3.54,1.16,1.53
30.9810,0.06,0.12,-0.99,3.66,0.92,1.71
30.9970,0.06,0.12,-0.99,3.60,1.22,1.71
31.0130,0.06,0.12,-0.99,3.42,1.16,1.53
31.0290,0.06,0.12,-0.99,3.23,1.28,1.71
31.0460,0.06,0.12,-0.99,3.30,1.10,1.40
31.0610,0.06,0.12,-0.99,3.42,1.04,1.59
31.0770,0.05,0.12,-0.99,3.36,1.04,1.53
31.0920,0.06,0.12,-0.99,3.36,1.28,1.71
31.1080,0.05,0.12,-0.99,3.36,1.22,1.53
31.1230,0.05,0.12,-0.99,3.30,0.98,1.65
31.1390,0.06,0.12,-0.99,3.42,1.28,1.65
31.1540,0.05,0.12,-0.99,3.23,1.40,1.71
31.1650,0.06,0.12,-0.99,3.42,1.28,1.53
31.1820,0.06,0.12,-0.99,3.54,1.34,1.53
31.1980,0.06,0.12,-0.99,3.42,1.53,1.65
31.2140,0.05,0.12,-0.99,3.23,1.71,1.59
31.2320,0.06,0.12,-0.99,3.48,1.40,1.65
31.2330,0.06,0.12,-0.99,3.48,1.46,1.71
31.2640,0.05,0.12,-0.99,3.48,0.92,1.59
31.2790,0.06,0.12,-0.99,3.36,1.10,1.59
31.2950,0.06,0.12,-0.99,3.60,1.34,1.53
31.2980,0.06,0.12,-0.99,3.42,1.22,1.59
31.3140,0.06,0.12,-0.99,3.23,1.10,1.71
31.3350,0.05,0.12,-0.99,3.30,1.65,1.77
31.3510,0.06,0.12,-0.99,3.54,1.16,1.59
31.3680,0.06,0.12,-0.99,3.48,0.85,1.46
31.3850,0.06,0.12,-0.99,3.30,1.28,1.65
31.4010,0.06,0.12,-0.99,3.48,1.53,1.65
31.4180,0.05,0.12,-0.99,3.48,1.16,1.53
31.4350,0.05,0.12,-0.99,3.36,1.40,1.53
31.4350,0.06,0.12,-0.99,3.60,1.34,1.71
31.4670,0.06,0.12,-0.99,3.48,1.16,1.65
31.4820,0.06,0.12,-0.99,3.36,1.46,1.59
31.4990,0.06,0.12,-0.99,3.42,1.28,1.71
31.5020,0.05,0.12,-0.99,3.36,1.34,1.59
31.5170,0.05,0.12,-0.99,3.36,1.71,1.71
31.5450,0.06,0.12,-1.00,3.54,1.28,1.65
31.5560,0.06,0.12,-0.99,3.36,1.34,1.59
31.5720,0.06,0.12,-0.99,3.30,1.59,1.65
31.5900,0.05,0.12,-0.99,3.36,1.65,1.77
31.6060,0.05,0.12,-0.99,3.36,1.77,1.65
31.6220,0.06,0.12,-0.99,3.42,1.53,1.46
31.6390,0.06,0.12,-0.99,3.30,1.77,1.77
31.6540,0.06,0.12,-0.99,3.30,1.59,1.71
31.6710,0.05,0.12,-1.00,3.42,1.40,1.53
31.6860,0.06,0.12,-0.99,3.54,1.28,1.71
31.7020,0.05,0.12,-0.99,3.23,1.53,1.71
31.7060,0.06,0.12,-0.99,3.23,1.71,1.71
31.7220,0.05,0.12,-0.99,3.42,1.22,1.65
31.7440,0.06,0.12,-0.99,3.54,1.40,1.65
31.7610,0.06,0.12,-0.99,3.17,1.28,1.71
31.7770,0.06,0.12,-0.99,3.42,1.10,1.65
31.7930,0.06,0.12,-0.99,3.30,1.04,1.59
31.8080,0.05,0.12,-0.99,3.30,1.28,1.59
31.8240,0.05,0.12,-0.99,3.54,1.22,1.53
31.8400,0.06,0.12,-0.99,3.17,1.53,1.59
31.8550,0.05,0.12,-0.99,3.36,1.34,1.53
31.8700,0.06,0.12,-0.99,3.30,1.53,1.59
31.8850,0.06,0.12,-0.99,3.42,1.46,1.53
31.9000,0.06,0.12,-0.99,3.42,1.46,1.65
31.9110,0.05,0.12,-0.99,3.30,1.28,1.71
31.9270,0.06,0.12,-0.99,3.42,0.85,1.53
31.9440,0.05,0.12,-0.99,3.36,1.46,1.77
31.9610,0.05,0.12,-0.99,3.36,1.77,1.77
31.9770,0.06,0.12,-0.99,3.23,1.59,1.71
31.9930,0.06,0.12,-0.99,3.54,1.53,1.59
32.0080,0.06,0.12,-0.99,3.30,1.53,1.65
32.0240,0.05,0.12,-0.99,3.42,1.40,1.71
32.0270,0.06,0.12,-0.99,3.36,1.53,1.59
32.0440,0.06,0.12,-0.99,3.17,1.40,1.71
32.0700,0.06,0.12,-0.99,3.23,1.46,1.59
32.0820,0.06,0.12,-0.99,3.23,1.34,1.59
32.0980,0.05,0.12,-0.99,3.30,1.10,1.65
32.1160,0.05,0.12,-0.99,3.36,1.28,1.59
32.1310,0.06,0.12,-0.99,3.48,1.53,1.83
32.1480,0.06,0.12,-0.99,3.30,1.22,1.71
32.1650,0.06,0.12,-0.99,3.30,1.59,1.59
32.1800,0.05,0.12,-0.99,3.42,1.04,1.65
32.1960,0.06,0.12,-0.99,3.36,1.53,1.71
32.2120,0.06,0.12,-0.99,3.23,1.40,1.65
32.2290,0.06,0.12,-0.99,3.23,1.28,1.53
32.2320,0.06,0.12,-0.99,3.11,1.22,1.65
32.2470,0.05,0.12,-0.99,3.42,1.34,1.53
32.2690,0.05,0.12,-0.99,3.54,1.22,1.46
32.2870,0.05,0.12,-0.99,3.36,1.65,1.65
32.3020,0.06,0.12,-0.99,3.48,1.53,1.83
32.3200,0.05,0.12,-0.99,3.36,1.40,1.65
32.3370,0.06,0.12,-0.99,3.42,1.28,1.71
32.3530,0.05,0.12,-0.99,3.30,1.40,1.65
32.3690,0.05,0.12,-0.99,3.30,1.53,1.65
32.3850,0.05,0.12,-0.99,3.11,1.22,1.65
32.4000,0.05,0.12,-0.99,3.42,1.28,1.65
32.4030,0.06,0.12,-0.99,3.36,1.46,1.71
32.4190,0.05,0.12,-0.99,3.42,1.46,1.65
32.4410,0.05,0.12,-0.99,3.42,1.40,1.59
32.4580,0.06,0.12,-0.99,3.60,1.65,1.65
32.4740,0.06,0.12,-0.99,3.30,1.59,1.83
32.4910,0.06,0.12,-0.99,3.23,1.16,1.71
32.4950,0.06,0.12,-0.99,3.36,1.34,1.71
32.5210,0.06,0.12,-0.99,3.66,1.34,1.71
32.5370,0.05,0.12,-0.99,3.36,1.53,1.71
32.5520,0.06,0.12,-0.99,3.36,1.40,1.65
32.5670,0.06,0.12,-0.99,3.42,1.34,1.65
32.5790,0.06,0.12,-0.99,3.48,1.40,1.71
32.5960,0.05,0.12,-0.99,3.23,1.65,1.71
32.6130,0.06,0.12,-0.99,3.30,1.46,1.53
32.6290,0.06,0.12,-0.99,3.42,1.71,1.65
32.6450,0.06,0.12,-0.99,3.30,1.22,1.71
32.6610,0.06,0.12,-0.99,3.36,1.53,1.65
32.6760,0.06,0.12,-0.99,3.42,1.28,1.59
32.6910,0.06,0.12,-0.99,3.48,1.40,1.77
32.7070,0.05,0.12,-0.99,3.30,1.65,1.65
32.7230,0.06,0.12,-0.99,3.48,1.28,1.65
32.7380,0.06,0.12,-0.99,3.30,1.59,1.77
32.7530,0.06,0.12,-0.99,3.36,1.46,1.77
32.7680,0.06,0.12,-0.99,3.36,1.16,1.59
32.7790,0.05,0.12,-0.99,3.36,1.16,1.65
32.7960,0.05,0.12,-0.99,3.48,1.22,1.65
32.8140,0.06,0.12,-0.99,3.60,0.98,1.65
32.8290,0.06,0.12,-0.99,3.54,1.46,1.65
32.8460,0.06,0.12,-0.99,3.48,1.83,1.71
32.8620,0.06,0.12,-0.99,3.48,1.53,1.53
32.8770,0.05,0.12,-0.99,3.36,1.53,1.59
32.8920,0.06,0.12,-0.99,3.36,1.16,1.59
32.9080,0.06,0.12,-0.99,3.36,1.65,1.77
32.9240,0.06,0.12,-0.99,3.48,1.22,1.53
32.9290,0.06,0.12,-0.99,3.48,1.59,1.65
32.9450,0.06,0.12,-0.99,3.23,1.53,1.71
32.9670,0.06,0.12,-0.99,3.23,1.28,1.65
32.9850,0.05,0.12,-0.99,3.48,1.40,1.53
33.0000,0.06,0.12,-0.99,3.23,1.34,1.59
33.0170,0.05,0.12,-0.99,3.30,1.40,1.71
33.0180,0.06,0.12,-0.99,3.23,1.53,1.71
33.0490,0.06,0.12,-0.99,3.23,1.28,1.65
33.0660,0.06,0.12,-0.99,3.23,1.34,1.53
33.0680,0.06,0.12,-0.99,3.36,1.16,1.65
33.0830,0.06,0.12,-0.99,3.42,1.04,1.59
33.1060,0.05,0.12,-0.99,3.42,1.46,1.65
33.1220,0.05,0.12,-0.99,3.23,1.22,1.53
33.1400,0.05,0.12,-0.99,3.42,1.46,1.83
33.1550,0.06,0.12,-0.99,3.23,1.46,1.53
33.1720,0.06,0.12,-0.99,3.54,1.16,1.77
33.1880,0.06,0.12,-0.99,3.42,1.28,1.71
33.2040,0.05,0.12,-0.99,3.48,1.46,1.59
33.2210,0.06,0.12,-0.99,3.66,1.28,1.77
33.2360,0.05,0.12,-1.00,3.48,1.28,1.53
33.2520,0.06,0.12,-1.00,3.54,1.46,1.59
33.2680,0.06,0.12,-0.99,3.54,1.40,1.65
33.2720,0.06,0.12,-0.99,3.23,1.59,1.71
33.2880,0.05,0.12,-0.99,3.48,1.46,1.71
33.3140,0.05,0.12,-1.00,3.54,1.40,1.83
33.3270,0.06,0.12,-0.99,3.42,1.53,1.65
33.3420,0.06,0.12,-0.99,3.42,1.34,1.65
33.3590,0.06,0.12,-0.99,3.30,1.59,1.65
33.3750,0.05,0.12,-0.99,3.48,1.59,1.89
33.3910,0.05,0.12,-0.99,3.48,1.40,1.71
33.4070,0.06,0.12,-0.99,3.42,1.04,1.65
33.4230,0.06,0.12,-0.99,3.60,1.10,1.53
33.4390,0.05,0.12,-0.99,3.48,1.40,1.65
33.4540,0.06,0.12,-0.99,3.17,1.53,1.65
33.4690,0.06,0.12,-0.99,3.36,1.34,1.71
33.4840,0.05,0.12,-0.99,3.42,1.53,1.59
33.4950,0.05,0.12,-0.99,3.42,1.46,1.59
33.5130,0.06,0.12,-0.99,3.48,1.46,1.65
33.5290,0.05,0.12,-0.99,3.48,1.65,1.71
33.5450,0.06,0.12,-0.99,3.36,1.59,1.53
33.5610,0.06,0.12,-0.99,3.36,1.77,1.65
33.5770,0.06,0.12,-0.99,3.42,1.16,1.71
33.5920,0.06,0.12,-0.99,3.30,1.28,1.53
33.6070,0.06,0.12,-0.99,3.42,1.46,1.65
33.6230,0.06,0.12,-0.99,3.48,1.28,1.65
33.6390,0.05,0.12,-0.99,3.42,0.79,1.65
33.6540,0.06,0.12,-0.99,3.42,1.22,1.59
33.6700,0.05,0.12,-0.99,3.36,0.98,1.59
33.6850,0.06,0.12,-0.99,3.48,1.04,1.53
33.6960,0.06,0.12,-0.99,3.17,1.53,1.65
33.7120,0.05,0.12,-0.99,3.23,1.71,1.53
33.7290,0.05,0.12,-0.99,3.30,1.65,1.71
33.7460,0.06,0.12,-0.99,3.36,1.71,1.71
33.7610,0.06,0.12,-0.99,3.42,1.16,1.59
33.7770,0.05,0.12,-0.99,3.11,1.28,1.65
33.7920,0.05,0.12,-0.99,3.05,1.65,1.65
33.8070,0.06,0.12,-0.99,3.36,1.34,1.65
33.8230,0.06,0.12,-0.99,3.48,1.40,1.71
33.8290,0.06,0.12,-0.99,3.36,1.28,1.65
33.8440,0.06,0.12,-0.99,3.36,1.46,1.65
33.8670,0.05,0.12,-0.99,3.30,1.28,1.65
33.8840,0.05,0.12,-0.99,3.36,1.28,1.65
33.9010,0.06,0.12,-0.99,3.30,1.53,1.77
33.9170,0.06,0.12,-0.99,3.36,1.40,1.59
33.9330,0.06,0.12,-0.99,3.54,1.34,1.65
33.9490,0.06,0.12,-0.99,3.23,1.40,1.71
33.9650,0.06,0.12,-0.99,3.42,1.46,1.83
33.9680,0.06,0.12,-0.99,3.48,1.46,1.77
33.9830,0.05,0.12,-0.99,3.30,1.34,1.59
34.0110,0.05,0.12,-0.99,3.30,1.22,1.71
34.0220,0.05,0.12,-0.99,3.30,1.28,1.46
34.0380,0.06,0.12,-0.99,3.48,1.34,1.71
34.0570,0.05,0.12,-0.99,3.30,1.40,1.65
34.0730,0.06,0.12,-0.99,3.54,1.71,1.71
34.0880,0.06,0.12,-0.99,3.42,1.46,1.65
34.1040,0.06,0.12,-0.99,3.23,1.16,1.65
34.1190,0.06,0.12,-0.99,3.48,1.28,1.71
34.1340,0.06,0.12,-0.99,3.36,1.10,1.59
34.1430,0.06,0.12,-0.99,3.17,1.46,1.77
34.1640,0.06,0.12,-0.99,3.42,1.28,1.71
34.1830,0.06,0.12,-0.99,3.42,1.04,1.59
34.1980,0.06,0.12,-0.99,3.36,1.22,1.46
34.2150,0.06,0.12,-0.99,3.42,1.46,1.59
34.2300,0.06,0.12,-0.99,3.48,1.46,1.59
34.2460,0.06,0.12,-0.99,3.17,1.22,1.65
34.2620,0.05,0.12,-0.99,3.48,1.59,1.65
34.2770,0.05,0.12,-0.99,3.23,1.71,1.65
34.2920,0.06,0.12,-0.99,3.30,1.65,1.53
34.3080,0.06,0.12,-0.99,3.42,1.40,1.53
34.3230,0.06,0.12,-0.99,3.60,0.85,1.59
34.3370,0.06,0.12,-0.99,3.30,1.22,1.59
34.3480,0.06,0.12,-0.99,3.42,1.46,1.65
34.3650,0.06,0.12,-0.99,3.42,1.22,1.59
34.3810,0.06,0.12,-0.99,3.60,1.22,1.65
34.3990,0.06,0.12,-0.99,3.36,1.28,1.65
34.4160,0.06,0.12,-0.99,3.48,1.28,1.65
34.4310,0.05,0.12,-0.99,3.23,1.83,1.77
34.4480,0.06,0.12,-0.99,3.30,1.16,1.59
34.4640,0.05,0.12,-0.99,3.36,1.10,1.65
34.4790,0.05,0.12,-0.99,3.36,1.34,1.59
34.4950,0.05,0.12,-0.99,3.23,1.04,1.59
34.5100,0.05,0.12,-1.00,3.36,1.10,1.59
34.5260,0.06,0.12,-0.99,3.42,1.22,1.65
34.5410,0.06,0.12,-0.99,3.42,1.04,1.71
34.5560,0.05,0.12,-0.99,3.36,1.04,1.59
34.5700,0.06,0.12,-0.99,3.42,1.34,1.59
34.5820,0.05,0.12,-0.99,3.60,1.34,1.59
34.5980,0.05,0.12,-0.99,3.42,1.28,1.53
34.6150,0.06,0.12,-0.99,3.42,1.22,1.53
34.6310,0.06,0.12,-0.99,3.23,1.10,1.53
34.6480,0.06,0.12,-0.99,3.54,1.28,1.59
34.6640,0.06,0.12,-0.99,3.48,1.28,1.83
34.6800,0.06,0.12,-0.99,3.42,1.59,1.71
34.6970,0.06,0.12,-0.99,3.36,1.46,1.65
34.7130,0.05,0.12,-0.99,3.42,1.40,1.65
34.7280,0.05,0.12,-0.99,3.23,1.10,1.53
34.7320,0.06,0.12,-0.99,3.54,1.34,1.65
34.7600,0.06,0.12,-0.99,3.42,1.53,1.53
34.7750,0.05,0.12,-0.99,3.42,1.40,1.83
34.7850,0.05,0.12,-0.99,3.48,1.04,1.65
34.8010,0.06,0.12,-0.99,3.36,1.10,1.65
34.8180,0.06,0.12,-0.99,3.30,1.22,1.53
34.8350,0.05,0.12,-0.99,3.30,1.53,1.59
34.8500,0.06,0.12,-0.99,3.30,1.59,1.65
34.8670,0.05,0.12,-0.99,3.48,1.22,1.71
34.8830,0.05,0.12,-0.99,3.36,1.53,1.77
34.9000,0.05,0.12,-0.99,3.36,1.59,1.65
34.9150,0.06,0.12,-0.99,3.30,1.34,1.59
34.9300,0.05,0.12,-0.99,3.30,1.53,1.77
34.9460,0.06,0.12,-0.99,3.23,1.65,1.71
34.9510,0.06,0.12,-0.99,3.42,1.28,1.65
34.9660,0.06,0.12,-0.99,3.36,1.53,1.65
34.9880,0.05,0.12,-0.99,3.17,1.34,1.65
35.0040,0.06,0.12,-0.99,3.30,1.46,1.65
35.0220,0.05,0.12,-1.00,3.30,1.40,1.65
35.0380,0.06,0.12,-0.99,3.36,1.53,1.65
35.0550,0.05,0.12,-0.99,3.36,1.59,1.65
35.0710,0.06,0.12,-0.99,3.42,1.53,1.71
35.0870,0.06,0.12,-0.99,3.30,1.77,1.77
35.1030,0.06,0.12,-0.99,3.36,1.34,1.71
35.1190,0.06,0.12,-0.99,3.48,1.28,1.53
35.1220,0.06,0.12,-0.99,3.36,1.34,1.59
35.1380,0.06,0.12,-0.99,3.42,1.59,1.65
35.1650,0.06,0.12,-0.99,3.42,1.10,1.59
35.1760,0.05,0.12,-0.99,3.30,1.40,1.65
35.1920,0.05,0.12,-0.99,3.30,1.46,1.53
35.2100,0.06,0.12,-0.99,3.23,1.53,1.59
35.2260,0.05,0.12,-0.99,3.30,1.46,1.65
35.2410,0.06,0.12,-0.99,3.17,1.34,1.53
35.2560,0.06,0.12,-0.99,3.36,1.40,1.65
35.2720,0.06,0.12,-0.99,3.36,1.53,1.65
35.2880,0.06,0.12,-0.99,3.42,1.46,1.65
35.2930,0.06,0.12,-0.99,3.23,1.40,1.71
35.3080,0.05,0.12,-0.99,3.42,1.71,1.65
35.3350,0.05,0.12,-0.99,3.17,1.28,1.46
35.3460,0.05,0.12,-0.99,3.23,1.40,1.71
35.3650,0.06,0.12,-0.99,3.42,1.59,1.77
35.3800,0.05,0.12,-0.99,3.42,1.28,1.59
35.3960,0.05,0.12,-0.99,3.30,1.16,1.65
35.4130,0.05,0.12,-0.99,3.30,1.40,1.59
35.4290,0.06,0.12,-0.99,3.23,1.65,1.65
35.4450,0.05,0.12,-0.99,3.11,1.59,1.71
35.4600,0.05,0.12,-0.99,3.30,1.46,1.77
35.4750,0.06,0.12,-0.99,3.23,1.77,1.71
35.4910,0.06,0.12,-0.99,3.30,1.40,1.77
35.4960,0.06,0.12,-0.99,3.48,1.16,1.59
35.5120,0.06,0.12,-0.99,3.36,0.98,1.59
35.5270,0.06,0.12,-0.99,3.42,1.34,1.77
35.5480,0.05,0.12,-0.99,3.30,1.34,1.59
35.5660,0.05,0.12,-0.99,3.23,1.46,1.53
35.5820,0.06,0.12,-0.99,3.36,1.40,1.59
35.5990,0.05,0.12,-0.99,3.36,1.46,1.59
35.6150,0.06,0.12,-1.00,3.23,1.53,1.53
35.6310,0.05,0.12,-0.99,3.17,1.34,1.71
35.6470,0.05,0.12,-0.99,3.23,1.59,1.77
35.6630,0.05,0.12,-0.99,3.42,1.46,1.65
35.6660,0.06,0.12,-0.99,3.42,1.34,1.46
35.6820,0.05,0.12,-0.99,3.36,1.40,1.59
35.7020,0.05,0.12,-0.99,3.17,1.89,1.83
35.7240,0.06,0.12,-0.99,3.36,1.53,1.59
35.7360,0.06,0.12,-0.99,3.42,1.53,1.59
35.7520,0.05,0.12,-0.99,3.30,1.34,1.59
35.7700,0.06,0.12,-0.99,3.30,1.28,1.65
35.7860,0.05,0.12,-0.99,3.42,1.22,1.53
35.8020,0.06,0.12,-0.99,3.48,1.28,1.53
35.8050,0.05,0.12,-0.99,3.36,1.34,1.59
35.8330,0.06,0.12,-0.99,3.17,1.04,1.53
35.8490,0.06,0.12,-0.99,3.17,1.34,1.53
35.8650,0.06,0.12,-0.99,3.11,1.34,1.53
35.8800,0.06,0.12,-0.99,3.36,1.22,1.65
35.8890,0.06,0.12,-0.99,3.23,1.40,1.65
35.9040,0.05,0.12,-0.99,3.30,1.10,1.59
35.9270,0.05,0.12,-0.99,3.23,1.53,1.59
35.9430,0.05,0.12,-0.99,3.42,1.22,1.65
35.9590,0.06,0.12,-0.99,3.17,1.53,1.65
35.9760,0.06,0.12,-0.99,3.60,1.28,1.59
35.9910,0.06,0.12,-0.99,3.23,1.04,1.40
36.0060,0.06,0.12,-0.99,3.36,1.46,1.65
36.0230,0.06,0.12,-0.99,3.42,1.40,1.65
36.0390,0.06,0.12,-0.99,3.36,1.40,1.65
36.0540,0.06,0.12,-0.99,3.23,1.53,1.53
36.0700,0.06,0.12,-0.99,3.11,1.28,1.65
36.0860,0.06,0.12,-0.99,3.17,1.34,1.59
36.1020,0.06,0.12,-0.99,3.36,0.85,1.53
36.1180,0.06,0.12,-0.99,3.23,1.34,1.46
36.1330,0.06,0.12,-1.00,3.23,1.34,1.65
36.1480,0.06,0.12,-0.99,3.23,1.40,1.53
36.1590,0.06,0.12,-0.99,3.36,1.34,1.53
36.1750,0.05,0.12,-0.99,3.30,1.34,1.46
36.1920,0.06,0.12,-0.99,3.42,1.10,1.53
36.2080,0.05,0.12,-0.99,3.48,1.46,1.59
36.2240,0.06,0.12,-0.99,3.30,0.98,1.40
36.2390,0.06,0.12,-0.99,3.36,1.65,1.71
36.2420,0.05,0.12,-0.99,3.30,1.53,1.71
36.2700,0.06,0.12,-0.99,3.48,1.16,1.59
36.2770,0.06,0.12,-0.99,3.30,1.46,1.46
36.3000,0.06,0.12,-0.99,3.66,1.53,1.59
36.3100,0.05,0.12,-0.99,3.30,1.59,1.65
36.3260,0.06,0.12,-0.99,3.36,1.22,1.53
36.3460,0.06,0.12,-0.99,3.30,1.71,1.65
36.3620,0.06,0.12,-0.99,3.36,1.65,1.71
36.3780,0.05,0.12,-0.99,3.36,1.10,1.53
36.3940,0.06,0.12,-0.99,3.30,1.53,1.59
36.4090,0.06,0.12,-0.99,3.17,1.53,1.59
36.4240,0.06,0.12,-0.99,3.17,1.28,1.65
36.4400,0.06,0.12,-0.99,3.23,1.34,1.65
36.4550,0.05,0.12,-0.99,3.17,2.01,1.65
36.4700,0.05,0.12,-0.99,3.36,1.46,1.65
36.4800,0.06,0.12,-0.99,3.11,1.16,1.83
36.4960,0.06,0.12,-0.99,3.23,1.40,1.65
36.5150,0.06,0.12,-0.99,3.42,1.40,1.59
36.5310,0.06,0.12,-0.99,3.42,1.22,1.59
36.5460,0.06,0.12,-0.99,3.36,1.34,1.65
36.5620,0.06,0.12,-0.99,3.48,1.10,1.65
36.5770,0.05,0.12,-0.99,3.23,1.46,1.71
36.5860,0.05,0.12,-0.99,3.23,1.40,1.71
36.6010,0.06,0.12,-0.99,3.30,1.59,1.65
36.6220,0.06,0.12,-0.99,3.30,1.34,1.65
36.6380,0.05,0.12,-0.99,3.60,1.16,1.53
36.6530,0.06,0.12,-0.99,3.48,1.28,1.53
36.6700,0.06,0.12,-0.99,3.36,1.46,1.71
36.6850,0.05,0.12,-0.99,3.42,1.04,1.53
36.7010,0.06,0.12,-0.99,3.36,1.40,1.53
36.7170,0.06,0.12,-0.99,3.42,1.46,1.59
36.7340,0.06,0.12,-0.99,3.23,1.71,1.71
36.7410,0.05,0.12,-0.99,3.36,1.16,1.59
36.7570,0.06,0.12,-0.99,3.30,1.46,1.71
36.7730,0.06,0.12,-0.99,3.36,1.34,1.59
36.7950,0.05,0.12,-0.99,3.30,1.10,1.71
36.8130,0.06,0.12,-0.99,3.30,1.10,1.65
36.8290,0.06,0.12,-0.99,3.54,1.28,1.65
36.8450,0.06,0.12,-0.99,3.30,1.71,1.46
36.8610,0.05,0.12,-0.99,3.36,1.46,1.71
36.8770,0.06,0.12,-0.99,3.23,1.28,1.59
36.8930,0.05,0.12,-0.99,3.30,1.16,1.77
36.9090,0.05,0.12,-0.99,3.36,1.46,1.65
36.9240,0.06,0.12,-0.99,3.30,1.53,1.59
36.9290,0.06,0.12,-1.00,3.42,1.34,1.59
36.9450,0.06,0.12,-0.99,3.11,1.22,1.59
36.9670,0.06,0.12,-0.99,3.30,1.16,1.53
36.9830,0.06,0.12,-0.99,3.36,1.40,1.71
37.0000,0.06,0.12,-0.99,3.17,1.28,1.65
37.0170,0.06,0.12,-0.99,3.23,1.65,1.65
37.0330,0.05,0.12,-0.99,3.30,1.46,1.59
37.0490,0.05,0.12,-1.00,3.23,1.34,1.65
37.0510,0.06,0.12,-0.99,3.05,1.77,1.65
37.0660,0.06,0.12,-0.99,3.05,1.71,1.83
37.0830,0.05,0.12,-0.99,3.17,1.34,1.65
37.1000,0.06,0.12,-0.99,3.23,1.53,1.71
37.1170,0.06,0.12,-0.99,3.36,1.40,1.71
37.1330,0.05,0.12,-0.99,3.42,1.34,1.65
37.1600,0.05,0.12,-0.99,3.30,1.40,1.71
37.1690,0.06,0.12,-0.99,3.23,1.65,1.65
37.1870,0.06,0.12,-0.99,3.17,1.59,1.71
37.2020,0.05,0.12,-0.99,3.23,1.53,1.77
37.2220,0.06,0.12,-0.99,3.30,1.65,1.53
37.2370,0.05,0.12,-1.00,3.42,1.28,1.71
37.2530,0.06,0.12,-0.99,3.42,1.22,1.53
37.2690,0.06,0.12,-0.99,3.30,1.65,1.53
37.2840,0.06,0.12,-0.99,3.42,1.65,1.77
37.2910,0.06,0.12,-0.99,3.11,1.46,1.65
37.3070,0.06,0.12,-0.99,3.36,1.22,1.46
37.3300,0.05,0.12,-0.99,3.42,1.40,1.59
37.3470,0.06,0.12,-0.99,3.17,1.40,1.59
37.3640,0.05,0.12,-0.99,3.36,1.46,1.53
37.3800,0.06,0.12,-0.99,3.23,1.34,1.53
37.3960,0.05,0.12,-0.99,3.36,1.22,1.59
37.4120,0.06,0.12,-1.00,3.23,1.16,1.65
37.4280,0.05,0.12,-0.99,3.36,1.28,1.65
37.4440,0.06,0.12,-0.99,3.36,1.40,1.59
37.4610,0.05,0.12,-0.99,3.36,1.53,1.71
37.4760,0.06,0.12,-0.99,3.30,1.28,1.59
37.4910,0.06,0.12,-0.99,3.30,1.53,1.53
37.5070,0.05,0.12,-0.99,3.23,1.10,1.71
37.5230,0.06,0.12,-0.99,3.42,1.28,1.53
37.5400,0.06,0.12,-0.99,3.30,1.28,1.65
37.5550,0.06,0.12,-0.99,3.30,1.16,1.65
37.5710,0.06,0.12,-0.99,3.23,1.34,1.46
37.5870,0.05,0.12,-0.99,3.42,1.22,1.77
37.6020,0.06,0.12,-0.99,3.30,1.28,1.65
37.6140,0.06,0.12,-0.99,3.36,1.40,1.77
37.6300,0.06,0.12,-0.99,3.36,1.40,1.53
37.6460,0.05,0.12,-0.99,3.30,0.85,1.40
37.6640,0.06,0.12,-0.99,3.42,1.28,1.77
37.6800,0.05,0.12,-0.99,3.23,1.28,1.59
37.6970,0.05,0.12,-0.99,3.30,1.46,1.65
37.7130,0.06,0.12,-0.99,3.42,1.28,1.65
37.7280,0.05,0.12,-0.99,2.99,1.53,1.59
37.7450,0.06,0.12,-0.99,3.42,1.40,1.53
37.7600,0.06,0.12,-0.99,3.23,1.59,1.59
37.7750,0.06,0.12,-0.99,3.30,1.40,1.53
37.7800,0.05,0.12,-0.99,3.11,1.22,1.59
37.7960,0.05,0.12,-0.99,3.36,1.28,1.65
37.8160,0.05,0.12,-0.99,3.30,0.85,1.46
37.8330,0.06,0.12,-0.99,3.42,1.46,1.53
37.8490,0.06,0.12,-0.99,3.30,1.22,1.59
37.8670,0.05,0.12,-0.99,3.23,1.59,1.71
37.8840,0.05,0.12,-0.99,3.17,1.40,1.77
37.9000,0.06,0.12,-0.99,3.48,1.34,1.65
37.9170,0.06,0.12,-0.99,3.36,1.46,1.65
37.9180,0.05,0.12,-0.99,3.36,1.53,1.59
37.9330,0.06,0.12,-0.99,3.30,1.04,1.53
37.9500,0.05,0.12,-1.00,3.23,1.34,1.77
37.9670,0.05,0.12,-0.99,3.17,1.28,1.53
37.9830,0.06,0.12,-0.99,3.05,1.22,1.71
37.9990,0.06,0.12,-0.99,3.36,1.04,1.59
38.0270,0.06,0.12,-0.99,3.48,1.16,1.59
38.0370,0.06,0.12,-0.99,3.36,1.40,1.40
38.0520,0.06,0.12,-0.99,3.17,1.28,1.71
38.0690,0.06,0.12,-0.99,3.36,1.46,1.71
38.0850,0.06,0.12,-0.99,3.36,1.22,1.59
38.1020,0.06,0.12,-0.99,3.30,1.46,1.77
38.1190,0.05,0.12,-0.99,3.42,1.22,1.77
38.1350,0.06,0.12,-0.99,3.30,1.28,1.59
38.1370,0.06,0.12,-0.99,3.36,1.40,1.46
38.1680,0.06,0.12,-0.99,3.23,1.10,1.53
38.1840,0.05,0.12,-0.99,3.23,1.77,1.65
38.2000,0.06,0.12,-0.99,3.23,1.16,1.59
38.2160,0.05,0.12,-0.99,3.36,1.40,1.71
38.2190,0.06,0.12,-0.99,3.36,1.28,1.59
38.2350,0.06,0.12,-0.99,3.11,1.16,1.46
38.2610,0.05,0.12,-0.99,3.48,0.85,1.59
38.2720,0.05,0.12,-0.99,3.23,1.53,1.53
38.2880,0.05,0.12,-0.99,3.42,1.22,1.59
38.3050,0.05,0.12,-0.99,3.05,1.40,1.59
38.3220,0.06,0.12,-0.99,3.36,1.22,1.59
38.3390,0.05,0.12,-0.99,3.23,1.34,1.53
38.3540,0.06,0.12,-0.99,3.48,1.34,1.65
38.3710,0.05,0.12,-0.99,3.42,1.04,1.59
38.3870,0.05,0.12,-0.99,3.30,1.16,1.46
38.4030,0.05,0.12,-0.99,3.30,1.28,1.53
38.4190,0.05,0.12,-0.99,3.36,1.40,1.71
38.4360,0.06,0.12,-0.99,3.36,1.40,1.65
38.4520,0.06,0.12,-0.99,3.30,1.40,1.65
38.4670,0.06,0.12,-0.99,3.42,1.28,1.65
38.4720,0.06,0.12,-0.99,3.36,1.22,1.65
38.4880,0.06,0.12,-0.99,3.48,1.28,1.53
38.5100,0.06,0.12,-0.99,3.23,1.34,1.46
38.5260,0.05,0.12,-0.99,3.30,1.22,1.59
38.5430,0.06,0.12,-0.99,3.30,1.16,1.77
38.5600,0.05,0.12,-0.99,3.42,1.71,1.65
38.5750,0.06,0.12,-0.99,3.23,1.46,1.71
38.5900,0.06,0.12,-0.99,3.36,1.22,1.71
38.6060,0.06,0.12,-0.99,3.23,1.22,1.59
38.6210,0.06,0.12,-0.99,3.36,1.28,1.59
38.6270,0.06,0.12,-0.99,3.30,1.16,1.65
38.6420,0.06,0.12,-0.99,3.30,1.28,1.65
38.6650,0.05,0.12,-0.99,3.30,1.34,1.59
38.6810,0.06,0.12,-0.99,3.48,1.16,1.59
38.6980,0.05,0.12,-0.99,3.30,1.28,1.65
38.7140,0.06,0.12,-0.99,3.30,1.34,1.59
38.7310,0.06,0.12,-0.99,3.23,1.59,1.65
38.7470,0.06,0.12,-0.99,3.36,1.34,1.53
38.7630,0.06,0.12,-0.99,3.30,1.46,1.59
38.7800,0.06,0.12,-0.99,3.36,1.40,1.71
38.7950,0.06,0.12,-0.99,3.30,1.22,1.65
38.8110,0.05,0.12,-0.99,3.05,1.46,1.71
38.8260,0.06,0.12,-0.99,3.30,1.59,1.71
38.8310,0.06,0.12,-0.99,3.17,1.65,1.71
38.8470,0.06,0.12,-0.99,3.30,1.46,1.59
38.8690,0.06,0.12,-0.99,3.36,1.46,1.77
38.8850,0.06,0.12,-0.99,3.23,1.34,1.77
38.9030,0.05,0.12,-0.99,3.17,1.59,1.71
38.9180,0.05,0.12,-0.99,3.36,1.46,1.71
38.9350,0.06,0.12,-0.99,3.23,1.46,1.77
38.9510,0.06,0.12,-0.99,3.23,1.40,1.65
38.9670,0.06,0.12,-0.99,3.30,1.22,1.65
38.9840,0.06,0.12,-0.99,3.36,1.22,1.59
38.9990,0.06,0.12,-0.99,3.48,1.16,1.65
39.0020,0.05,0.12,-0.99,3.36,1.28,1.59
39.0170,0.06,0.12,-0.99,3.30,1.59,1.71
39.0410,0.05,0.12,-0.99,3.42,1.46,1.59
39.0580,0.06,0.12,-0.99,3.30,1.46,1.46
39.0740,0.05,0.12,-0.99,3.30,1.77,1.71
39.0900,0.05,0.12,-0.99,3.36,1.16,1.53
39.1060,0.05,0.12,-0.99,3.36,1.65,1.59
39.1100,0.05,0.12,-0.99,3.48,1.34,1.65
39.1270,0.05,0.12,-0.99,3.48,1.40,1.65
39.1430,0.06,0.12,-0.99,3.48,1.53,1.59
39.1680,0.05,0.12,-0.99,3.42,1.34,1.59
39.1800,0.06,0.12,-0.99,3.23,1.40,1.71
39.1960,0.05,0.12,-0.99,3.42,1.53,1.71
39.2130,0.06,0.12,-0.99,3.42,1.46,1.65
39.2300,0.06,0.12,-0.99,3.42,1.22,1.65
39.2460,0.05,0.12,-0.99,3.23,1.40,1.71
39.2630,0.06,0.12,-0.99,3.42,1.53,1.59
39.2790,0.06,0.12,-0.99,3.42,1.77,1.53
39.2950,0.05,0.12,-0.99,3.23,1.59,1.65
39.3110,0.06,0.12,-0.99,3.42,1.04,1.59
39.3130,0.06,0.12,-0.99,3.30,1.40,1.59
39.3290,0.06,0.12,-0.99,3.42,1.04,1.53
39.3560,0.05,0.12,-0.99,3.30,1.59,1.65
39.3700,0.06,0.12,-0.99,3.30,1.77,1.59
39.3840,0.05,0.12,-0.99,3.42,1.65,1.65
39.4010,0.05,0.12,-0.99,3.36,1.22,1.53
39.4180,0.05,0.12,-0.99,3.48,1.28,1.65
39.4350,0.06,0.12,-0.99,3.23,1.59,1.65
39.4510,0.06,0.12,-0.99,3.42,1.40,1.65
39.4680,0.06,0.12,-0.99,3.54,1.28,1.59
39.4830,0.06,0.12,-0.99,3.42,1.22,1.59
39.4990,0.06,0.12,-0.99,3.42,1.59,1.65
39.5020,0.06,0.12,-0.99,3.23,1.04,1.59
39.5180,0.06,0.12,-0.99,3.17,1.40,1.71
39.5400,0.06,0.12,-0.99,3.42,1.28,1.46
39.5570,0.05,0.12,-0.99,3.42,1.28,1.65
39.5730,0.05,0.12,-0.99,3.30,1.16,1.59
39.5890,0.06,0.12,-0.99,3.36,1.34,1.46
39.6060,0.05,0.12,-0.99,3.30,1.04,1.40
39.6220,0.05,0.12,-0.99,3.30,1.22,1.71
39.6380,0.06,0.12,-0.99,3.36,1.28,1.65
39.6540,0.06,0.12,-0.99,3.36,1.53,1.53
39.6710,0.06,0.12,-0.99,3.48,1.22,1.59
39.6860,0.05,0.12,-0.99,3.17,1.16,1.46
39.7030,0.05,0.12,-0.99,3.42,1.04,1.53
39.7180,0.05,0.12,-0.99,3.36,1.22,1.65
39.7350,0.05,0.12,-0.99,3.42,1.40,1.59
39.7500,0.06,0.12,-0.99,3.30,1.40,1.59
39.7570,0.06,0.12,-0.99,3.23,1.40,1.71
39.7810,0.05,0.12,-0.99,3.30,1.16,1.53
39.7890,0.05,0.12,-1.00,3.36,1.04,1.53
39.8060,0.06,0.12,-0.99,3.36,1.16,1.65
39.8280,0.05,0.12,-0.99,3.36,0.85,1.53
39.8430,0.06,0.12,-0.99,3.42,1.34,1.77
39.8590,0.06,0.12,-0.99,3.42,1.59,1.71
39.8740,0.05,0.12,-0.99,3.54,1.10,1.59
39.8890,0.05,0.12,-0.99,3.23,1.83,1.71
39.9050,0.06,0.12,-0.99,3.42,1.59,1.71
39.9210,0.05,0.12,-0.99,3.05,1.40,1.59
39.9260,0.06,0.12,-0.99,3.23,1.28,1.53
39.9420,0.05,0.12,-0.99,3.36,1.40,1.59
39.9690,0.05,0.12,-0.99,3.36,1.28,1.59
39.9790,0.06,0.12,-0.99,3.36,1.28,1.65
39.9960,0.06,0.12,-0.99,3.42,1.10,1.59
40.0140,0.06,0.12,-0.99,3.36,1.53,1.53
40.0310,0.05,0.12,-0.99,3.48,1.04,1.59
40.0470,0.06,0.12,-0.99,3.30,1.53,1.53
40.0630,0.05,0.12,-0.99,3.48,1.28,1.65
40.0790,0.05,0.12,-0.99,3.23,1.46,1.53
40.0950,0.05,0.12,-0.99,3.23,1.40,1.71
40.1110,0.06,0.12,-0.99,3.30,1.22,1.65
40.1270,0.05,0.12,-0.99,3.36,1.34,1.59
40.1430,0.06,0.12,-0.99,3.48,1.53,1.65
40.1590,0.05,0.12,-0.99,3.36,1.46,1.59
40.1740,0.06,0.12,-0.99,3.36,1.28,1.46
40.1900,0.06,0.12,-0.99,3.17,1.28,1.59
40.2050,0.06,0.12,-0.99,3.42,0.92,1.65
40.2210,0.06,0.12,-0.99,3.42,0.92,1.59
40.2360,0.05,0.12,-0.99,3.48,1.34,1.65
40.2470,0.06,0.12,-0.99,3.23,1.16,1.71
40.2630,0.05,0.12,-0.99,3.36,1.40,1.65
40.2800,0.06,0.12,-0.99,3.36,0.98,1.59
40.2960,0.05,0.12,-0.99,3.42,0.98,1.71
40.3130,0.06,0.12,-0.99,3.36,1.28,1.59
40.3300,0.06,0.12,-0.99,3.42,1.65,1.53
40.3460,0.06,0.12,-0.99,3.30,1.65,1.65
40.3620,0.06,0.12,-0.99,3.36,1.10,1.53
40.3790,0.06,0.12,-0.99,3.30,1.59,1.59
40.3940,0.05,0.12,-0.99,3.30,1.04,1.65
40.4100,0.05,0.12,-0.99,3.48,1.04,1.65
40.4250,0.06,0.12,-0.99,3.36,1.10,1.53
40.4290,0.06,0.12,-0.99,3.23,1.28,1.53
40.4450,0.06,0.12,-0.99,3.36,1.40,1.53
40.4700,0.06,0.12,-0.99,3.36,1.10,1.65
40.4860,0.05,0.12,-0.99,3.42,1.22,1.71
40.5020,0.06,0.12,-0.99,3.36,1.40,1.65
40.5180,0.06,0.12,-0.99,3.17,1.34,1.65
40.5340,0.06,0.12,-0.99,3.48,1.34,1.59
40.5510,0.05,0.12,-0.99,3.36,1.16,1.59
40.5670,0.05,0.12,-0.99,3.42,1.10,1.65
40.5820,0.05,0.12,-0.99,3.30,1.10,1.40
40.5990,0.06,0.12,-0.99,3.30,1.77,1.71
40.6140,0.06,0.12,-0.99,3.48,1.40,1.65
40.6300,0.06,0.12,-0.99,3.23,1.53,1.65
40.6350,0.06,0.12,-0.99,3.48,1.16,1.53
40.6510,0.06,0.12,-0.99,3.23,1.04,1.46
40.6710,0.06,0.12,-0.99,3.17,1.28,1.53
40.6880,0.06,0.12,-0.99,3.36,1.71,1.59
40.7050,0.05,0.12,-0.99,3.36,1.59,1.65
40.7210,0.06,0.12,-0.99,3.42,1.22,1.65
40.7230,0.06,0.12,-0.99,3.11,1.16,1.77
40.7530,0.05,0.12,-0.99,3.42,1.10,1.65
40.7690,0.06,0.12,-0.99,3.30,0.98,1.53
40.7850,0.06,0.12,-0.99,3.42,0.92,1.71
40.8020,0.05,0.12,-0.99,3.30,1.53,1.71
40.8070,0.05,0.12,-0.99,3.23,1.28,1.59
40.8220,0.06,0.12,-0.99,3.48,1.10,1.53
40.8380,0.06,0.12,-0.99,3.48,1.16,1.83
40.8640,0.05,0.12,-0.99,3.48,1.22,1.59
40.8750,0.05,0.12,-0.99,3.42,1.53,1.65
40.8930,0.05,0.12,-0.99,3.30,1.16,1.53
40.9090,0.06,0.12,-0.99,3.36,1.40,1.59
40.9250,0.06,0.12,-0.99,3.23,1.59,1.65
40.9400,0.05,0.12,-0.99,3.48,1.04,1.65
40.9420,0.06,0.12,-0.99,3.23,1.16,1.59
40.9570,0.06,0.12,-0.99,3.23,1.46,1.59
40.9790,0.05,0.12,-0.99,3.30,1.16,1.71
41.0000,0.05,0.12,-0.99,3.23,1.10,1.65
41.0120,0.05,0.12,-0.99,3.17,1.40,1.71
41.0290,0.06,0.12,-0.99,3.48,1.04,1.65
41.0450,0.06,0.12,-0.99,3.36,1.28,1.59
41.0620,0.06,0.12,-0.99,3.48,0.98,1.65
41.0780,0.05,0.12,-0.99,3.48,0.92,1.65
41.0940,0.06,0.12,-0.99,3.36,1.04,1.53
41.1100,0.05,0.12,-0.99,3.42,1.10,1.59
41.1250,0.06,0.12,-0.99,3.36,1.46,1.65
41.1400,0.06,0.12,-0.99,3.36,0.98,1.65
41.1450,0.06,0.12,-0.99,3.30,0.85,1.40
41.1600,0.06,0.12,-0.99,3.42,0.98,1.46
41.1830,0.05,0.12,-0.99,3.36,1.46,1.59
41.2000,0.05,0.12,-0.99,3.23,1.53,1.65
41.2170,0.05,0.12,-0.99,3.30,1.16,1.65
41.2330,0.05,0.12,-0.99,3.36,0.85,1.59
41.2490,0.06,0.12,-0.99,3.17,1.22,1.53
41.2510,0.05,0.12,-0.99,3.42,1.22,1.71
41.2810,0.06,0.12,-0.99,3.36,1.34,1.59
41.2980,0.06,0.12,-0.99,3.23,1.16,1.53
41.3130,0.06,0.12,-0.99,3.42,1.28,1.71
41.3170,0.05,0.12,-0.99,3.30,1.40,1.77
41.3450,0.06,0.12,-0.99,3.30,1.40,1.59
41.3600,0.06,0.12,-0.99,3.36,1.10,1.53
41.3710,0.06,0.12,-0.99,3.36,1.65,1.65
41.3850,0.06,0.12,-0.99,3.30,1.40,1.53
41.4020,0.05,0.12,-0.99,3.42,1.34,1.59
41.4190,0.06,0.12,-0.99,3.17,1.71,1.59
41.4350,0.06,0.12,-0.99,3.30,1.22,1.59
41.4520,0.06,0.12,-0.99,3.30,1.46,1.59
41.4680,0.05,0.12,-0.99,3.36,0.79,1.53
41.4850,0.06,0.12,-0.99,3.36,1.16,1.46
41.5010,0.05,0.12,-0.99,3.23,1.34,1.53
41.5160,0.06,0.12,-0.99,3.30,1.28,1.46
41.5190,0.06,0.12,-0.99,3.36,1.28,1.59
41.5480,0.05,0.12,-0.99,3.48,1.59,1.59
41.5640,0.06,0.12,-0.99,3.36,1.59,1.53
41.5790,0.06,0.12,-0.99,3.30,1.40,1.77
41.5940,0.05,0.12,-0.99,3.30,1.53,1.59
41.6030,0.05,0.12,-0.99,3.30,1.34,1.59
41.6190,0.06,0.12,-0.99,3.23,1.10,1.59
41.6400,0.05,0.12,-0.99,3.36,1.22,1.71
41.6560,0.06,0.12,-0.99,3.60,1.28,1.65
41.6730,0.05,0.12,-0.99,3.42,0.85,1.65
41.6730,0.06,0.12,-0.99,3.36,1.10,1.71
41.7040,0.05,0.12,-0.99,3.23,1.10,1.40
41.7200,0.05,0.12,-0.99,3.42,1.46,1.65
41.7370,0.05,0.12,-0.99,3.48,1.34,1.65
41.7530,0.06,0.12,-0.99,3.42,1.28,1.59
41.7690,0.05,0.12,-0.99,3.36,1.10,1.53
41.7730,0.05,0.12,-0.99,3.42,1.28,1.71
41.7880,0.05,0.12,-0.99,3.30,1.04,1.59
41.8110,0.05,0.12,-0.99,3.30,1.40,1.59
41.8280,0.06,0.12,-0.99,3.54,1.16,1.65
41.8450,0.06,0.12,-0.99,3.48,1.40,1.59
41.8620,0.06,0.12,-0.99,3.60,1.53,1.71
41.8780,0.05,0.12,-0.99,3.30,1.40,1.59
41.8950,0.06,0.12,-0.99,3.30,1.28,1.59
41.9100,0.06,0.12,-0.99,3.54,1.28,1.59
41.9260,0.05,0.12,-0.99,3.42,1.16,1.53
41.9410,0.06,0.12,-0.99,3.42,1.46,1.71
41.9560,0.06,0.12,-0.99,3.48,1.34,1.53
41.9730,0.06,0.12,-0.99,3.36,1.22,1.59
41.9890,0.06,0.12,-0.99,3.36,1.40,1.65
42.0050,0.06,0.12,-0.99,3.17,1.59,1.65
42.0200,0.06,0.12,-0.99,3.23,1.53,1.71
42.0370,0.06,0.12,-0.99,3.36,0.92,1.59
42.0520,0.06,0.12,-0.99,3.42,1.28,1.65
42.0670,0.06,0.12,-0.99,3.23,1.40,1.71
42.0780,0.06,0.12,-0.99,3.42,1.16,1.59
42.0940,0.06,0.12,-0.99,3.30,1.40,1.53
42.1120,0.06,0.12,-0.99,3.54,1.10,1.65
42.1280,0.06,0.12,-0.99,3.30,1.22,1.65
42.1450,0.06,0.12,-0.99,3.30,1.10,1.71
42.1600,0.06,0.12,-0.99,3.42,1.10,1.59
42.1780,0.06,0.12,-0.99,3.30,1.34,1.65
42.1930,0.06,0.12,-0.99,3.36,1.10,1.59
42.2080,0.06,0.12,-0.99,3.17,1.46,1.59
42.2240,0.05,0.12,-0.99,3.30,1.34,1.77
42.2400,0.06,0.12,-0.99,3.17,1.71,1.65
42.2440,0.06,0.12,-0.99,3.30,1.46,1.46
42.2600,0.06,0.12,-0.99,3.23,1.04,1.65
42.2830,0.05,0.12,-0.99,3.23,1.22,1.59
42.2990,0.06,0.12,-0.99,3.30,1.22,1.59
42.3160,0.05,0.12,-0.99,3.30,1.34,1.65
42.3330,0.05,0.12,-0.99,3.48,1.28,1.65
42.3490,0.05,0.12,-0.99,3.17,1.40,1.65
42.3650,0.06,0.12,-0.99,3.42,1.04,1.53
42.3720,0.05,0.12,-0.99,3.42,1.53,1.59
42.3830,0.06,0.12,-0.99,3.30,1.65,1.65
42.3990,0.05,0.12,-0.99,3.42,1.34,1.53
42.4160,0.05,0.12,-0.99,3.36,1.59,1.65
42.4460,0.06,0.12,-0.99,3.48,1.22,1.65
42.4610,0.06,0.12,-0.99,3.42,1.59,1.77
42.4760,0.06,0.12,-0.99,3.30,1.10,1.53
42.4860,0.06,0.12,-0.99,3.36,1.40,1.65
42.5030,0.05,0.12,-0.99,3.42,1.46,1.83
42.5200,0.06,0.12,-0.99,3.23,1.53,1.53
42.5360,0.05,0.12,-0.99,3.17,1.40,1.59
42.5540,0.05,0.12,-0.99,3.23,1.34,1.71
42.5700,0.06,0.12,-0.99,3.36,1.40,1.59
42.5860,0.06,0.12,-0.99,3.36,1.53,1.59
42.6020,0.06,0.12,-0.99,3.30,0.98,1.46
42.6180,0.06,0.12,-0.99,3.48,1.04,1.59
42.6330,0.05,0.12,-0.99,3.42,1.28,1.59
42.6380,0.06,0.12,-0.99,3.23,1.22,1.59
42.6540,0.06,0.12,-0.99,3.30,1.28,1.59
42.6770,0.05,0.12,-0.99,3.17,1.34,1.46
42.6920,0.06,0.12,-0.99,3.17,1.22,1.53
42.7100,0.06,0.12,-0.99,3.17,1.22,1.53
42.7250,0.05,0.12,-0.99,3.36,1.16,1.53
42.7410,0.06,0.12,-0.99,3.36,1.34,1.65
42.7560,0.06,0.12,-0.99,3.23,1.28,1.59
42.7590,0.06,0.12,-0.99,3.30,1.22,1.59
42.7750,0.05,0.12,-0.99,3.30,0.98,1.77
42.8020,0.06,0.12,-0.99,3.17,1.40,1.65
42.8130,0.06,0.12,-0.99,3.11,1.16,1.77
42.8290,0.05,0.12,-0.99,3.36,1.22,1.65
42.8460,0.05,0.12,-0.99,3.30,1.40,1.59
42.8620,0.05,0.12,-0.99,3.30,1.04,1.40
42.8790,0.06,0.12,-0.99,3.17,0.85,1.59
42.8950,0.06,0.12,-0.99,3.23,1.28,1.71
42.9110,0.06,0.12,-0.99,3.30,1.22,1.53
42.9270,0.05,0.12,-0.99,3.23,1.16,1.59
42.9290,0.06,0.12,-0.99,3.17,1.22,1.71
42.9450,0.06,0.12,-0.99,3.30,1.59,1.53
42.9730,0.05,0.12,-0.99,3.54,1.16,1.59
42.9830,0.05,0.12,-0.99,3.42,1.28,1.53
42.9990,0.06,0.12,-0.99,3.36,1.28,1.65
43.0170,0.06,0.12,-0.99,3.42,1.16,1.46
43.0340,0.05,0.12,-0.99,3.30,1.10,1.53
43.0490,0.05,0.12,-0.99,3.60,0.92,1.53
43.0660,0.06,0.12,-1.00,3.36,1.46,1.65
43.0830,0.05,0.12,-0.99,3.48,1.16,1.65
43.0980,0.06,0.12,-0.99,3.17,1.22,1.53
43.1150,0.06,0.12,-0.99,3.36,0.98,1.53
43.1300,0.06,0.12,-0.99,3.23,1.22,1.71
43.1330,0.06,0.12,-0.99,3.30,1.10,1.71
43.1490,0.06,0.12,-0.99,3.48,1.04,1.59
43.1730,0.06,0.12,-0.99,3.48,1.04,1.53
43.1880,0.06,0.12,-0.99,3.42,1.04,1.65
43.2050,0.05,0.12,-0.99,3.23,1.28,1.83
43.2210,0.06,0.12,-0.99,3.30,1.28,1.65
43.2230,0.06,0.12,-0.99,3.42,1.34,1.77
43.2530,0.06,0.12,-0.99,3.48,1.34,1.59
43.2690,0.05,0.12,-0.99,3.30,1.22,1.53
43.2730,0.05,0.12,-0.99,3.23,1.40,1.77
43.3010,0.05,0.12,-0.99,3.48,0.98,1.53
43.3170,0.05,0.12,-0.99,3.42,0.98,1.65
43.3320,0.06,0.12,-0.99,3.17,1.59,1.65
43.3430,0.06,0.12,-0.99,3.42,1.53,1.65
43.3600,0.06,0.12,-0.99,3.42,1.53,1.53
43.3760,0.05,0.12,-0.99,3.48,1.65,1.77
43.3920,0.06,0.12,-0.99,3.36,1.28,1.65
43.4090,0.05,0.12,-0.99,3.36,1.34,1.59
43.4260,0.05,0.12,-0.99,3.48,1.59,1.77
43.4410,0.06,0.12,-0.99,3.42,1.46,1.65
43.4560,0.06,0.12,-0.99,3.60,1.53,1.77
43.4730,0.06,0.12,-0.99,3.42,1.22,1.71
43.4760,0.06,0.12,-0.99,3.36,1.22,1.77
43.4920,0.05,0.12,-0.99,3.36,1.34,1.65
43.5120,0.05,0.12,-0.99,3.54,1.40,1.71
43.5350,0.06,0.12,-0.99,3.36,1.46,1.71
43.5460,0.06,0.12,-0.99,3.42,1.16,1.59
43.5610,0.05,0.12,-0.99,3.36,1.40,1.65
43.5790,0.05,0.12,-0.99,3.30,1.59,1.65
43.5950,0.05,0.12,-0.99,3.30,1.77,1.53
43.6120,0.06,0.12,-0.99,3.30,1.40,1.59
43.6290,0.05,0.12,-0.99,3.30,0.98,1.53
43.6440,0.05,0.12,-0.99,3.48,1.34,1.59
43.6610,0.05,0.12,-0.99,3.30,1.59,1.53
43.6760,0.05,0.12,-0.99,3.54,1.22,1.77
43.6920,0.06,0.12,-0.99,3.36,1.40,1.65
43.7070,0.05,0.12,-0.99,3.36,1.46,1.53
43.7230,0.06,0.12,-0.99,3.42,1.46,1.53
43.7280,0.05,0.12,-0.99,3.48,1.40,1.59
43.7430,0.06,0.12,-0.99,3.23,1.40,1.53
43.7660,0.06,0.12,-0.99,3.36,1.10,1.65
43.7840,0.05,0.12,-0.99,3.36,1.16,1.77
43.7990,0.05,0.12,-0.99,3.23,1.46,1.65
43.8160,0.06,0.12,-0.99,3.42,1.40,1.53
43.8330,0.06,0.12,-0.99,3.30,1.28,1.71
43.8340,0.06,0.12,-0.99,3.36,1.22,1.59
43.8500,0.06,0.12,-0.99,3.54,1.16,1.59
43.8730,0.06,0.12,-1.00,3.36,1.10,1.59
43.8970,0.05,0.12,-0.99,3.17,1.34,1.71
43.8990,0.05,0.12,-0.99,3.36,1.40,1.65
43.9150,0.06,0.12,-0.99,3.23,1.22,1.71
43.9370,0.05,0.12,-0.99,3.36,0.98,1.59
43.9540,0.05,0.12,-1.00,3.23,1.65,1.65
43.9700,0.05,0.12,-0.99,3.42,1.40,1.77
43.9870,0.06,0.12,-0.99,3.36,1.65,1.65
44.0040,0.06,0.12,-0.99,3.30,1.40,1.71
44.0200,0.06,0.12,-0.99,3.42,1.46,1.53
44.0370,0.06,0.12,-0.99,3.36,1.28,1.53
44.0380,0.06,0.12,-0.99,3.23,1.59,1.53
44.0680,0.06,0.12,-0.99,3.23,1.53,1.83
44.0850,0.05,0.12,-0.99,3.23,1.04,1.53
44.1000,0.05,0.12,-0.99,3.23,1.04,1.65
44.1040,0.05,0.12,-0.99,3.36,1.04,1.59
44.1210,0.05,0.12,-0.99,3.42,1.22,1.65
44.1440,0.06,0.12,-0.99,3.23,1.16,1.71
44.1600,0.06,0.12,-0.99,3.23,1.46,1.59
44.1760,0.06,0.12,-0.99,3.23,1.53,1.53
44.1920,0.06,0.12,-0.99,3.17,1.46,1.65
44.2100,0.05,0.12,-0.99,3.42,1.16,1.65
44.2260,0.05,0.12,-0.99,3.36,1.28,1.59
44.2410,0.05,0.12,-0.99,3.17,1.28,1.59
44.2560,0.05,0.12,-0.99,3.17,1.22,1.65
44.2600,0.06,0.12,-0.99,3.36,1.40,1.59
44.2750,0.05,0.12,-0.99,3.30,1.22,1.59
44.2990,0.06,0.12,-0.99,3.23,1.16,1.65
44.3150,0.06,0.12,-0.99,2.99,1.77,1.46
44.3330,0.06,0.12,-0.99,3.42,1.34,1.65
44.3490,0.05,0.12,-0.99,3.17,1.22,1.65
44.3660,0.05,0.12,-0.99,3.48,1.40,1.59
44.3820,0.06,0.12,-0.99,3.17,1.34,1.53
44.3980,0.05,0.12,-0.99,3.48,1.40,1.65
44.3990,0.06,0.12,-0.99,3.23,1.10,1.65
44.4160,0.05,0.12,-0.99,3.05,1.53,1.46
44.4330,0.05,0.12,-0.99,3.36,1.22,1.59
44.4490,0.06,0.12,-0.99,3.23,1.28,1.65
44.4740,0.06,0.12,-0.99,3.30,1.53,1.53
44.4870,0.05,0.12,-0.99,3.42,1.65,1.71
44.5040,0.06,0.12,-0.99,3.30,1.28,1.71
44.5210,0.06,0.12,-0.99,3.23,1.46,1.53
44.5370,0.05,0.12,-0.99,3.11,1.59,1.71
44.5540,0.06,0.12,-0.99,3.17,1.53,1.65
44.5710,0.05,0.12,-0.99,3.36,1.16,1.83
44.5870,0.06,0.12,-0.99,3.42,1.34,1.77
44.6020,0.06,0.12,-0.99,3.48,1.40,1.65
44.6180,0.06,0.12,-0.99,3.30,1.28,1.53
44.6340,0.05,0.12,-0.99,3.23,1.40,1.46
44.6370,0.06,0.12,-0.99,3.17,0.85,1.53
44.6530,0.06,0.12,-0.99,3.30,1.46,1.59
44.6800,0.06,0.12,-0.99,3.17,1.59,1.53
44.6910,0.05,0.12,-0.99,3.23,1.34,1.46
44.7070,0.06,0.12,-0.99,3.54,1.40,1.59
44.7240,0.06,0.12,-0.99,3.30,1.46,1.65
44.7400,0.06,0.12,-0.99,3.30,1.40,1.59
44.7550,0.05,0.12,-0.99,3.17,1.59,1.65
44.7570,0.05,0.12,-0.99,3.30,1.46,1.65
44.7870,0.05,0.12,-1.00,3.30,1.46,1.71
44.8030,0.05,0.12,-0.99,3.48,1.71,1.53
44.8190,0.06,0.12,-0.99,3.23,1.53,1.59
44.8350,0.06,0.12,-0.99,3.30,1.16,1.59
44.8510,0.06,0.12,-0.99,3.23,1.65,1.59
44.8670,0.05,0.12,-1.00,3.30,1.28,1.59
44.8820,0.06,0.12,-0.99,3.30,1.22,1.53
44.8980,0.05,0.12,-0.99,3.42,1.16,1.53
44.9130,0.05,0.12,-0.99,3.36,1.40,1.53
44.9250,0.06,0.12,-0.99,3.42,1.34,1.65
44.9420,0.06,0.12,-0.99,3.23,1.59,1.77
44.9580,0.05,0.12,-0.99,3.36,1.10,1.46
44.9730,0.06,0.12,-0.99,3.36,1.34,1.71
44.9890,0.05,0.12,-0.99,3.48,1.10,1.71
44.9910,0.05,0.12,-0.99,3.23,1.28,1.59
45.0070,0.06,0.12,-1.00,3.36,1.34,1.71
45.0280,0.06,0.12,-0.99,3.48,1.04,1.59
45.0450,0.05,0.12,-1.00,3.48,0.98,1.59
45.0620,0.05,0.12,-0.99,3.36,1.28,1.65
45.0780,0.06,0.12,-0.99,3.42,1.22,1.40
45.0940,0.05,0.12,-0.99,3.11,1.22,1.59
45.1120,0.06,0.12,-0.99,3.36,1.34,1.71
45.1280,0.06,0.12,-0.99,3.30,1.34,1.59
45.1440,0.06,0.12,-0.99,3.42,1.16,1.71
45.1600,0.05,0.12,-0.99,3.36,1.34,1.65
45.1760,0.06,0.12,-0.99,3.36,1.28,1.71
45.1910,0.05,0.12,-0.99,3.36,1.53,1.65
45.2060,0.05,0.12,-0.99,3.36,0.98,1.59
45.2210,0.06,0.12,-0.99,3.48,1.46,1.71
45.2360,0.05,0.12,-0.99,3.36,1.59,1.65
45.2530,0.06,0.12,-0.99,3.17,1.10,1.59
45.2620,0.06,0.12,-0.99,3.36,1.34,1.53
45.2840,0.05,0.12,-0.99,3.23,1.10,1.59
45.2950,0.06,0.12,-0.99,3.23,1.34,1.53
45.3120,0.06,0.12,-0.99,3.54,1.28,1.59
45.3290,0.06,0.12,-0.99,3.30,1.65,1.77
45.3460,0.05,0.12,-0.99,3.54,1.16,1.65
45.3610,0.06,0.12,-0.99,3.05,1.53,1.65
45.3780,0.06,0.12,-0.99,3.23,1.40,1.59
45.3940,0.06,0.12,-0.99,3.54,1.10,1.65
45.4110,0.05,0.12,-0.99,3.54,1.28,1.77
45.4270,0.06,0.12,-0.99,3.30,1.40,1.65
45.4420,0.06,0.12,-0.99,3.23,1.46,1.65
45.4570,0.05,0.12,-0.99,3.36,1.22,1.59
45.4730,0.06,0.12,-0.99,3.17,1.22,1.71
45.4880,0.05,0.12,-0.99,3.36,1.46,1.71
45.5030,0.06,0.12,-0.99,3.23,1.40,1.65
45.5190,0.06,0.12,-0.99,3.36,1.40,1.71
45.5330,0.06,0.12,-0.99,3.23,1.40,1.71
45.5450,0.05,0.12,-0.99,3.36,1.46,1.59
45.5620,0.05,0.12,-0.99,3.48,1.10,1.65
45.5790,0.06,0.12,-0.99,3.42,1.53,1.46
45.5960,0.06,0.12,-0.99,3.36,1.16,1.65
45.6110,0.05,0.12,-0.99,3.48,1.10,1.59
45.6270,0.06,0.12,-0.99,3.42,1.59,1.65
45.6430,0.05,0.12,-0.99,3.42,1.71,1.71
45.6590,0.06,0.12,-0.99,3.48,1.46,1.71
45.6740,0.06,0.12,-0.99,3.30,1.34,1.71
45.6900,0.06,0.12,-0.99,3.11,1.34,1.65
45.7050,0.05,0.12,-0.99,3.23,1.40,1.65
45.7210,0.06,0.12,-0.99,3.30,1.59,1.77
45.7360,0.06,0.12,-0.99,3.36,1.83,1.65
45.7500,0.06,0.12,-0.99,3.36,1.71,1.65
45.7620,0.06,0.12,-0.99,3.17,1.46,1.65
45.7800,0.06,0.12,-0.99,3.36,1.16,1.65
45.7960,0.05,0.12,-0.99,3.36,1.28,1.59
45.8130,0.05,0.12,-1.00,3.36,1.28,1.65
45.8280,0.06,0.12,-0.99,3.36,1.46,1.59
45.8450,0.05,0.12,-0.99,3.23,1.34,1.77
45.8600,0.06,0.12,-0.99,3.36,1.10,1.65
45.8760,0.06,0.12,-0.99,3.30,1.83,1.59
45.8920,0.06,0.12,-0.99,3.42,1.10,1.77
45.8950,0.06,0.12,-0.99,3.36,1.53,1.59
45.9110,0.06,0.12,-0.99,3.30,1.22,1.65
45.9320,0.06,0.12,-0.99,3.42,1.46,1.65
45.9490,0.06,0.12,-0.99,3.17,1.46,1.71
45.9650,0.06,0.12,-0.99,3.17,1.46,1.59
45.9840,0.06,0.12,-0.99,3.30,1.34,1.59
45.9990,0.05,0.12,-0.99,3.54,1.16,1.71
46.0160,0.05,0.12,-0.99,3.42,1.28,1.71
46.0320,0.06,0.12,-0.99,3.36,1.46,1.71
46.0340,0.06,0.12,-0.99,3.42,1.28,1.65
46.0490,0.06,0.12,-0.99,3.23,1.40,1.53
46.0770,0.06,0.12,-1.00,3.42,1.22,1.65
46.0820,0.06,0.12,-1.00,3.42,1.40,1.77
46.0990,0.06,0.12,-0.99,3.17,1.40,1.65
46.1160,0.05,0.12,-0.99,3.36,1.28,1.65
46.1450,0.06,0.12,-0.99,3.36,1.46,1.65
46.1600,0.06,0.12,-0.99,3.30,1.53,1.53
46.1750,0.06,0.12,-0.99,3.60,1.46,1.71
46.1830,0.06,0.12,-0.99,3.30,1.53,1.65
46.1990,0.05,0.12,-0.99,3.42,1.71,1.65
46.2160,0.06,0.12,-0.99,3.48,1.65,1.53
46.2320,0.06,0.12,-0.99,3.48,1.53,1.71
46.2500,0.06,0.12,-0.99,3.36,1.04,1.59
46.2660,0.06,0.12,-0.99,3.36,1.34,1.59
46.2820,0.05,0.12,-0.99,3.36,1.04,1.71
46.2980,0.06,0.12,-0.99,3.23,1.59,1.53
46.3140,0.06,0.12,-0.99,3.36,1.10,1.59
46.3310,0.05,0.12,-0.99,3.30,1.04,1.65
46.3330,0.06,0.12,-0.99,3.48,1.10,1.65
46.3480,0.06,0.12,-0.99,3.23,1.22,1.71
46.3780,0.06,0.12,-0.99,3.30,1.34,1.59
46.3940,0.06,0.12,-0.99,3.36,1.46,1.71
46.4100,0.06,0.12,-0.99,3.36,1.46,1.71
46.4250,0.06,0.12,-0.99,3.36,1.59,1.65
46.4330,0.06,0.12,-0.99,3.42,1.28,1.46
46.4490,0.05,0.12,-0.99,3.42,1.28,1.65
46.4710,0.06,0.12,-0.99,3.36,1.46,1.65
46.4870,0.06,0.12,-0.99,3.30,1.59,1.59
46.5030,0.06,0.12,-0.99,3.05,1.53,1.83
46.5180,0.06,0.12,-0.99,3.30,1.77,1.65
46.5350,0.06,0.12,-0.99,3.36,1.46,1.65
46.5510,0.05,0.12,-0.99,3.42,1.59,1.59
46.5670,0.06,0.12,-0.99,3.42,1.53,1.77
46.5830,0.05,0.12,-0.99,3.30,1.53,1.59
46.5990,0.05,0.12,-0.99,3.30,1.22,1.77
46.6140,0.06,0.12,-0.99,3.30,1.04,1.46
46.6300,0.06,0.12,-0.99,3.48,1.28,1.59
46.6450,0.06,0.12,-0.99,3.48,1.46,1.71
46.6610,0.05,0.12,-0.99,3.17,1.59,1.77
46.6710,0.06,0.12,-0.99,3.42,1.34,1.77
46.6870,0.06,0.12,-0.99,2.99,1.53,1.77
46.7060,0.06,0.12,-0.99,3.11,1.46,1.65
46.7220,0.05,0.12,-0.99,3.30,1.28,1.59
46.7370,0.06,0.12,-1.00,3.36,1.16,1.71
46.7530,0.05,0.12,-0.99,3.42,1.28,1.83
46.7690,0.05,0.12,-0.99,3.30,1.22,1.46
46.7840,0.05,0.12,-0.99,3.30,1.34,1.53
46.8000,0.06,0.12,-0.99,3.48,1.28,1.53
46.8150,0.06,0.12,-0.99,3.48,1.34,1.59
46.8310,0.06,0.12,-0.99,3.36,1.71,1.53
46.8410,0.06,0.12,-0.99,3.23,1.65,1.77
46.8570,0.06,0.12,-0.99,3.17,1.46,1.59
46.8740,0.06,0.12,-0.99,3.36,1.46,1.59
46.8900,0.06,0.12,-0.99,3.30,1.59,1.65
46.9050,0.06,0.12,-0.99,3.23,1.46,1.65
46.9200,0.06,0.12,-0.99,3.30,1.34,1.77
46.9360,0.06,0.12,-0.99,3.48,1.22,1.59
46.9530,0.06,0.12,-0.99,3.30,1.22,1.77
46.9680,0.06,0.12,-0.99,3.36,1.22,1.65
46.9830,0.06,0.12,-0.99,3.36,1.40,1.59
46.9990,0.05,0.12,-0.99,3.30,1.46,1.53
47.0080,0.06,0.12,-0.99,3.42,1.22,1.53
47.0240,0.05,0.12,-0.99,3.30,1.22,1.65
47.0450,0.05,0.12,-0.99,3.30,1.28,1.65
47.0600,0.06,0.12,-0.99,3.36,1.16,1.59
47.0770,0.06,0.12,-0.99,3.42,1.34,1.65
47.0930,0.05,0.12,-0.99,3.11,1.40,1.65
47.1080,0.06,0.12,-0.99,3.42,1.28,1.65
47.1220,0.05,0.12,-0.99,3.17,1.16,1.59
47.1390,0.05,0.12,-0.99,3.60,1.22,1.71
47.1550,0.06,0.12,-0.99,3.11,1.22,1.65
47.1710,0.06,0.12,-0.99,3.48,1.04,1.59
47.1870,0.06,0.12,-0.99,3.36,1.10,1.59
47.2030,0.05,0.12,-0.99,3.36,1.28,1.46
47.2180,0.05,0.12,-0.99,3.30,1.10,1.71
47.2270,0.06,0.12,-0.99,3.30,1.46,1.59
47.2430,0.06,0.12,-0.99,3.36,0.92,1.65
47.2630,0.06,0.12,-0.99,3.23,1.22,1.65
47.2790,0.05,0.12,-0.99,3.60,1.22,1.71
47.2960,0.06,0.12,-0.99,3.36,1.34,1.71
47.3120,0.06,0.12,-0.99,3.42,0.98,1.53
47.3280,0.05,0.12,-0.99,3.42,1.28,1.71
47.3440,0.06,0.12,-0.99,3.54,1.16,1.46
47.3600,0.06,0.12,-0.99,3.42,1.71,1.59
47.3760,0.05,0.12,-0.99,3.48,1.28,1.59
47.3910,0.06,0.12,-1.00,3.48,1.28,1.65
47.3950,0.05,0.12,-0.99,3.30,1.10,1.71
47.4110,0.05,0.12,-0.99,3.60,1.16,1.65
47.4330,0.05,0.12,-0.99,3.30,1.34,1.71
47.4500,0.06,0.12,-0.99,3.42,1.46,1.71
47.4660,0.06,0.12,-0.99,3.48,1.28,1.59
47.4840,0.06,0.12,-0.99,3.23,1.34,1.65
47.5000,0.05,0.12,-0.99,3.36,0.92,1.59
47.5160,0.06,0.12,-1.00,3.36,1.46,1.71
47.5330,0.05,0.12,-1.00,3.36,0.98,1.59
47.5340,0.06,0.12,-0.99,3.42,1.34,1.71
47.5650,0.05,0.12,-0.99,3.17,1.28,1.65
47.5810,0.05,0.12,-0.99,3.42,1.22,1.59
47.5970,0.06,0.12,-0.99,3.30,1.46,1.71
47.5990,0.06,0.12,-0.99,3.17,1.22,1.59
47.6300,0.06,0.12,-0.99,3.30,1.40,1.59
47.6450,0.06,0.12,-0.99,3.48,1.46,1.59
47.6600,0.05,0.12,-0.99,3.23,1.40,1.59
47.6690,0.06,0.12,-0.99,3.36,1.04,1.65
47.6850,0.06,0.12,-0.99,3.48,1.28,1.65
47.7030,0.05,0.12,-0.99,3.23,0.98,1.59
47.7190,0.06,0.12,-0.99,3.54,1.46,1.65
47.7350,0.05,0.12,-0.99,3.30,1.16,1.71
47.7520,0.06,0.12,-0.99,3.36,1.22,1.59
47.7680,0.06,0.12,-0.99,3.48,1.10,1.59
47.7850,0.06,0.12,-0.99,3.42,1.10,1.34
47.8010,0.06,0.12,-0.99,3.23,1.46,1.34
47.8170,0.06,0.12,-0.99,3.23,1.22,1.71
47.8330,0.06,0.12,-0.99,3.23,1.34,1.46
47.8490,0.06,0.12,-0.99,3.48,1.40,1.65
47.8520,0.06,0.12,-0.99,3.17,1.40,1.65
47.8680,0.06,0.12,-0.99,3.72,0.92,1.59
47.8890,0.06,0.12,-0.99,3.36,1.46,1.59
47.9070,0.06,0.12,-0.99,3.30,1.22,1.53
47.9240,0.06,0.12,-0.99,3.48,1.22,1.77
47.9390,0.06,0.12,-0.99,3.36,1.53,1.65
47.9550,0.05,0.12,-0.99,3.54,1.40,1.65
47.9710,0.06,0.12,-0.99,3.23,1.04,1.59
47.9790,0.06,0.12,-0.99,3.48,0.85,1.65
47.9890,0.06,0.12,-0.99,3.36,1.28,1.65
48.0110,0.06,0.12,-0.99,3.30,1.34,1.71
48.0270,0.06,0.12,-0.99,3.48,1.40,1.65
48.0430,0.05,0.12,-0.99,3.30,1.10,1.65
48.0620,0.06,0.12,-0.99,3.48,0.92,1.53
48.0780,0.06,0.12,-0.99,3.23,1.34,1.65
48.0930,0.05,0.12,-0.99,3.48,1.22,1.65
48.1090,0.06,0.12,-0.99,3.36,0.85,1.77
48.1250,0.06,0.12,-0.99,3.48,1.34,1.53
