Timestamp, AccX, AccY, AccZ, GyroX, GyroY, GyroZ
0.0090,0.07,0.13,-0.99,3.05,3.85,2.69
0.0170,0.07,0.13,-0.99,3.17,3.72,2.93
0.0390,0.07,0.13,-0.99,3.23,3.97,2.75
0.0510,0.07,0.13,-0.99,3.36,3.42,2.62
0.0670,0.07,0.13,-0.99,3.54,3.54,2.62
0.0840,0.07,0.13,-0.99,3.17,3.97,2.69
0.0840,0.07,0.13,-0.99,3.36,3.91,2.75
0.1140,0.07,0.13,-0.99,3.23,3.91,2.81
0.1290,0.07,0.13,-0.99,3.23,3.66,2.75
0.1440,0.07,0.13,-0.99,3.17,3.85,2.81
0.1580,0.07,0.13,-0.99,3.23,3.54,2.81
0.1740,0.07,0.13,-0.98,3.17,3.97,2.62
0.1890,0.07,0.13,-0.99,3.36,3.91,2.75
0.2000,0.07,0.13,-0.99,3.30,3.78,2.69
0.2170,0.07,0.13,-0.99,3.42,3.72,2.62
0.2330,0.07,0.13,-0.99,3.23,3.54,2.62
0.2490,0.07,0.13,-0.99,3.36,3.85,2.75
0.2640,0.07,0.13,-0.99,3.42,3.60,2.81
0.2790,0.07,0.13,-0.99,3.23,3.91,2.62
0.2930,0.07,0.13,-0.99,3.30,3.97,2.75
0.3090,0.07,0.13,-0.99,3.23,3.66,2.75
0.3170,0.07,0.13,-0.99,3.36,3.78,2.75
0.3390,0.07,0.13,-0.99,3.30,3.78,2.75
0.3500,0.07,0.13,-0.98,3.11,3.85,2.69
0.3680,0.07,0.13,-0.99,3.17,3.97,2.56
0.3840,0.07,0.13,-0.99,3.11,4.21,2.75
0.3980,0.07,0.13,-0.99,3.05,3.85,2.75
0.4150,0.07,0.13,-0.99,3.05,3.97,2.75
0.4300,0.07,0.13,-0.99,3.17,3.66,2.87
0.4450,0.07,0.13,-0.99,3.17,3.72,2.81
0.4610,0.07,0.13,-0.99,3.30,4.03,2.87
0.4660,0.07,0.13,-0.99,2.99,4.15,2.81
0.4820,0.07,0.13,-0.99,3.23,3.97,2.87
0.5060,0.07,0.13,-0.99,3.30,3.85,2.93
0.5210,0.07,0.13,-0.99,3.17,3.91,2.93
0.5380,0.07,0.13,-0.99,3.17,3.85,2.62
0.5540,0.07,0.13,-0.99,3.23,3.66,2.69
0.5700,0.07,0.13,-0.99,3.23,3.97,2.93
0.5850,0.07,0.13,-0.99,3.42,3.66,2.56
0.6000,0.07,0.13,-0.99,3.30,3.66,2.69
0.6040,0.07,0.13,-0.99,3.17,3.97,2.81
0.6200,0.07,0.13,-0.99,3.30,3.66,2.62
0.6430,0.07,0.13,-0.99,3.30,3.97,2.87
0.6590,0.07,0.13,-0.99,3.17,3.97,2.69
0.6760,0.07,0.13,-0.99,3.23,3.97,2.81
0.6920,0.07,0.13,-0.99,3.23,3.91,2.69
0.6930,0.07,0.13,-0.99,3.36,3.72,2.75
0.7100,0.07,0.13,-0.99,3.30,3.66,2.69
0.7270,0.07,0.13,-0.99,3.05,3.91,2.75
0.7440,0.07,0.13,-0.99,3.17,3.91,2.62
0.7590,0.07,0.13,-0.99,3.36,3.72,2.75
0.7760,0.07,0.13,-0.99,3.23,3.72,2.81
0.7930,0.07,0.13,-0.99,3.30,3.72,2.75
0.8090,0.07,0.13,-0.99,3.11,3.91,2.69
0.8270,0.07,0.13,-0.99,3.23,3.72,2.69
0.8430,0.07,0.13,-0.99,3.17,3.85,2.69
0.8590,0.07,0.13,-0.99,3.23,3.72,2.75
0.8750,0.07,0.13,-0.99,3.42,3.85,2.69
0.8760,0.07,0.13,-0.99,3.30,3.78,2.81
0.8930,0.07,0.13,-0.99,3.30,3.91,2.75
0.9110,0.07,0.13,-0.99,3.11,3.60,2.69
0.9260,0.07,0.13,-0.99,3.11,3.78,2.69
0.9430,0.07,0.13,-0.99,3.11,3.48,2.69
0.9700,0.07,0.13,-0.99,3.23,3.91,2.75
0.9820,0.07,0.13,-0.99,3.17,4.15,2.75
0.9970,0.07,0.13,-0.99,3.23,3.78,2.75
1.0150,0.07,0.13,-0.99,3.17,3.78,2.81
1.0310,0.07,0.13,-0.99,3.42,3.60,2.75
1.0470,0.07,0.13,-0.99,2.99,3.91,2.62
1.0630,0.07,0.13,-0.99,3.23,3.66,2.62
1.0650,0.07,0.13,-0.99,3.23,3.97,2.75
1.0940,0.07,0.13,-0.99,3.17,3.66,2.75
1.1100,0.07,0.13,-0.99,3.23,3.66,2.75
1.1260,0.07,0.13,-0.98,3.11,3.85,2.75
1.1420,0.07,0.13,-0.99,3.17,3.66,2.69
1.1570,0.07,0.13,-0.99,3.11,3.72,2.62
1.1650,0.07,0.13,-0.99,3.05,3.48,2.62
1.1810,0.07,0.13,-0.99,3.30,3.97,2.69
1.2030,0.07,0.13,-0.99,3.30,3.97,2.56
1.2190,0.07,0.13,-0.99,3.23,3.85,2.69
1.2340,0.07,0.13,-0.99,3.17,3.48,2.69
1.2490,0.07,0.13,-0.99,3.17,3.66,2.75
1.2640,0.07,0.13,-0.99,3.17,4.03,2.69
1.2780,0.07,0.13,-0.99,3.23,4.03,2.69
1.2940,0.07,0.13,-0.99,3.17,3.66,2.69
1.3090,0.07,0.13,-0.99,3.11,3.78,2.69
1.3240,0.07,0.13,-0.99,3.11,3.91,2.81
1.3360,0.07,0.13,-0.99,3.23,3.54,2.87
1.3530,0.07,0.13,-0.99,3.42,3.48,2.62
1.3680,0.07,0.13,-0.99,3.17,3.48,2.75
1.3840,0.07,0.13,-0.99,3.36,3.91,2.75
1.3990,0.07,0.13,-0.99,3.17,3.54,2.69
1.4040,0.07,0.13,-0.99,2.93,3.97,2.75
1.4280,0.07,0.13,-0.99,3.11,3.72,2.81
1.4450,0.07,0.13,-0.99,3.48,3.54,2.81
1.4610,0.07,0.13,-0.99,3.11,3.72,2.75
1.4760,0.07,0.13,-0.99,3.17,3.78,2.62
1.4860,0.07,0.13,-0.99,3.30,3.66,2.69
1.5010,0.07,0.13,-0.99,3.23,3.66,2.69
1.5220,0.07,0.13,-0.99,3.11,3.72,2.62
1.5370,0.07,0.13,-0.99,3.23,3.97,2.62
1.5450,0.07,0.13,-0.99,3.30,3.60,2.50
1.5570,0.07,0.13,-0.99,3.05,3.66,2.56
1.5840,0.07,0.13,-0.99,3.05,3.78,2.69
1.5900,0.07,0.13,-0.99,2.99,3.78,2.81
1.6060,0.07,0.13,-0.99,3.17,3.85,2.69
1.6280,0.07,0.13,-0.99,3.36,3.60,2.81
1.6440,0.07,0.13,-0.99,3.36,3.85,2.81
1.6610,0.07,0.13,-0.98,3.11,3.66,2.75
1.6770,0.07,0.13,-0.99,3.23,3.72,2.75
1.6790,0.07,0.13,-0.99,3.23,3.66,2.75
1.6950,0.07,0.13,-0.99,3.05,3.60,2.93
1.7100,0.07,0.13,-0.99,3.23,3.78,2.75
1.7330,0.07,0.13,-0.99,3.23,3.85,2.81
1.7510,0.07,0.13,-0.99,3.11,3.85,2.81
1.7660,0.07,0.13,-0.99,3.30,3.78,2.81
1.7840,0.07,0.13,-0.99,3.17,3.48,2.69
1.7990,0.07,0.13,-0.99,3.36,3.78,2.75
1.8140,0.07,0.13,-0.99,3.30,3.91,2.69
1.8300,0.07,0.13,-0.99,3.36,3.91,2.75
1.8470,0.07,0.13,-0.99,3.30,3.78,2.62
1.8620,0.07,0.13,-0.99,3.30,3.97,2.62
1.8780,0.07,0.13,-0.99,3.30,3.85,2.75
1.8940,0.07,0.13,-0.99,3.11,3.85,2.75
1.9000,0.07,0.13,-0.99,3.23,4.09,2.75
1.9160,0.07,0.13,-0.99,3.30,3.72,2.75
1.9390,0.07,0.13,-0.99,3.30,3.66,2.69
1.9540,0.07,0.13,-0.99,3.11,3.72,2.69
1.9690,0.07,0.13,-0.99,3.23,3.66,2.75
1.9840,0.07,0.13,-0.99,3.23,3.72,2.69
2.0000,0.07,0.13,-0.99,3.30,3.78,2.75
2.0150,0.07,0.13,-0.99,3.36,3.60,2.50
2.0290,0.07,0.13,-0.99,3.17,3.60,2.50
2.0440,0.07,0.13,-0.99,3.11,3.72,2.87
2.0560,0.07,0.13,-0.99,3.30,4.15,2.75
2.0730,0.07,0.13,-0.99,3.17,3.78,2.75
2.0900,0.07,0.13,-0.99,3.05,3.97,2.69
2.1050,0.07,0.13,-0.99,3.05,3.91,2.75
2.1190,0.07,0.13,-0.99,3.30,3.72,2.81
2.1350,0.07,0.13,-0.99,3.17,3.85,2.69
2.1510,0.07,0.13,-0.99,3.36,3.78,2.69
2.1650,0.07,0.13,-0.99,3.11,3.85,2.81
2.1810,0.07,0.13,-0.99,3.11,3.91,2.69
2.1960,0.07,0.13,-0.99,3.23,3.91,2.87
2.2060,0.07,0.13,-0.99,3.23,3.85,2.81
2.2230,0.07,0.13,-0.99,3.36,4.03,2.75
2.2400,0.07,0.13,-0.99,3.30,3.60,2.75
2.2560,0.07,0.13,-0.99,3.30,3.91,2.69
2.2700,0.07,0.13,-0.99,3.17,4.03,2.87
2.2860,0.07,0.13,-0.99,3.23,3.85,2.75
2.3000,0.07,0.13,-0.99,3.23,3.72,2.81
2.3160,0.07,0.13,-0.99,3.23,3.85,2.81
2.3310,0.07,0.13,-0.99,3.17,3.72,2.62
2.3460,0.07,0.13,-0.99,2.99,3.72,2.62
2.3570,0.07,0.13,-0.98,3.11,3.85,2.75
2.3740,0.07,0.13,-0.99,3.11,3.78,2.69
2.3900,0.07,0.13,-0.99,3.30,3.97,2.44
2.4070,0.07,0.13,-0.98,3.17,3.91,2.56
2.4230,0.07,0.13,-0.99,3.05,3.91,2.62
2.4380,0.07,0.13,-0.99,3.05,4.03,2.75
2.4530,0.07,0.13,-0.99,3.11,3.78,2.62
2.4680,0.07,0.13,-0.99,3.17,3.36,2.81
2.4830,0.07,0.13,-0.99,3.23,3.85,2.62
2.4970,0.07,0.13,-0.99,3.36,3.85,2.75
2.5070,0.07,0.13,-0.99,3.17,3.60,2.62
2.5240,0.07,0.13,-0.99,3.17,3.66,2.87
2.5410,0.07,0.13,-0.99,3.05,3.85,2.75
2.5570,0.07,0.13,-0.99,3.23,3.72,2.75
2.5730,0.07,0.13,-0.99,3.11,3.97,2.69
2.5880,0.07,0.13,-0.99,3.17,3.91,2.50
2.6050,0.07,0.13,-0.99,3.17,3.78,2.81
2.6210,0.07,0.13,-0.99,3.30,3.78,2.69
2.6370,0.07,0.13,-0.99,3.11,4.03,2.81
2.6520,0.07,0.13,-0.99,3.11,3.78,2.69
2.6570,0.07,0.13,-0.99,2.99,3.66,2.56
2.6730,0.07,0.13,-0.99,3.36,3.91,2.62
2.6970,0.07,0.13,-0.99,3.05,3.78,2.69
2.7120,0.07,0.13,-0.99,3.17,3.72,2.62
2.7290,0.07,0.13,-0.99,3.17,3.48,2.62
2.7440,0.07,0.13,-0.98,3.23,3.91,2.44
2.7610,0.07,0.13,-0.99,3.11,3.91,2.69
2.7640,0.07,0.13,-0.99,3.17,3.54,2.69
2.7800,0.07,0.13,-0.99,3.17,4.03,2.56
2.7960,0.07,0.13,-0.99,3.17,3.66,2.75
2.8230,0.07,0.13,-0.99,3.11,3.97,2.69
2.8350,0.07,0.13,-0.99,3.05,3.97,2.75
2.8510,0.07,0.13,-0.99,2.99,3.60,2.69
2.8660,0.07,0.13,-0.99,2.99,3.48,2.62
2.8830,0.07,0.13,-0.99,3.05,3.85,2.69
2.8990,0.07,0.13,-0.99,2.87,3.60,2.38
2.9150,0.07,0.13,-0.99,2.81,3.48,2.38
2.9190,0.07,0.13,-0.99,2.93,3.60,2.56
2.9350,0.07,0.13,-0.99,2.99,3.60,2.38
2.9560,0.07,0.13,-0.99,2.81,4.15,2.50
2.9720,0.07,0.13,-0.99,3.05,3.78,2.38
2.9890,0.07,0.13,-0.99,2.81,3.72,2.14
3.0050,0.07,0.13,-0.99,2.32,3.60,2.01
3.0200,0.07,0.13,-0.98,2.32,3.60,2.08
3.0230,0.07,0.13,-0.99,2.75,3.66,2.08
3.0470,0.07,0.13,-0.98,2.93,3.60,2.26
3.0610,0.07,0.13,-0.99,3.17,3.54,2.26
3.0770,0.07,0.13,-0.99,3.05,3.72,2.32
3.0940,0.07,0.13,-0.98,3.11,3.78,2.44
3.1120,0.07,0.13,-0.99,3.11,3.60,2.38
3.1280,0.07,0.13,-0.99,3.23,3.78,2.44
3.1430,0.07,0.13,-0.99,3.11,3.97,2.26
3.1590,0.07,0.13,-0.99,3.17,3.60,2.44
3.1760,0.07,0.13,-0.99,3.23,3.48,2.32
3.1920,0.07,0.13,-0.99,3.11,3.78,2.08
3.2080,0.07,0.13,-0.99,3.11,3.91,2.14
3.2230,0.07,0.13,-0.99,3.17,3.85,2.20
3.2270,0.07,0.13,-0.99,3.11,3.72,2.08
3.2470,0.07,0.13,-0.99,2.99,3.72,1.89
3.2650,0.07,0.13,-0.99,3.17,3.97,1.95
3.2810,0.07,0.13,-0.98,3.36,3.91,2.14
3.2970,0.07,0.13,-0.99,3.36,4.09,2.20
3.3140,0.07,0.13,-0.99,3.48,3.91,2.14
3.3300,0.07,0.13,-0.99,3.36,4.15,2.01
3.3470,0.07,0.13,-0.99,3.23,4.03,1.71
3.3620,0.07,0.13,-0.99,2.99,4.03,0.98
3.3780,0.07,0.13,-0.98,3.23,3.78,1.59
3.3940,0.07,0.13,-0.99,3.17,3.60,1.71
3.4090,0.07,0.13,-0.99,3.30,3.97,1.95
3.4140,0.07,0.13,-0.99,3.23,4.15,2.14
3.4290,0.07,0.13,-0.99,3.42,4.09,2.26
3.4570,0.07,0.13,-0.99,3.36,3.72,2.38
3.4680,0.07,0.13,-0.99,3.23,3.97,2.26
3.4840,0.07,0.13,-0.99,3.17,4.21,2.38
3.5000,0.07,0.13,-0.99,3.36,3.91,2.44
3.5180,0.07,0.13,-0.99,3.30,3.97,2.01
3.5330,0.07,0.13,-0.99,3.23,3.78,2.08
3.5490,0.07,0.13,-0.99,3.30,3.66,1.89
3.5650,0.07,0.13,-0.99,3.30,3.78,2.14
3.5670,0.07,0.13,-0.99,3.60,3.85,2.08
3.5830,0.07,0.13,-0.99,3.42,3.91,1.95
3.6070,0.07,0.13,-0.99,3.23,3.91,2.32
3.6230,0.07,0.13,-0.99,3.54,3.72,2.32
3.6390,0.07,0.13,-0.99,3.60,4.15,2.08
3.6570,0.07,0.13,-0.99,4.09,4.33,2.38
3.6720,0.07,0.13,-0.98,4.03,4.03,2.20
3.6880,0.07,0.13,-0.99,4.03,4.33,2.32
3.7030,0.07,0.13,-0.99,3.78,4.21,2.38
3.7180,0.07,0.13,-0.99,4.15,3.97,2.38
3.7330,0.07,0.13,-0.99,3.78,4.15,2.50
3.7490,0.07,0.13,-0.99,3.42,3.85,2.62
3.7560,0.07,0.13,-0.99,3.30,3.97,2.50
3.7720,0.07,0.13,-0.98,3.36,3.60,2.56
3.7940,0.07,0.13,-0.99,3.36,3.66,2.81
3.8100,0.07,0.13,-0.99,3.23,3.78,2.62
3.8260,0.07,0.13,-0.99,3.05,3.78,2.69
3.8420,0.07,0.13,-0.99,3.05,3.91,2.81
3.8580,0.07,0.12,-0.99,2.99,3.72,2.87
3.8600,0.07,0.13,-0.99,2.75,3.60,2.75
3.8900,0.07,0.13,-0.99,2.81,3.54,2.69
3.9050,0.07,0.13,-0.99,3.05,3.97,2.81
3.9150,0.07,0.13,-0.99,2.99,4.03,2.81
3.9300,0.07,0.13,-0.99,2.75,3.78,2.75
3.9480,0.07,0.13,-0.99,2.93,3.54,2.87
3.9650,0.07,0.13,-0.99,3.11,3.72,2.81
3.9810,0.07,0.13,-0.99,3.11,3.72,2.62
3.9970,0.07,0.13,-0.99,3.11,3.85,2.26
4.0130,0.07,0.13,-0.99,3.11,3.97,2.38
4.0290,0.07,0.13,-0.99,3.17,3.60,2.44
4.0450,0.07,0.13,-0.98,2.99,3.66,2.44
4.0620,0.07,0.13,-0.98,3.36,4.09,2.44
4.0780,0.07,0.13,-0.98,2.93,3.60,2.50
4.0930,0.07,0.13,-0.99,2.87,3.85,2.62
4.1090,0.07,0.13,-0.99,2.56,3.66,2.75
4.1140,0.07,0.13,-0.98,2.38,3.54,2.50
4.1300,0.07,0.12,-0.98,2.87,3.91,2.75
4.1530,0.07,0.13,-0.99,3.05,3.97,2.81
4.1690,0.07,0.13,-0.99,3.11,3.60,2.75
4.1850,0.07,0.13,-0.99,2.99,3.66,2.56
4.2020,0.07,0.13,-0.99,3.11,3.60,2.50
4.2040,0.07,0.13,-0.98,2.99,3.66,2.56
4.2330,0.07,0.12,-0.99,2.69,3.36,2.62
4.2490,0.07,0.13,-0.99,2.99,3.42,2.50
4.2640,0.07,0.13,-0.99,2.87,3.54,2.62
4.2800,0.07,0.12,-0.99,2.93,3.85,2.56
4.2960,0.07,0.12,-0.99,3.05,3.42,2.69
4.3110,0.07,0.13,-0.99,3.23,3.54,2.69
4.3220,0.07,0.13,-0.99,3.36,3.85,2.56
4.3380,0.07,0.12,-0.99,3.23,3.72,2.62
4.3540,0.07,0.12,-0.99,3.30,3.85,2.62
4.3720,0.07,0.12,-0.99,3.23,3.85,2.69
4.3880,0.07,0.13,-0.99,3.05,3.66,2.62
4.4040,0.07,0.13,-0.99,2.87,3.78,2.75
4.4200,0.07,0.12,-0.99,2.93,3.85,2.69
4.4370,0.07,0.12,-0.99,3.05,3.72,2.62
4.4530,0.07,0.12,-0.99,2.99,3.72,2.50
4.4680,0.07,0.12,-0.99,3.05,3.85,2.56
4.4850,0.07,0.12,-0.99,3.30,3.91,2.50
4.5000,0.07,0.13,-0.99,3.36,3.85,2.38
4.5050,0.07,0.13,-0.98,3.36,3.85,2.32
4.5210,0.07,0.12,-0.99,3.11,3.97,2.38
4.5430,0.07,0.12,-0.99,3.11,3.60,2.26
4.5590,0.07,0.12,-0.98,3.23,3.72,2.26
4.5760,0.07,0.12,-0.99,3.30,3.91,2.32
4.5940,0.07,0.12,-0.99,3.05,4.15,2.56
4.6090,0.07,0.12,-0.99,3.17,3.91,2.44
4.6240,0.07,0.12,-0.99,3.17,3.72,2.26
4.6260,0.07,0.12,-0.99,3.23,3.85,2.38
4.6480,0.07,0.12,-0.99,3.30,3.60,2.56
4.6590,0.07,0.13,-0.99,3.17,3.72,2.56
4.6760,0.07,0.12,-0.99,3.30,4.09,2.32
4.6920,0.07,0.13,-0.99,3.30,3.97,2.50
4.7090,0.07,0.12,-0.99,3.23,3.78,2.50
4.7240,0.07,0.12,-0.99,3.42,3.78,2.62
4.7480,0.07,0.13,-0.99,3.17,3.78,2.44
4.7610,0.07,0.12,-0.99,3.30,3.54,2.44
4.7780,0.07,0.12,-0.99,3.42,3.72,2.56
4.7940,0.07,0.13,-0.99,3.42,4.03,2.50
4.8110,0.07,0.12,-0.99,3.30,4.03,2.38
4.8280,0.07,0.13,-0.99,3.11,3.85,2.50
4.8440,0.07,0.12,-0.99,3.30,3.91,2.44
4.8600,0.07,0.13,-0.99,3.17,3.66,2.44
4.8760,0.07,0.13,-0.99,3.23,3.97,2.50
4.8920,0.07,0.13,-0.99,3.42,3.97,2.62
4.9090,0.07,0.13,-0.99,3.36,3.85,2.56
4.9240,0.07,0.12,-0.99,3.30,4.03,2.44
4.9410,0.07,0.13,-0.99,3.30,3.60,2.56
4.9480,0.07,0.12,-0.99,3.11,3.85,2.56
4.9610,0.07,0.13,-0.99,3.17,3.72,2.62
4.9870,0.07,0.12,-0.99,3.11,3.72,2.50
4.9990,0.07,0.12,-0.99,3.30,3.72,2.56
5.0150,0.07,0.13,-0.99,3.23,3.72,2.50
5.0320,0.07,0.12,-0.99,3.23,3.66,2.50
5.0480,0.07,0.13,-0.99,3.36,3.66,2.50
5.0650,0.07,0.12,-0.99,3.17,3.36,2.56
5.0810,0.07,0.12,-0.99,3.23,3.42,2.50
5.0960,0.07,0.13,-0.99,3.36,3.72,2.62
5.1120,0.07,0.12,-0.99,3.23,4.03,2.44
5.1290,0.07,0.16,-0.99,3.36,3.78,2.56
5.1450,0.07,0.13,-0.99,3.42,3.78,2.62
5.1610,0.07,0.13,-0.99,3.17,3.66,2.44
5.1770,0.07,0.12,-0.99,3.05,3.85,2.62
5.1830,0.07,0.13,-0.99,3.36,3.91,2.81
5.1990,0.07,0.13,-0.99,3.23,3.91,2.62
5.2220,0.07,0.12,-0.99,3.36,3.72,2.62
5.2380,0.07,0.12,-0.99,3.17,3.66,2.62
5.2540,0.07,0.13,-0.99,2.99,3.36,2.44
5.2700,0.07,0.12,-0.99,3.05,3.60,2.56
5.2860,0.07,0.13,-0.99,3.17,3.78,2.50
5.2890,0.07,0.13,-0.99,3.23,3.66,2.44
5.3040,0.07,0.12,-0.99,3.23,3.66,2.50
5.3270,0.07,0.13,-0.99,3.17,3.42,2.62
5.3430,0.07,0.13,-0.99,3.05,3.78,2.56
5.3600,0.07,0.12,-0.99,3.30,3.72,2.56
5.3760,0.07,0.12,-0.99,3.30,3.85,2.50
5.3940,0.07,0.13,-0.99,3.17,3.85,2.81
5.4090,0.07,0.12,-0.99,3.17,3.85,2.56
5.4260,0.07,0.12,-0.99,3.23,4.03,2.56
5.4430,0.07,0.12,-0.99,3.23,3.91,2.56
5.4590,0.07,0.12,-0.99,3.11,4.09,2.62
5.4750,0.07,0.12,-0.99,3.23,3.66,2.62
5.4910,0.07,0.13,-0.99,3.17,3.60,2.56
5.5080,0.07,0.13,-0.99,3.17,3.54,2.56
5.5110,0.07,0.13,-0.99,3.36,3.60,2.56
5.5260,0.07,0.13,-0.99,3.23,3.60,2.62
5.5490,0.07,0.12,-0.99,3.17,3.91,2.69
5.5710,0.07,0.12,-0.99,3.17,3.78,2.38
5.5810,0.07,0.13,-0.99,3.23,3.72,2.56
5.5980,0.07,0.12,-0.99,3.30,3.97,2.56
5.6140,0.07,0.13,-0.99,3.30,3.72,2.56
5.6320,0.07,0.12,-0.99,3.54,3.72,2.50
5.6320,0.07,0.13,-0.99,3.30,3.60,2.38
5.6630,0.07,0.13,-0.99,3.23,4.15,2.56
5.6800,0.07,0.13,-0.99,3.30,4.03,2.56
5.6970,0.07,0.13,-0.99,3.36,3.85,2.44
5.7130,0.07,0.12,-0.99,3.23,3.85,2.56
5.7290,0.07,0.13,-0.99,3.42,3.78,2.50
5.7450,0.07,0.12,-0.99,3.36,3.78,2.38
5.7490,0.07,0.12,-0.99,3.23,3.85,2.62
5.7770,0.07,0.13,-0.99,3.17,3.78,2.44
5.7920,0.07,0.13,-0.99,2.99,3.85,2.50
5.8080,0.07,0.12,-0.99,3.23,4.03,2.44
5.8240,0.07,0.12,-0.99,3.17,3.72,2.44
5.8390,0.07,0.12,-0.99,3.30,3.78,2.50
5.8540,0.07,0.12,-0.99,3.23,3.72,2.44
5.8640,0.07,0.12,-0.99,3.17,3.78,2.44
5.8820,0.07,0.12,-0.99,3.30,3.72,2.50
5.8980,0.07,0.13,-0.99,3.11,3.78,2.56
5.9140,0.07,0.12,-0.99,2.99,3.97,2.69
5.9310,0.07,0.12,-0.99,3.11,3.78,2.56
5.9480,0.07,0.12,-0.99,3.23,3.66,2.69
5.9640,0.07,0.13,-0.99,3.17,3.91,2.50
5.9790,0.07,0.12,-0.99,3.23,3.91,2.62
5.9950,0.07,0.13,-0.99,3.30,3.85,2.38
6.0120,0.07,0.13,-0.99,3.23,3.54,2.38
6.0270,0.07,0.12,-0.99,3.23,3.66,2.62
6.0430,0.07,0.12,-0.99,3.11,4.03,2.62
6.0500,0.07,0.13,-0.99,3.30,3.91,2.44
6.0630,0.07,0.12,-0.99,3.05,3.85,2.44
6.0860,0.07,0.12,-0.99,3.23,3.85,2.56
6.1020,0.07,0.12,-0.99,3.17,3.97,2.69
6.1190,0.07,0.13,-0.99,3.42,3.78,2.44
6.1360,0.07,0.12,-0.98,3.23,3.85,2.50
6.1520,0.07,0.13,-0.99,3.11,3.97,2.50
6.1680,0.07,0.13,-0.99,3.30,3.72,2.56
6.1830,0.07,0.13,-0.99,3.30,3.72,2.69
6.1990,0.07,0.13,-0.99,3.42,3.66,2.56
6.2140,0.07,0.13,-0.99,3.17,3.97,2.62
6.2300,0.07,0.13,-0.99,3.17,3.78,2.62
6.2450,0.07,0.12,-0.99,3.23,4.15,2.69
6.2610,0.07,0.13,-0.99,3.11,3.78,2.56
6.2760,0.07,0.13,-0.99,3.30,3.97,2.50
6.2910,0.07,0.12,-0.99,3.05,3.72,2.56
6.3030,0.07,0.13,-0.99,3.23,3.91,2.50
6.3190,0.07,0.12,-0.99,3.17,3.78,2.56
6.3370,0.07,0.12,-0.99,3.36,3.97,2.44
6.3520,0.07,0.12,-0.99,3.36,3.72,2.62
6.3680,0.07,0.13,-0.99,3.23,3.78,2.56
6.3840,0.07,0.13,-0.99,3.30,3.72,2.62
6.3990,0.07,0.13,-0.99,3.17,3.78,2.69
6.4150,0.07,0.13,-0.99,3.30,3.97,2.62
6.4190,0.07,0.12,-0.99,3.23,3.72,2.32
6.4340,0.07,0.12,-0.99,3.23,3.72,2.62
6.4610,0.07,0.13,-0.99,3.30,3.85,2.50
6.4730,0.07,0.13,-0.99,3.17,3.85,2.69
6.4890,0.07,0.12,-0.99,3.17,3.72,2.62
6.5060,0.07,0.12,-0.99,3.30,3.72,2.44
6.5230,0.07,0.12,-0.99,3.23,3.85,2.44
6.5390,0.07,0.13,-0.99,3.11,3.85,2.44
6.5550,0.07,0.12,-0.99,3.05,3.42,2.56
6.5710,0.07,0.13,-0.99,3.30,3.60,2.50
6.5870,0.07,0.12,-0.99,3.30,4.03,2.50
6.6040,0.07,0.12,-0.99,3.30,3.66,2.38
6.6200,0.07,0.12,-0.99,2.99,3.72,2.44
6.6350,0.07,0.12,-0.99,3.30,3.66,2.56
6.6390,0.07,0.13,-0.99,3.36,3.60,2.56
6.6660,0.07,0.12,-0.99,3.11,3.72,2.56
6.6720,0.07,0.12,-0.99,3.42,3.85,2.44
6.6870,0.07,0.13,-0.99,3.36,3.91,2.69
6.7060,0.07,0.13,-0.99,3.23,3.66,2.56
6.7220,0.07,0.13,-0.99,2.99,3.72,2.56
6.7390,0.07,0.12,-0.99,3.17,3.60,2.50
6.7550,0.07,0.12,-0.99,3.17,4.15,2.50
6.7720,0.07,0.13,-0.99,3.36,3.60,2.50
6.7880,0.07,0.12,-0.99,3.11,3.85,2.50
6.8040,0.07,0.12,-0.99,3.11,4.09,2.56
6.8200,0.07,0.12,-0.99,3.11,3.91,2.56
6.8360,0.07,0.16,-0.99,3.30,3.85,2.56
6.8520,0.07,0.13,-0.99,3.30,3.85,2.56
6.8680,0.07,0.12,-0.98,3.11,3.60,2.62
6.8830,0.07,0.12,-0.99,3.23,3.54,2.50
6.8980,0.07,0.12,-0.99,3.30,3.85,2.56
6.9140,0.07,0.12,-0.99,3.30,3.48,2.38
6.9220,0.07,0.13,-0.99,3.11,3.78,2.56
6.9370,0.07,0.12,-0.99,3.30,3.72,2.50
6.9600,0.07,0.12,-0.99,3.23,3.91,2.56
6.9610,0.07,0.12,-0.99,3.05,3.97,2.38
6.9920,0.07,0.12,-0.99,3.11,3.66,2.44
6.9940,0.07,0.12,-0.99,3.05,3.78,2.56
7.0090,0.07,0.13,-0.99,3.36,3.85,2.56
7.0380,0.07,0.13,-0.99,3.11,3.78,2.50
7.0540,0.07,0.12,-0.99,3.05,3.97,2.44
7.0650,0.07,0.12,-0.99,3.17,4.03,2.50
7.0820,0.07,0.13,-0.99,3.11,3.66,2.62
7.0980,0.07,0.12,-0.99,3.23,3.85,2.44
7.1150,0.07,0.12,-0.99,2.93,4.03,2.44
7.1320,0.07,0.12,-0.99,3.11,4.03,2.38
7.1470,0.07,0.12,-0.99,3.17,3.85,2.32
7.1630,0.07,0.12,-0.99,3.17,4.03,2.50
7.1800,0.07,0.12,-0.99,3.11,3.60,2.44
7.1950,0.07,0.12,-0.98,3.23,3.85,2.38
7.2120,0.07,0.12,-0.99,3.17,3.85,2.62
7.2270,0.07,0.12,-0.99,3.23,4.03,2.44
7.2430,0.07,0.12,-0.99,3.11,3.72,2.56
7.2520,0.07,0.12,-0.99,3.17,3.54,2.69
7.2650,0.07,0.13,-0.99,3.17,3.91,2.50
7.2900,0.07,0.12,-0.99,3.05,3.85,2.50
7.3010,0.07,0.12,-0.99,3.05,3.97,2.44
7.3180,0.07,0.12,-0.99,3.23,3.91,2.44
7.3340,0.07,0.12,-0.99,3.05,3.91,2.44
7.3520,0.07,0.12,-0.99,3.05,3.72,2.44
7.3680,0.07,0.12,-0.99,3.17,3.72,2.50
7.3830,0.07,0.12,-0.99,3.23,3.66,2.50
7.3990,0.07,0.12,-0.99,3.17,3.97,2.50
7.4140,0.07,0.12,-0.99,3.23,3.91,2.50
7.4300,0.07,0.12,-0.99,3.17,3.78,2.38
7.4450,0.07,0.12,-0.99,3.11,3.66,2.44
7.4620,0.07,0.13,-0.99,3.17,3.66,2.26
7.4680,0.07,0.12,-0.99,3.11,3.66,2.44
7.4830,0.07,0.12,-0.99,3.11,3.97,2.44
7.5060,0.07,0.12,-0.99,3.11,3.97,2.26
7.5230,0.07,0.12,-0.99,3.17,3.72,2.38
7.5390,0.07,0.12,-0.99,3.30,3.72,2.50
7.5560,0.07,0.12,-0.99,3.23,3.48,2.38
7.5720,0.07,0.12,-0.99,3.05,4.03,2.44
7.5880,0.07,0.12,-0.99,3.11,3.91,2.50
7.6050,0.07,0.12,-0.99,3.36,3.66,2.44
7.6210,0.07,0.12,-0.99,3.23,3.97,2.50
7.6360,0.07,0.12,-0.99,3.05,3.78,2.32
7.6520,0.07,0.12,-0.99,3.17,3.91,2.44
7.6670,0.07,0.12,-0.99,3.30,3.72,2.69
7.6760,0.07,0.12,-0.99,3.36,3.85,2.50
7.6920,0.07,0.12,-0.99,2.99,3.85,2.50
7.7090,0.07,0.12,-0.99,3.23,3.72,2.38
7.7260,0.07,0.12,-0.99,3.23,3.42,2.62
7.7420,0.07,0.12,-0.99,3.23,3.72,2.50
7.7590,0.07,0.12,-0.99,3.05,3.42,2.32
7.7770,0.07,0.12,-0.99,3.17,3.72,2.38
7.7920,0.07,0.12,-0.99,3.17,3.85,2.32
7.8100,0.07,0.12,-0.99,3.11,3.85,2.44
7.8250,0.07,0.12,-0.99,3.17,3.78,2.38
7.8410,0.07,0.12,-0.99,3.23,3.60,2.44
7.8560,0.07,0.12,-0.99,3.11,3.72,2.32
7.8730,0.07,0.12,-0.99,3.11,3.91,2.50
7.8890,0.07,0.12,-0.99,3.05,3.54,2.38
7.8930,0.07,0.12,-0.99,2.99,3.91,2.38
7.9090,0.07,0.12,-0.99,3.11,3.66,2.38
7.9260,0.07,0.12,-0.99,3.23,3.72,2.32
7.9530,0.07,0.12,-0.99,3.23,3.85,2.38
7.9580,0.07,0.12,-0.99,3.30,3.85,2.44
7.9790,0.07,0.12,-0.99,2.99,3.72,2.32
7.9950,0.07,0.12,-0.99,3.23,3.72,2.50
8.0120,0.07,0.12,-0.99,3.23,3.72,2.32
8.0290,0.07,0.12,-0.99,3.17,3.72,2.38
8.0450,0.07,0.12,-0.99,3.23,3.72,2.38
8.0610,0.07,0.12,-0.99,3.30,3.78,2.32
8.0770,0.07,0.12,-0.99,3.30,3.85,2.32
8.0920,0.07,0.12,-0.99,3.23,3.60,2.38
8.0950,0.07,0.12,-0.99,3.23,3.97,2.32
8.1110,0.07,0.12,-0.99,3.05,3.60,2.38
8.1400,0.07,0.12,-0.99,3.17,3.72,2.26
8.1530,0.07,0.12,-0.99,3.11,3.85,2.32
8.1680,0.07,0.12,-0.99,3.30,3.78,2.44
8.1850,0.07,0.12,-0.99,3.17,3.85,2.20
8.2010,0.07,0.12,-0.99,3.11,3.60,2.44
8.2170,0.07,0.12,-0.99,3.30,3.66,2.32
8.2330,0.07,0.12,-0.99,2.99,3.78,2.38
8.2480,0.07,0.12,-0.99,3.30,3.97,2.38
8.2530,0.07,0.12,-0.99,3.11,3.66,2.32
8.2670,0.07,0.12,-0.99,3.17,3.85,2.44
8.2900,0.07,0.12,-0.99,3.23,3.78,2.32
8.3070,0.07,0.12,-0.99,3.36,3.66,2.38
8.3230,0.07,0.12,-0.99,3.30,3.60,2.44
8.3400,0.07,0.12,-0.99,3.11,3.78,2.44
8.3560,0.07,0.12,-0.99,3.23,3.85,2.38
8.3730,0.07,0.12,-0.99,3.11,3.91,2.38
8.3890,0.07,0.12,-0.99,3.11,3.85,2.56
8.4050,0.07,0.12,-0.99,3.05,3.78,2.38
8.4210,0.07,0.12,-0.99,3.36,3.91,2.56
8.4370,0.07,0.12,-0.99,3.17,3.91,2.38
8.4530,0.07,0.12,-0.99,3.17,3.91,2.44
8.4550,0.07,0.12,-0.99,3.36,3.48,2.32
8.4840,0.07,0.12,-0.99,3.11,3.72,2.50
8.4940,0.07,0.12,-0.99,3.30,3.78,2.38
8.5110,0.07,0.12,-0.99,3.23,3.91,2.38
8.5280,0.07,0.12,-0.99,3.36,3.91,2.38
8.5440,0.07,0.12,-0.99,3.42,3.72,2.38
8.5600,0.07,0.12,-0.99,3.30,3.78,2.26
8.5790,0.07,0.12,-0.99,3.30,3.91,2.44
8.5950,0.07,0.12,-0.99,3.30,3.85,2.44
8.6110,0.07,0.12,-0.99,3.05,3.91,2.38
8.6260,0.07,0.12,-0.99,3.17,3.78,2.38
8.6300,0.07,0.12,-0.99,2.93,3.60,2.38
8.6540,0.07,0.12,-0.99,3.36,3.91,2.32
8.6640,0.07,0.12,-0.99,3.30,3.66,2.32
8.6870,0.07,0.12,-0.99,3.11,3.91,2.50
8.6970,0.07,0.12,-0.99,3.23,3.78,2.38
8.7130,0.07,0.12,-0.99,2.99,3.66,2.20
8.7300,0.07,0.12,-0.99,3.30,3.72,2.38
8.7460,0.07,0.12,-0.99,2.99,3.91,2.44
8.7640,0.07,0.12,-0.99,2.99,3.66,2.32
8.7800,0.07,0.12,-0.99,3.36,3.66,2.38
8.7960,0.07,0.12,-0.99,3.23,3.78,2.38
8.8130,0.07,0.12,-0.99,3.17,3.78,2.32
8.8280,0.07,0.12,-0.99,3.36,3.91,2.44
8.8310,0.07,0.12,-0.99,3.17,3.72,2.50
8.8540,0.07,0.12,-0.99,3.30,3.78,2.26
8.8760,0.07,0.12,-0.99,3.36,3.72,2.44
8.8920,0.07,0.12,-0.99,3.30,3.85,2.56
8.9080,0.07,0.12,-0.99,3.36,3.91,2.32
8.9140,0.07,0.12,-0.99,3.23,3.85,2.44
8.9290,0.07,0.12,-0.99,3.30,3.66,2.50
8.9550,0.07,0.12,-0.99,3.23,3.72,2.44
8.9670,0.07,0.12,-0.99,3.42,3.78,2.50
8.9840,0.07,0.12,-0.99,3.23,3.85,2.50
9.0020,0.07,0.12,-0.99,3.17,3.85,2.56
9.0170,0.07,0.12,-0.99,3.05,3.91,2.26
9.0330,0.07,0.12,-0.99,3.11,3.97,2.38
9.0480,0.07,0.12,-0.99,3.30,3.91,2.20
9.0650,0.07,0.12,-0.99,3.11,3.97,2.38
9.0810,0.07,0.12,-0.99,3.05,3.72,2.32
9.0840,0.07,0.12,-0.98,3.23,3.66,2.44
9.1000,0.07,0.12,-0.99,3.30,3.78,2.32
9.1230,0.07,0.12,-0.99,3.11,3.66,2.38
9.1390,0.07,0.12,-0.99,3.23,3.72,2.32
9.1570,0.07,0.12,-0.99,3.17,4.09,2.32
9.1730,0.07,0.12,-0.99,3.30,3.97,2.32
9.1900,0.07,0.12,-0.99,3.17,3.78,2.38
9.2060,0.07,0.12,-0.99,3.36,3.78,2.26
9.2230,0.07,0.12,-0.99,3.23,4.15,2.50
9.2380,0.07,0.12,-0.99,3.30,3.78,2.32
9.2530,0.07,0.12,-0.99,3.23,3.78,2.32
9.2710,0.07,0.12,-0.99,3.42,3.60,2.32
9.2730,0.07,0.12,-0.99,3.23,3.60,2.26
9.2890,0.07,0.12,-0.99,2.99,3.91,2.26
9.3110,0.07,0.12,-0.99,3.17,3.97,2.32
9.3280,0.07,0.12,-0.99,3.60,3.66,2.32
9.3430,0.07,0.12,-0.99,3.30,3.97,2.44
9.3610,0.07,0.12,-0.99,3.30,3.54,2.38
9.3770,0.07,0.12,-0.99,3.23,3.60,2.44
9.3940,0.07,0.12,-0.99,3.11,3.78,2.38
9.4100,0.07,0.12,-0.99,3.11,3.72,2.38
9.4260,0.07,0.12,-0.99,3.30,3.85,2.50
9.4270,0.07,0.12,-0.99,3.36,3.66,2.38
9.4550,0.07,0.12,-0.99,3.17,3.91,2.32
9.4730,0.07,0.12,-0.99,3.30,3.85,2.32
9.4780,0.07,0.12,-0.99,3.36,3.78,2.38
9.4930,0.07,0.12,-0.99,3.30,3.97,2.26
9.5130,0.07,0.12,-0.99,3.23,3.85,2.38
9.5310,0.07,0.12,-0.99,3.36,4.03,2.32
9.5470,0.07,0.12,-0.99,3.17,3.97,2.32
9.5630,0.07,0.12,-0.99,3.17,3.91,2.38
9.5790,0.07,0.12,-0.99,3.30,3.78,2.26
9.5950,0.07,0.12,-0.99,3.17,3.97,2.32
9.6110,0.07,0.12,-0.99,3.17,3.85,2.32
9.6280,0.07,0.12,-0.99,3.30,3.72,2.38
9.6440,0.07,0.12,-0.99,3.36,3.91,2.50
9.6590,0.07,0.12,-0.99,3.11,3.97,2.38
9.6740,0.07,0.12,-0.99,3.17,4.03,2.38
9.6910,0.07,0.12,-0.99,3.30,4.03,2.38
9.6980,0.07,0.12,-0.99,3.23,3.78,2.44
9.7210,0.07,0.12,-0.99,3.30,3.91,2.44
9.7300,0.07,0.12,-0.99,3.42,4.21,2.44
9.7460,0.07,0.12,-0.99,3.30,4.09,2.38
9.7660,0.07,0.12,-0.99,3.30,3.85,2.20
9.7820,0.07,0.12,-0.99,3.23,3.91,2.44
9.7830,0.07,0.12,-0.99,3.30,3.60,2.26
9.7990,0.07,0.12,-0.99,3.17,3.66,2.20
9.8220,0.07,0.12,-0.99,3.23,3.91,2.38
9.8390,0.07,0.12,-0.99,3.30,3.91,2.44
9.8560,0.07,0.12,-0.98,3.42,4.03,2.14
9.8730,0.07,0.12,-0.99,3.30,3.85,2.38
9.8890,0.07,0.12,-0.99,3.36,3.97,2.44
9.9050,0.07,0.12,-0.99,3.05,3.85,2.38
9.9200,0.07,0.12,-0.99,3.11,4.03,2.20
9.9230,0.07,0.12,-0.99,3.30,3.60,2.20
9.9390,0.07,0.12,-0.99,3.05,3.72,2.38
9.9630,0.07,0.12,-0.99,3.36,3.91,2.32
9.9780,0.07,0.12,-0.99,3.17,3.66,2.50
9.9960,0.07,0.12,-0.99,3.23,3.85,2.32
10.0120,0.07,0.12,-0.99,3.48,3.78,2.32
10.0290,0.07,0.12,-0.99,3.23,3.85,2.26
10.0460,0.07,0.12,-0.98,3.30,3.66,2.32
10.0610,0.07,0.12,-0.99,3.30,3.66,2.32
10.0770,0.07,0.12,-0.99,3.17,3.42,2.38
10.0930,0.08,0.12,-0.98,2.99,3.60,2.01
10.1100,0.07,0.12,-0.99,3.17,3.78,1.59
10.1120,0.07,0.12,-0.99,3.17,3.72,1.83
10.1290,0.07,0.12,-0.99,3.23,3.72,2.01
10.1580,0.07,0.12,-0.99,2.99,3.48,2.01
10.1730,0.07,0.12,-0.99,3.30,3.85,2.38
10.1880,0.07,0.12,-0.99,3.23,4.15,2.32
10.2040,0.07,0.12,-0.99,3.23,4.09,2.20
10.2190,0.07,0.12,-0.99,3.23,4.03,2.32
10.2280,0.07,0.12,-0.98,3.23,3.97,2.26
10.2440,0.07,0.12,-0.99,3.05,3.91,2.26
10.2650,0.07,0.12,-0.99,3.17,3.78,2.26
10.2800,0.07,0.12,-0.99,3.23,4.03,2.20
10.2830,0.07,0.12,-0.99,3.30,3.91,2.14
10.2990,0.07,0.12,-0.99,3.30,3.72,2.26
10.3270,0.07,0.12,-0.99,3.11,3.66,2.08
10.3390,0.07,0.12,-0.99,3.11,4.03,2.14
10.3570,0.07,0.12,-0.99,3.17,4.03,2.14
10.3720,0.07,0.12,-0.99,3.17,3.66,2.20
10.3890,0.07,0.12,-0.99,3.30,3.72,2.14
10.4050,0.07,0.12,-0.99,3.17,3.78,2.32
10.4220,0.07,0.12,-0.99,3.05,3.60,2.32
10.4380,0.07,0.12,-0.99,3.17,3.97,2.26
10.4540,0.08,0.12,-0.99,3.36,3.97,2.26
10.4710,0.08,0.12,-0.99,3.23,3.97,2.26
10.4860,0.08,0.12,-0.99,3.17,3.85,2.26
10.5030,0.07,0.12,-0.99,3.17,3.72,2.20
10.5180,0.07,0.12,-0.99,3.11,3.85,2.14
10.5330,0.07,0.12,-0.99,3.17,3.48,2.01
10.5480,0.07,0.12,-0.99,3.17,3.85,2.26
10.5570,0.07,0.12,-0.99,3.23,3.78,2.20
10.5710,0.07,0.12,-0.99,3.05,3.91,2.01
10.5930,0.07,0.12,-0.99,3.23,3.66,2.08
10.6080,0.07,0.12,-0.99,3.11,3.78,2.26
10.6240,0.07,0.12,-0.99,2.99,3.91,2.32
10.6410,0.07,0.12,-0.99,3.05,3.48,2.08
10.6550,0.07,0.12,-0.98,3.05,3.54,2.14
10.6610,0.07,0.12,-0.99,3.11,3.54,2.14
10.6870,0.07,0.12,-0.99,3.05,3.85,2.20
10.6950,0.08,0.12,-0.98,3.05,4.09,2.14
10.7180,0.07,0.12,-0.99,3.17,3.97,2.08
10.7280,0.08,0.12,-0.99,3.11,3.85,2.01
10.7430,0.08,0.12,-0.98,3.17,3.42,1.95
10.7640,0.08,0.12,-0.98,3.11,3.72,1.95
10.7810,0.08,0.12,-0.99,3.11,3.48,1.83
10.7960,0.08,0.12,-0.99,2.93,3.60,1.83
10.7990,0.08,0.12,-0.99,3.11,3.30,1.71
10.8280,0.08,0.12,-0.99,3.30,3.30,1.77
10.8430,0.07,0.12,-0.99,3.11,3.54,1.77
10.8590,0.08,0.12,-0.99,3.05,3.60,1.95
10.8760,0.08,0.12,-0.99,3.36,3.66,2.01
10.8910,0.08,0.12,-0.98,3.36,3.66,2.08
10.9060,0.08,0.12,-0.98,3.23,3.85,2.01
10.9170,0.07,0.12,-0.99,3.23,3.66,1.46
10.9340,0.07,0.12,-0.99,3.30,3.97,1.89
10.9500,0.08,0.12,-0.99,3.23,3.54,1.95
10.9660,0.08,0.12,-0.99,3.17,3.60,2.08
10.9800,0.08,0.12,-0.98,3.23,3.54,1.89
10.9950,0.08,0.12,-0.98,3.11,3.60,2.01
11.0100,0.08,0.12,-0.99,3.17,4.03,1.89
11.0250,0.08,0.12,-0.99,3.36,3.85,1.95
11.0420,0.08,0.12,-0.99,3.36,3.54,1.95
11.0570,0.08,0.12,-0.99,3.11,3.72,1.95
11.0660,0.08,0.12,-0.99,3.05,3.54,1.95
11.0870,0.08,0.12,-0.99,3.30,3.85,2.20
11.1040,0.08,0.12,-0.99,3.11,3.78,2.01
11.1190,0.08,0.12,-0.99,3.17,3.66,1.95
11.1360,0.08,0.12,-0.99,3.23,3.60,2.01
11.1510,0.08,0.12,-0.99,3.17,3.54,1.95
11.1660,0.08,0.12,-0.98,3.23,3.66,2.01
11.1700,0.08,0.12,-0.99,3.11,3.85,2.14
11.1860,0.08,0.12,-0.98,3.11,3.85,1.83
11.2090,0.08,0.12,-0.99,3.05,3.66,2.01
11.2260,0.08,0.12,-0.99,3.23,3.85,2.08
11.2420,0.08,0.12,-0.99,3.36,3.85,2.01
11.2570,0.08,0.12,-0.99,3.48,3.97,2.01
11.2600,0.08,0.12,-0.99,3.36,3.91,2.14
11.2760,0.08,0.12,-0.99,3.11,4.09,1.83
11.3050,0.08,0.12,-0.99,3.11,3.97,1.83
11.3090,0.08,0.12,-0.99,3.23,3.66,1.89
11.3240,0.08,0.12,-0.98,3.17,3.60,2.01
11.3520,0.08,0.12,-0.99,3.23,3.72,1.95
11.3620,0.08,0.12,-0.99,3.17,3.85,1.83
11.3790,0.08,0.12,-0.99,3.23,3.97,2.01
11.3970,0.08,0.12,-0.98,3.11,3.66,1.83
11.4140,0.08,0.12,-0.99,3.23,3.85,1.95
11.4290,0.08,0.12,-0.99,3.17,3.85,2.01
11.4450,0.08,0.12,-0.99,3.23,3.97,2.08
11.4610,0.08,0.12,-0.99,3.11,3.85,2.20
11.4760,0.08,0.12,-0.98,2.99,3.78,2.01
11.4800,0.08,0.12,-0.98,3.23,3.72,2.01
11.4960,0.08,0.12,-0.99,3.05,3.91,2.08
11.5110,0.08,0.12,-0.98,3.17,3.78,2.01
11.5390,0.08,0.12,-0.99,3.11,4.03,1.95
11.5500,0.08,0.12,-0.98,2.93,3.78,2.01
11.5660,0.08,0.12,-0.98,3.23,3.97,2.14
11.5820,0.08,0.12,-0.99,3.17,3.97,2.20
11.6000,0.08,0.12,-0.98,3.36,3.85,1.95
11.6160,0.08,0.12,-0.99,3.11,3.78,2.08
11.6320,0.08,0.12,-0.99,3.17,4.03,2.01
11.6330,0.08,0.12,-0.99,3.30,3.91,2.08
11.6580,0.08,0.12,-0.99,3.05,3.85,2.20
11.6780,0.08,0.12,-0.99,2.87,3.97,1.89
11.6890,0.08,0.12,-0.98,3.05,3.78,2.14
11.7050,0.08,0.12,-0.99,3.17,3.78,2.14
11.7220,0.08,0.12,-0.99,3.05,3.85,1.89
11.7380,0.08,0.12,-0.99,3.05,3.78,2.08
11.7550,0.08,0.12,-0.99,3.11,3.60,1.95
11.7710,0.08,0.12,-0.99,3.17,3.66,2.14
11.7860,0.08,0.12,-0.98,3.17,3.91,2.26
11.7880,0.08,0.12,-0.99,3.23,3.97,2.14
11.8040,0.08,0.12,-0.99,3.05,3.78,2.01
11.8260,0.08,0.12,-0.99,3.17,3.85,2.14
11.8430,0.08,0.12,-0.99,3.30,3.91,2.01
11.8590,0.08,0.12,-0.99,3.05,3.85,1.95
11.8770,0.08,0.12,-0.99,3.17,3.78,2.08
11.8930,0.08,0.12,-0.99,3.36,3.66,2.01
11.9090,0.08,0.12,-0.99,3.11,3.91,2.08
11.9100,0.08,0.12,-0.99,3.23,3.97,2.14
11.9410,0.08,0.12,-0.99,3.23,3.72,2.08
11.9430,0.08,0.12,-0.99,3.23,3.91,2.08
11.9740,0.08,0.12,-0.98,3.23,3.78,2.01
11.9910,0.08,0.12,-0.98,3.05,4.03,2.14
11.9930,0.08,0.12,-0.99,3.36,3.66,2.14
12.0230,0.08,0.12,-0.99,3.23,3.60,2.20
12.0380,0.08,0.12,-0.99,3.11,3.66,2.14
12.0530,0.08,0.12,-0.99,3.17,3.91,2.14
12.0640,0.08,0.12,-0.98,3.11,4.09,2.08
12.0810,0.08,0.12,-0.99,3.30,3.78,2.01
12.0970,0.08,0.12,-0.99,3.11,3.78,2.14
12.1130,0.08,0.12,-0.98,3.17,3.66,1.95
12.1300,0.08,0.12,-0.99,3.11,4.03,2.14
12.1460,0.08,0.12,-0.98,3.05,3.97,2.01
12.1610,0.08,0.12,-0.99,3.05,3.66,2.38
12.1780,0.08,0.12,-0.99,3.30,3.91,2.26
12.1940,0.08,0.12,-0.99,3.11,3.91,2.08
12.2090,0.08,0.12,-0.99,3.11,3.85,2.14
12.2250,0.08,0.12,-0.99,3.17,4.03,2.20
12.2310,0.08,0.12,-0.99,3.17,4.21,2.08
12.2470,0.08,0.12,-0.98,3.36,3.78,2.26
12.2680,0.08,0.12,-0.99,3.23,3.72,2.01
12.2860,0.08,0.12,-0.99,3.30,3.66,2.08
12.3010,0.08,0.12,-0.99,3.11,4.03,2.08
12.3160,0.08,0.12,-0.99,3.05,4.03,2.08
12.3310,0.08,0.12,-0.99,3.11,4.09,2.14
12.3480,0.08,0.12,-0.99,3.17,4.27,2.14
12.3590,0.08,0.12,-0.99,3.23,3.91,2.20
12.3680,0.08,0.12,-0.99,3.36,3.78,2.08
12.3920,0.08,0.12,-0.99,2.99,3.72,2.08
12.4080,0.08,0.12,-0.98,3.05,3.91,2.20
12.4250,0.08,0.12,-0.98,3.23,3.78,2.01
12.4420,0.08,0.12,-0.99,3.42,3.91,2.20
12.4570,0.08,0.12,-0.99,3.11,3.97,2.08
12.4740,0.08,0.12,-0.99,3.17,3.97,2.14
12.4900,0.08,0.12,-0.99,3.11,3.91,2.20
12.4920,0.08,0.12,-0.99,3.42,3.85,2.14
12.5070,0.08,0.12,-0.99,3.17,3.60,2.01
12.5310,0.08,0.12,-0.99,3.05,3.78,2.08
12.5480,0.08,0.12,-0.99,3.23,3.54,1.95
12.5650,0.08,0.12,-0.99,3.23,3.72,2.01
12.5810,0.08,0.12,-0.99,3.05,3.85,2.01
12.5960,0.08,0.12,-0.99,3.17,3.85,2.08
12.6110,0.08,0.12,-0.99,3.23,3.91,2.08
12.6270,0.08,0.12,-0.99,2.99,3.78,2.08
12.6430,0.08,0.12,-0.99,3.36,3.54,2.38
12.6580,0.09,0.15,-0.98,2.87,3.48,4.52
12.6650,0.07,0.12,-0.99,2.20,2.93,9.09
12.6810,0.09,0.12,-0.99,2.62,2.87,5.31
12.7020,0.04,0.09,-0.98,2.50,3.05,3.60
12.7190,0.07,0.11,-0.99,2.69,3.36,5.19
12.7350,0.07,0.12,-0.99,3.42,3.54,2.08
12.7510,0.07,0.12,-0.99,3.48,3.91,1.77
12.7660,0.07,0.12,-0.99,3.36,3.78,1.89
12.7810,0.08,0.12,-0.99,3.11,3.54,1.95
12.7950,0.08,0.12,-0.99,3.23,3.78,1.95
12.8110,0.08,0.12,-0.99,3.30,3.85,2.26
12.8260,0.08,0.12,-0.99,3.17,4.03,2.14
12.8360,0.08,0.12,-0.99,3.17,3.42,2.08
12.8520,0.08,0.12,-0.99,3.11,3.97,2.20
12.8700,0.08,0.12,-0.99,3.11,3.85,2.01
12.8850,0.08,0.12,-0.98,2.99,4.09,2.08
12.9020,0.08,0.12,-0.99,3.17,4.27,1.83
12.9190,0.08,0.12,-0.99,3.42,4.09,1.95
12.9350,0.08,0.12,-0.99,3.36,4.03,2.14
12.9510,0.08,0.12,-0.99,3.30,4.03,2.14
12.9670,0.08,0.12,-0.99,3.30,4.03,2.14
12.9820,0.08,0.12,-0.99,3.17,3.91,1.95
12.9970,0.08,0.12,-0.99,3.36,3.91,1.95
13.0120,0.08,0.12,-0.99,2.99,3.91,1.83
13.0280,0.08,0.12,-0.99,3.30,3.78,1.89
13.0360,0.08,0.12,-0.99,3.60,3.42,1.83
13.0520,0.08,0.12,-0.99,3.36,4.03,2.01
13.0680,0.08,0.12,-0.99,3.23,4.03,1.89
13.0840,0.08,0.12,-0.99,3.17,3.85,1.89
13.1040,0.08,0.12,-0.99,3.17,3.60,1.89
13.1200,0.08,0.12,-0.99,3.05,3.91,1.95
13.1360,0.08,0.12,-0.98,3.17,4.03,2.01
13.1520,0.08,0.12,-0.99,3.11,3.66,1.95
13.1610,0.08,0.12,-0.99,3.17,3.48,1.89
13.1820,0.08,0.12,-0.99,3.11,3.85,2.01
13.1900,0.08,0.12,-0.99,3.17,3.60,1.89
13.2070,0.08,0.12,-0.99,3.23,3.97,1.95
13.2240,0.08,0.12,-0.99,3.11,3.54,1.95
13.2400,0.08,0.12,-0.99,3.30,3.54,1.83
13.2560,0.08,0.12,-0.99,3.17,3.66,1.77
13.2750,0.08,0.12,-0.98,3.30,2.87,1.77
13.2910,0.08,0.12,-0.99,3.23,3.78,1.77
13.2930,0.08,0.12,-0.98,3.23,3.78,1.77
13.3220,0.08,0.12,-0.98,3.11,3.78,1.89
13.3380,0.08,0.12,-0.99,3.11,3.72,1.83
13.3540,0.08,0.12,-0.99,3.17,3.66,1.77
13.3700,0.08,0.12,-0.98,3.17,3.42,1.65
13.3870,0.08,0.12,-0.99,3.42,3.78,1.89
13.4020,0.08,0.12,-0.99,3.17,3.97,1.89
13.4100,0.08,0.12,-0.99,3.23,3.60,1.83
13.4260,0.08,0.12,-0.99,2.99,3.91,1.95
13.4430,0.08,0.12,-0.98,3.11,3.97,1.77
13.4610,0.08,0.12,-0.99,3.17,3.78,1.89
13.4770,0.08,0.12,-0.98,3.05,3.72,1.59
13.4930,0.08,0.12,-0.99,3.11,3.78,1.71
13.5090,0.08,0.12,-0.99,3.11,3.78,1.83
13.5250,0.08,0.12,-0.99,3.23,3.66,1.83
13.5420,0.08,0.12,-0.98,3.23,3.60,1.83
13.5570,0.08,0.12,-0.99,3.36,3.78,1.77
13.5740,0.08,0.12,-0.99,3.17,3.48,1.89
13.5900,0.08,0.12,-0.99,3.17,3.60,1.77
13.5930,0.08,0.12,-0.99,2.93,3.60,1.59
13.6090,0.08,0.12,-0.99,3.30,3.48,1.71
13.6300,0.08,0.12,-0.99,3.30,3.78,1.83
13.6480,0.08,0.12,-0.99,3.42,3.36,1.95
13.6630,0.08,0.12,-0.99,3.17,3.78,2.01
13.6810,0.08,0.12,-0.98,3.17,3.72,1.83
13.6970,0.08,0.12,-0.98,3.11,4.03,1.89
13.7140,0.08,0.12,-0.98,3.17,3.66,1.95
13.7290,0.08,0.12,-0.99,3.11,4.21,1.95
13.7440,0.08,0.12,-0.99,3.11,3.78,1.95
13.7600,0.08,0.12,-0.98,3.11,3.97,1.83
13.7760,0.08,0.12,-0.99,3.17,3.85,1.89
13.7910,0.08,0.12,-0.99,3.17,4.09,2.01
13.8070,0.08,0.12,-0.99,3.23,3.66,2.01
13.8130,0.08,0.12,-0.98,3.05,3.72,2.01
13.8290,0.08,0.12,-0.99,3.23,4.03,1.95
13.8520,0.08,0.12,-0.98,3.11,3.78,1.89
13.8680,0.08,0.12,-0.99,3.17,3.85,1.77
13.8840,0.08,0.12,-0.99,3.23,3.54,1.89
13.9010,0.08,0.12,-0.99,2.99,3.97,1.65
13.9170,0.08,0.12,-0.99,3.36,3.97,1.77
13.9320,0.08,0.12,-0.98,3.30,3.91,1.77
13.9480,0.08,0.12,-0.99,3.30,3.78,1.83
13.9620,0.08,0.12,-0.98,3.11,4.09,1.89
13.9770,0.08,0.12,-0.99,3.30,3.66,2.01
13.9940,0.08,0.12,-0.99,3.23,3.66,2.08
14.0100,0.08,0.12,-0.99,2.99,3.78,1.95
14.0240,0.08,0.12,-0.99,3.11,3.97,2.08
14.0340,0.08,0.12,-0.99,3.30,3.78,1.95
14.0510,0.08,0.12,-0.99,3.17,4.09,2.01
14.0690,0.08,0.12,-0.99,3.11,3.72,1.83
14.0840,0.08,0.12,-0.99,2.99,3.97,1.95
14.1000,0.08,0.12,-0.98,3.17,3.91,1.95
14.1160,0.08,0.12,-0.99,3.11,3.78,1.95
14.1310,0.08,0.12,-0.99,3.30,3.85,2.08
14.1350,0.08,0.12,-0.99,3.11,3.91,1.83
14.1610,0.08,0.12,-0.99,3.17,3.78,1.77
14.1770,0.08,0.12,-0.99,3.05,3.66,1.83
14.1880,0.08,0.12,-0.99,3.17,3.72,1.89
14.2050,0.08,0.12,-0.99,3.36,3.78,2.08
14.2210,0.08,0.12,-0.99,3.23,3.85,1.95
14.2380,0.08,0.12,-0.99,3.11,3.72,2.26
14.2540,0.08,0.12,-0.99,3.05,3.60,2.38
14.2710,0.08,0.12,-0.99,3.17,4.03,2.14
14.2880,0.08,0.12,-0.98,2.99,3.60,1.95
14.3030,0.08,0.12,-0.99,3.17,3.72,2.14
14.3180,0.08,0.13,-0.98,3.11,3.91,2.20
14.3330,0.08,0.12,-0.99,3.11,3.78,2.75
14.3490,0.08,0.12,-0.99,3.05,4.21,2.50
14.3650,0.08,0.12,-0.99,3.23,4.15,2.32
14.3800,0.08,0.12,-0.99,3.23,4.03,2.01
14.3950,0.08,0.12,-0.98,3.23,3.78,2.20
14.4050,0.08,0.12,-0.99,3.23,3.91,2.38
14.4210,0.08,0.12,-0.99,3.11,3.85,2.56
14.4380,0.08,0.12,-0.99,3.11,3.42,2.26
14.4540,0.08,0.12,-0.99,3.11,3.48,2.14
14.4720,0.08,0.13,-0.98,3.11,3.72,2.26
14.4880,0.08,0.12,-0.98,3.11,3.97,2.08
14.5040,0.08,0.12,-0.99,3.23,3.60,2.01
14.5220,0.08,0.12,-0.98,3.30,3.91,1.65
14.5380,0.08,0.13,-0.98,3.30,3.78,2.08
14.5400,0.08,0.13,-0.98,3.23,3.66,2.50
14.5610,0.08,0.13,-0.99,3.11,3.78,3.05
14.5710,0.08,0.12,-0.98,2.99,3.72,2.62
14.5920,0.08,0.13,-0.98,3.11,3.85,2.81
14.6100,0.08,0.13,-0.98,3.05,3.97,3.30
14.6280,0.08,0.13,-0.98,3.05,3.48,3.30
14.6430,0.08,0.12,-0.99,3.17,3.72,3.91
14.6600,0.08,0.12,-0.99,3.17,3.66,3.42
14.6750,0.08,0.11,-0.99,3.23,3.72,2.87
14.6920,0.08,0.11,-0.99,3.05,3.78,3.30
14.6930,0.08,0.11,-0.99,3.30,3.85,2.62
14.7230,0.08,0.11,-0.99,3.05,3.78,3.05
14.7390,0.08,0.10,-0.99,2.99,4.09,2.20
14.7550,0.08,0.11,-0.99,3.17,3.97,1.53
14.7710,0.08,0.12,-0.99,3.23,3.97,1.77
14.7870,0.08,0.12,-0.98,3.23,3.66,1.89
14.8030,0.08,0.12,-0.99,3.11,3.91,2.01
14.8190,0.08,0.12,-0.99,3.11,4.03,2.14
14.8360,0.08,0.12,-0.98,3.36,3.91,2.20
14.8510,0.08,0.12,-0.99,3.17,4.09,2.14
14.8620,0.08,0.12,-0.99,3.11,3.85,2.14
14.8760,0.09,0.12,-0.98,3.23,3.85,1.77
14.8920,0.08,0.12,-0.98,3.17,3.91,1.65
14.9120,0.09,0.12,-0.98,3.17,3.97,0.85
14.9270,0.10,0.13,-0.98,3.48,4.03,0.55
14.9440,0.08,0.12,-0.98,3.17,3.91,0.98
14.9480,0.08,0.12,-0.99,3.05,3.85,1.40
14.9750,0.08,0.12,-0.99,3.05,3.97,1.77
14.9920,0.08,0.12,-0.99,3.30,4.15,1.46
14.9970,0.07,0.12,-0.99,3.11,4.03,1.77
15.0140,0.07,0.12,-0.99,3.05,4.03,1.71
15.0290,0.07,0.12,-0.99,2.93,4.09,1.59
15.0520,0.07,0.12,-0.99,3.17,3.91,1.77
15.0670,0.08,0.12,-0.99,3.23,3.85,1.83
15.0820,0.08,0.12,-0.99,3.17,3.91,1.89
15.0980,0.08,0.12,-0.99,3.30,3.54,1.83
15.1140,0.08,0.12,-0.99,3.05,3.97,1.95
15.1300,0.08,0.12,-0.99,3.11,3.91,2.01
15.1450,0.08,0.12,-0.99,3.23,3.66,2.08
15.1600,0.08,0.12,-0.98,2.93,3.78,1.95
15.1760,0.08,0.12,-0.98,2.99,3.66,2.20
15.1860,0.08,0.12,-0.99,3.05,3.91,1.89
15.2030,0.08,0.12,-0.99,3.23,3.78,2.14
15.2190,0.08,0.12,-0.98,3.17,3.72,1.95
15.2360,0.08,0.12,-0.98,2.93,3.78,2.08
15.2530,0.08,0.12,-0.98,2.93,3.78,1.89
15.2690,0.08,0.12,-0.98,3.05,3.72,2.08
15.2850,0.08,0.12,-0.99,3.23,3.78,2.01
15.3010,0.08,0.12,-0.98,3.11,3.66,2.01
15.3170,0.08,0.12,-0.99,3.11,3.78,1.95
15.3330,0.08,0.12,-0.99,3.11,3.72,2.01
15.3480,0.08,0.12,-0.99,3.05,3.72,1.95
15.3640,0.08,0.12,-0.99,2.99,3.72,1.95
15.3790,0.08,0.12,-0.99,3.05,3.78,1.95
15.3950,0.08,0.12,-0.99,3.11,3.78,2.08
15.4030,0.08,0.12,-0.99,2.93,3.85,1.95
15.4180,0.08,0.12,-0.99,3.30,3.78,1.95
15.4410,0.08,0.12,-0.99,2.99,3.85,2.14
15.4580,0.08,0.12,-0.99,3.05,3.91,2.01
15.4740,0.08,0.12,-0.99,3.05,3.66,2.14
15.4900,0.08,0.12,-0.99,3.17,3.78,1.95
15.4910,0.08,0.12,-0.99,3.17,3.72,1.95
15.5080,0.08,0.12,-0.99,3.05,3.97,2.01
15.5240,0.08,0.12,-0.99,2.93,3.91,1.89
15.5390,0.08,0.12,-0.99,3.05,3.72,1.95
15.5680,0.08,0.12,-0.98,3.05,3.72,2.08
15.5780,0.08,0.12,-0.99,3.17,3.66,2.32
15.5950,0.08,0.12,-0.99,3.11,3.85,2.32
15.6120,0.08,0.12,-0.99,3.30,3.66,2.01
15.6280,0.08,0.12,-0.99,3.11,3.72,2.14
15.6450,0.08,0.12,-0.99,3.05,3.78,2.08
15.6620,0.08,0.12,-0.99,3.05,3.91,1.95
15.6780,0.08,0.12,-0.99,2.99,3.48,1.89
15.6940,0.08,0.12,-0.99,3.17,3.60,1.95
15.6950,0.08,0.12,-0.99,3.23,3.54,1.95
15.7130,0.08,0.12,-0.99,2.99,3.97,2.14
15.7430,0.08,0.12,-0.99,2.99,3.91,2.08
15.7580,0.08,0.12,-0.98,3.05,3.78,1.95
15.7730,0.08,0.12,-0.99,2.87,3.78,2.01
15.7890,0.08,0.12,-0.99,3.05,3.66,1.95
15.7940,0.08,0.12,-0.99,3.23,3.54,1.89
15.8100,0.08,0.12,-0.99,3.23,3.66,1.89
15.8310,0.08,0.12,-0.99,3.23,3.72,2.01
15.8490,0.08,0.12,-0.98,2.93,3.72,1.89
15.8650,0.08,0.12,-0.99,3.17,3.97,2.08
15.8800,0.08,0.12,-0.99,3.23,3.91,1.95
15.8960,0.08,0.12,-0.99,3.17,4.03,1.95
15.9120,0.08,0.13,-0.99,2.87,3.97,1.77
15.9270,0.08,0.12,-0.99,2.99,3.72,1.22
15.9440,0.08,0.12,-0.99,2.99,3.91,1.40
15.9590,0.08,0.12,-0.99,3.05,3.78,1.77
15.9760,0.08,0.12,-0.99,3.05,3.97,1.95
15.9920,0.08,0.12,-0.98,2.75,4.09,1.89
15.9980,0.08,0.12,-0.99,2.93,3.72,2.08
16.0140,0.08,0.12,-0.98,3.23,4.09,2.01
16.0360,0.08,0.12,-0.98,3.30,4.09,2.08
16.0520,0.08,0.12,-0.98,3.36,3.91,1.95
16.0690,0.08,0.12,-0.99,3.05,3.60,1.95
16.0860,0.08,0.12,-0.99,3.11,3.78,2.01
16.1020,0.08,0.12,-0.99,3.17,3.66,2.08
16.1180,0.08,0.12,-0.98,3.30,3.66,2.01
16.1330,0.08,0.12,-0.98,3.17,3.91,2.08
16.1480,0.08,0.12,-0.99,3.11,3.85,1.95
16.1640,0.08,0.12,-0.99,3.11,3.85,2.14
16.1790,0.08,0.12,-0.99,3.17,3.97,2.08
16.1940,0.08,0.12,-0.99,3.36,3.85,2.01
16.2100,0.08,0.12,-0.99,3.11,3.91,2.01
16.2250,0.08,0.12,-0.99,2.99,3.60,1.95
16.2360,0.08,0.12,-0.98,2.87,3.42,2.01
16.2540,0.08,0.12,-0.99,3.36,3.78,1.95
16.2690,0.08,0.12,-0.99,3.42,3.78,1.89
16.2860,0.08,0.12,-0.98,3.36,3.23,1.89
16.3020,0.08,0.12,-0.98,2.87,3.23,1.89
16.3190,0.08,0.12,-0.98,3.48,3.17,1.83
16.3350,0.08,0.12,-0.99,2.99,3.48,1.89
16.3510,0.08,0.12,-0.98,3.05,3.60,1.83
16.3660,0.08,0.12,-0.98,3.30,3.78,1.89
16.3820,0.08,0.12,-0.99,3.23,3.54,1.95
16.3980,0.08,0.12,-0.99,3.05,3.66,2.01
16.4140,0.08,0.12,-0.99,3.11,3.72,1.89
16.4300,0.08,0.12,-0.99,2.93,4.15,2.08
16.4440,0.08,0.12,-0.99,2.81,3.91,1.95
16.4600,0.08,0.12,-0.99,2.87,4.09,1.89
16.4750,0.08,0.12,-0.99,2.87,3.91,1.71
16.4860,0.08,0.12,-0.98,3.05,3.85,1.53
16.5030,0.08,0.12,-0.98,3.05,4.03,1.16
16.5200,0.08,0.12,-0.98,2.93,4.15,1.16
16.5360,0.08,0.12,-0.98,3.11,4.03,1.10
16.5530,0.08,0.12,-0.99,3.36,3.91,1.16
16.5680,0.08,0.12,-0.99,3.17,3.91,1.53
16.5840,0.08,0.12,-0.99,3.23,3.85,1.65
16.5990,0.08,0.12,-0.99,2.87,3.72,1.71
16.6140,0.08,0.12,-0.98,2.99,3.48,1.46
16.6290,0.08,0.12,-0.98,2.93,3.85,1.53
16.6450,0.08,0.12,-0.99,3.05,3.85,1.53
16.6600,0.08,0.12,-0.99,3.23,3.78,1.83
16.6740,0.08,0.12,-0.99,3.23,3.54,1.71
16.6860,0.08,0.12,-0.99,3.11,4.03,1.71
16.7030,0.08,0.12,-0.99,2.99,3.97,1.77
16.7190,0.08,0.12,-0.98,3.05,3.91,1.71
16.7360,0.08,0.12,-0.98,2.99,3.72,1.71
16.7530,0.08,0.12,-0.99,3.11,4.09,1.77
16.7690,0.08,0.12,-0.99,3.11,3.91,2.01
16.7860,0.08,0.12,-0.99,3.11,3.85,1.89
16.8020,0.08,0.12,-0.98,2.99,3.91,1.83
16.8180,0.08,0.12,-0.98,3.11,3.72,1.77
16.8340,0.08,0.12,-0.98,2.93,4.03,2.01
16.8490,0.08,0.12,-0.98,2.87,3.78,1.89
16.8530,0.08,0.12,-0.99,3.05,3.78,2.01
16.8690,0.08,0.12,-0.98,3.17,3.91,1.95
16.8900,0.08,0.12,-0.99,2.93,3.91,1.89
16.9060,0.08,0.12,-0.99,3.05,3.72,1.83
16.9230,0.08,0.12,-0.98,3.23,3.78,1.95
16.9390,0.08,0.12,-0.99,3.11,4.03,2.01
16.9560,0.08,0.12,-0.98,3.17,3.66,2.01
16.9720,0.08,0.12,-0.99,3.11,3.78,1.83
16.9890,0.08,0.12,-0.99,3.17,3.66,1.95
17.0050,0.08,0.12,-0.99,3.05,3.97,1.89
17.0210,0.08,0.12,-0.99,3.05,3.54,1.95
17.0370,0.08,0.12,-0.99,3.05,3.66,1.89
17.0540,0.08,0.12,-0.98,3.11,3.85,1.89
17.0700,0.08,0.13,-0.99,3.17,3.85,1.89
17.0840,0.08,0.13,-0.99,3.11,3.60,2.69
17.1010,0.08,0.13,-0.98,3.05,3.78,2.26
17.1160,0.08,0.14,-0.98,3.11,3.91,2.62
17.1330,0.08,0.16,-0.98,2.93,3.85,3.17
17.1480,0.08,0.14,-0.98,2.93,3.78,4.03
17.1640,0.08,0.13,-0.98,2.69,3.60,3.91
17.1730,0.08,0.14,-0.98,2.87,3.54,3.36
17.1890,0.08,0.14,-0.98,2.93,3.48,3.54
17.2060,0.08,0.13,-0.98,3.05,3.36,4.52
17.2230,0.08,0.12,-0.98,3.17,3.48,3.54
17.2400,0.08,0.13,-0.98,3.11,3.66,2.56
17.2550,0.08,0.10,-0.99,3.11,3.72,4.09
17.2710,0.09,0.11,-0.98,3.05,3.48,4.39
17.2870,0.08,0.09,-0.99,3.05,3.54,3.97
17.2890,0.08,0.09,-0.99,3.11,3.60,3.60
17.3180,0.08,0.10,-0.99,2.99,3.54,3.23
17.3340,0.08,0.09,-0.99,3.36,4.03,2.56
17.3500,0.08,0.09,-0.99,3.23,4.21,1.71
17.3650,0.08,0.12,-0.99,3.36,3.97,1.95
17.3820,0.08,0.12,-0.99,3.17,3.97,2.14
17.3960,0.08,0.12,-0.99,3.17,3.91,2.01
17.4110,0.08,0.12,-0.98,3.17,3.72,1.95
17.4230,0.08,0.12,-0.99,3.11,3.60,2.14
17.4390,0.08,0.12,-0.99,3.30,3.60,2.01
17.4550,0.08,0.12,-0.98,3.23,3.91,1.95
17.4720,0.08,0.12,-0.99,3.17,4.09,1.89
17.4890,0.08,0.12,-0.99,3.17,4.03,1.89
17.5040,0.08,0.12,-0.99,3.05,3.72,2.14
17.5220,0.08,0.12,-0.99,3.17,3.48,2.01
17.5380,0.08,0.12,-0.99,3.17,3.91,2.01
17.5540,0.08,0.12,-0.99,3.36,3.85,1.95
17.5700,0.08,0.12,-0.98,3.05,3.48,2.01
17.5860,0.08,0.12,-0.98,3.11,3.60,2.01
17.5890,0.08,0.12,-0.98,3.36,3.78,2.01
17.6050,0.08,0.12,-0.98,3.30,3.72,1.95
17.6260,0.08,0.12,-0.99,3.23,3.97,2.14
17.6440,0.08,0.12,-0.98,3.30,4.15,1.77
17.6600,0.08,0.12,-0.99,3.11,3.78,1.83
17.6780,0.08,0.12,-0.99,2.99,3.97,1.83
17.6930,0.08,0.12,-0.98,3.30,3.72,2.01
17.7090,0.08,0.12,-0.98,3.23,3.60,2.01
17.7260,0.08,0.12,-0.99,3.23,3.78,1.83
17.7420,0.09,0.12,-0.98,3.17,3.91,1.83
17.7580,0.09,0.12,-0.99,3.48,3.66,1.34
17.7730,0.10,0.11,-0.98,3.17,3.97,1.10
17.7760,0.12,0.12,-0.98,3.17,4.09,0.92
17.7920,0.09,0.12,-0.98,2.99,3.91,2.08
17.8160,0.10,0.12,-0.98,3.17,4.03,2.01
17.8330,0.08,0.13,-0.98,3.23,4.09,1.46
17.8500,0.07,0.13,-0.98,3.17,3.66,1.95
17.8660,0.07,0.13,-0.99,3.11,4.03,2.56
17.8680,0.06,0.12,-0.99,3.11,3.78,2.20
17.8970,0.06,0.12,-0.99,3.23,3.78,2.08
17.9120,0.07,0.12,-0.99,3.17,3.97,1.95
17.9290,0.08,0.12,-0.99,3.11,3.85,1.89
17.9450,0.08,0.12,-0.98,3.11,3.54,2.01
17.9600,0.08,0.12,-0.99,2.99,3.85,1.95
17.9750,0.08,0.12,-0.99,3.30,4.03,2.01
17.9900,0.08,0.12,-0.99,3.11,3.72,2.08
18.0050,0.08,0.12,-0.99,3.23,3.72,2.01
18.0170,0.08,0.12,-0.99,3.17,3.78,2.08
18.0340,0.08,0.12,-0.99,3.11,3.97,2.14
18.0500,0.08,0.12,-0.99,3.17,3.85,2.01
18.0680,0.08,0.12,-0.98,3.05,3.72,2.20
18.0830,0.08,0.12,-0.99,3.05,3.85,2.20
18.0990,0.08,0.12,-0.99,2.93,3.85,2.14
18.1140,0.08,0.12,-0.99,2.93,3.78,2.26
18.1290,0.08,0.12,-0.98,3.05,3.85,2.26
18.1460,0.08,0.12,-0.98,3.23,3.72,2.50
18.1610,0.08,0.12,-0.99,3.05,3.54,2.20
18.1780,0.08,0.12,-0.99,3.05,3.78,2.01
18.1840,0.07,0.13,-0.99,3.11,3.42,2.32
18.2000,0.07,0.13,-0.98,2.93,3.78,2.56
18.2220,0.06,0.14,-0.98,3.42,3.72,2.38
18.2400,0.08,0.13,-0.99,3.17,3.97,2.32
18.2550,0.07,0.13,-0.99,3.17,3.48,2.38
18.2720,0.06,0.14,-0.99,3.11,3.48,2.32
18.2870,0.07,0.13,-0.99,3.11,3.78,2.56
18.3020,0.09,0.13,-0.98,3.05,3.72,2.26
18.3170,0.09,0.12,-0.98,3.05,4.09,1.71
18.3310,0.11,0.10,-0.98,3.23,3.85,1.77
18.3400,0.10,0.10,-0.99,2.99,3.60,1.89
18.3560,0.09,0.11,-0.99,3.05,3.78,1.83
18.3720,0.10,0.11,-0.99,3.11,3.91,1.95
18.3890,0.09,0.11,-0.99,3.17,3.97,2.08
18.4060,0.08,0.12,-0.99,3.23,3.97,2.14
18.4230,0.08,0.12,-0.99,2.99,4.27,2.08
18.4390,0.08,0.12,-0.99,3.11,3.72,1.95
18.4550,0.08,0.12,-0.99,3.17,4.03,2.01
18.4710,0.08,0.12,-0.99,3.17,3.97,1.95
18.4860,0.08,0.12,-0.99,3.17,3.91,2.01
18.5020,0.08,0.12,-0.98,3.17,3.91,1.89
18.5170,0.08,0.12,-0.99,3.30,3.66,2.08
18.5330,0.08,0.12,-0.99,3.11,3.78,2.01
18.5390,0.08,0.12,-0.98,3.23,3.97,1.95
18.5570,0.08,0.12,-0.99,3.36,3.85,1.95
18.5730,0.08,0.12,-0.98,3.36,3.85,1.95
18.5890,0.08,0.12,-0.99,3.23,3.60,1.95
18.6060,0.09,0.12,-0.98,3.05,3.97,1.65
18.6230,0.08,0.12,-0.98,3.23,3.78,1.22
18.6390,0.08,0.12,-0.98,3.17,4.03,1.04
18.6540,0.08,0.12,-0.99,3.23,4.09,0.85
18.6710,0.08,0.12,-0.99,3.23,4.09,0.37
18.6860,0.07,0.12,-0.99,3.42,4.15,0.98
18.7000,0.08,0.12,-0.99,3.36,3.91,1.46
18.7150,0.08,0.12,-0.99,3.17,4.21,1.65
18.7220,0.08,0.12,-0.98,3.23,3.85,1.77
18.7380,0.08,0.12,-0.98,3.23,4.15,2.01
18.7600,0.08,0.12,-0.98,3.23,3.85,2.08
18.7780,0.08,0.12,-0.99,3.23,3.85,2.20
18.7930,0.08,0.12,-0.99,3.23,3.78,2.08
18.8100,0.08,0.12,-0.99,3.11,3.54,2.08
18.8110,0.08,0.12,-0.99,3.11,3.66,2.08
18.8270,0.08,0.12,-0.98,2.99,4.03,2.08
18.8580,0.08,0.12,-0.99,2.99,3.97,2.08
18.8740,0.08,0.12,-0.99,3.11,3.66,2.01
18.8760,0.08,0.12,-0.99,3.30,3.91,2.08
18.9050,0.08,0.12,-0.99,3.17,3.97,1.95
18.9210,0.08,0.12,-0.99,3.30,3.66,1.83
18.9350,0.08,0.12,-0.99,3.23,3.91,1.77
18.9450,0.08,0.12,-0.98,3.05,4.09,1.71
18.9620,0.08,0.12,-0.99,3.30,3.97,1.59
18.9790,0.08,0.12,-0.98,3.30,3.85,1.16
18.9950,0.09,0.12,-0.99,3.17,4.09,0.98
19.0120,0.08,0.12,-0.98,3.36,3.85,1.16
19.0280,0.08,0.12,-0.99,3.30,3.66,1.34
19.0450,0.08,0.12,-0.99,3.23,4.09,1.59
19.0600,0.08,0.12,-0.99,2.99,3.72,1.40
19.0760,0.08,0.12,-0.98,2.99,3.54,1.34
19.0920,0.08,0.12,-0.98,3.11,3.91,1.34
19.1080,0.08,0.12,-0.98,3.11,4.03,1.34
19.1110,0.08,0.12,-0.99,3.11,4.03,1.46
19.1270,0.09,0.12,-0.99,3.30,4.03,1.34
19.1490,0.08,0.12,-0.99,3.05,3.97,1.46
19.1650,0.08,0.12,-0.99,2.93,3.97,1.53
19.1820,0.09,0.13,-0.98,3.05,3.91,1.83
19.1980,0.08,0.13,-0.98,2.99,3.85,2.50
19.2140,0.08,0.12,-0.98,2.99,3.91,2.14
19.2310,0.07,0.12,-0.99,3.11,4.15,1.83
19.2460,0.08,0.12,-0.99,3.30,3.91,1.59
19.2620,0.08,0.12,-0.99,3.23,3.91,1.71
19.2770,0.08,0.12,-0.99,3.23,3.91,1.71
19.2930,0.08,0.12,-0.99,3.23,3.78,1.53
19.3090,0.08,0.12,-0.99,3.23,3.78,1.83
19.3250,0.08,0.12,-0.99,3.17,3.54,1.95
19.3320,0.08,0.12,-0.99,3.05,3.78,2.01
19.3480,0.08,0.12,-0.99,3.11,3.66,1.89
19.3710,0.08,0.12,-0.99,3.17,3.60,2.14
19.3870,0.08,0.12,-0.99,3.05,3.78,2.14
19.4040,0.08,0.12,-0.99,3.11,3.97,2.08
19.4200,0.08,0.12,-0.99,3.05,3.78,1.95
19.4360,0.08,0.12,-0.98,3.17,3.91,2.01
19.4520,0.08,0.12,-0.99,3.11,3.78,1.83
19.4680,0.08,0.12,-0.98,2.99,4.03,2.01
19.4830,0.08,0.12,-0.98,3.30,3.91,2.08
19.4970,0.08,0.12,-0.98,3.36,3.78,2.01
19.5130,0.08,0.12,-0.99,3.17,3.85,1.95
19.5270,0.08,0.12,-0.99,3.11,3.91,2.01
19.5380,0.08,0.12,-0.99,3.23,3.78,2.01
19.5540,0.08,0.12,-0.99,3.11,3.66,2.01
19.5710,0.08,0.12,-0.98,3.17,3.72,2.01
19.5870,0.08,0.12,-0.99,3.05,3.78,1.95
19.6040,0.08,0.12,-0.99,3.17,4.03,1.95
19.6190,0.08,0.12,-0.99,3.17,4.03,1.83
19.6360,0.08,0.13,-0.98,3.05,4.03,1.77
19.6520,0.09,0.15,-0.98,3.05,3.85,1.83
19.6670,0.07,0.14,-0.98,3.11,3.78,3.05
19.6820,0.08,0.14,-0.98,3.17,3.78,3.42
19.6970,0.08,0.14,-0.98,3.11,3.60,3.97
19.7130,0.08,0.13,-0.98,3.05,3.42,3.85
19.7280,0.08,0.12,-0.98,2.99,3.72,3.54
19.7380,0.08,0.12,-0.98,3.17,3.78,3.11
19.7550,0.08,0.13,-0.98,2.99,3.78,3.66
19.7710,0.08,0.12,-0.99,3.11,3.54,3.97
19.7870,0.08,0.10,-0.99,3.05,3.72,3.72
19.8050,0.08,0.09,-0.99,3.17,3.60,2.75
19.8210,0.08,0.08,-0.99,3.30,3.66,1.59
19.8360,0.08,0.11,-0.99,3.17,3.91,1.71
19.8520,0.08,0.12,-0.99,3.23,3.66,2.08
19.8680,0.08,0.12,-0.99,3.36,3.97,2.01
19.8830,0.08,0.12,-0.98,3.30,3.66,2.08
19.8980,0.08,0.12,-0.99,3.05,4.09,2.08
19.9130,0.08,0.12,-0.99,3.05,3.78,2.14
19.9280,0.08,0.12,-0.99,2.99,3.85,1.95
19.9380,0.08,0.12,-0.99,2.99,3.97,1.95
19.9530,0.08,0.12,-0.99,3.05,4.09,2.08
19.9740,0.08,0.12,-0.99,3.11,3.85,2.14
19.9910,0.08,0.12,-0.99,3.30,3.54,2.01
20.0070,0.08,0.12,-0.99,3.17,3.85,2.08
20.0230,0.08,0.12,-0.98,2.99,3.36,2.01
20.0390,0.08,0.12,-0.98,3.30,3.91,2.14
20.0410,0.08,0.12,-0.99,3.30,4.03,1.89
20.0700,0.08,0.12,-0.99,3.11,4.03,2.08
20.0800,0.08,0.12,-0.99,3.17,3.91,2.08
20.0970,0.08,0.12,-0.98,3.17,3.72,2.08
20.1150,0.08,0.12,-0.98,3.11,3.72,2.08
20.1300,0.08,0.12,-0.99,3.05,3.85,2.01
20.1460,0.08,0.12,-0.99,3.11,3.97,2.08
20.1620,0.08,0.12,-0.99,3.11,3.91,2.01
20.1780,0.08,0.12,-0.99,3.05,3.85,1.95
20.1930,0.08,0.12,-0.99,3.23,3.97,1.89
20.2090,0.08,0.12,-0.99,3.30,4.27,0.79
20.2250,0.08,0.12,-0.99,3.17,3.91,1.10
20.2410,0.08,0.12,-0.99,2.99,3.91,1.89
20.2570,0.08,0.12,-0.99,2.99,3.91,1.89
20.2710,0.08,0.12,-0.99,3.05,3.78,2.01
20.2860,0.08,0.12,-0.98,3.05,3.91,1.95
20.2970,0.08,0.12,-0.98,3.30,3.78,2.20
20.3130,0.08,0.12,-0.98,3.30,3.66,2.08
20.3300,0.08,0.12,-0.99,3.23,3.85,2.20
20.3470,0.08,0.12,-0.98,3.05,3.85,1.95
20.3620,0.08,0.12,-0.98,3.23,3.78,2.01
20.3790,0.08,0.12,-0.99,3.05,3.78,2.01
20.3940,0.08,0.12,-0.98,3.05,4.09,2.01
20.4100,0.08,0.12,-0.99,3.11,3.78,2.14
20.4260,0.08,0.12,-0.99,2.99,3.78,1.89
20.4420,0.08,0.12,-0.98,3.11,3.42,2.14
20.4580,0.08,0.12,-0.98,2.87,4.09,2.14
20.4710,0.08,0.12,-0.99,3.11,3.72,1.95
20.4800,0.08,0.12,-0.99,3.23,3.66,2.14
20.5020,0.08,0.12,-0.98,3.17,3.72,2.14
20.5190,0.08,0.12,-0.98,3.17,3.91,1.95
20.5350,0.08,0.12,-0.99,2.99,3.91,2.08
20.5520,0.08,0.12,-0.99,3.11,3.85,2.08
20.5670,0.08,0.12,-0.98,3.05,3.97,1.95
20.5840,0.08,0.12,-0.98,3.42,3.78,2.08
20.6000,0.08,0.12,-0.98,3.23,3.85,2.01
20.6150,0.08,0.12,-0.98,3.11,3.72,2.08
20.6310,0.08,0.12,-0.99,3.05,3.91,1.89
20.6460,0.08,0.12,-0.98,3.05,3.66,2.01
20.6620,0.08,0.12,-0.98,3.05,3.85,2.08
20.6780,0.08,0.12,-0.99,3.30,3.78,2.01
20.6930,0.08,0.12,-0.98,3.36,3.85,1.95
20.7080,0.08,0.12,-0.98,3.11,3.85,2.01
20.7190,0.08,0.12,-0.99,3.11,3.91,2.20
20.7350,0.08,0.12,-0.99,3.05,4.03,1.95
20.7510,0.08,0.12,-0.98,3.11,3.72,1.77
20.7680,0.08,0.12,-0.99,3.17,3.60,2.20
20.7850,0.08,0.12,-0.99,3.17,3.72,2.08
20.8010,0.08,0.12,-0.99,3.30,3.54,2.14
20.8170,0.08,0.12,-0.99,3.11,3.78,2.14
20.8330,0.08,0.12,-0.99,2.99,3.60,2.14
20.8480,0.08,0.12,-0.98,3.17,3.60,2.08
20.8520,0.08,0.12,-0.98,3.42,3.72,2.01
20.8710,0.08,0.12,-0.99,3.23,3.91,2.08
20.8930,0.08,0.12,-0.99,3.11,4.15,2.26
20.8930,0.08,0.12,-0.98,3.23,3.72,1.95
20.9240,0.08,0.12,-0.99,3.23,3.91,1.95
20.9400,0.08,0.12,-0.99,3.05,3.78,2.01
20.9560,0.08,0.12,-0.98,3.17,3.54,2.01
20.9720,0.08,0.12,-0.98,3.30,3.60,2.08
20.9880,0.08,0.12,-0.99,3.17,3.66,2.01
21.0040,0.08,0.12,-0.98,2.99,3.91,1.89
21.0080,0.08,0.12,-0.99,3.05,3.85,1.95
21.0240,0.08,0.12,-0.98,3.11,3.78,2.01
21.0470,0.08,0.12,-0.99,3.05,3.48,2.01
21.0630,0.08,0.12,-0.99,3.17,3.78,2.14
21.0800,0.08,0.12,-0.99,3.17,3.85,2.01
21.0960,0.08,0.12,-0.99,3.05,3.54,2.08
21.1120,0.08,0.12,-0.98,2.99,3.42,2.08
21.1280,0.08,0.12,-0.99,3.11,3.85,2.20
21.1430,0.08,0.12,-0.98,3.30,3.85,2.08
21.1600,0.08,0.12,-0.99,3.11,3.78,1.95
21.1760,0.09,0.12,-0.98,3.23,4.09,1.95
21.1920,0.07,0.12,-0.99,3.60,4.09,1.53
21.2080,0.08,0.12,-0.99,3.30,3.60,1.89
21.2230,0.08,0.12,-0.99,3.11,3.78,2.08
21.2390,0.08,0.12,-0.98,3.17,3.60,1.95
21.2560,0.08,0.12,-0.98,3.05,3.66,2.01
21.2690,0.09,0.12,-0.98,3.05,3.97,1.83
21.2850,0.08,0.12,-0.98,3.42,3.91,1.65
21.2970,0.08,0.12,-0.99,3.17,3.78,1.95
21.3130,0.08,0.12,-0.99,2.93,3.72,2.08
21.3300,0.08,0.12,-0.98,2.93,3.66,2.08
21.3460,0.08,0.12,-0.99,2.93,3.66,2.08
21.3620,0.08,0.12,-0.99,3.05,3.72,1.95
21.3790,0.08,0.12,-0.99,2.93,3.54,2.01
21.3950,0.08,0.12,-0.99,3.23,3.97,2.01
21.4110,0.08,0.12,-0.99,3.05,3.97,1.95
21.4260,0.09,0.14,-0.98,2.99,3.97,1.59
21.4430,0.08,0.14,-0.98,3.30,3.78,0.85
21.4590,0.07,0.13,-0.99,3.11,3.78,2.87
21.4740,0.08,0.14,-0.98,2.87,3.78,3.78
21.4800,0.08,0.14,-0.98,2.99,3.42,4.21
21.5040,0.08,0.14,-0.98,2.99,3.23,5.25
21.5140,0.08,0.13,-0.98,2.93,3.11,5.49
21.5300,0.08,0.12,-0.99,2.81,3.17,5.74
21.5490,0.08,0.12,-0.99,2.99,3.05,4.88
21.5630,0.08,0.12,-0.99,2.99,3.42,4.03
21.5800,0.08,0.10,-0.99,3.11,3.30,4.27
21.5960,0.08,0.11,-0.99,2.99,3.85,2.50
21.6120,0.08,0.10,-0.99,3.05,3.72,3.66
21.6280,0.08,0.09,-0.99,3.17,3.85,2.20
21.6440,0.08,0.11,-0.99,3.05,3.78,1.89
21.6600,0.08,0.12,-0.99,3.23,3.85,2.08
21.6760,0.08,0.12,-0.98,3.36,3.48,2.20
21.6920,0.08,0.12,-0.99,3.17,3.54,1.95
21.7070,0.08,0.12,-0.98,3.11,3.91,1.95
21.7180,0.08,0.12,-0.99,3.30,4.03,2.26
21.7340,0.08,0.12,-0.99,3.23,3.66,1.83
21.7500,0.08,0.12,-0.99,2.99,3.91,1.95
21.7670,0.08,0.12,-0.99,3.17,3.72,2.01
21.7830,0.08,0.12,-0.98,3.42,3.85,2.14
21.7990,0.08,0.12,-0.98,3.11,4.09,2.14
21.8150,0.08,0.12,-0.98,2.99,4.03,2.08
21.8300,0.08,0.12,-0.99,3.11,3.66,2.08
21.8460,0.08,0.12,-0.99,3.17,3.97,2.01
21.8620,0.08,0.12,-0.99,2.99,3.97,2.08
21.8770,0.08,0.12,-0.98,3.11,3.85,2.01
21.8830,0.08,0.12,-0.99,3.23,3.66,2.01
21.8990,0.08,0.12,-0.99,3.17,3.66,1.95
21.9210,0.08,0.12,-0.99,3.11,3.85,2.08
21.9380,0.08,0.12,-0.99,3.30,3.78,1.95
21.9540,0.08,0.12,-0.99,3.23,3.42,2.01
21.9700,0.08,0.12,-0.99,2.93,3.78,2.01
21.9730,0.08,0.12,-0.99,3.17,3.78,1.95
21.9890,0.08,0.12,-0.99,3.30,3.97,1.95
22.0160,0.08,0.12,-0.99,3.36,3.78,1.95
22.0270,0.08,0.12,-0.98,3.05,3.78,2.01
22.0430,0.08,0.12,-0.99,2.99,3.78,2.01
22.0620,0.08,0.12,-0.99,3.11,3.85,2.14
22.0780,0.08,0.12,-0.98,3.17,3.91,2.08
22.0940,0.08,0.12,-0.98,3.11,4.15,2.08
22.1110,0.08,0.12,-0.99,2.99,3.72,2.14
22.1260,0.08,0.12,-0.99,3.11,3.66,1.95
22.1420,0.08,0.12,-0.98,3.05,3.66,2.01
22.1580,0.08,0.12,-0.99,3.05,3.85,2.20
22.1740,0.08,0.12,-0.99,3.05,4.03,2.08
22.1900,0.08,0.12,-0.99,3.11,3.48,2.01
22.2050,0.08,0.12,-0.98,3.17,3.60,2.01
22.2210,0.08,0.12,-0.98,3.23,3.78,2.01
22.2370,0.08,0.12,-0.98,3.11,3.54,2.01
22.2520,0.08,0.12,-0.98,3.05,3.91,2.01
22.2690,0.08,0.12,-0.99,3.11,3.66,1.89
22.2830,0.08,0.12,-0.98,3.05,3.91,2.08
22.2940,0.08,0.12,-0.99,3.05,3.72,2.01
22.3110,0.08,0.12,-0.99,3.11,3.66,2.08
22.3260,0.08,0.12,-0.98,3.23,3.85,1.95
22.3420,0.08,0.12,-0.99,3.11,4.03,2.08
22.3590,0.08,0.12,-0.98,2.99,4.09,2.20
22.3740,0.08,0.12,-0.99,3.11,3.97,2.14
22.3850,0.08,0.12,-0.98,3.23,3.85,2.14
22.4010,0.08,0.12,-0.99,3.11,3.72,2.14
22.4170,0.08,0.12,-0.98,3.11,3.85,1.95
22.4340,0.08,0.12,-0.99,3.17,3.60,2.01
22.4510,0.08,0.12,-0.98,3.11,3.97,2.01
22.4660,0.08,0.12,-0.98,2.99,3.97,2.01
22.4820,0.08,0.12,-0.99,2.93,3.97,2.01
22.4980,0.08,0.12,-0.98,3.17,3.66,1.95
22.5130,0.08,0.12,-0.99,3.11,3.48,2.01
22.5280,0.08,0.12,-0.98,3.17,3.85,2.14
22.5440,0.08,0.12,-0.99,3.05,3.66,1.95
22.5590,0.08,0.12,-0.98,3.05,3.78,2.08
22.5740,0.08,0.12,-0.99,3.05,3.60,2.08
22.5890,0.08,0.12,-0.99,3.23,3.97,2.08
22.6010,0.08,0.12,-0.99,3.17,3.66,1.95
22.6170,0.08,0.12,-0.99,3.05,3.66,1.95
22.6340,0.08,0.12,-0.99,3.11,4.03,1.89
22.6500,0.08,0.12,-0.99,3.05,3.72,2.20
22.6660,0.08,0.12,-0.98,3.36,3.60,2.01
22.6820,0.08,0.12,-0.99,3.23,3.54,1.89
22.6980,0.08,0.12,-0.99,3.11,3.60,2.01
22.7130,0.08,0.12,-0.99,2.99,3.54,2.08
22.7290,0.08,0.12,-0.98,3.11,3.72,2.08
22.7440,0.08,0.12,-0.99,2.93,3.97,1.95
22.7600,0.08,0.12,-0.98,3.05,3.91,2.01
22.7740,0.08,0.12,-0.98,3.23,3.97,2.01
22.7840,0.08,0.12,-0.98,3.17,3.60,2.01
22.8010,0.08,0.12,-0.99,3.23,3.91,2.01
22.8180,0.08,0.12,-0.99,3.23,3.85,2.01
22.8340,0.08,0.12,-0.99,3.17,3.72,2.14
22.8510,0.08,0.12,-0.99,3.05,3.85,2.01
22.8680,0.08,0.12,-0.98,3.17,3.72,2.01
22.8840,0.08,0.12,-0.99,3.05,3.78,2.01
22.8990,0.08,0.12,-0.99,3.05,3.85,1.95
22.9150,0.08,0.12,-0.99,3.05,3.85,2.08
22.9310,0.08,0.12,-0.99,2.99,3.97,2.08
22.9460,0.08,0.12,-0.99,2.93,3.78,2.14
22.9510,0.08,0.12,-0.98,3.17,3.85,1.95
22.9740,0.08,0.12,-0.99,3.30,3.91,2.01
22.9870,0.08,0.12,-0.98,3.48,3.54,2.14
23.0040,0.08,0.12,-0.99,3.42,3.72,2.26
23.0210,0.08,0.12,-0.99,3.36,3.85,2.32
23.0370,0.08,0.12,-0.99,3.11,3.78,2.14
23.0540,0.08,0.13,-0.98,2.81,3.60,1.95
23.0700,0.08,0.14,-0.98,2.87,3.66,2.26
23.0860,0.08,0.13,-0.98,3.05,3.72,2.62
23.1020,0.08,0.15,-0.98,2.99,3.72,2.99
23.1160,0.09,0.14,-0.98,3.05,3.36,4.03
23.1310,0.09,0.13,-0.98,3.05,3.11,4.39
23.1370,0.08,0.11,-0.99,2.93,3.48,4.82
23.1530,0.08,0.12,-0.98,2.99,3.54,3.54
23.1750,0.08,0.12,-0.99,2.99,3.60,3.60
23.1900,0.08,0.11,-0.99,3.11,3.66,3.48
23.2080,0.08,0.11,-0.99,3.30,3.42,2.44
23.2240,0.08,0.11,-0.99,3.05,3.97,2.20
23.2250,0.07,0.11,-0.99,3.11,3.78,1.53
23.2410,0.08,0.11,-0.99,3.17,3.91,1.65
23.2720,0.08,0.11,-0.99,3.05,3.72,1.89
23.2750,0.08,0.12,-0.98,3.23,3.97,1.95
23.3050,0.08,0.12,-0.99,3.17,3.78,2.08
23.3210,0.08,0.12,-0.98,3.30,3.72,2.08
23.3360,0.08,0.12,-0.98,3.11,4.09,2.01
23.3410,0.08,0.12,-0.99,2.99,3.85,2.14
23.3560,0.08,0.12,-0.99,3.05,3.60,2.08
23.3820,0.08,0.12,-0.98,3.11,3.78,1.95
23.3940,0.08,0.12,-0.98,3.17,3.72,1.95
23.4110,0.08,0.12,-0.99,3.17,4.03,2.01
23.4280,0.08,0.12,-0.99,3.11,3.72,2.14
23.4440,0.08,0.12,-0.98,3.11,3.72,2.14
23.4600,0.08,0.12,-0.98,3.17,4.27,2.08
23.4760,0.08,0.12,-0.99,3.23,3.85,2.01
23.4920,0.08,0.12,-0.99,3.05,3.85,2.01
23.5080,0.08,0.12,-0.98,3.17,3.66,1.95
23.5120,0.08,0.12,-0.98,3.11,3.66,2.14
23.5400,0.08,0.12,-0.99,2.99,3.60,2.01
23.5440,0.08,0.12,-0.98,2.99,3.78,2.08
23.5600,0.08,0.12,-0.99,3.05,3.91,2.01
23.5870,0.08,0.12,-0.98,3.11,3.72,2.14
23.6020,0.08,0.12,-0.99,3.11,3.66,2.08
23.6170,0.08,0.12,-0.98,3.05,3.91,1.95
23.6230,0.08,0.12,-0.99,3.23,3.85,1.95
23.6380,0.08,0.12,-0.99,3.11,3.97,2.08
23.6600,0.08,0.12,-0.99,3.17,3.66,1.89
23.6780,0.08,0.12,-0.99,3.05,4.09,1.89
23.6950,0.08,0.12,-0.99,3.05,3.97,1.89
23.7120,0.08,0.12,-0.99,3.17,3.78,1.89
23.7270,0.08,0.12,-0.99,2.99,3.91,2.01
23.7440,0.08,0.12,-0.98,3.23,3.66,2.01
23.7590,0.08,0.12,-0.99,3.17,4.09,1.95
23.7760,0.08,0.12,-0.99,2.87,3.66,2.08
23.7930,0.08,0.12,-0.99,2.99,3.72,1.89
23.8080,0.08,0.12,-0.99,3.17,3.85,1.89
23.8240,0.08,0.12,-0.99,3.05,3.85,1.83
23.8390,0.08,0.12,-0.99,3.05,3.78,1.95
23.8440,0.08,0.12,-0.99,2.93,3.91,1.95
23.8600,0.08,0.12,-0.98,3.11,3.66,1.71
23.8800,0.08,0.12,-0.99,3.11,3.85,1.46
23.8970,0.08,0.12,-0.99,3.30,3.97,1.65
23.9130,0.08,0.12,-0.99,3.11,3.72,1.77
23.9290,0.08,0.12,-0.99,2.99,4.09,1.95
23.9460,0.08,0.12,-0.99,3.11,3.85,2.14
23.9610,0.08,0.12,-0.98,3.23,3.97,2.08
23.9750,0.08,0.12,-0.98,3.17,3.91,1.95
23.9800,0.08,0.12,-0.98,2.99,3.54,2.08
24.0030,0.08,0.12,-0.98,2.99,4.03,2.14
24.0190,0.08,0.12,-0.99,3.11,3.72,2.01
24.0370,0.08,0.12,-0.99,3.05,3.97,2.01
24.0530,0.08,0.12,-0.99,3.05,3.54,1.95
24.0700,0.08,0.12,-0.99,2.93,3.60,1.89
24.0850,0.08,0.12,-0.99,3.11,3.85,2.01
24.1000,0.08,0.12,-0.99,2.99,3.72,2.01
24.1160,0.08,0.12,-0.98,2.99,3.72,1.95
24.1310,0.08,0.12,-0.99,3.36,3.85,1.95
24.1470,0.08,0.12,-0.98,3.23,3.60,2.01
24.1530,0.08,0.12,-0.99,3.23,4.09,2.01
24.1750,0.08,0.12,-0.98,3.17,3.91,1.95
24.1910,0.08,0.12,-0.98,3.17,3.97,2.01
24.2080,0.08,0.12,-0.98,2.99,3.78,2.08
24.2250,0.08,0.12,-0.99,3.23,3.66,2.01
24.2410,0.08,0.12,-0.98,3.11,3.91,2.01
24.2570,0.08,0.12,-0.98,3.05,3.72,1.95
24.2730,0.08,0.12,-0.99,3.11,3.97,2.01
24.2760,0.08,0.12,-0.98,3.11,3.60,2.01
24.3040,0.08,0.12,-0.99,3.17,3.78,1.95
24.3190,0.08,0.12,-0.98,2.99,3.85,2.01
24.3260,0.08,0.12,-0.99,3.05,3.97,2.01
24.3490,0.08,0.12,-0.99,3.11,3.78,1.95
24.3640,0.08,0.12,-0.99,3.11,4.03,2.08
24.3750,0.08,0.12,-0.99,3.11,3.91,1.89
24.3910,0.08,0.12,-0.99,3.17,3.78,2.01
24.4090,0.08,0.12,-0.98,3.11,3.97,1.89
24.4240,0.08,0.12,-0.99,3.23,3.60,1.89
24.4430,0.08,0.12,-0.98,3.30,3.66,1.71
24.4580,0.08,0.12,-0.98,3.23,3.66,1.53
24.4740,0.08,0.13,-0.98,3.11,3.66,1.46
24.4900,0.08,0.14,-0.98,3.17,3.85,1.40
24.4980,0.07,0.13,-0.99,3.11,3.66,3.17
24.5200,0.08,0.12,-0.99,3.11,3.54,3.11
24.5320,0.08,0.12,-0.99,2.99,3.60,2.87
24.5490,0.08,0.12,-0.99,3.11,3.97,2.26
24.5640,0.08,0.13,-0.98,2.99,3.72,2.75
24.5820,0.08,0.13,-0.98,2.99,3.60,2.99
24.5970,0.08,0.12,-0.99,3.05,3.42,3.30
24.6130,0.08,0.13,-0.98,2.93,3.72,3.11
24.6290,0.08,0.13,-0.98,2.93,3.66,3.30
24.6430,0.08,0.12,-0.98,3.05,3.66,3.48
24.6480,0.08,0.11,-0.99,2.99,3.54,3.17
24.6740,0.08,0.11,-0.98,2.99,3.72,2.81
24.6890,0.08,0.11,-0.99,3.11,4.03,1.95
24.6990,0.08,0.12,-0.99,3.11,3.78,2.01
24.7150,0.08,0.12,-0.99,3.17,3.54,2.26
24.7360,0.09,0.11,-0.99,2.99,3.66,2.26
24.7520,0.09,0.11,-0.98,3.17,3.72,2.08
24.7680,0.09,0.11,-0.98,3.11,3.85,2.08
24.7850,0.08,0.12,-0.99,3.17,3.72,2.01
24.8000,0.08,0.12,-0.98,3.17,3.91,2.01
24.8160,0.08,0.12,-0.99,3.23,3.66,2.20
24.8300,0.08,0.12,-0.99,3.05,3.97,2.08
24.8460,0.08,0.12,-0.99,2.99,3.91,1.95
24.8620,0.08,0.12,-0.99,2.93,3.85,2.01
24.8760,0.08,0.12,-0.99,3.30,3.72,2.08
24.8850,0.08,0.12,-0.98,3.30,3.54,2.08
24.9070,0.08,0.12,-0.99,3.23,3.60,2.01
24.9240,0.08,0.12,-0.99,2.93,3.85,2.01
24.9240,0.08,0.12,-0.98,3.05,3.66,2.01
24.9400,0.08,0.12,-0.99,3.11,3.91,2.01
24.9560,0.08,0.12,-0.99,3.30,3.66,2.08
24.9760,0.08,0.12,-0.98,3.11,3.72,2.08
24.9890,0.08,0.12,-0.99,3.05,4.09,2.08
25.0050,0.08,0.12,-0.98,3.23,3.91,1.95
25.0260,0.08,0.12,-0.98,3.17,3.91,1.95
25.0430,0.08,0.12,-0.98,3.17,3.78,2.14
25.0600,0.08,0.12,-0.98,3.23,3.78,1.95
25.0770,0.08,0.12,-0.99,3.11,3.91,2.08
25.0930,0.08,0.12,-0.99,3.11,3.66,1.95
25.1100,0.08,0.12,-0.99,3.11,3.60,2.08
25.1270,0.08,0.12,-0.99,3.17,3.97,2.20
25.1280,0.08,0.12,-0.98,3.11,3.85,2.01
25.1570,0.08,0.12,-0.98,3.78,3.85,2.08
25.1610,0.10,0.12,-0.98,3.42,4.03,1.59
25.1770,0.08,0.12,-0.99,3.05,3.72,2.44
25.1920,0.08,0.12,-0.99,3.23,3.48,2.32
25.2160,0.08,0.12,-0.99,3.17,3.72,2.20
25.2340,0.07,0.12,-0.99,3.36,3.91,2.01
25.2480,0.08,0.12,-0.98,2.99,3.78,1.83
25.2650,0.07,0.12,-0.99,3.23,3.91,2.01
25.2800,0.07,0.12,-0.99,3.23,3.72,2.08
25.2960,0.08,0.12,-0.99,3.30,4.15,2.08
25.3120,0.08,0.12,-0.99,3.30,3.66,2.14
25.3270,0.08,0.12,-0.98,3.23,3.66,2.01
25.3430,0.08,0.12,-0.99,3.17,3.54,1.95
25.3590,0.08,0.12,-0.99,3.17,3.85,2.01
25.3750,0.08,0.12,-0.99,3.11,4.03,1.95
25.3900,0.08,0.12,-0.99,3.17,3.91,1.95
25.4050,0.08,0.12,-0.98,3.23,3.91,2.08
25.4200,0.08,0.12,-0.99,3.11,3.42,1.95
25.4330,0.08,0.12,-0.99,3.11,3.60,2.01
25.4500,0.08,0.12,-0.99,2.87,3.78,1.95
25.4650,0.08,0.12,-0.99,2.99,3.91,1.95
25.4800,0.08,0.12,-0.99,2.87,4.03,2.01
25.4950,0.08,0.12,-0.99,3.05,3.66,2.01
25.5110,0.08,0.12,-0.99,3.05,3.97,2.01
25.5270,0.08,0.12,-0.99,3.17,4.09,2.14
25.5420,0.08,0.12,-0.99,3.42,3.66,2.20
25.5590,0.08,0.12,-0.99,2.99,4.03,2.08
25.5750,0.08,0.12,-0.99,3.11,3.91,2.14
25.5900,0.08,0.12,-0.98,3.30,3.91,2.26
25.6050,0.08,0.12,-0.98,3.36,3.85,2.14
25.6150,0.08,0.12,-0.99,3.66,3.66,2.08
25.6320,0.09,0.13,-0.98,3.36,3.72,1.65
25.6490,0.07,0.12,-0.99,2.99,3.91,1.89
25.6650,0.08,0.12,-0.99,3.05,3.97,1.89
25.6800,0.08,0.12,-0.98,3.11,4.03,1.83
25.6960,0.09,0.13,-0.98,3.11,3.72,1.53
25.7110,0.08,0.12,-0.99,2.99,4.03,1.65
25.7270,0.08,0.12,-0.98,3.11,3.78,2.14
25.7430,0.08,0.12,-0.99,3.36,3.60,2.20
25.7590,0.08,0.12,-0.99,3.17,3.85,2.14
25.7750,0.08,0.12,-0.99,3.11,4.03,2.08
25.7900,0.08,0.12,-0.99,3.17,3.54,2.14
25.8050,0.08,0.12,-0.98,3.23,3.78,2.01
25.8150,0.08,0.12,-0.98,3.05,3.72,2.14
25.8310,0.08,0.12,-0.99,2.99,3.78,2.01
25.8520,0.08,0.12,-0.98,3.17,3.91,1.95
25.8690,0.08,0.12,-0.99,3.05,3.60,1.95
25.8850,0.08,0.12,-0.99,3.11,3.91,1.95
25.9010,0.08,0.12,-0.99,3.23,3.48,2.01
25.9160,0.08,0.12,-0.99,3.11,3.66,1.95
25.9310,0.08,0.12,-0.99,3.17,3.85,2.01
25.9460,0.08,0.12,-0.98,3.11,3.66,2.14
25.9530,0.08,0.12,-0.98,3.11,3.66,2.08
25.9760,0.08,0.12,-0.99,3.05,4.03,2.01
25.9870,0.08,0.12,-0.99,3.05,3.91,2.14
26.0040,0.08,0.12,-0.98,3.17,3.78,2.14
26.0210,0.08,0.12,-0.99,2.99,3.60,2.08
26.0370,0.08,0.12,-0.99,3.11,3.72,1.89
26.0520,0.08,0.12,-0.99,2.99,4.03,2.01
26.0690,0.08,0.12,-0.98,3.05,3.91,1.95
26.0840,0.08,0.13,-0.99,3.17,3.78,1.95
26.0870,0.09,0.13,-0.98,3.30,4.03,2.01
26.1030,0.08,0.13,-0.98,3.05,3.54,2.87
26.1240,0.08,0.13,-0.98,2.81,3.54,4.15
26.1420,0.08,0.12,-0.99,3.11,3.23,3.66
26.1580,0.08,0.12,-0.99,2.93,3.72,3.05
26.1770,0.08,0.12,-0.99,2.99,3.72,3.05
26.1920,0.08,0.12,-0.99,3.11,3.78,2.56
26.2080,0.08,0.11,-0.99,2.93,3.91,2.20
26.2240,0.08,0.12,-0.98,3.05,3.66,1.95
26.2400,0.08,0.12,-0.99,3.05,4.09,2.01
26.2560,0.08,0.12,-0.99,3.30,3.78,2.01
26.2720,0.08,0.12,-0.98,3.11,4.03,2.08
26.2770,0.08,0.12,-0.99,3.17,3.97,2.01
26.2890,0.08,0.12,-0.99,3.11,3.66,2.32
26.3170,0.08,0.12,-0.98,3.30,3.48,2.01
26.3280,0.08,0.12,-0.99,3.11,3.97,2.01
26.3450,0.08,0.12,-0.99,3.05,3.78,2.08
26.3630,0.08,0.12,-0.98,3.17,3.60,2.08
26.3780,0.08,0.12,-0.98,3.17,3.97,2.08
26.3940,0.08,0.12,-0.99,3.11,3.91,2.01
26.4100,0.08,0.12,-0.99,3.11,3.97,2.08
26.4260,0.08,0.12,-0.99,2.99,3.91,2.14
26.4420,0.08,0.12,-0.99,3.05,3.60,2.08
26.4450,0.08,0.12,-0.99,2.93,3.72,2.08
26.4600,0.08,0.12,-0.98,3.05,3.60,2.08
26.4840,0.08,0.12,-0.98,3.05,3.66,2.08
26.5000,0.09,0.12,-0.98,3.23,4.15,2.01
26.5170,0.09,0.13,-0.98,3.36,3.97,1.22
26.5330,0.08,0.13,-0.98,3.17,4.03,0.98
26.5490,0.08,0.13,-0.99,2.93,3.91,1.40
26.5640,0.08,0.13,-0.98,3.05,3.97,1.71
26.5820,0.08,0.13,-0.98,3.30,3.60,1.95
26.5970,0.08,0.13,-0.98,3.05,3.54,2.44
26.6010,0.07,0.13,-0.98,2.99,3.60,2.75
26.6170,0.08,0.12,-0.99,2.93,3.66,3.42
26.6380,0.08,0.13,-0.98,2.93,3.66,3.36
26.6550,0.08,0.12,-0.99,2.87,3.78,3.17
26.6720,0.08,0.13,-0.98,3.05,3.60,3.30
26.6880,0.08,0.12,-0.99,2.87,3.91,3.11
26.7050,0.08,0.12,-0.99,3.05,3.48,3.17
26.7220,0.08,0.11,-0.99,2.93,3.60,2.99
26.7380,0.08,0.11,-0.99,2.99,3.66,2.26
26.7540,0.08,0.11,-0.99,3.05,3.48,2.50
26.7690,0.08,0.11,-0.99,3.05,3.54,2.56
26.7850,0.08,0.11,-0.99,2.93,4.03,1.83
26.8010,0.08,0.11,-0.99,3.11,3.78,1.89
26.8170,0.08,0.12,-0.99,3.17,3.72,1.95
26.8310,0.08,0.12,-0.99,3.23,3.78,2.01
26.8460,0.08,0.12,-0.98,2.99,3.78,1.89
26.8610,0.08,0.12,-0.99,2.93,3.91,2.08
26.8710,0.08,0.12,-0.99,3.36,3.85,2.01
26.8880,0.08,0.12,-0.99,3.11,3.97,2.20
26.9040,0.08,0.12,-0.98,3.17,3.97,1.83
26.9210,0.08,0.12,-0.98,3.11,3.78,2.01
26.9380,0.08,0.12,-0.99,3.23,3.54,1.95
26.9540,0.08,0.12,-0.99,3.11,3.60,2.08
26.9700,0.08,0.12,-0.98,3.11,3.66,1.95
26.9860,0.08,0.12,-0.98,3.23,3.97,1.83
27.0020,0.08,0.12,-0.99,3.23,3.78,2.01
27.0180,0.08,0.12,-0.99,3.05,3.72,2.01
27.0340,0.08,0.12,-0.98,3.11,3.78,2.14
27.0380,0.08,0.12,-0.98,3.23,3.66,1.83
27.0530,0.08,0.12,-0.99,3.17,4.09,1.89
27.0770,0.08,0.12,-0.98,3.17,3.78,1.83
27.0910,0.08,0.13,-0.98,3.17,3.72,1.59
27.1090,0.08,0.12,-0.98,3.11,3.97,1.59
27.1240,0.08,0.12,-0.98,3.17,4.09,1.71
27.1420,0.08,0.12,-0.99,3.17,3.85,1.59
27.1570,0.08,0.12,-0.99,3.05,3.78,1.71
27.1590,0.08,0.12,-0.99,3.23,3.72,1.77
27.1890,0.08,0.12,-0.98,3.11,3.91,1.59
27.1920,0.08,0.13,-0.99,2.99,3.97,1.53
27.2070,0.08,0.13,-0.98,3.23,3.66,1.46
27.2230,0.08,0.13,-0.98,3.17,3.91,1.95
27.2460,0.08,0.13,-0.98,3.05,3.72,3.11
27.2630,0.08,0.13,-0.98,3.05,3.48,3.30
27.2800,0.08,0.13,-0.98,3.11,3.23,3.54
27.2950,0.08,0.13,-0.99,2.93,3.60,3.78
27.3130,0.08,0.13,-0.98,2.75,3.48,3.85
27.3290,0.08,0.13,-0.98,2.93,3.36,4.09
27.3320,0.08,0.13,-0.98,2.93,3.36,4.15
27.3590,0.08,0.12,-0.98,2.81,3.54,4.15
27.3750,0.08,0.12,-0.98,2.81,3.60,4.15
27.3910,0.08,0.11,-0.99,2.99,3.23,4.76
27.4060,0.08,0.10,-0.99,2.99,3.54,3.91
27.4210,0.08,0.09,-0.99,2.81,3.66,3.17
27.4330,0.08,0.09,-0.99,3.11,3.72,2.20
27.4490,0.07,0.10,-0.99,2.99,3.91,1.53
27.4670,0.08,0.12,-0.99,3.23,3.66,1.89
27.4830,0.08,0.12,-0.99,3.11,3.91,1.95
27.4990,0.08,0.12,-0.99,3.11,3.91,2.08
27.5020,0.08,0.12,-0.99,3.05,3.78,2.01
27.5180,0.08,0.12,-0.99,3.17,3.66,2.08
27.5390,0.08,0.12,-0.99,3.05,3.66,2.08
27.5560,0.08,0.12,-0.99,3.05,3.60,2.01
27.5720,0.08,0.12,-0.99,3.05,3.85,1.95
27.5910,0.08,0.12,-0.99,3.17,3.78,2.01
27.6070,0.08,0.12,-0.99,2.99,3.72,1.95
27.6090,0.08,0.12,-0.98,3.05,3.78,1.89
27.6380,0.08,0.12,-0.99,3.05,4.03,1.89
27.6540,0.08,0.12,-0.98,3.05,3.97,2.01
27.6690,0.08,0.12,-0.98,3.11,3.72,1.95
27.6840,0.08,0.12,-0.98,3.30,3.85,2.01
27.6950,0.08,0.12,-0.98,3.23,3.72,1.95
27.7110,0.08,0.12,-0.99,3.30,4.03,2.14
27.7270,0.08,0.12,-0.99,3.11,3.91,2.14
27.7440,0.08,0.12,-0.99,2.99,3.85,1.95
27.7600,0.08,0.12,-0.99,3.05,3.72,2.14
27.7770,0.08,0.12,-0.98,3.05,3.97,2.14
27.7920,0.08,0.12,-0.99,3.23,3.91,2.26
27.8090,0.08,0.12,-0.98,3.17,3.60,2.14
27.8250,0.08,0.12,-0.98,3.05,3.72,1.95
27.8410,0.08,0.12,-0.99,2.87,3.91,1.95
27.8570,0.08,0.12,-0.98,3.11,3.91,2.08
27.8610,0.08,0.12,-0.99,3.05,3.72,2.08
27.8780,0.08,0.12,-0.99,3.17,3.72,2.01
27.9000,0.08,0.12,-0.99,3.17,3.78,2.14
27.9170,0.08,0.12,-0.99,3.17,3.97,2.14
27.9330,0.08,0.12,-0.99,3.30,3.78,2.14
27.9510,0.08,0.12,-0.98,3.05,3.85,2.08
27.9660,0.08,0.12,-0.99,3.05,3.72,2.01
27.9820,0.08,0.12,-0.98,3.23,3.85,2.08
27.9970,0.08,0.12,-0.98,3.30,3.97,2.14
28.0130,0.08,0.12,-0.98,3.30,3.66,2.20
28.0290,0.08,0.12,-0.99,3.23,3.54,2.08
28.0330,0.08,0.12,-0.99,2.93,3.54,2.08
28.0490,0.08,0.12,-0.99,3.17,3.60,1.95
28.0760,0.08,0.12,-0.99,3.05,3.85,2.20
28.0870,0.08,0.12,-0.99,3.17,3.72,1.95
28.1030,0.08,0.12,-0.99,3.23,4.15,1.95
28.1200,0.08,0.12,-0.99,3.23,3.85,2.14
28.1360,0.08,0.12,-0.98,2.99,4.15,2.01
28.1530,0.08,0.12,-0.98,3.11,3.91,2.08
28.1700,0.08,0.12,-0.99,3.05,3.97,2.08
28.1850,0.08,0.12,-0.99,3.17,3.72,2.01
28.2020,0.08,0.12,-0.99,3.17,3.97,2.01
28.2180,0.08,0.12,-0.98,3.05,3.85,1.95
28.2340,0.08,0.12,-0.99,3.11,3.66,1.83
28.2500,0.08,0.12,-0.98,3.17,3.78,2.01
28.2650,0.08,0.12,-0.99,3.23,4.03,1.95
28.2800,0.08,0.12,-0.99,3.05,3.97,1.83
28.2960,0.08,0.13,-0.99,3.30,3.91,1.71
28.3030,0.08,0.12,-0.99,3.17,3.97,1.46
28.3190,0.08,0.12,-0.99,3.23,3.66,1.65
28.3410,0.08,0.12,-0.99,3.05,3.66,1.89
28.3570,0.08,0.12,-0.99,3.05,3.85,1.89
28.3730,0.08,0.12,-0.99,3.36,3.66,1.83
28.3890,0.08,0.12,-0.98,3.36,3.78,1.59
28.4050,0.08,0.12,-0.99,3.05,3.72,1.53
28.4070,0.07,0.13,-0.98,3.30,3.66,2.01
28.4220,0.07,0.13,-0.98,3.17,3.85,2.26
28.4460,0.08,0.13,-0.99,3.23,3.54,2.56
28.4630,0.08,0.13,-0.98,3.11,3.72,2.69
28.4800,0.08,0.12,-0.99,3.05,3.42,3.23
28.4960,0.08,0.11,-0.99,3.05,3.54,2.08
28.5110,0.08,0.12,-0.98,2.99,3.60,2.69
28.5260,0.09,0.11,-0.99,2.93,3.42,2.81
28.5410,0.09,0.11,-0.99,3.05,3.54,2.87
28.5550,0.08,0.12,-0.99,3.11,3.60,2.50
28.5710,0.08,0.12,-0.99,3.11,3.85,2.20
28.5860,0.08,0.12,-0.99,3.11,4.09,2.01
28.6010,0.08,0.12,-0.98,3.11,3.66,2.01
28.6120,0.08,0.12,-0.98,2.99,3.72,1.89
28.6280,0.08,0.12,-0.99,3.11,3.54,2.08
28.6450,0.08,0.12,-0.99,2.99,3.78,2.08
28.6600,0.08,0.12,-0.98,2.99,3.66,2.20
28.6760,0.08,0.12,-0.98,3.11,4.09,2.20
28.6920,0.08,0.12,-0.98,2.99,3.78,2.20
28.7070,0.08,0.12,-0.99,3.11,3.60,2.01
28.7220,0.08,0.12,-0.98,3.17,3.85,2.20
28.7370,0.08,0.12,-0.99,3.30,3.78,2.08
28.7520,0.08,0.12,-0.99,3.05,4.03,2.08
28.7620,0.08,0.12,-0.99,3.05,3.85,1.95
28.7790,0.08,0.12,-0.99,3.11,3.78,2.01
28.7960,0.08,0.12,-0.99,3.23,3.97,2.08
28.8120,0.08,0.12,-0.99,3.11,3.72,1.89
28.8280,0.08,0.12,-0.98,3.05,3.78,2.01
28.8440,0.08,0.12,-0.98,3.23,3.78,1.95
28.8600,0.08,0.12,-0.99,3.17,4.09,2.01
28.8760,0.08,0.12,-0.98,3.30,3.72,2.01
28.8920,0.08,0.12,-0.99,3.17,3.78,2.08
28.9090,0.08,0.12,-0.98,3.30,3.85,2.01
28.9250,0.08,0.12,-0.98,3.05,4.03,2.14
28.9410,0.08,0.12,-0.99,3.05,3.91,2.01
28.9570,0.08,0.12,-0.99,3.30,3.85,2.14
28.9630,0.08,0.12,-0.99,3.17,3.85,1.89
28.9880,0.08,0.12,-0.98,3.23,3.85,2.14
29.0020,0.08,0.12,-0.99,3.30,3.54,1.95
29.0170,0.08,0.12,-0.99,3.17,4.03,1.89
29.0290,0.08,0.12,-0.99,3.05,3.91,1.83
29.0450,0.08,0.12,-0.99,3.30,3.60,1.65
29.0640,0.08,0.12,-0.98,3.17,4.03,1.89
29.0790,0.08,0.12,-0.99,3.23,4.09,1.95
29.0840,0.08,0.12,-0.99,3.05,3.78,1.89
29.1000,0.08,0.12,-0.98,3.11,3.78,1.83
29.1230,0.08,0.12,-0.99,3.17,3.78,1.71
29.1400,0.08,0.12,-0.98,3.23,3.91,1.95
29.1560,0.08,0.12,-0.99,2.93,4.03,1.71
29.1720,0.08,0.12,-0.99,3.11,3.66,1.77
29.1890,0.08,0.12,-0.99,3.17,3.97,1.95
29.2050,0.08,0.12,-0.99,3.17,3.60,1.89
29.2210,0.08,0.12,-0.98,3.05,3.72,1.95
29.2230,0.08,0.12,-0.98,3.30,3.85,1.77
29.2390,0.08,0.12,-0.98,3.23,3.85,1.89
29.2620,0.08,0.12,-0.98,3.23,3.85,2.01
29.2790,0.08,0.12,-0.99,3.30,3.72,1.89
29.2950,0.08,0.12,-0.98,3.17,3.78,1.71
29.3110,0.08,0.13,-0.99,3.11,4.09,1.40
29.3280,0.08,0.13,-0.98,3.17,4.09,1.34
29.3430,0.08,0.13,-0.98,3.11,4.09,1.28
29.3590,0.08,0.12,-0.99,3.23,3.85,1.65
29.3750,0.08,0.12,-0.98,3.17,3.91,2.01
29.3910,0.08,0.13,-0.98,2.99,3.60,2.01
29.4070,0.08,0.13,-0.98,3.11,3.78,2.26
29.4230,0.08,0.12,-0.99,2.99,3.60,2.87
29.4370,0.08,0.12,-0.99,3.11,3.97,2.75
29.4460,0.08,0.12,-0.99,3.05,3.54,2.38
29.4610,0.08,0.12,-0.99,3.17,3.72,2.08
29.4830,0.08,0.13,-0.98,2.87,4.03,2.01
29.4980,0.08,0.13,-0.98,3.11,3.78,2.20
29.5130,0.08,0.12,-0.99,3.17,3.54,2.38
29.5290,0.08,0.11,-0.99,3.11,3.85,2.69
29.5450,0.08,0.11,-0.99,3.17,3.54,2.50
29.5510,0.08,0.11,-0.99,3.05,3.97,2.32
29.5670,0.08,0.11,-0.99,3.05,3.85,2.26
29.5830,0.08,0.12,-0.99,3.05,3.54,1.89
29.6030,0.08,0.12,-0.98,3.11,3.91,1.95
29.6200,0.08,0.12,-0.98,3.11,3.54,2.01
29.6380,0.08,0.12,-0.98,3.05,3.97,2.01
29.6540,0.08,0.12,-0.98,3.11,3.72,2.14
29.6700,0.08,0.12,-0.99,2.99,3.60,1.95
29.6860,0.08,0.12,-0.99,3.23,3.72,2.08
29.7020,0.08,0.12,-0.98,3.23,3.78,2.01
29.7170,0.08,0.12,-0.99,3.11,3.85,2.01
29.7320,0.08,0.12,-0.98,2.93,3.72,1.83
29.7360,0.08,0.12,-0.99,3.23,3.91,2.01
29.7520,0.08,0.12,-0.98,3.11,3.85,2.01
29.7750,0.08,0.12,-0.98,3.05,3.78,2.01
29.7910,0.08,0.12,-0.99,3.11,3.85,2.08
29.8090,0.08,0.12,-0.98,3.23,3.85,2.01
29.8250,0.08,0.12,-0.99,3.17,3.66,1.95
29.8410,0.09,0.12,-0.98,3.48,3.72,1.95
29.8590,0.09,0.13,-0.98,3.30,3.66,1.34
29.8750,0.08,0.12,-0.98,2.99,3.78,1.46
29.8910,0.08,0.12,-0.99,3.36,3.85,1.83
29.8920,0.08,0.13,-0.98,3.05,3.60,1.77
29.9100,0.08,0.12,-0.99,3.23,3.85,2.08
29.9250,0.08,0.13,-0.98,3.11,3.85,2.20
29.9410,0.08,0.13,-0.98,2.99,3.91,2.08
29.9630,0.08,0.13,-0.98,2.93,3.54,2.44
29.9800,0.08,0.12,-0.99,3.17,3.78,2.75
29.9970,0.08,0.12,-0.99,2.87,3.85,2.75
30.0140,0.08,0.12,-0.99,2.87,3.85,2.56
30.0300,0.07,0.12,-0.99,2.99,3.66,2.50
30.0460,0.08,0.12,-0.99,2.93,3.91,2.01
30.0620,0.08,0.12,-0.99,2.99,3.72,1.89
30.0780,0.08,0.11,-0.99,3.17,3.97,2.01
30.0950,0.08,0.12,-0.98,3.17,3.72,1.95
30.1110,0.08,0.12,-0.99,3.05,4.03,2.08
30.1260,0.08,0.12,-0.99,3.05,3.97,1.89
30.1420,0.08,0.12,-0.98,3.17,3.85,1.95
30.1580,0.08,0.12,-0.98,2.93,3.91,1.89
30.1730,0.08,0.12,-0.99,3.05,3.66,1.89
30.1800,0.08,0.12,-0.99,3.11,3.91,1.95
30.1960,0.08,0.12,-0.99,3.30,3.85,1.95
30.2180,0.08,0.12,-0.98,3.05,3.85,1.83
30.2350,0.08,0.12,-0.99,2.93,3.97,1.95
30.2500,0.08,0.12,-0.99,3.17,3.72,1.89
30.2660,0.08,0.12,-0.98,3.11,3.66,2.08
30.2810,0.08,0.12,-0.99,3.17,3.78,2.01
30.2960,0.08,0.12,-0.99,3.05,3.72,1.95
30.3120,0.08,0.12,-0.99,2.87,3.97,2.01
30.3280,0.08,0.12,-0.98,3.11,4.03,1.95
30.3430,0.08,0.12,-0.99,2.93,3.78,2.01
30.3580,0.08,0.12,-0.98,3.11,3.72,1.95
30.3730,0.08,0.12,-0.99,3.05,3.91,2.01
30.3850,0.08,0.12,-0.99,3.11,3.54,1.95
30.4010,0.08,0.12,-0.99,2.93,3.78,1.71
30.4180,0.08,0.13,-0.99,3.23,3.66,1.65
30.4340,0.08,0.14,-0.98,3.11,3.91,1.46
30.4510,0.08,0.13,-0.98,3.42,4.15,-0.43
30.4660,0.07,0.14,-0.98,3.23,3.72,0.31
30.4820,0.08,0.13,-0.98,3.17,3.85,1.89
30.4970,0.09,0.13,-0.98,3.11,3.48,3.72
30.5130,0.08,0.13,-0.98,2.99,3.85,3.17
30.5290,0.08,0.13,-0.98,3.23,3.72,3.48
30.5440,0.08,0.13,-0.98,3.05,4.03,3.30
30.5510,0.08,0.11,-0.99,3.05,4.09,3.05
30.5670,0.08,0.11,-0.99,3.17,3.54,2.44
30.5870,0.08,0.11,-0.99,2.99,4.09,2.20
30.6040,0.08,0.11,-0.99,2.93,3.66,2.20
30.6200,0.08,0.10,-0.99,3.17,4.03,1.71
30.6370,0.08,0.12,-0.99,3.11,4.03,1.53
30.6540,0.08,0.12,-0.98,3.05,3.85,1.83
30.6700,0.08,0.12,-0.99,3.05,3.66,1.95
30.6860,0.08,0.12,-0.98,2.93,3.60,1.95
30.7020,0.08,0.12,-0.98,3.17,4.03,1.77
30.7190,0.08,0.12,-0.99,3.05,3.97,1.77
30.7210,0.08,0.12,-0.99,3.17,3.54,1.65
30.7370,0.08,0.12,-0.99,3.11,3.85,1.89
30.7600,0.08,0.12,-0.98,3.05,3.48,1.89
30.7770,0.08,0.12,-0.98,3.17,3.42,1.83
30.7950,0.08,0.12,-0.98,3.05,3.72,1.77
30.8100,0.08,0.12,-0.99,3.23,3.72,1.71
30.8260,0.08,0.12,-0.98,2.99,3.85,1.53
30.8430,0.08,0.12,-0.99,3.05,3.78,1.53
30.8580,0.08,0.12,-0.98,3.11,3.66,1.59
30.8750,0.08,0.12,-0.98,3.17,3.97,1.59
30.8810,0.08,0.12,-0.99,3.11,3.97,1.77
30.9060,0.08,0.12,-0.99,3.11,3.72,1.77
30.9220,0.08,0.12,-0.99,3.17,3.72,1.89
30.9380,0.08,0.12,-0.99,3.23,3.85,2.14
30.9430,0.08,0.12,-0.99,3.11,3.72,1.95
30.9590,0.08,0.12,-0.99,3.05,3.66,2.01
30.9810,0.08,0.12,-0.99,3.17,3.85,1.89
30.9930,0.08,0.12,-0.99,3.11,3.78,1.95
31.0080,0.08,0.12,-0.99,3.17,3.97,2.01
31.0280,0.08,0.12,-0.99,3.17,3.85,1.95
31.0320,0.08,0.12,-0.99,3.05,3.85,1.83
31.0490,0.08,0.12,-0.98,3.36,4.15,2.14
31.0650,0.08,0.12,-0.98,3.48,3.78,2.01
31.0870,0.08,0.12,-0.99,3.17,4.09,2.01
31.1050,0.08,0.12,-0.98,3.11,3.78,2.01
31.1200,0.08,0.12,-0.99,3.23,3.78,2.14
31.1360,0.08,0.12,-0.98,3.05,3.91,2.20
31.1530,0.08,0.12,-0.99,3.17,3.78,2.01
31.1690,0.08,0.12,-0.98,3.11,3.72,2.01
31.1810,0.08,0.12,-0.98,3.23,3.85,1.95
31.1860,0.08,0.12,-0.99,3.23,3.72,1.95
31.2090,0.08,0.12,-0.98,3.17,3.85,1.95
31.2270,0.08,0.12,-0.99,3.30,4.09,2.08
31.2430,0.08,0.12,-0.99,3.11,3.97,2.01
31.2590,0.08,0.13,-0.98,2.93,3.78,1.83
31.2750,0.08,0.13,-0.98,3.11,3.91,1.65
31.2920,0.08,0.14,-0.98,3.05,3.85,1.59
31.2930,0.08,0.13,-0.99,3.17,4.03,2.20
31.3090,0.08,0.13,-0.98,3.05,3.60,3.66
31.3400,0.08,0.13,-0.98,2.87,3.78,3.54
31.3420,0.08,0.12,-0.98,2.99,3.72,3.78
31.3600,0.08,0.12,-0.99,3.05,3.54,3.60
31.3820,0.08,0.12,-0.99,2.99,3.91,2.87
31.3920,0.08,0.12,-0.98,3.11,3.91,3.05
31.4100,0.08,0.11,-0.99,3.05,3.60,3.54
31.4250,0.08,0.10,-0.99,3.11,3.54,2.69
31.4410,0.08,0.10,-0.99,3.17,4.09,2.50
31.4630,0.08,0.11,-0.99,3.23,4.03,1.95
31.4790,0.08,0.12,-0.99,3.05,3.97,2.08
31.4950,0.08,0.12,-0.99,3.05,3.78,2.01
31.5120,0.08,0.12,-0.99,3.05,4.09,2.20
31.5280,0.08,0.12,-0.99,3.23,3.91,2.08
31.5440,0.08,0.12,-0.98,3.23,3.60,2.14
31.5600,0.08,0.12,-0.98,3.11,3.78,2.08
31.5750,0.08,0.12,-0.98,3.17,3.72,2.01
31.5910,0.08,0.12,-0.98,3.11,3.72,2.08
31.6070,0.08,0.12,-0.99,3.05,3.91,2.08
31.6230,0.08,0.12,-0.98,2.87,3.97,2.01
31.6400,0.08,0.12,-0.99,3.23,3.66,2.01
31.6460,0.08,0.12,-0.98,3.05,3.85,2.08
31.6700,0.08,0.12,-0.99,2.99,3.78,2.14
31.6860,0.08,0.12,-0.98,3.23,3.97,1.95
31.7010,0.08,0.12,-0.99,3.11,3.97,2.08
31.7130,0.08,0.12,-0.99,3.11,3.91,2.08
31.7290,0.08,0.12,-0.98,3.05,3.78,1.95
31.7470,0.08,0.12,-0.98,3.11,3.78,2.14
31.7620,0.08,0.12,-0.98,2.99,3.78,2.14
31.7790,0.08,0.12,-0.99,3.05,4.03,2.01
31.7950,0.08,0.12,-0.99,3.05,3.91,2.01
31.8110,0.08,0.12,-0.98,2.99,3.85,2.08
31.8250,0.08,0.12,-0.98,3.36,4.03,2.08
31.8410,0.08,0.12,-0.99,3.23,4.15,2.01
31.8560,0.08,0.12,-0.99,3.36,3.97,2.08
31.8670,0.08,0.12,-0.99,3.11,3.91,2.08
31.8840,0.08,0.12,-0.99,3.11,3.97,2.26
31.9010,0.08,0.12,-0.99,3.05,3.78,1.95
31.9170,0.08,0.12,-0.98,3.11,3.85,1.89
31.9340,0.08,0.12,-0.99,3.23,3.66,2.01
31.9500,0.08,0.12,-0.99,3.23,4.21,1.95
31.9660,0.08,0.12,-0.98,3.17,3.91,2.01
31.9810,0.08,0.12,-0.98,3.05,4.03,2.01
31.9980,0.08,0.12,-0.99,3.11,3.97,2.01
32.0130,0.08,0.12,-0.98,3.11,3.97,2.08
32.0290,0.08,0.12,-0.98,3.23,3.72,1.89
32.0330,0.08,0.12,-0.99,3.17,4.09,2.08
32.0490,0.08,0.12,-0.98,3.23,3.85,2.08
32.0730,0.08,0.12,-0.99,3.17,4.03,2.08
32.0910,0.08,0.12,-0.99,3.17,3.72,2.26
32.1070,0.08,0.12,-0.98,3.11,3.48,2.08
32.1220,0.08,0.12,-0.99,3.30,3.91,2.08
32.1380,0.08,0.12,-0.99,3.17,3.78,2.08
32.1530,0.08,0.12,-0.99,3.23,3.72,2.01
32.1580,0.08,0.12,-0.99,3.17,3.72,2.01
32.1830,0.08,0.12,-0.99,3.23,3.66,1.89
32.1970,0.08,0.12,-0.98,3.42,3.78,2.14
32.2130,0.08,0.12,-0.99,3.17,3.85,1.95
32.2290,0.08,0.12,-0.99,2.99,3.72,2.14
32.2450,0.08,0.12,-0.98,2.93,3.91,1.95
32.2470,0.08,0.12,-0.99,3.05,3.78,2.08
32.2630,0.08,0.12,-0.99,3.11,3.60,2.01
32.2870,0.08,0.12,-0.99,3.36,4.15,2.08
32.3030,0.08,0.12,-0.98,3.11,3.48,2.01
32.3200,0.08,0.12,-0.98,3.17,3.72,2.01
32.3370,0.08,0.12,-0.99,3.11,3.78,2.08
32.3530,0.08,0.12,-0.99,3.11,4.09,2.14
32.3680,0.08,0.12,-0.99,3.11,3.78,1.95
32.3840,0.08,0.12,-0.99,3.11,4.03,2.14
32.3990,0.08,0.12,-0.99,3.11,3.54,2.08
32.4140,0.08,0.12,-0.99,3.23,3.85,2.14
32.4290,0.08,0.12,-0.98,3.05,3.85,2.08
32.4360,0.08,0.12,-0.99,3.05,4.21,2.08
32.4520,0.08,0.12,-0.98,3.23,3.97,2.08
32.4740,0.08,0.12,-0.98,3.30,3.97,2.01
32.4840,0.08,0.12,-0.98,3.42,3.78,2.14
32.5050,0.12,0.16,-0.97,3.05,3.66,2.08
32.5210,0.08,0.15,-0.98,2.93,3.36,4.21
32.5380,0.08,0.15,-0.98,2.75,2.99,5.13
32.5400,0.08,0.14,-0.98,2.99,3.66,4.76
32.5690,0.09,0.14,-0.98,2.87,3.60,4.82
32.5860,0.08,0.14,-0.98,2.93,3.17,5.19
32.6010,0.08,0.13,-0.98,2.93,3.17,5.31
32.6150,0.07,0.12,-0.99,2.75,3.36,5.49
32.6240,0.07,0.11,-0.99,2.81,3.05,4.76
32.6400,0.08,0.11,-0.99,2.87,3.72,4.39
32.6580,0.08,0.10,-0.99,2.99,3.23,4.46
32.6730,0.08,0.08,-0.99,3.05,3.91,3.17
32.6910,0.08,0.11,-0.99,3.17,4.03,2.20
32.7080,0.07,0.09,-0.99,3.23,3.48,2.87
32.7230,0.08,0.12,-0.99,3.23,3.78,2.08
32.7410,0.08,0.12,-0.99,3.30,3.91,2.08
32.7570,0.08,0.12,-0.99,3.11,3.66,2.32
32.7730,0.08,0.12,-0.99,3.23,3.60,2.14
32.7840,0.08,0.12,-0.99,3.17,3.91,2.08
32.7910,0.08,0.12,-0.99,3.05,3.72,2.08
32.8190,0.08,0.12,-0.98,3.05,3.66,2.08
32.8340,0.08,0.12,-0.98,2.87,3.91,2.01
32.8510,0.08,0.12,-0.99,2.99,3.85,2.01
32.8660,0.08,0.12,-0.98,3.05,3.85,2.20
32.8820,0.08,0.12,-0.98,2.93,3.42,2.01
32.8900,0.08,0.12,-0.98,3.11,3.54,2.08
32.9050,0.08,0.12,-0.98,3.23,3.60,1.95
32.9250,0.08,0.12,-0.99,3.05,3.72,2.01
32.9430,0.08,0.12,-0.99,2.99,3.66,1.95
32.9580,0.08,0.12,-0.99,3.05,3.97,2.14
32.9750,0.08,0.12,-0.99,3.23,4.03,2.20
32.9910,0.08,0.12,-0.99,3.23,3.97,2.14
33.0060,0.08,0.12,-0.98,2.99,3.91,2.01
33.0080,0.08,0.12,-0.99,2.99,4.03,2.08
33.0380,0.08,0.12,-0.99,3.11,3.97,2.08
33.0420,0.08,0.12,-0.99,3.23,4.21,1.95
33.0570,0.08,0.12,-0.99,3.30,3.60,2.08
33.0840,0.08,0.12,-0.99,3.05,3.72,2.01
33.0950,0.08,0.12,-0.99,3.23,3.97,1.95
33.1130,0.08,0.12,-0.99,2.87,3.66,2.01
33.1290,0.08,0.12,-0.99,3.05,4.03,2.08
33.1450,0.08,0.12,-0.99,3.11,3.78,2.08
33.1610,0.08,0.12,-0.99,3.05,3.97,2.08
33.1760,0.08,0.12,-0.98,3.05,3.72,2.01
33.1930,0.08,0.12,-0.99,3.11,3.91,2.01
33.2080,0.08,0.12,-0.98,3.11,3.78,2.01
33.2240,0.08,0.12,-0.98,3.11,3.85,2.08
33.2400,0.08,0.12,-0.99,3.30,3.91,2.01
33.2560,0.08,0.12,-0.99,3.17,3.72,2.14
33.2630,0.08,0.12,-0.98,3.36,3.48,2.01
33.2840,0.08,0.12,-0.99,3.30,3.97,2.08
33.3010,0.08,0.12,-0.99,3.11,3.91,2.01
33.3170,0.08,0.12,-0.99,3.05,3.66,1.95
33.3340,0.08,0.12,-0.98,3.17,4.21,1.95
33.3500,0.08,0.12,-0.99,2.93,4.09,1.95
33.3660,0.08,0.12,-0.98,3.17,3.78,2.08
33.3820,0.08,0.12,-0.99,3.05,4.03,2.01
33.3980,0.08,0.12,-0.98,3.11,3.66,1.95
33.4130,0.08,0.12,-0.99,3.17,3.66,2.14
33.4290,0.08,0.12,-0.99,2.93,3.72,2.14
33.4330,0.08,0.12,-0.98,3.11,3.66,2.01
33.4490,0.08,0.12,-0.98,3.30,3.66,1.95
33.4720,0.08,0.12,-0.99,3.30,3.60,2.01
33.4890,0.08,0.12,-0.98,3.30,3.48,1.83
33.5070,0.08,0.12,-0.99,2.93,3.97,2.01
33.5220,0.08,0.12,-0.99,3.11,3.85,2.01
33.5380,0.08,0.12,-0.99,3.11,4.03,1.89
33.5540,0.08,0.12,-0.99,3.23,3.72,2.08
33.5710,0.08,0.12,-0.99,3.11,4.03,1.89
33.5850,0.08,0.12,-0.99,3.11,4.27,2.08
33.5890,0.08,0.12,-0.99,3.05,3.91,1.89
33.6050,0.08,0.12,-0.98,3.11,3.91,2.08
33.6220,0.08,0.12,-0.98,3.11,4.09,2.01
33.6380,0.08,0.12,-0.99,3.17,3.91,2.01
33.6600,0.08,0.12,-0.98,3.11,3.85,2.08
33.6750,0.08,0.12,-0.99,3.11,3.78,2.08
33.6940,0.08,0.12,-0.99,3.23,3.54,2.08
33.7090,0.08,0.12,-0.99,3.23,3.72,1.83
33.7270,0.08,0.12,-0.99,3.11,3.91,1.95
33.7420,0.08,0.12,-0.98,3.05,3.97,2.01
33.7590,0.08,0.12,-0.98,3.17,3.54,2.01
33.7750,0.08,0.12,-0.99,3.23,4.03,2.14
33.7910,0.08,0.12,-0.98,3.17,3.85,2.01
33.8070,0.08,0.12,-0.98,3.11,3.85,2.01
33.8230,0.08,0.12,-0.99,3.05,3.78,2.08
33.8380,0.08,0.12,-0.99,3.05,3.66,1.95
33.8550,0.08,0.12,-0.99,3.30,3.97,2.01
33.8700,0.08,0.12,-0.99,3.17,4.03,2.08
33.8760,0.08,0.12,-0.99,3.23,3.78,2.08
33.8920,0.08,0.12,-0.98,3.11,3.66,2.01
33.9140,0.08,0.12,-0.99,3.11,3.78,2.01
33.9300,0.08,0.12,-0.98,3.17,3.54,1.95
33.9450,0.08,0.12,-0.98,3.23,3.85,2.08
33.9620,0.08,0.12,-0.99,3.30,3.78,2.01
33.9780,0.08,0.12,-0.99,3.30,3.91,1.95
33.9930,0.08,0.12,-0.99,3.23,4.09,2.08
34.0100,0.08,0.12,-0.99,3.17,4.03,2.01
34.0260,0.08,0.12,-0.99,3.05,3.97,2.08
34.0420,0.08,0.12,-0.99,3.23,3.78,2.01
34.0580,0.08,0.12,-0.98,2.87,3.78,2.01
34.0740,0.08,0.12,-0.99,3.23,3.91,1.89
34.0890,0.08,0.12,-0.99,3.11,3.91,2.01
34.1040,0.08,0.12,-0.99,3.11,3.97,2.08
34.1150,0.08,0.12,-0.99,3.05,3.97,2.08
34.1310,0.08,0.12,-0.98,3.17,3.91,2.01
34.1470,0.08,0.12,-0.99,3.23,3.54,2.01
34.1640,0.08,0.12,-0.99,3.30,3.78,1.89
34.1800,0.08,0.12,-0.99,3.05,4.09,1.83
34.1970,0.08,0.12,-0.98,3.97,4.58,-1.65
34.2130,0.09,0.12,-0.99,4.03,4.64,-1.46
34.2280,0.08,0.11,-0.99,3.42,4.09,0.00
34.2440,0.08,0.11,-0.98,3.91,4.70,-2.50
34.2590,0.08,0.13,-0.98,4.33,4.46,-2.75
34.2750,0.08,0.13,-0.99,3.72,3.91,0.31
34.2910,0.08,0.12,-0.98,3.54,4.21,1.28
34.3080,0.08,0.12,-0.98,3.17,3.78,1.89
34.3240,0.08,0.12,-0.99,3.17,3.91,1.89
34.3390,0.08,0.12,-0.99,2.93,3.60,1.89
34.3540,0.08,0.12,-0.99,2.87,3.66,1.83
34.3640,0.08,0.12,-0.98,2.75,3.66,1.53
34.3810,0.08,0.12,-0.99,3.48,4.21,0.98
34.3980,0.08,0.13,-0.99,3.78,4.09,0.43
34.4140,0.08,0.13,-0.99,3.54,3.97,0.98
34.4290,0.08,0.13,-0.99,3.11,3.97,1.40
34.4450,0.08,0.12,-0.98,2.99,3.97,1.83
34.4610,0.07,0.12,-0.99,2.99,4.03,1.40
34.4650,0.08,0.12,-0.98,3.30,3.91,1.04
34.4870,0.08,0.12,-0.99,3.05,4.03,1.46
34.5070,0.08,0.12,-0.99,3.23,4.03,1.34
34.5180,0.08,0.12,-0.99,3.23,4.03,1.34
34.5350,0.07,0.12,-0.99,3.30,3.72,0.98
34.5510,0.07,0.12,-0.99,3.23,3.85,0.79
34.5680,0.08,0.13,-0.98,3.23,4.03,0.67
34.5850,0.08,0.12,-0.99,3.30,3.91,0.98
34.6010,0.08,0.12,-0.99,3.30,4.09,1.10
34.6170,0.08,0.12,-0.99,3.30,3.78,0.85
34.6320,0.08,0.12,-0.99,3.36,4.03,0.79
34.6480,0.07,0.12,-0.99,3.23,4.15,0.98
34.6640,0.08,0.12,-0.99,3.05,4.03,0.79
34.6800,0.08,0.12,-0.99,3.05,3.78,1.04
34.6960,0.08,0.12,-0.99,3.11,3.78,1.46
34.7120,0.08,0.12,-0.98,3.23,3.85,1.04
34.7280,0.08,0.12,-0.99,3.23,4.09,0.61
34.7440,0.08,0.13,-0.98,3.17,3.91,0.37
34.7580,0.09,0.13,-0.98,3.30,4.03,1.40
34.7730,0.08,0.13,-0.98,3.17,3.91,1.83
34.7880,0.09,0.13,-0.98,3.30,3.72,1.89
34.8010,0.09,0.13,-0.98,3.11,3.97,1.83
34.8180,0.08,0.13,-0.98,3.05,3.72,1.83
34.8350,0.08,0.12,-0.98,3.17,3.78,1.95
34.8510,0.08,0.12,-0.98,3.36,3.85,2.01
34.8680,0.08,0.12,-0.99,3.30,3.91,1.83
34.8840,0.08,0.12,-0.98,3.11,3.78,2.01
34.9010,0.08,0.12,-0.98,2.99,3.91,2.08
34.9180,0.08,0.12,-0.98,3.17,3.66,2.08
34.9330,0.08,0.12,-0.98,3.23,3.72,2.01
34.9490,0.08,0.12,-0.98,3.05,3.72,2.01
34.9660,0.08,0.12,-0.99,3.36,4.03,2.14
34.9810,0.08,0.12,-0.99,3.11,3.85,1.95
34.9970,0.08,0.12,-0.99,3.17,3.72,1.95
35.0120,0.08,0.12,-0.98,3.11,3.91,2.08
35.0280,0.08,0.12,-0.98,2.99,4.03,2.01
35.0430,0.08,0.12,-0.99,3.11,3.66,2.14
35.0580,0.08,0.12,-0.99,3.05,3.97,2.08
35.0680,0.08,0.12,-0.99,3.17,3.91,2.08
35.0850,0.08,0.12,-0.99,3.17,4.09,2.01
35.1010,0.08,0.12,-0.99,3.17,3.97,2.08
35.1180,0.08,0.12,-0.99,3.30,4.03,2.08
35.1350,0.08,0.12,-0.98,3.23,3.60,2.14
35.1520,0.08,0.12,-0.98,3.17,3.97,2.01
35.1670,0.08,0.12,-0.98,3.23,3.97,2.01
35.1830,0.08,0.12,-0.98,3.11,3.97,1.83
35.2000,0.09,0.11,-0.99,3.36,3.97,1.59
35.2150,0.09,0.11,-0.99,3.66,4.39,-2.20
35.2320,0.08,0.12,-0.99,4.21,4.88,-3.85
35.2470,0.08,0.12,-0.99,4.03,4.39,-1.89
35.2510,0.08,0.13,-0.98,3.36,4.46,-0.67
35.2660,0.07,0.14,-0.98,3.36,4.15,0.61
35.2900,0.08,0.13,-0.98,3.17,3.85,1.89
35.3080,0.08,0.12,-0.99,3.17,3.85,1.95
35.3220,0.08,0.12,-0.99,3.05,3.78,1.95
35.3390,0.08,0.12,-0.99,3.17,3.66,2.08
35.3560,0.08,0.12,-0.99,3.11,3.97,2.14
35.3730,0.08,0.12,-0.99,3.11,3.78,2.08
35.3740,0.08,0.12,-0.98,3.23,3.78,1.95
35.3910,0.08,0.12,-0.98,3.11,4.15,2.08
35.4200,0.08,0.12,-0.99,3.23,3.97,1.89
35.4360,0.08,0.12,-0.99,3.23,3.78,2.01
35.4520,0.08,0.12,-0.98,3.17,3.78,1.95
35.4560,0.08,0.12,-0.98,3.11,3.60,1.95
35.4710,0.08,0.12,-0.98,3.23,4.03,1.95
35.4930,0.08,0.12,-0.99,3.11,3.78,1.95
35.5100,0.08,0.12,-0.98,2.99,3.72,2.01
35.5280,0.08,0.12,-0.99,3.30,3.78,2.08
35.5440,0.08,0.12,-0.99,3.05,3.72,1.95
35.5590,0.08,0.12,-0.99,3.05,3.85,2.01
35.5770,0.08,0.12,-0.99,3.05,3.85,1.89
35.5910,0.08,0.12,-0.98,2.99,3.91,2.20
35.6080,0.08,0.12,-0.98,3.17,3.78,2.01
35.6240,0.08,0.12,-0.98,3.23,3.78,2.14
35.6400,0.08,0.12,-0.98,3.11,3.66,2.69
35.6560,0.08,0.12,-0.99,2.99,3.48,2.87
35.6720,0.08,0.12,-0.98,3.11,3.85,2.38
35.6770,0.08,0.12,-0.98,3.11,3.54,2.38
35.6930,0.08,0.12,-0.98,3.30,4.09,2.38
35.7160,0.08,0.13,-0.99,2.99,3.72,2.44
35.7330,0.08,0.12,-0.99,3.05,3.78,2.08
35.7490,0.08,0.12,-0.99,2.93,3.85,2.01
35.7650,0.08,0.12,-0.98,2.93,3.78,2.14
35.7810,0.08,0.12,-0.98,3.05,3.66,2.08
35.7980,0.08,0.12,-0.98,3.05,3.85,2.08
35.8140,0.08,0.12,-0.99,3.05,3.78,2.01
35.8290,0.08,0.12,-0.98,2.99,3.54,2.01
35.8320,0.08,0.12,-0.98,2.99,4.03,1.89
35.8470,0.08,0.12,-0.99,3.23,3.97,1.95
35.8710,0.08,0.12,-0.98,2.87,4.03,2.08
35.8900,0.08,0.12,-0.98,2.87,3.91,2.01
35.9030,0.08,0.12,-0.99,2.87,3.91,2.01
35.9210,0.07,0.12,-0.99,2.87,3.78,2.44
35.9370,0.08,0.12,-0.99,2.32,3.72,3.42
35.9530,0.08,0.12,-0.99,2.81,3.66,3.66
35.9690,0.08,0.12,-0.99,2.93,3.54,3.66
35.9860,0.09,0.12,-0.98,3.05,3.60,3.11
36.0020,0.08,0.12,-0.98,3.11,3.78,2.56
36.0180,0.08,0.12,-0.98,2.99,3.78,2.50
36.0340,0.08,0.12,-0.98,2.81,3.72,2.44
36.0500,0.08,0.12,-0.98,2.99,3.85,2.32
36.0660,0.08,0.12,-0.98,3.05,3.48,2.08
36.0820,0.08,0.12,-0.99,3.42,3.60,2.08
36.0990,0.08,0.12,-0.98,3.17,3.97,2.08
36.1040,0.08,0.12,-0.98,3.11,3.72,2.01
36.1200,0.08,0.12,-0.99,3.17,3.97,1.95
36.1430,0.08,0.12,-0.99,3.05,3.66,1.83
36.1600,0.08,0.12,-0.99,3.36,3.91,1.95
36.1760,0.08,0.12,-0.99,3.11,3.72,2.08
36.1920,0.08,0.12,-0.99,3.23,3.72,2.14
36.1930,0.08,0.12,-0.99,3.11,3.72,2.08
36.2240,0.08,0.12,-0.99,3.23,3.78,2.01
36.2400,0.08,0.12,-0.99,3.11,3.91,2.08
36.2560,0.08,0.12,-0.98,3.23,3.85,2.20
36.2730,0.08,0.12,-0.98,3.11,3.72,2.01
36.2880,0.08,0.12,-0.98,3.36,4.09,2.08
36.3040,0.08,0.12,-0.99,3.23,4.09,2.08
36.3200,0.08,0.12,-0.99,3.23,3.78,2.20
36.3360,0.08,0.12,-0.98,3.30,4.03,2.08
36.3520,0.08,0.12,-0.99,3.11,3.91,2.01
36.3670,0.08,0.12,-0.98,3.17,3.97,1.95
36.3760,0.08,0.12,-0.98,3.23,3.91,2.01
36.3920,0.08,0.12,-0.99,3.36,3.66,2.14
36.4100,0.08,0.12,-0.99,3.11,4.03,2.20
36.4260,0.08,0.12,-0.98,2.99,3.66,2.08
36.4410,0.08,0.12,-0.99,3.42,3.60,2.08
36.4580,0.08,0.12,-0.99,3.36,3.60,2.01
36.4670,0.08,0.12,-0.99,3.11,3.85,2.08
36.4820,0.08,0.12,-0.99,3.11,3.78,2.20
36.4990,0.08,0.12,-0.99,3.05,3.91,2.01
36.5150,0.08,0.12,-0.99,3.17,3.91,2.01
36.5340,0.08,0.12,-0.98,3.23,4.15,1.95
36.5390,0.08,0.12,-0.98,3.30,3.78,1.95
36.5540,0.08,0.12,-0.98,3.23,4.09,2.14
36.5720,0.08,0.12,-0.99,3.05,3.60,2.01
36.5900,0.08,0.12,-0.99,3.11,3.72,1.95
36.6050,0.08,0.12,-0.98,3.23,4.03,2.14
36.6220,0.08,0.12,-0.98,3.17,3.91,1.95
36.6380,0.08,0.12,-0.99,3.11,3.78,1.95
36.6550,0.08,0.12,-0.99,3.05,3.85,1.95
36.6710,0.08,0.12,-0.99,3.05,3.42,2.20
36.6900,0.08,0.12,-0.98,3.05,3.72,1.83
36.7060,0.08,0.12,-0.98,3.23,3.60,2.08
36.7210,0.08,0.12,-0.99,3.17,4.09,2.14
36.7370,0.08,0.12,-0.98,3.17,4.09,2.14
36.7420,0.08,0.12,-0.99,2.93,4.33,2.26
36.7580,0.08,0.12,-0.99,3.11,4.03,2.20
36.7810,0.08,0.12,-0.98,3.17,3.85,1.95
36.7970,0.08,0.12,-0.99,3.11,3.78,2.01
36.8130,0.08,0.12,-0.99,3.05,3.72,1.95
36.8280,0.08,0.12,-0.99,3.17,3.66,2.08
36.8440,0.08,0.12,-0.99,3.36,3.60,2.01
36.8480,0.08,0.12,-0.99,3.48,3.85,2.08
36.8640,0.08,0.12,-0.99,3.05,3.91,2.20
36.8850,0.08,0.12,-0.98,2.99,3.78,2.01
36.9020,0.08,0.12,-0.98,2.99,3.54,1.89
36.9180,0.08,0.12,-0.99,3.17,3.66,1.95
36.9350,0.08,0.12,-0.98,3.11,3.85,2.01
36.9520,0.08,0.12,-0.98,3.05,3.72,1.95
36.9680,0.08,0.12,-0.99,3.11,3.66,2.01
36.9840,0.08,0.12,-0.99,3.05,3.85,2.14
37.0000,0.08,0.12,-0.98,3.30,3.78,2.14
37.0160,0.08,0.12,-0.98,3.05,3.72,2.08
37.0320,0.08,0.12,-0.99,3.11,3.78,2.08
37.0490,0.08,0.12,-0.98,3.17,3.85,2.14
37.0640,0.08,0.12,-0.99,3.11,3.85,2.08
37.0810,0.08,0.12,-0.98,2.99,3.85,2.20
37.0960,0.08,0.12,-0.99,3.11,3.91,2.20
37.1110,0.08,0.12,-0.99,3.11,4.09,2.01
37.1280,0.08,0.13,-0.99,3.23,3.48,2.08
37.1450,0.08,0.12,-0.99,3.17,3.48,2.01
37.1610,0.07,0.12,-0.99,2.87,3.72,2.08
37.1760,0.02,0.11,-0.99,2.99,3.72,2.75
37.1910,0.06,0.12,-0.99,3.60,3.97,2.75
37.2010,0.07,0.13,-0.99,3.05,3.91,2.75
37.2230,0.06,0.13,-0.99,3.23,3.85,3.05
37.2380,0.12,0.10,-0.96,3.11,3.60,5.31
37.2540,0.08,0.13,-0.98,3.54,4.03,1.53
37.2700,0.10,0.12,-0.98,3.11,4.03,1.65
37.2860,0.09,0.12,-0.99,3.30,4.58,2.01
37.3010,0.08,0.12,-0.99,3.30,4.64,2.14
37.3070,0.08,0.12,-0.99,3.30,4.39,2.20
37.3220,0.08,0.12,-0.99,3.30,4.15,1.89
37.3450,0.08,0.12,-0.99,3.17,3.85,2.01
37.3610,0.08,0.12,-0.99,3.23,4.09,2.08
37.3780,0.08,0.12,-0.98,2.99,3.97,2.01
37.3940,0.08,0.12,-0.98,3.23,4.15,2.20
37.4090,0.08,0.12,-0.99,3.17,4.03,2.08
37.4250,0.08,0.12,-0.99,2.99,3.66,2.14
37.4410,0.08,0.12,-0.99,2.93,3.85,2.14
37.4570,0.08,0.12,-0.99,3.05,3.97,2.08
37.4630,0.08,0.12,-0.99,3.11,3.78,2.14
37.4790,0.08,0.12,-0.99,3.11,3.60,1.95
37.5010,0.08,0.12,-0.99,3.23,3.97,2.20
37.5170,0.08,0.12,-0.98,3.05,3.72,2.14
37.5350,0.08,0.12,-0.99,3.05,3.85,2.14
37.5510,0.08,0.12,-0.98,3.05,3.36,1.95
37.5670,0.08,0.12,-0.99,3.23,3.60,2.08
37.5830,0.08,0.12,-0.99,3.11,3.72,2.14
37.5990,0.08,0.12,-0.98,3.05,4.03,2.08
37.6010,0.08,0.12,-0.99,3.17,3.78,2.14
37.6170,0.08,0.12,-0.99,2.99,4.03,1.95
37.6390,0.08,0.12,-0.99,3.11,3.66,2.01
37.6550,0.08,0.12,-0.98,3.11,4.03,2.08
37.6720,0.08,0.12,-0.99,3.05,3.72,1.95
37.6910,0.08,0.12,-0.99,3.17,3.97,2.20
37.7050,0.08,0.12,-0.99,3.30,3.85,2.08
37.7230,0.08,0.12,-0.99,3.05,3.85,2.01
37.7390,0.08,0.12,-0.99,3.11,3.85,2.08
37.7550,0.08,0.12,-0.99,3.17,3.54,2.08
37.7710,0.08,0.12,-0.98,3.11,3.66,2.14
37.7870,0.08,0.12,-0.98,3.23,3.54,2.14
37.8030,0.08,0.12,-0.99,3.11,3.97,1.95
37.8060,0.08,0.12,-0.99,3.17,3.85,2.08
37.8220,0.08,0.12,-0.99,3.17,3.72,2.20
37.8500,0.08,0.12,-0.99,3.23,3.91,2.14
37.8610,0.08,0.12,-0.98,3.11,3.91,2.14
37.8760,0.08,0.12,-0.99,3.05,3.72,2.01
37.8930,0.08,0.12,-0.99,2.99,3.91,2.14
37.9110,0.08,0.12,-0.98,3.23,3.91,2.08
37.9270,0.08,0.12,-0.99,3.05,3.60,1.59
37.9440,0.08,0.12,-0.99,2.93,3.91,1.40
37.9590,0.08,0.12,-0.99,3.30,3.97,1.71
37.9750,0.08,0.12,-0.99,3.23,3.91,1.83
37.9920,0.08,0.12,-0.99,3.11,3.91,1.77
38.0080,0.07,0.12,-0.99,2.99,4.03,1.16
38.0110,0.07,0.12,-0.99,3.23,4.03,0.55
38.0390,0.08,0.12,-0.98,3.30,3.85,0.18
38.0550,0.08,0.12,-0.98,3.17,3.97,0.55
38.0600,0.07,0.12,-0.99,3.30,3.85,0.31
38.0770,0.07,0.12,-0.99,3.36,4.09,0.12
38.0930,0.08,0.12,-0.98,3.30,4.03,0.37
38.1130,0.08,0.12,-0.99,3.17,4.15,0.85
38.1300,0.08,0.12,-0.99,3.11,3.97,0.98
38.1460,0.08,0.13,-0.98,3.05,3.97,1.46
38.1630,0.08,0.12,-0.98,3.17,4.03,1.83
38.1790,0.08,0.12,-0.98,2.99,3.78,2.08
38.1950,0.08,0.12,-0.99,3.23,3.72,2.26
38.2100,0.08,0.12,-0.99,3.23,4.03,2.20
38.2140,0.08,0.12,-0.99,3.05,3.66,2.01
38.2300,0.08,0.12,-0.98,3.05,3.72,2.01
38.2530,0.06,0.12,-0.99,2.81,3.78,1.95
38.2690,0.05,0.12,-0.99,3.48,4.09,1.40
38.2860,0.08,0.12,-0.99,3.91,4.15,0.73
38.3020,0.08,0.12,-0.98,3.48,4.33,1.34
38.3190,0.08,0.12,-0.99,3.42,3.66,1.46
38.3350,0.08,0.12,-0.99,3.42,3.60,1.53
38.3520,0.08,0.12,-0.99,3.54,3.85,1.59
38.3670,0.09,0.12,-0.98,3.60,4.09,1.34
38.3700,0.09,0.13,-0.99,3.42,3.91,1.40
38.3920,0.08,0.12,-0.98,3.05,3.85,1.83
38.4130,0.08,0.12,-0.99,2.99,4.15,2.08
38.4240,0.08,0.12,-0.99,2.69,3.85,1.83
38.4400,0.08,0.12,-0.99,3.05,3.85,2.14
38.4580,0.08,0.12,-0.98,3.23,3.85,2.01
38.4750,0.08,0.12,-0.99,3.17,3.97,2.01
38.4930,0.08,0.12,-0.99,2.81,3.66,2.14
38.5070,0.08,0.12,-0.99,2.93,3.91,2.01
38.5250,0.08,0.12,-0.98,3.11,3.72,2.20
38.5400,0.08,0.12,-0.98,3.17,3.91,2.26
38.5570,0.08,0.12,-0.99,3.23,3.91,2.20
38.5730,0.08,0.12,-0.98,3.11,3.66,2.14
38.5750,0.08,0.12,-0.99,3.11,3.66,2.20
38.6060,0.08,0.12,-0.99,3.23,4.09,1.95
38.6220,0.08,0.12,-0.99,3.11,3.97,2.14
38.6250,0.08,0.12,-0.99,2.99,3.78,2.14
38.6400,0.08,0.12,-0.99,3.23,3.91,2.14
38.6560,0.08,0.12,-0.99,2.99,3.66,2.08
38.6800,0.08,0.12,-0.99,3.05,3.72,1.71
38.6960,0.08,0.13,-0.98,2.08,3.66,0.24
38.7130,0.08,0.12,-0.99,2.87,4.09,0.73
38.7290,0.08,0.12,-0.98,2.93,4.03,1.40
38.7460,0.08,0.12,-0.99,3.11,3.97,1.65
38.7610,0.08,0.12,-0.99,3.30,3.85,1.65
38.7780,0.08,0.12,-0.98,3.23,3.97,1.65
38.7930,0.08,0.12,-0.98,3.23,3.85,1.34
38.8090,0.08,0.12,-0.99,2.93,3.97,0.67
38.8260,0.08,0.13,-0.98,3.36,4.09,-1.71
38.8410,0.08,0.12,-0.99,3.30,4.09,-2.26
38.8590,0.08,0.12,-0.99,2.87,4.03,-1.46
38.8740,0.08,0.12,-0.98,2.93,3.97,0.00
38.8900,0.08,0.12,-0.99,2.87,3.78,0.85
38.9060,0.08,0.12,-0.99,2.93,3.72,1.34
38.9230,0.08,0.12,-0.98,2.20,3.60,2.01
38.9400,0.08,0.12,-0.99,3.85,4.15,2.08
38.9550,0.08,0.12,-0.99,3.17,3.97,2.08
38.9700,0.08,0.12,-0.98,3.05,3.91,2.20
38.9860,0.08,0.12,-0.98,2.99,3.66,2.14
38.9970,0.08,0.12,-0.98,2.99,3.78,2.08
39.0130,0.08,0.12,-0.99,2.93,3.78,2.01
39.0290,0.08,0.12,-0.98,3.17,3.78,2.14
39.0460,0.08,0.12,-0.99,3.05,3.85,2.14
39.0620,0.08,0.12,-0.99,3.11,3.66,2.01
39.0780,0.08,0.12,-0.99,3.17,3.72,2.14
39.0940,0.08,0.12,-0.99,3.17,3.78,2.14
39.1100,0.08,0.12,-0.99,3.17,4.03,2.20
39.1130,0.08,0.12,-0.99,3.30,3.91,2.08
39.1280,0.08,0.12,-0.99,3.23,4.03,2.08
39.1570,0.08,0.12,-0.99,3.05,3.60,1.95
39.1670,0.08,0.12,-0.98,2.87,3.78,2.01
39.1840,0.08,0.12,-0.98,3.17,3.78,2.26
39.2000,0.08,0.12,-0.99,2.99,3.85,2.32
39.2170,0.08,0.12,-0.99,3.23,3.54,2.26
39.2330,0.08,0.12,-0.99,3.05,3.66,2.14
39.2500,0.08,0.12,-0.99,2.99,3.72,2.01
39.2650,0.08,0.12,-0.99,2.93,3.54,2.01
39.2820,0.08,0.12,-0.99,3.05,3.78,2.08
39.2980,0.08,0.12,-0.98,2.93,3.72,2.01
39.3130,0.08,0.12,-0.99,3.05,3.72,2.08
39.3280,0.08,0.12,-0.99,3.11,3.85,2.14
39.3440,0.08,0.12,-0.99,3.11,3.78,2.14
39.3500,0.08,0.12,-0.99,3.11,3.91,2.26
39.3660,0.08,0.12,-0.99,3.23,3.91,2.08
39.3890,0.08,0.12,-0.99,3.17,3.91,2.08
39.4040,0.08,0.12,-0.98,3.11,3.54,1.95
39.4220,0.08,0.12,-0.99,2.99,4.03,2.01
39.4380,0.08,0.12,-0.99,3.17,3.66,2.14
39.4380,0.08,0.12,-0.99,2.99,3.85,2.20
39.4550,0.08,0.12,-0.99,3.11,3.54,2.14
39.4720,0.08,0.12,-0.98,3.17,3.78,2.14
39.4940,0.08,0.12,-0.98,3.05,3.85,2.08
39.5050,0.08,0.12,-0.99,3.11,3.78,1.89
39.5290,0.08,0.12,-0.99,2.99,3.72,1.95
39.5390,0.08,0.12,-0.99,2.93,3.97,2.08
39.5540,0.08,0.12,-0.99,2.99,3.85,2.01
39.5710,0.08,0.12,-0.99,3.17,3.78,2.20
39.5880,0.08,0.12,-0.99,3.23,3.91,1.95
39.6060,0.08,0.12,-0.99,3.17,3.91,1.95
39.6220,0.08,0.12,-0.98,3.17,3.60,1.95
39.6390,0.08,0.12,-0.99,3.11,3.72,2.08
39.6550,0.08,0.12,-0.98,3.05,3.91,2.08
39.6710,0.08,0.12,-0.99,3.23,3.54,2.01
39.6870,0.08,0.12,-0.99,3.23,3.78,2.08
39.6940,0.08,0.12,-0.98,2.99,3.60,2.14
39.7040,0.08,0.12,-0.99,2.87,3.48,2.14
39.7210,0.08,0.12,-0.98,2.93,3.72,1.95
39.7380,0.08,0.12,-0.98,3.11,3.66,2.01
39.7540,0.08,0.12,-0.99,2.93,4.03,2.08
39.7700,0.08,0.12,-0.99,3.17,3.60,1.89
39.7940,0.08,0.12,-0.99,3.17,3.66,2.01
39.8080,0.08,0.12,-0.99,3.11,3.72,2.14
39.8270,0.08,0.12,-0.99,2.99,3.72,2.14
39.8410,0.08,0.12,-0.99,2.87,3.91,2.32
39.8590,0.08,0.12,-0.99,2.99,3.72,2.20
39.8750,0.08,0.12,-0.98,3.05,3.97,2.20
39.8910,0.08,0.12,-0.99,3.17,3.78,2.08
39.9070,0.08,0.12,-0.99,2.87,3.72,2.01
39.9230,0.08,0.12,-0.98,3.05,3.66,2.01
39.9400,0.08,0.12,-0.99,3.11,3.78,2.14
39.9550,0.08,0.12,-0.99,3.05,4.03,2.08
39.9710,0.08,0.12,-0.99,3.17,3.66,2.08
39.9880,0.08,0.12,-0.99,3.05,3.60,2.01
40.0040,0.08,0.12,-0.98,3.11,4.09,2.01
40.0080,0.08,0.12,-0.99,3.17,4.03,2.26
40.0230,0.08,0.12,-0.99,3.42,4.15,2.20
40.0450,0.08,0.12,-0.98,3.17,3.72,2.08
40.0610,0.08,0.12,-0.98,3.17,3.97,2.20
40.0780,0.08,0.12,-0.99,3.05,3.97,2.08
40.0940,0.08,0.12,-0.99,3.11,3.66,2.20
40.1100,0.08,0.12,-0.99,3.17,3.78,1.95
40.1260,0.08,0.12,-0.99,3.17,3.85,1.95
40.1420,0.08,0.12,-0.98,3.05,3.72,2.26
40.1580,0.08,0.12,-0.98,3.05,3.78,2.08
40.1630,0.08,0.12,-0.99,3.11,3.91,2.08
40.1780,0.08,0.12,-0.99,2.93,3.85,2.08
40.2010,0.08,0.12,-0.98,2.87,3.60,2.20
40.2170,0.08,0.12,-0.99,3.05,3.97,2.01
40.2330,0.08,0.12,-0.98,2.99,3.72,2.01
40.2500,0.08,0.12,-0.98,3.17,3.54,2.08
40.2520,0.10,0.12,-0.98,3.42,3.91,0.67
40.2800,0.10,0.13,-0.99,3.60,4.15,0.12
40.2960,0.08,0.12,-0.99,2.93,3.66,1.04
40.3110,0.08,0.12,-0.98,2.93,3.48,1.59
40.3190,0.08,0.12,-0.98,3.17,3.97,1.83
40.3350,0.08,0.12,-0.99,3.11,3.85,1.71
40.3570,0.06,0.12,-0.99,3.17,3.72,1.95
40.3720,0.05,0.11,-0.99,2.99,4.21,2.38
40.3760,0.05,0.11,-0.99,3.11,3.78,2.01
40.3950,0.08,0.12,-0.99,3.05,3.85,1.89
40.4190,0.08,0.12,-0.98,2.99,3.60,2.08
40.4250,0.07,0.12,-0.99,2.93,3.60,2.14
40.4420,0.07,0.13,-0.99,3.11,3.85,2.69
40.4580,0.08,0.12,-0.99,3.17,3.66,2.69
40.4750,0.09,0.12,-0.99,3.11,4.09,2.20
40.4920,0.08,0.12,-0.99,2.93,3.60,2.01
40.5100,0.08,0.12,-0.99,3.05,4.03,2.01
40.5240,0.08,0.12,-0.99,3.11,3.60,2.20
40.5410,0.08,0.12,-0.99,3.11,3.54,2.14
40.5570,0.08,0.12,-0.99,2.99,3.91,2.08
40.5730,0.08,0.12,-0.98,3.23,3.54,2.20
40.5890,0.08,0.12,-0.99,3.11,3.54,2.08
40.5950,0.08,0.12,-0.99,3.17,3.72,2.08
40.6060,0.08,0.12,-0.99,3.23,3.78,2.14
40.6290,0.08,0.12,-0.99,3.17,3.97,2.08
40.6460,0.08,0.12,-0.99,3.05,3.97,2.14
40.6620,0.08,0.12,-0.99,3.36,4.03,2.08
40.6790,0.08,0.12,-0.99,3.23,3.85,2.14
40.6950,0.08,0.12,-0.99,3.23,3.60,2.14
40.7110,0.08,0.12,-0.99,3.17,3.66,2.14
40.7260,0.08,0.12,-0.98,3.11,4.03,2.08
40.7410,0.08,0.12,-0.98,3.11,3.85,2.14
40.7450,0.08,0.12,-0.99,3.42,3.66,2.08
40.7610,0.08,0.12,-0.99,3.17,3.72,2.20
40.7830,0.08,0.12,-0.99,3.11,3.85,2.14
40.8000,0.08,0.12,-0.99,3.23,3.54,2.14
40.8170,0.08,0.12,-0.99,3.11,3.78,2.01
40.8330,0.08,0.12,-0.98,3.17,4.15,2.20
40.8500,0.09,0.13,-0.98,3.60,3.97,1.77
40.8670,0.07,0.12,-0.99,3.85,4.27,1.16
40.8830,0.08,0.13,-0.99,3.72,3.85,1.40
40.8980,0.09,0.13,-0.98,2.87,3.72,2.08
40.9140,0.07,0.12,-0.99,2.87,3.85,2.01
40.9290,0.08,0.12,-0.98,3.11,3.85,1.95
40.9440,0.08,0.12,-0.99,3.30,3.85,1.71
40.9500,0.08,0.12,-0.99,3.23,4.21,1.71
40.9660,0.08,0.12,-0.98,3.11,3.85,1.71
40.9880,0.08,0.12,-0.99,3.17,3.97,1.65
41.0040,0.08,0.12,-0.98,3.17,4.03,1.83
41.0200,0.08,0.12,-0.99,3.23,3.78,2.08
41.0360,0.08,0.12,-0.99,3.11,3.78,1.83
41.0520,0.08,0.12,-0.99,3.17,4.03,1.65
41.0550,0.07,0.12,-0.99,3.17,3.91,1.83
41.0710,0.08,0.12,-0.99,3.05,3.54,2.01
41.0960,0.08,0.12,-0.99,3.11,3.66,1.95
41.1110,0.08,0.12,-0.99,2.99,4.03,2.26
41.1270,0.08,0.12,-0.99,2.99,3.97,2.14
41.1430,0.08,0.12,-0.99,3.11,3.60,1.89
41.1590,0.08,0.12,-0.99,3.11,3.48,2.08
41.1760,0.08,0.12,-0.99,2.81,3.66,2.08
41.1910,0.08,0.12,-0.99,3.17,3.97,2.08
41.2070,0.08,0.12,-0.99,3.23,3.78,2.08
41.2240,0.08,0.12,-0.98,3.42,4.03,2.20
41.2400,0.08,0.12,-0.99,3.30,4.15,2.08
41.2560,0.08,0.12,-0.99,3.05,3.78,2.01
41.2710,0.08,0.12,-0.98,3.05,3.72,2.14
41.2780,0.08,0.12,-0.99,3.17,3.60,2.08
41.2960,0.09,0.12,-0.98,3.36,3.78,2.01
41.3160,0.08,0.12,-0.99,3.48,4.03,1.71
41.3320,0.07,0.12,-0.99,3.30,3.85,1.46
41.3340,0.07,0.12,-0.99,3.36,3.85,2.01
41.3620,0.08,0.12,-0.99,3.30,3.78,2.01
41.3770,0.08,0.12,-0.98,2.87,3.97,2.08
41.3940,0.08,0.12,-0.98,2.93,3.72,2.08
41.4010,0.08,0.12,-0.98,3.17,3.85,2.20
41.4160,0.08,0.12,-0.98,3.23,3.66,2.08
41.4390,0.08,0.12,-0.98,3.30,4.15,2.14
41.4540,0.08,0.12,-0.99,3.30,4.03,2.01
41.4710,0.08,0.12,-0.98,3.17,3.48,2.14
41.4880,0.08,0.12,-0.98,3.17,3.72,2.08
41.5050,0.08,0.12,-0.99,3.36,3.97,2.01
41.5210,0.08,0.12,-0.99,3.42,4.09,1.65
41.5380,0.08,0.12,-0.99,3.30,3.97,1.83
41.5540,0.08,0.12,-0.99,3.17,3.66,1.95
41.5700,0.08,0.12,-0.99,3.11,4.21,2.20
41.5850,0.08,0.12,-0.98,3.11,3.66,2.14
41.5970,0.08,0.12,-0.99,2.99,3.85,2.01
41.6040,0.08,0.12,-0.99,2.99,3.78,2.14
41.6320,0.08,0.12,-0.99,3.05,3.78,2.14
41.6430,0.08,0.12,-0.98,2.99,3.97,2.32
41.6580,0.08,0.12,-0.99,3.23,3.97,2.08
41.6750,0.08,0.12,-0.99,3.11,3.85,2.01
41.6920,0.08,0.12,-0.99,3.23,3.97,2.08
41.7080,0.08,0.12,-0.98,3.11,3.60,2.20
41.7260,0.08,0.12,-0.98,3.11,3.91,2.14
41.7420,0.08,0.12,-0.99,3.17,3.78,2.14
41.7580,0.08,0.12,-0.99,3.23,3.72,2.01
41.7740,0.08,0.12,-0.99,3.30,3.72,2.14
41.7900,0.08,0.12,-0.99,3.05,4.03,2.20
41.8060,0.08,0.12,-0.99,3.30,3.66,2.14
41.8090,0.08,0.12,-0.99,3.23,4.03,2.14
41.8250,0.08,0.12,-0.99,3.30,3.85,2.14
41.8540,0.08,0.12,-0.99,2.93,4.15,2.14
41.8580,0.08,0.12,-0.99,2.99,3.91,2.01
41.8740,0.08,0.12,-0.99,3.05,3.85,2.14
41.9010,0.08,0.12,-0.99,3.05,3.78,2.14
41.9120,0.08,0.12,-0.99,3.05,4.15,2.14
41.9280,0.08,0.12,-0.99,3.23,3.72,2.01
41.9450,0.08,0.12,-0.99,3.11,3.78,2.01
41.9610,0.08,0.12,-0.99,3.23,4.03,2.14
41.9770,0.08,0.12,-0.99,3.36,3.72,2.20
41.9920,0.08,0.12,-0.99,3.11,3.78,2.20
42.0070,0.08,0.12,-0.98,3.23,3.91,2.20
42.0240,0.08,0.12,-0.99,3.30,3.91,2.20
42.0400,0.08,0.12,-0.99,3.17,3.85,2.08
42.0560,0.08,0.12,-0.98,3.05,4.09,2.14
42.0720,0.08,0.12,-0.99,3.23,3.97,2.14
42.0790,0.08,0.12,-0.99,3.17,3.85,2.20
42.0970,0.08,0.12,-0.99,3.23,3.85,2.14
42.1170,0.08,0.12,-0.99,3.17,3.85,2.20
42.1320,0.08,0.12,-0.99,3.17,3.66,1.95
42.1490,0.08,0.12,-0.99,3.17,3.97,2.14
42.1650,0.08,0.12,-0.99,3.23,4.15,2.08
42.1820,0.08,0.12,-0.99,3.30,3.85,2.20
42.1960,0.08,0.12,-0.99,3.23,4.15,2.08
42.2120,0.08,0.12,-0.99,3.23,3.97,2.14
42.2160,0.08,0.12,-0.99,3.05,3.72,2.14
42.2440,0.08,0.12,-0.99,3.11,3.91,2.20
42.2600,0.08,0.12,-0.98,3.17,3.66,2.14
42.2660,0.08,0.12,-0.99,3.11,3.85,2.01
42.2820,0.08,0.12,-0.98,3.11,3.60,1.95
42.3020,0.08,0.12,-0.99,3.05,4.03,2.14
42.3190,0.08,0.12,-0.98,3.17,3.66,2.08
42.3360,0.08,0.12,-0.99,3.23,4.03,2.14
42.3530,0.08,0.12,-0.99,3.36,4.03,2.08
42.3680,0.08,0.12,-0.99,3.23,3.85,1.89
42.3850,0.08,0.12,-0.99,3.23,3.66,2.14
42.4010,0.08,0.12,-0.99,3.11,3.91,2.14
42.4180,0.08,0.13,-0.99,3.05,3.78,2.14
42.4340,0.08,0.12,-0.98,3.05,3.78,2.14
42.4490,0.08,0.12,-0.99,3.30,3.72,2.14
42.4660,0.08,0.12,-0.99,3.17,3.60,2.14
42.4810,0.08,0.12,-0.99,3.11,3.78,2.14
42.4960,0.08,0.12,-0.98,3.17,3.91,2.14
42.5110,0.08,0.12,-0.98,3.11,4.09,1.95
42.5260,0.08,0.12,-0.99,3.23,3.48,2.08
42.5360,0.08,0.12,-0.98,3.17,3.60,2.08
42.5540,0.08,0.12,-0.98,3.11,4.09,2.20
42.5700,0.08,0.12,-0.99,3.11,4.09,2.32
42.5860,0.08,0.12,-0.99,3.11,3.85,2.08
42.6020,0.08,0.12,-0.99,3.23,4.03,2.20
42.6180,0.08,0.12,-0.98,3.17,4.09,2.14
42.6340,0.08,0.12,-0.99,3.17,4.03,2.14
42.6360,0.08,0.12,-0.98,3.17,4.09,2.14
42.6640,0.08,0.12,-0.99,3.05,3.60,2.26
42.6740,0.08,0.12,-0.99,3.17,3.78,2.01
42.6920,0.08,0.12,-0.99,3.17,3.85,2.20
42.7070,0.08,0.12,-0.99,3.17,3.60,2.20
42.7240,0.08,0.12,-0.99,3.36,3.78,2.08
42.7400,0.08,0.12,-0.99,3.05,4.15,2.01
42.7570,0.08,0.12,-0.98,3.11,3.78,2.01
42.7730,0.08,0.12,-0.99,3.05,3.78,1.95
42.7890,0.08,0.12,-0.99,3.11,3.85,2.14
42.8040,0.08,0.12,-0.99,3.23,3.66,2.14
42.8070,0.08,0.12,-0.99,3.17,3.97,2.14
42.8230,0.08,0.12,-0.99,3.17,3.72,2.20
42.8470,0.08,0.12,-0.99,3.11,3.66,2.08
42.8630,0.08,0.12,-0.99,3.11,3.91,2.20
42.8810,0.08,0.12,-0.99,3.05,3.91,2.01
42.8970,0.08,0.12,-0.99,3.17,3.66,2.14
42.9110,0.08,0.12,-0.99,3.05,3.91,2.08
42.9270,0.08,0.12,-0.99,3.05,3.97,2.20
42.9300,0.08,0.12,-0.99,3.17,3.85,2.20
42.9450,0.08,0.12,-0.98,3.11,3.97,2.08
42.9690,0.08,0.12,-0.99,3.17,3.97,1.95
42.9860,0.08,0.12,-0.99,3.23,3.66,2.14
43.0030,0.08,0.12,-0.99,3.17,3.91,2.08
43.0190,0.08,0.12,-0.99,3.05,3.97,2.20
43.0350,0.08,0.12,-0.99,3.11,3.97,2.14
43.0510,0.08,0.12,-0.99,3.17,3.54,2.08
43.0680,0.08,0.12,-0.99,3.23,4.09,1.95
43.0840,0.08,0.12,-0.99,3.23,3.85,2.01
43.0980,0.08,0.12,-0.99,2.93,3.91,2.14
43.1030,0.08,0.12,-0.99,3.11,3.97,2.20
43.1190,0.08,0.12,-0.98,3.05,4.03,2.14
43.1380,0.08,0.12,-0.99,3.11,3.66,2.01
43.1550,0.08,0.12,-0.99,3.36,3.54,2.20
43.1710,0.08,0.12,-0.99,3.17,3.85,2.08
43.1910,0.08,0.12,-0.98,2.99,3.66,2.08
43.1990,0.08,0.12,-0.99,2.99,3.48,2.14
43.2220,0.08,0.12,-0.99,3.11,3.66,2.01
43.2390,0.08,0.12,-0.99,3.11,3.78,2.08
43.2540,0.08,0.12,-0.99,3.11,3.72,1.89
43.2600,0.08,0.12,-0.99,3.11,3.72,2.08
43.2770,0.08,0.12,-0.98,3.05,4.15,2.08
43.2930,0.08,0.12,-0.98,3.23,3.85,2.01
43.3140,0.08,0.12,-0.98,3.17,3.91,2.14
43.3290,0.08,0.12,-0.99,3.11,3.85,2.14
43.3440,0.08,0.12,-0.99,3.23,3.78,1.95
43.3590,0.08,0.12,-0.99,3.30,3.97,2.08
43.3750,0.08,0.12,-0.99,3.11,3.72,2.08
43.3910,0.08,0.12,-0.98,3.11,3.85,2.14
43.4070,0.08,0.12,-0.99,3.23,3.85,2.01
43.4140,0.08,0.12,-0.99,3.17,3.85,2.14
43.4300,0.08,0.12,-0.99,2.99,4.03,2.08
43.4520,0.08,0.12,-0.98,2.99,4.15,2.26
43.4680,0.08,0.12,-0.99,3.17,3.60,2.08
43.4840,0.08,0.12,-0.99,3.30,4.03,2.14
43.5000,0.08,0.12,-0.98,3.11,4.09,2.08
43.5160,0.08,0.12,-0.99,3.17,3.54,2.20
43.5200,0.08,0.12,-0.99,3.11,3.91,2.08
43.5350,0.08,0.12,-0.99,2.99,4.03,2.14
43.5600,0.08,0.12,-0.99,2.99,3.85,2.14
43.5770,0.08,0.12,-0.99,3.17,4.09,2.08
43.5930,0.08,0.12,-0.99,3.17,3.91,2.01
43.6090,0.08,0.12,-0.99,3.23,3.91,2.20
43.6250,0.08,0.12,-0.99,3.11,4.03,2.01
43.6410,0.08,0.12,-0.98,3.11,3.85,2.32
43.6570,0.08,0.12,-0.99,3.23,3.91,2.14
43.6740,0.08,0.12,-0.99,3.30,3.78,2.14
43.6900,0.08,0.12,-0.98,3.23,3.60,2.08
43.7050,0.08,0.12,-0.99,3.11,4.09,2.01
43.7210,0.08,0.12,-0.98,3.23,3.97,2.08
43.7360,0.08,0.12,-0.99,3.05,4.15,2.20
43.7430,0.08,0.12,-0.99,3.23,4.39,2.08
43.7590,0.08,0.12,-0.99,3.17,3.85,2.14
43.7820,0.08,0.12,-0.99,3.17,3.97,2.26
43.7980,0.08,0.12,-0.99,3.17,3.91,2.14
43.8140,0.08,0.12,-0.99,3.23,4.21,2.14
43.8310,0.08,0.12,-0.98,2.99,4.09,2.14
43.8470,0.08,0.12,-0.99,3.17,4.03,2.01
43.8620,0.08,0.12,-0.99,3.23,4.09,2.01
43.8770,0.08,0.12,-0.99,3.30,3.60,2.14
43.8810,0.08,0.12,-0.99,3.30,3.91,2.08
43.9000,0.08,0.12,-0.99,3.17,4.03,2.14
43.9180,0.08,0.12,-0.98,3.05,4.09,2.01
43.9360,0.08,0.12,-0.99,3.17,3.78,2.14
43.9520,0.08,0.12,-0.99,2.93,4.03,2.32
43.9700,0.08,0.12,-0.99,3.05,3.78,2.20
43.9850,0.08,0.12,-0.99,3.17,3.97,2.08
44.0010,0.08,0.12,-0.98,3.11,3.85,2.14
44.0170,0.08,0.12,-0.99,3.05,3.85,2.01
44.0340,0.08,0.12,-0.99,3.11,3.78,2.01
44.0500,0.08,0.12,-0.99,3.05,3.60,2.08
44.0660,0.08,0.12,-0.99,3.11,3.72,2.08
44.0810,0.08,0.12,-0.99,3.05,3.66,2.01
44.0850,0.08,0.12,-0.99,3.11,3.66,2.01
44.1010,0.08,0.12,-0.98,3.30,3.66,1.89
44.1250,0.08,0.12,-0.99,3.23,3.36,2.08
44.1420,0.08,0.12,-0.99,3.11,3.78,2.20
44.1570,0.08,0.12,-0.99,3.17,3.85,2.26
44.1740,0.08,0.12,-0.99,3.17,3.78,2.14
44.1900,0.08,0.12,-0.99,3.05,3.85,2.08
44.2050,0.08,0.12,-0.99,3.23,3.78,2.08
44.2220,0.08,0.12,-0.99,3.17,3.97,2.14
44.2370,0.08,0.12,-0.99,3.05,3.85,2.20
44.2410,0.08,0.12,-0.99,3.23,3.91,2.14
44.2570,0.08,0.12,-0.99,3.17,4.03,2.14
44.2820,0.08,0.12,-0.99,3.30,3.72,1.95
44.2960,0.08,0.12,-0.99,2.99,3.78,2.14
44.3120,0.08,0.12,-0.98,3.17,3.72,2.14
44.3270,0.08,0.12,-0.99,3.17,3.72,2.01
44.3300,0.08,0.12,-0.99,3.36,3.66,2.01
44.3470,0.08,0.12,-0.99,3.11,3.78,2.20
44.3730,0.08,0.12,-0.98,3.05,3.78,2.08
44.3850,0.08,0.12,-0.99,3.30,3.97,2.14
44.4010,0.08,0.12,-0.99,3.17,3.85,2.14
44.4180,0.08,0.12,-0.99,3.23,3.91,2.14
44.4340,0.08,0.12,-0.99,3.17,3.91,2.20
44.4500,0.08,0.12,-0.99,3.05,4.03,1.89
44.4670,0.08,0.12,-0.99,3.11,4.15,2.01
44.4820,0.08,0.12,-0.99,3.23,3.97,2.08
44.5000,0.08,0.12,-0.99,2.99,3.78,2.08
44.5160,0.08,0.12,-0.99,3.11,4.03,2.20
44.5330,0.08,0.12,-0.99,3.23,3.97,2.08
44.5480,0.08,0.12,-0.98,3.30,3.97,2.20
44.5630,0.08,0.12,-0.99,2.99,3.91,2.14
44.5780,0.08,0.12,-0.99,3.17,3.85,2.20
44.5930,0.08,0.12,-0.99,3.11,3.91,2.20
44.6080,0.08,0.12,-0.99,3.05,3.60,2.26
44.6240,0.08,0.12,-0.99,3.05,3.78,2.26
44.6350,0.08,0.12,-0.99,3.11,3.66,2.01
44.6510,0.08,0.12,-0.99,3.17,3.85,2.08
44.6690,0.08,0.12,-0.99,2.99,3.85,2.08
44.6850,0.08,0.12,-0.99,3.11,3.72,1.95
44.7020,0.08,0.12,-0.99,2.99,3.85,2.01
44.7180,0.08,0.12,-0.99,2.99,4.03,2.01
44.7360,0.08,0.12,-0.99,3.11,3.78,2.01
44.7360,0.08,0.12,-0.99,3.11,3.78,2.01
44.7680,0.08,0.12,-0.99,2.99,3.91,2.14
44.7830,0.08,0.12,-0.99,2.99,3.91,2.01
44.7990,0.08,0.12,-0.99,3.05,3.54,2.08
44.8160,0.08,0.12,-0.99,2.75,3.97,1.89
44.8310,0.08,0.12,-0.98,3.11,3.78,2.08
44.8470,0.08,0.12,-0.99,2.87,3.97,2.20
44.8620,0.08,0.12,-0.99,3.17,3.91,2.20
44.8770,0.08,0.12,-0.99,2.99,3.85,2.14
44.8920,0.08,0.12,-0.99,3.05,4.03,2.14
44.9070,0.08,0.12,-0.99,3.17,4.03,2.20
44.9180,0.08,0.12,-0.99,2.99,3.85,2.14
44.9350,0.08,0.12,-0.99,3.05,3.91,2.14
44.9510,0.08,0.12,-0.99,3.17,3.78,2.20
44.9670,0.08,0.12,-0.99,3.05,3.66,2.26
44.9840,0.08,0.12,-0.99,3.11,3.78,2.08
45.0000,0.08,0.12,-0.99,3.05,4.15,2.20
45.0160,0.08,0.12,-0.99,2.99,3.60,2.01
45.0320,0.08,0.12,-0.99,3.17,3.91,2.01
45.0480,0.08,0.12,-0.99,3.05,4.03,2.14
45.0640,0.08,0.12,-0.99,3.11,3.60,2.01
45.0680,0.08,0.12,-0.99,3.23,3.60,1.95
45.0840,0.08,0.12,-0.99,3.17,3.66,2.01
45.1050,0.08,0.12,-0.99,3.23,4.15,2.08
45.1220,0.08,0.12,-0.99,3.23,4.09,2.26
45.1390,0.08,0.12,-0.99,3.23,3.85,2.08
45.1560,0.08,0.12,-0.99,3.17,3.54,2.20
45.1710,0.08,0.12,-0.99,3.11,3.72,2.08
45.1880,0.08,0.12,-0.99,3.11,3.91,2.20
45.2040,0.08,0.12,-0.99,3.48,4.15,2.38
45.2200,0.08,0.12,-0.98,3.48,3.91,2.38
45.2360,0.08,0.12,-0.99,3.42,3.66,2.38
45.2520,0.08,0.12,-0.99,3.17,3.78,2.20
45.2550,0.08,0.12,-0.99,2.99,3.66,2.14
45.2700,0.08,0.12,-0.99,2.93,3.85,2.20
45.2940,0.08,0.12,-0.99,2.87,3.78,1.95
45.3090,0.08,0.12,-0.99,3.17,3.60,2.01
45.3260,0.08,0.12,-0.99,2.93,3.60,1.77
45.3440,0.08,0.12,-0.99,2.32,3.42,1.65
45.3590,0.08,0.12,-0.99,2.56,3.48,1.71
45.3760,0.08,0.12,-0.98,2.75,3.54,1.65
45.3920,0.09,0.16,-0.98,3.11,3.66,0.00
45.4080,0.07,0.11,-0.99,3.42,4.46,-1.89
45.4230,0.07,0.13,-0.98,3.17,4.03,-0.43
45.4390,0.08,0.12,-0.99,3.42,4.15,0.12
45.4540,0.08,0.12,-0.99,3.17,3.85,1.65
45.4600,0.08,0.11,-0.99,3.17,3.91,1.65
45.4760,0.08,0.12,-0.99,2.99,3.97,1.53
45.4990,0.07,0.13,-0.98,3.11,4.09,1.83
45.5150,0.06,0.14,-0.98,3.17,4.03,2.38
45.5320,0.07,0.13,-0.98,3.11,3.78,3.72
45.5490,0.08,0.12,-0.99,3.11,3.48,4.33
45.5650,0.08,0.12,-0.99,2.93,3.60,4.39
45.5820,0.07,0.13,-0.98,2.99,3.72,4.94
45.5970,0.08,0.12,-0.99,3.17,3.48,5.25
45.6130,0.08,0.12,-0.98,3.17,3.42,5.00
45.6280,0.08,0.12,-0.99,2.93,3.60,5.00
45.6440,0.08,0.11,-0.99,2.81,3.48,4.09
45.6610,0.09,0.10,-0.99,3.11,3.72,2.75
45.6760,0.09,0.11,-0.99,2.99,3.91,1.59
45.6900,0.08,0.12,-0.99,3.11,3.60,1.65
45.7050,0.08,0.12,-0.99,3.36,3.97,1.89
45.7210,0.08,0.12,-0.99,3.36,3.91,1.89
45.7320,0.08,0.12,-0.98,3.36,3.97,2.01
45.7480,0.08,0.12,-0.99,3.23,3.72,2.14
45.7650,0.08,0.12,-0.99,3.17,4.09,2.14
45.7810,0.08,0.12,-0.99,3.30,3.97,2.14
45.7980,0.08,0.12,-0.98,3.11,3.85,1.95
45.8150,0.08,0.12,-0.99,3.05,3.91,2.14
45.8310,0.08,0.12,-0.98,3.11,3.72,1.95
45.8470,0.08,0.12,-0.99,3.11,3.97,2.01
45.8630,0.08,0.12,-0.99,3.05,3.72,2.01
45.8780,0.08,0.12,-0.99,3.05,3.91,2.01
45.8940,0.08,0.12,-0.98,3.17,3.85,1.77
45.9100,0.08,0.12,-0.98,2.99,3.91,1.77
45.9260,0.08,0.12,-0.99,3.48,4.15,-1.59
45.9320,0.09,0.12,-0.99,3.48,4.27,-1.10
45.9480,0.08,0.12,-0.98,3.60,4.39,-2.14
45.9720,0.08,0.12,-0.98,3.60,4.39,-1.77
45.9880,0.07,0.12,-0.99,3.85,4.52,-1.40
46.0050,0.08,0.12,-0.98,3.48,4.52,-0.55
46.0220,0.08,0.12,-0.99,3.54,4.15,-0.61
46.0380,0.07,0.12,-0.99,3.30,3.97,-0.98
46.0540,0.07,0.12,-0.99,3.42,4.39,-0.79
46.0690,0.08,0.12,-0.99,3.23,4.03,0.12
46.0850,0.08,0.12,-0.99,3.36,4.15,0.43
46.0880,0.08,0.12,-0.99,3.42,3.91,0.49
46.1030,0.08,0.12,-0.99,3.30,4.09,0.18
46.1260,0.08,0.12,-0.99,3.30,4.39,0.06
46.1430,0.08,0.12,-0.98,3.30,4.15,0.67
46.1590,0.09,0.12,-0.99,3.48,3.97,0.24
46.1780,0.08,0.12,-0.99,3.23,4.21,-0.24
46.1940,0.08,0.12,-0.99,3.54,4.52,-0.43
46.2030,0.09,0.12,-0.99,3.48,4.39,-1.40
46.2120,0.08,0.12,-0.99,3.48,4.64,-4.03
46.2400,0.09,0.12,-0.98,3.48,4.82,-3.85
46.2510,0.08,0.12,-0.99,3.72,4.82,-4.27
46.2680,0.08,0.12,-0.99,3.85,4.70,-3.36
46.2850,0.08,0.12,-0.99,3.48,4.64,-2.56
46.3010,0.07,0.13,-0.99,3.54,4.64,-1.89
46.3160,0.08,0.13,-0.99,3.48,4.46,-0.49
46.3320,0.07,0.12,-0.99,3.30,4.03,1.10
46.3470,0.06,0.12,-0.99,3.17,4.21,1.46
46.3630,0.06,0.12,-0.99,3.66,3.97,1.95
46.3780,0.07,0.12,-0.99,3.48,3.97,2.01
46.3940,0.07,0.12,-0.99,3.23,4.09,2.14
46.4080,0.08,0.12,-0.99,3.30,3.66,1.95
46.4230,0.08,0.12,-0.98,2.93,3.78,1.89
46.4340,0.08,0.12,-0.98,3.05,3.91,1.71
46.4500,0.10,0.12,-0.98,2.93,4.09,0.92
46.4690,0.09,0.12,-0.99,3.23,4.15,-0.31
46.4850,0.08,0.12,-0.99,3.60,4.70,-3.85
46.4880,0.08,0.12,-0.98,3.97,5.00,-5.07
46.5050,0.07,0.13,-0.98,3.91,4.94,-3.97
46.5210,0.07,0.13,-0.99,3.60,4.15,-1.71
46.5380,0.08,0.12,-0.99,3.36,4.39,-0.12
46.5540,0.08,0.12,-0.99,3.48,4.15,-0.98
46.5750,0.07,0.12,-0.99,3.42,4.33,-2.44
46.5910,0.08,0.12,-0.99,3.30,4.33,-2.62
46.6090,0.08,0.12,-0.99,3.42,4.76,-3.05
46.6250,0.09,0.10,-0.99,3.72,5.31,-6.59
46.6400,0.07,0.13,-0.99,4.58,5.92,-11.84
46.6410,0.07,0.14,-0.98,4.39,5.80,-8.91
46.6580,0.07,0.14,-0.98,3.91,5.31,-5.92
46.6750,0.08,0.12,-0.99,3.48,4.94,-3.48
46.6910,0.07,0.13,-0.98,3.42,4.94,-5.62
46.7090,0.06,0.14,-0.98,3.36,4.58,-3.54
46.7310,0.07,0.12,-0.99,2.99,3.85,-0.24
46.7420,0.08,0.12,-0.99,2.99,4.03,1.95
46.7570,0.08,0.12,-0.99,2.99,3.97,2.08
46.7750,0.08,0.12,-0.99,3.17,3.85,2.01
46.7910,0.08,0.12,-0.98,2.99,4.21,2.26
46.8040,0.08,0.12,-0.99,3.05,4.03,2.01
46.8080,0.07,0.12,-0.98,3.30,3.60,2.26
46.8380,0.07,0.13,-0.99,3.54,3.78,3.30
46.8540,0.08,0.12,-0.99,3.11,3.42,3.85
46.8580,0.07,0.13,-0.99,2.81,3.36,3.97
46.8840,0.08,0.12,-0.98,2.69,3.42,4.46
46.8990,0.08,0.12,-0.99,2.75,3.48,4.03
46.9090,0.08,0.12,-0.99,2.81,3.54,3.60
46.9260,0.08,0.12,-0.99,2.93,3.60,3.60
46.9410,0.08,0.12,-0.98,2.93,3.66,3.30
46.9580,0.08,0.12,-0.99,3.05,3.91,2.75
46.9750,0.08,0.12,-0.99,3.11,3.91,2.69
46.9910,0.08,0.12,-0.99,3.30,3.85,2.69
47.0070,0.08,0.12,-0.99,3.36,3.85,2.69
47.0240,0.08,0.12,-0.99,3.23,4.09,2.20
47.0400,0.08,0.12,-0.99,3.11,3.97,2.44
47.0560,0.08,0.12,-0.99,3.30,3.78,2.87
47.0590,0.08,0.12,-0.99,2.99,3.85,2.44
47.0750,0.08,0.12,-0.98,3.11,3.78,2.44
47.0900,0.08,0.12,-0.99,3.11,3.91,2.38
47.1140,0.08,0.12,-0.99,3.30,3.54,2.20
47.1310,0.08,0.12,-0.99,3.05,4.09,2.08
47.1470,0.08,0.12,-0.99,3.05,3.91,2.01
47.1640,0.08,0.12,-0.99,3.05,3.72,2.08
47.1800,0.08,0.12,-0.99,3.17,3.48,2.14
47.1960,0.08,0.12,-0.99,3.17,3.78,1.95
47.2110,0.08,0.12,-0.99,3.30,3.66,2.20
47.2260,0.08,0.12,-0.99,3.42,3.72,2.20
47.2420,0.08,0.12,-0.99,3.23,3.97,2.01
47.2570,0.08,0.12,-0.99,3.11,3.60,2.14
47.2720,0.08,0.12,-0.99,3.05,3.60,2.20
47.2860,0.08,0.12,-0.99,3.42,3.97,2.14
47.2980,0.08,0.12,-0.99,3.23,4.03,2.08
47.3140,0.08,0.12,-0.99,3.23,4.09,2.20
47.3310,0.08,0.12,-0.99,3.36,3.97,2.20
47.3470,0.08,0.12,-0.99,2.99,3.85,2.14
47.3630,0.08,0.12,-0.99,2.99,3.72,2.08
47.3780,0.08,0.12,-0.99,3.05,3.91,2.14
47.3930,0.08,0.12,-0.98,3.11,3.60,2.20
47.4050,0.08,0.12,-0.99,3.23,3.91,2.20
47.4130,0.08,0.12,-0.99,3.11,3.85,2.14
47.4380,0.08,0.12,-0.99,3.17,3.60,2.08
47.4540,0.08,0.12,-0.99,3.11,4.21,2.08
47.4710,0.08,0.12,-0.99,3.17,3.85,1.95
47.4720,0.08,0.12,-0.99,3.23,3.78,2.08
47.5020,0.08,0.12,-0.99,3.17,3.78,2.08
47.5050,0.08,0.12,-0.98,3.11,3.72,2.14
47.5350,0.08,0.12,-0.99,3.30,4.15,2.38
47.5510,0.08,0.12,-0.99,3.17,3.78,2.08
47.5660,0.08,0.12,-0.99,3.05,3.97,2.01
47.5710,0.08,0.12,-0.98,3.17,3.72,2.01
47.5870,0.08,0.12,-0.98,3.11,3.97,2.01
47.6090,0.08,0.12,-0.99,2.99,4.03,2.14
47.6270,0.08,0.12,-0.99,3.30,3.78,2.08
47.6420,0.08,0.12,-0.98,3.17,3.66,2.20
47.6580,0.08,0.12,-0.99,3.17,3.66,2.14
47.6740,0.08,0.12,-0.99,3.05,3.78,2.14
47.6900,0.08,0.12,-0.99,3.17,3.72,2.08
47.7060,0.08,0.12,-0.99,3.11,3.78,1.89
47.7220,0.08,0.12,-0.99,3.36,3.97,2.20
47.7380,0.08,0.12,-0.99,3.30,3.91,2.14
47.7550,0.08,0.12,-0.98,3.05,3.85,2.08
47.7700,0.08,0.12,-0.99,3.05,3.97,1.95
47.7760,0.08,0.12,-0.99,3.05,3.91,2.08
47.8000,0.08,0.12,-0.99,3.11,3.72,2.20
47.8150,0.08,0.12,-0.99,3.11,3.72,2.08
47.8250,0.08,0.12,-0.98,3.11,3.60,2.20
47.8410,0.08,0.12,-0.99,3.11,3.85,2.32
47.8570,0.08,0.12,-0.98,3.11,3.78,2.08
47.8780,0.08,0.12,-0.99,3.30,3.85,2.20
47.8930,0.08,0.12,-0.98,3.17,3.78,1.95
47.9090,0.07,0.12,-0.98,3.05,3.91,2.01
47.9240,0.08,0.12,-0.99,3.11,3.85,2.14
47.9400,0.08,0.12,-0.99,3.42,3.72,2.01
47.9560,0.08,0.12,-0.99,3.17,3.97,2.01
47.9710,0.08,0.12,-0.99,3.05,3.91,2.20
47.9850,0.08,0.12,-0.99,3.11,3.54,2.01
47.9970,0.08,0.12,-0.98,3.11,3.78,2.20
48.0130,0.08,0.12,-0.99,3.11,4.03,2.14
48.0300,0.08,0.12,-0.99,3.36,3.72,2.01
48.0460,0.08,0.12,-0.99,3.23,3.60,2.14
48.0620,0.08,0.12,-0.99,3.17,3.91,2.08
48.0770,0.08,0.12,-0.99,3.05,3.97,2.08
48.0930,0.08,0.12,-0.99,3.05,4.09,2.08
48.1060,0.08,0.12,-0.99,3.30,3.91,2.26
