Timestamp, AccX, AccY, AccZ, GyroX, GyroY, GyroZ
0.0130,0.09,0.13,-0.98,3.36,0.00,1.40
0.0280,0.09,0.13,-0.98,3.05,0.12,1.40
0.0420,0.09,0.13,-0.98,3.42,-0.43,1.34
0.0580,0.09,0.13,-0.98,3.60,-0.85,1.46
0.0720,0.09,0.13,-0.98,3.66,-0.79,1.34
0.0880,0.09,0.13,-0.98,3.66,-0.67,1.46
0.0990,0.09,0.13,-0.98,3.48,-0.37,1.34
0.1160,0.09,0.13,-0.98,3.42,-0.37,1.46
0.1320,0.09,0.13,-0.98,3.54,-0.31,1.46
0.1330,0.09,0.13,-0.98,3.54,-0.67,1.40
0.1620,0.09,0.13,-0.98,3.60,-0.61,1.28
0.1780,0.09,0.13,-0.98,3.30,-0.61,1.40
0.1820,0.09,0.13,-0.98,3.30,-0.24,1.34
0.2090,0.09,0.13,-0.98,3.30,-0.37,1.34
0.2250,0.09,0.13,-0.98,3.23,-0.61,1.34
0.2400,0.09,0.13,-0.98,3.30,-0.61,1.34
0.2500,0.09,0.13,-0.98,3.54,-0.79,1.28
0.2660,0.09,0.13,-0.98,3.66,-0.85,1.40
0.2820,0.09,0.13,-0.98,3.54,-0.67,1.46
0.3000,0.09,0.13,-0.98,3.48,-0.67,1.34
0.3150,0.09,0.13,-0.98,3.54,-0.85,1.40
0.3150,0.09,0.12,-0.99,3.30,-0.31,1.40
0.3460,0.09,0.13,-0.98,3.60,-0.85,1.34
0.3600,0.09,0.13,-0.98,3.54,-0.49,1.40
0.3750,0.09,0.13,-0.98,3.48,-0.49,1.46
0.3900,0.09,0.13,-0.98,3.48,-0.67,1.40
0.4050,0.09,0.13,-0.98,3.78,-0.49,1.34
0.4150,0.09,0.13,-0.99,3.54,-0.43,1.46
0.4320,0.09,0.13,-0.98,3.54,-0.24,1.46
0.4480,0.09,0.12,-0.99,3.78,-0.55,1.16
0.4640,0.06,0.13,-0.98,3.85,-0.79,1.04
0.4820,0.09,0.13,-0.99,3.48,-0.37,1.22
0.4980,0.09,0.12,-0.98,3.05,-0.49,1.53
0.5120,0.10,0.13,-0.98,3.17,-0.61,1.95
0.5280,0.08,0.13,-0.98,3.05,-0.79,2.01
0.5420,0.09,0.13,-0.98,3.05,-0.85,2.44
0.5570,0.09,0.13,-0.98,2.87,-1.22,2.75
0.5640,0.09,0.14,-0.98,2.99,-0.79,3.91
0.5880,0.10,0.14,-0.98,2.93,-0.92,4.52
0.5970,0.09,0.13,-0.98,3.30,-1.46,4.70
0.6130,0.09,0.13,-0.98,3.42,-1.53,4.27
0.6320,0.09,0.12,-0.98,3.42,-1.40,3.66
0.6480,0.09,0.13,-0.98,3.23,-0.61,3.23
0.6640,0.08,0.14,-0.98,3.30,-0.61,3.05
0.6800,0.08,0.14,-0.98,3.42,-0.85,3.36
0.6950,0.08,0.12,-0.99,3.54,-1.40,4.58
0.7100,0.08,0.12,-0.99,3.78,-1.53,3.72
0.7260,0.08,0.11,-0.99,3.60,-1.16,3.78
0.7310,0.08,0.13,-0.98,3.54,-1.16,4.52
0.7580,0.08,0.12,-0.99,3.05,-0.98,4.52
0.7640,0.08,0.12,-0.99,3.36,-0.79,3.97
0.7810,0.08,0.11,-0.99,3.23,-0.92,2.81
0.7970,0.09,0.11,-0.99,3.36,-0.98,2.56
0.8140,0.09,0.13,-0.98,3.36,-0.61,2.62
0.8300,0.08,0.13,-0.98,3.54,-0.43,2.44
0.8460,0.08,0.12,-0.98,3.72,-0.55,1.77
0.8640,0.08,0.13,-0.98,3.97,-0.55,0.92
0.8800,0.09,0.13,-0.98,3.78,-0.49,0.92
0.8960,0.08,0.13,-0.98,3.66,-0.18,0.73
0.9110,0.08,0.12,-0.98,4.03,-0.55,0.61
0.9260,0.08,0.12,-0.98,3.97,-0.49,0.37
0.9410,0.09,0.12,-0.98,4.33,-0.18,0.18
0.9570,0.09,0.13,-0.99,4.39,-0.43,0.24
0.9730,0.10,0.12,-0.98,3.72,-0.61,0.98
0.9790,0.09,0.13,-0.98,4.21,-0.55,1.46
0.9950,0.09,0.13,-0.98,4.03,-0.43,1.28
1.0170,0.09,0.13,-0.99,3.97,-0.24,1.46
1.0350,0.09,0.13,-0.98,3.78,-0.61,1.77
1.0490,0.11,0.12,-1.00,0.12,-0.49,1.46
1.0660,0.09,0.14,-0.99,2.14,-0.18,1.46
1.0830,0.09,0.14,-0.99,6.04,-0.67,1.22
1.0990,0.09,0.13,-0.99,4.39,-0.92,1.40
1.1140,0.09,0.12,-0.98,3.85,-0.55,1.40
1.1300,0.09,0.12,-0.98,3.42,-0.61,1.40
1.1460,0.09,0.13,-0.99,3.48,-0.73,1.59
1.1500,0.09,0.13,-0.99,3.42,-0.31,1.46
1.1720,0.09,0.13,-0.98,3.42,-0.31,1.53
1.1930,0.09,0.13,-0.98,3.54,-0.31,1.53
1.2030,0.09,0.13,-0.98,3.48,-0.49,1.53
1.2200,0.09,0.13,-0.99,3.60,-0.67,1.46
1.2360,0.09,0.13,-0.98,3.48,-0.67,1.40
1.2530,0.09,0.13,-0.99,3.30,-0.85,1.46
1.2700,0.09,0.13,-0.98,3.36,-0.73,1.34
1.2720,0.09,0.13,-0.99,2.99,-0.31,1.34
1.3000,0.09,0.13,-0.98,3.42,0.12,1.65
1.3150,0.09,0.13,-0.98,3.11,-0.37,1.40
1.3310,0.09,0.13,-0.99,2.99,-0.73,1.34
1.3470,0.09,0.13,-0.98,2.87,-0.37,1.22
1.3520,0.09,0.12,-0.98,3.11,-0.24,1.40
1.3710,0.09,0.12,-0.99,3.17,-0.31,1.28
1.3890,0.09,0.13,-0.99,3.17,-0.12,1.40
1.4060,0.09,0.12,-0.98,3.23,-0.43,1.22
1.4230,0.08,0.12,-0.99,3.17,-0.06,1.10
1.4390,0.08,0.13,-0.99,3.30,-0.61,0.24
1.4400,0.08,0.12,-0.99,3.17,-0.12,-0.31
1.4710,0.09,0.12,-0.98,3.54,0.00,-1.04
1.4880,0.09,0.12,-0.98,4.03,-0.37,-1.04
1.5030,0.09,0.12,-0.99,3.66,0.12,-0.31
1.5180,0.08,0.12,-0.98,3.60,-0.31,-0.55
1.5220,0.09,0.12,-0.98,3.66,0.00,-0.61
1.5490,0.09,0.13,-0.98,3.66,-0.12,-0.55
1.5640,0.09,0.13,-0.98,3.78,-0.12,0.00
1.5790,0.09,0.13,-0.98,3.72,0.00,0.31
1.5940,0.09,0.12,-0.99,3.66,-0.24,0.79
1.6050,0.08,0.12,-0.98,3.72,-0.24,0.79
1.6210,0.08,0.12,-0.99,3.60,-0.24,0.31
1.6410,0.09,0.12,-0.99,3.85,-0.55,0.06
1.6570,0.09,0.13,-0.98,3.60,-0.43,0.31
1.6710,0.09,0.13,-0.98,3.48,-0.31,0.43
1.6870,0.09,0.13,-0.98,3.54,-0.61,0.85
1.7030,0.09,0.13,-0.99,3.42,-0.37,1.22
1.7100,0.09,0.12,-0.98,3.72,-0.43,1.34
1.7250,0.09,0.12,-0.98,3.48,-0.55,1.46
1.7480,0.09,0.13,-0.99,3.78,-0.67,1.34
1.7650,0.09,0.12,-0.99,3.42,-0.85,1.28
1.7810,0.09,0.12,-0.98,3.30,-0.79,1.34
1.7980,0.09,0.12,-0.98,3.42,-0.49,1.46
1.8140,0.09,0.12,-0.99,3.54,-0.67,1.46
1.8290,0.09,0.13,-0.98,3.72,-0.37,1.53
1.8450,0.09,0.12,-0.98,3.66,-0.31,1.46
1.8610,0.09,0.13,-0.98,3.60,-0.43,1.34
1.8770,0.09,0.13,-0.98,3.42,-0.61,1.40
1.8930,0.09,0.12,-0.98,3.91,-0.49,1.34
1.8970,0.09,0.12,-0.99,3.91,-0.61,1.34
1.9130,0.09,0.12,-0.98,3.72,-0.37,1.34
1.9350,0.07,0.12,-0.99,3.72,-0.24,0.55
1.9520,0.08,0.12,-0.98,3.72,-0.24,-0.67
1.9690,0.10,0.13,-0.98,3.72,-0.37,-0.24
1.9830,0.09,0.13,-0.98,3.36,-0.43,1.10
2.0010,0.09,0.13,-0.99,3.48,-1.04,1.34
2.0170,0.09,0.12,-0.99,3.42,-0.55,1.46
2.0330,0.09,0.13,-0.98,3.36,-0.49,1.22
2.0500,0.09,0.12,-0.98,3.48,-0.92,1.46
2.0640,0.09,0.13,-0.99,3.60,-1.04,1.40
2.0800,0.09,0.13,-0.98,3.54,-0.73,1.46
2.0940,0.09,0.12,-0.98,3.78,-0.55,1.40
2.1100,0.09,0.13,-0.98,3.54,-0.31,1.34
2.1180,0.09,0.12,-0.98,3.72,-0.43,1.40
2.1400,0.09,0.13,-0.98,3.54,-0.55,1.46
2.1510,0.09,0.13,-0.98,3.48,-0.43,1.22
2.1680,0.09,0.13,-0.99,3.48,-0.85,1.34
2.1840,0.09,0.12,-0.98,3.72,-0.79,1.34
2.2000,0.09,0.13,-0.98,3.78,-1.10,1.40
2.2160,0.09,0.12,-0.98,3.54,-1.04,1.28
2.2330,0.08,0.12,-0.99,3.60,-0.31,1.22
2.2490,0.09,0.12,-0.98,3.60,-0.49,0.61
2.2500,0.09,0.13,-0.98,3.48,-0.67,0.37
2.2810,0.09,0.12,-0.98,3.42,-0.43,0.49
2.2970,0.08,0.12,-0.98,3.54,-0.49,0.43
2.3130,0.08,0.12,-0.98,3.54,-0.61,0.55
2.3290,0.09,0.12,-0.98,3.54,-0.43,0.24
2.3440,0.08,0.13,-0.99,3.48,-0.79,0.31
2.3500,0.08,0.12,-0.98,3.66,0.00,0.31
2.3670,0.08,0.12,-0.99,3.72,-0.24,0.31
2.3880,0.08,0.12,-0.99,3.60,-0.12,0.00
2.4050,0.08,0.12,-0.98,3.54,-0.37,-0.61
2.4210,0.09,0.12,-0.98,3.60,-0.37,-0.92
2.4380,0.09,0.12,-0.98,3.66,-0.55,-0.73
2.4540,0.08,0.12,-0.99,3.66,-0.24,-0.55
2.4700,0.09,0.12,-0.99,3.54,-0.49,-0.55
2.4860,0.09,0.13,-0.98,3.48,-0.37,-0.37
2.5020,0.09,0.13,-0.98,3.54,0.06,-0.12
2.5170,0.08,0.12,-0.99,3.48,-0.12,0.00
2.5340,0.08,0.12,-0.98,3.36,-0.43,-0.31
2.5490,0.09,0.13,-0.98,3.36,0.12,-0.43
2.5640,0.08,0.13,-0.99,3.60,-0.43,-0.92
2.5800,0.09,0.13,-0.98,3.60,-0.92,-0.67
2.5950,0.10,0.13,-0.98,3.78,-0.43,-0.06
2.6100,0.10,0.13,-0.98,3.66,-0.37,0.24
2.6250,0.09,0.12,-0.98,3.23,-0.37,0.92
2.6370,0.09,0.12,-0.98,3.60,-0.79,0.92
2.6530,0.09,0.12,-0.98,3.78,-1.16,0.79
2.6700,0.09,0.13,-0.98,3.54,-0.43,0.67
2.6850,0.09,0.12,-0.98,3.54,-0.37,0.79
2.7000,0.09,0.12,-0.98,3.78,-0.85,0.67
2.7150,0.09,0.13,-0.99,3.66,-0.37,0.55
2.7200,0.09,0.12,-0.98,3.60,-0.55,1.22
2.7440,0.09,0.12,-0.98,3.36,-0.43,1.46
2.7590,0.08,0.12,-0.98,3.36,-0.79,1.28
2.7710,0.08,0.12,-0.99,3.48,-0.12,1.10
2.7860,0.09,0.12,-0.98,3.54,-0.55,0.98
2.8030,0.09,0.12,-0.98,3.54,-0.61,1.28
2.8190,0.09,0.13,-0.98,3.66,-0.67,1.28
2.8360,0.09,0.12,-0.98,3.78,-0.55,1.53
2.8520,0.09,0.12,-0.98,3.30,-0.37,1.40
2.8670,0.09,0.12,-0.98,3.54,-0.37,1.46
2.8830,0.09,0.12,-0.99,3.72,-0.49,1.46
2.8980,0.09,0.12,-0.98,3.60,-0.55,1.40
2.9130,0.09,0.12,-0.98,3.78,-0.55,1.46
2.9280,0.09,0.12,-0.98,3.78,-0.61,1.53
2.9360,0.09,0.12,-0.99,3.60,-0.31,1.46
2.9520,0.09,0.12,-0.98,3.72,-0.49,1.46
2.9730,0.09,0.12,-0.99,3.72,-0.37,1.59
2.9880,0.09,0.12,-0.98,3.66,-0.24,1.40
3.0040,0.09,0.12,-0.98,3.60,-0.49,1.34
3.0180,0.09,0.13,-0.98,3.48,-0.55,1.40
3.0340,0.09,0.12,-0.98,3.54,-0.43,1.59
3.0480,0.09,0.12,-0.98,3.60,-0.61,1.34
3.0630,0.09,0.12,-0.98,3.60,-0.55,1.53
3.0780,0.09,0.12,-0.98,3.66,-0.43,1.40
3.0890,0.09,0.12,-0.98,3.78,-0.73,1.34
3.1060,0.09,0.13,-0.99,3.54,-0.31,1.46
3.1220,0.09,0.13,-0.99,3.78,-1.10,1.40
3.1370,0.09,0.12,-0.98,3.36,-0.49,1.40
3.1520,0.09,0.13,-0.98,3.60,-0.67,1.40
3.1680,0.09,0.12,-0.99,3.60,-0.67,1.34
3.1830,0.09,0.12,-0.98,3.54,-0.37,1.40
3.1990,0.09,0.13,-0.98,3.42,-0.61,1.40
3.2150,0.09,0.12,-0.98,3.66,-0.92,1.46
3.2230,0.09,0.12,-0.98,3.60,-0.12,1.53
3.2380,0.09,0.13,-0.98,3.60,-0.31,1.40
3.2580,0.09,0.12,-0.99,3.78,-0.85,1.40
3.2760,0.09,0.12,-0.98,3.60,-0.31,1.53
3.2920,0.09,0.12,-0.98,3.48,-0.61,1.40
3.3080,0.09,0.12,-0.98,3.60,-0.67,1.34
3.3100,0.09,0.12,-0.99,3.54,-0.61,1.53
3.3260,0.09,0.12,-0.98,3.30,-0.73,1.46
3.3550,0.09,0.12,-0.98,3.66,-0.55,1.46
3.3630,0.09,0.12,-0.99,3.60,-0.92,1.46
3.3750,0.09,0.12,-0.98,3.54,-0.12,1.40
3.4000,0.09,0.12,-0.98,3.60,-0.73,1.46
3.4080,0.09,0.12,-0.98,3.60,-0.55,1.53
3.4250,0.09,0.13,-0.98,3.66,-0.85,1.40
3.4410,0.09,0.12,-0.98,3.42,-0.31,1.40
3.4570,0.09,0.12,-0.99,3.60,-0.67,1.40
3.4750,0.09,0.12,-0.98,3.60,-0.67,1.40
3.4910,0.09,0.12,-0.99,3.54,-0.43,1.46
3.5080,0.09,0.12,-0.98,3.60,-0.43,1.46
3.5230,0.09,0.13,-0.98,3.66,-0.73,1.53
3.5400,0.09,0.12,-0.98,3.48,-0.49,1.46
3.5410,0.09,0.12,-0.98,3.66,-0.85,1.34
3.5620,0.09,0.12,-0.98,3.42,-0.67,1.28
3.5740,0.09,0.12,-0.99,3.72,-0.61,1.40
3.5890,0.09,0.12,-0.98,3.60,-0.55,1.53
3.6190,0.09,0.12,-0.98,3.48,-0.67,1.40
3.6290,0.09,0.13,-0.98,3.60,-0.79,1.46
3.6470,0.09,0.12,-0.98,3.60,-0.49,1.40
3.6630,0.09,0.13,-0.98,3.48,-0.37,1.53
3.6790,0.09,0.12,-0.98,3.60,-0.31,1.65
3.6950,0.09,0.13,-0.98,3.66,-0.61,1.40
3.7110,0.09,0.12,-0.98,3.54,-0.67,1.46
3.7260,0.09,0.12,-0.98,3.54,-0.49,1.46
3.7420,0.09,0.13,-0.98,3.36,-0.55,1.34
3.7580,0.09,0.12,-0.98,3.42,-0.49,1.40
3.7740,0.09,0.12,-0.98,3.42,-0.24,1.28
3.7890,0.09,0.12,-0.98,3.48,-0.24,1.40
3.8040,0.09,0.12,-0.99,3.60,-0.43,1.40
3.8210,0.09,0.12,-0.98,3.60,-0.61,1.53
3.8360,0.09,0.12,-0.98,3.54,-0.49,1.53
3.8510,0.09,0.12,-0.98,3.48,-0.67,1.46
3.8620,0.09,0.13,-0.99,3.48,-0.31,1.40
3.8780,0.09,0.12,-0.98,3.66,-0.49,1.40
3.8980,0.09,0.12,-0.98,3.78,-0.61,1.40
3.9130,0.09,0.13,-0.98,3.66,-0.24,1.34
3.9280,0.09,0.12,-0.98,3.60,-0.18,1.46
3.9440,0.09,0.12,-0.98,3.60,-0.67,1.40
3.9590,0.09,0.13,-0.98,3.72,-0.79,1.46
3.9740,0.09,0.12,-0.98,3.60,-0.61,1.34
3.9880,0.09,0.13,-0.98,3.91,-0.18,1.59
3.9990,0.09,0.13,-0.99,3.48,-0.55,1.53
4.0160,0.09,0.12,-0.99,3.54,-0.61,1.34
4.0330,0.09,0.12,-0.98,3.60,-0.31,1.46
4.0490,0.09,0.12,-0.98,3.54,-0.37,1.46
4.0660,0.09,0.12,-0.98,3.54,-0.55,1.40
4.0820,0.09,0.12,-0.98,3.60,-0.37,1.34
4.0970,0.09,0.13,-0.98,3.48,-0.37,1.59
4.1130,0.09,0.13,-0.98,3.54,-0.85,1.53
4.1290,0.09,0.09,-0.98,3.54,-0.37,1.34
4.1330,0.09,0.12,-0.98,3.54,-0.43,1.46
4.1490,0.09,0.13,-0.98,3.36,0.06,1.40
4.1700,0.09,0.12,-0.99,3.66,-0.67,1.46
4.1860,0.09,0.13,-0.98,3.30,-0.12,1.46
4.2030,0.09,0.12,-0.98,3.36,-0.49,1.46
4.2200,0.09,0.12,-0.98,3.72,-0.67,1.40
4.2360,0.09,0.13,-0.98,3.42,-0.49,1.34
4.2520,0.09,0.13,-0.99,3.54,-0.55,1.34
4.2680,0.09,0.13,-0.98,3.48,-0.67,1.40
4.2840,0.09,0.12,-0.98,3.54,-0.85,1.40
4.3000,0.09,0.13,-0.98,3.42,-0.49,1.40
4.3020,0.09,0.13,-0.99,3.54,-1.10,1.46
4.3180,0.09,0.13,-0.99,3.66,-0.31,1.40
4.3420,0.09,0.13,-0.98,3.66,-0.79,1.40
4.3600,0.09,0.13,-0.98,3.54,-0.43,1.40
4.3750,0.09,0.13,-0.98,3.48,-0.31,1.53
4.3920,0.09,0.13,-0.98,3.54,-0.92,1.40
4.4080,0.09,0.13,-0.99,3.54,-0.37,1.53
4.4250,0.09,0.12,-0.98,3.60,-0.73,1.40
4.4260,0.09,0.12,-0.99,3.54,-0.55,1.40
4.4420,0.09,0.12,-0.98,3.54,-0.43,1.53
4.4730,0.09,0.12,-0.98,3.48,-0.31,1.34
4.4750,0.09,0.13,-0.98,3.72,-0.61,1.46
4.5050,0.09,0.13,-0.99,3.54,-0.67,1.46
4.5210,0.09,0.12,-0.98,3.54,-0.79,1.28
4.5250,0.09,0.12,-0.99,3.48,-0.37,1.46
4.5410,0.09,0.12,-0.98,3.60,-0.55,1.40
4.5590,0.09,0.12,-0.98,3.54,-0.55,1.40
4.5800,0.09,0.12,-0.98,3.48,-0.31,1.40
4.5960,0.09,0.12,-0.98,3.48,-0.67,1.40
4.6120,0.09,0.12,-0.99,3.36,-0.43,1.46
4.6280,0.09,0.13,-0.98,3.54,-0.98,1.40
4.6430,0.09,0.13,-0.99,3.42,-0.73,1.40
4.6590,0.09,0.13,-0.98,3.36,-0.67,1.40
4.6610,0.09,0.12,-0.98,3.66,-0.61,1.46
4.6840,0.09,0.12,-0.98,3.54,-0.37,1.40
4.7000,0.09,0.12,-0.98,3.54,-0.73,1.40
4.7170,0.09,0.12,-0.99,3.54,-0.18,1.46
4.7330,0.09,0.12,-0.98,3.48,-0.37,1.53
4.7500,0.09,0.12,-0.98,3.36,-0.55,1.34
4.7660,0.09,0.12,-0.98,3.54,-0.55,1.59
4.7820,0.09,0.13,-0.98,3.42,-0.55,1.46
4.7970,0.09,0.12,-0.98,3.42,-0.24,1.28
4.8000,0.09,0.12,-0.98,3.85,-0.55,1.59
4.8160,0.09,0.12,-0.98,3.54,-0.43,1.40
4.8390,0.09,0.13,-0.98,3.66,-0.55,1.40
4.8580,0.09,0.12,-0.99,3.48,-0.85,1.40
4.8730,0.09,0.13,-0.98,3.72,-0.79,1.40
4.8900,0.09,0.13,-0.99,3.78,-0.85,1.46
4.9050,0.09,0.12,-0.98,3.60,-0.73,1.34
4.9200,0.09,0.13,-0.98,3.30,0.00,1.53
4.9360,0.09,0.12,-0.98,3.60,-0.79,1.59
4.9390,0.09,0.12,-0.98,3.54,-0.79,1.59
4.9580,0.09,0.12,-0.98,3.60,-0.67,1.46
4.9710,0.09,0.13,-0.99,3.60,-0.67,1.28
4.9950,0.09,0.12,-0.98,3.66,-0.24,1.46
5.0060,0.09,0.13,-0.98,3.60,-0.12,1.34
5.0210,0.09,0.13,-0.98,3.60,-0.24,1.40
5.0380,0.09,0.13,-0.98,3.42,-0.18,1.40
5.0550,0.09,0.12,-0.99,3.60,-0.43,1.28
5.0720,0.09,0.13,-0.98,3.66,-0.92,1.34
5.0880,0.09,0.13,-0.98,3.66,-0.85,1.46
5.1040,0.09,0.12,-0.98,3.66,-0.92,1.40
5.1210,0.09,0.13,-0.99,3.66,-0.61,1.40
5.1370,0.09,0.13,-0.98,3.48,-0.55,1.40
5.1520,0.09,0.13,-0.99,3.42,-0.79,1.46
5.1680,0.09,0.12,-0.98,3.54,-0.98,1.34
5.1700,0.09,0.13,-0.99,3.54,-0.73,1.46
5.1860,0.09,0.12,-0.98,3.54,-0.98,1.53
5.2100,0.09,0.12,-0.98,3.60,-0.61,1.46
5.2250,0.09,0.13,-0.98,3.85,-0.49,1.59
5.2430,0.09,0.13,-0.98,3.85,-0.85,1.40
5.2580,0.09,0.12,-0.99,3.54,-0.73,1.46
5.2750,0.09,0.13,-0.98,3.48,-0.61,1.40
5.2910,0.09,0.12,-0.99,3.48,-0.73,1.34
5.3060,0.09,0.12,-0.98,3.60,-0.67,1.46
5.3090,0.09,0.13,-0.98,3.54,-0.49,1.46
5.3240,0.09,0.13,-0.98,3.72,-0.61,1.53
5.3520,0.09,0.13,-0.98,3.60,-0.61,1.53
5.3670,0.09,0.13,-0.99,3.54,-0.85,1.40
5.3790,0.09,0.13,-0.98,3.54,-0.85,1.46
5.3960,0.09,0.13,-0.98,3.78,-0.85,1.34
5.4110,0.09,0.13,-0.98,3.54,-0.37,1.40
5.4280,0.09,0.12,-0.99,3.66,-0.49,1.34
5.4440,0.09,0.13,-0.99,3.30,-0.73,1.46
5.4610,0.09,0.13,-0.98,3.54,-0.37,1.28
5.4770,0.09,0.13,-0.98,3.66,-0.98,1.28
5.4930,0.09,0.13,-0.98,3.36,-0.73,1.28
5.5090,0.09,0.12,-0.98,3.42,-0.67,1.28
5.5240,0.09,0.12,-0.98,3.66,-0.31,1.22
5.5280,0.09,0.13,-0.98,3.60,-0.24,1.34
5.5440,0.09,0.12,-0.98,3.60,-0.37,1.59
5.5680,0.09,0.13,-0.98,3.54,-0.73,1.40
5.5850,0.09,0.12,-0.98,3.48,-0.37,1.40
5.5850,0.09,0.13,-0.99,3.48,-0.67,1.40
5.6170,0.09,0.13,-0.98,3.48,-0.49,1.40
5.6320,0.09,0.13,-0.98,3.60,-0.43,1.40
5.6350,0.09,0.12,-0.98,3.66,-0.43,1.53
5.6560,0.09,0.13,-0.99,3.54,-0.55,1.34
5.6740,0.09,0.13,-0.99,3.60,-0.18,1.53
5.6920,0.09,0.12,-0.99,3.60,-0.92,1.46
5.7070,0.09,0.13,-0.99,3.48,-0.67,1.40
5.7080,0.09,0.13,-0.98,3.78,-0.73,1.46
5.7370,0.09,0.12,-0.98,3.54,-0.85,1.59
5.7520,0.09,0.16,-0.98,3.60,-0.31,1.59
5.7670,0.09,0.13,-0.98,3.60,-0.37,1.59
5.7820,0.09,0.13,-0.98,3.54,-0.79,1.46
5.7960,0.09,0.12,-0.98,3.42,-0.73,1.59
5.8120,0.09,0.13,-0.98,3.66,-0.31,1.46
5.8270,0.09,0.13,-0.98,3.60,-0.37,1.53
5.8390,0.09,0.13,-0.98,3.72,-0.55,1.46
5.8560,0.09,0.13,-0.99,3.54,-0.31,1.53
5.8720,0.09,0.13,-0.98,3.54,-0.79,1.40
5.8900,0.09,0.13,-0.99,3.66,-0.31,1.53
5.9050,0.09,0.12,-0.98,3.60,-0.61,1.46
5.9200,0.09,0.12,-0.98,3.54,-0.49,1.53
5.9370,0.09,0.12,-0.98,3.48,-0.18,1.46
5.9530,0.09,0.13,-0.98,3.72,-1.10,1.40
5.9690,0.09,0.12,-0.98,3.72,-0.73,1.34
5.9840,0.09,0.13,-0.98,3.36,-0.43,1.34
6.0020,0.09,0.12,-0.98,3.54,-0.49,1.53
6.0050,0.09,0.13,-0.98,3.36,-0.43,1.53
6.0210,0.09,0.12,-0.98,3.60,-0.37,1.46
6.0440,0.09,0.13,-0.98,3.48,-0.12,1.59
6.0600,0.09,0.13,-0.99,3.60,-0.55,1.59
6.0760,0.09,0.13,-0.98,3.36,-0.43,1.53
6.0930,0.09,0.13,-0.98,3.48,-0.37,1.46
6.1090,0.09,0.12,-0.98,3.54,-0.61,1.40
6.1270,0.09,0.13,-0.98,3.66,-0.85,1.34
6.1430,0.09,0.13,-0.98,3.54,-0.55,1.40
6.1590,0.09,0.13,-0.98,3.66,-0.61,1.40
6.1760,0.09,0.12,-0.98,3.48,-0.73,1.34
6.1910,0.09,0.13,-0.98,3.23,-0.24,1.46
6.2080,0.09,0.12,-0.98,3.54,-0.31,1.46
6.2100,0.09,0.13,-0.98,3.42,0.00,1.46
6.2250,0.09,0.12,-0.98,3.54,-0.85,1.46
6.2520,0.09,0.13,-0.98,3.66,-0.79,1.53
6.2640,0.09,0.13,-0.99,3.36,-0.43,1.40
6.2810,0.09,0.13,-0.98,3.36,-0.37,1.40
6.2980,0.09,0.13,-0.98,3.48,-0.43,1.28
6.3130,0.09,0.13,-0.98,3.48,0.12,1.46
6.3300,0.09,0.13,-0.99,3.60,-0.61,1.46
6.3460,0.09,0.13,-0.98,3.36,-0.31,1.46
6.3630,0.09,0.13,-0.98,3.30,-0.73,1.40
6.3640,0.09,0.13,-0.98,3.72,-0.49,1.40
6.3950,0.09,0.13,-0.98,3.72,-0.31,1.40
6.4110,0.09,0.13,-0.98,3.36,-0.43,1.34
6.4260,0.09,0.13,-0.98,3.48,-0.61,1.46
6.4310,0.09,0.12,-0.98,3.66,-0.37,1.46
6.4540,0.09,0.13,-0.99,3.36,-0.61,1.28
6.4630,0.09,0.13,-0.98,3.66,-0.43,1.59
6.4880,0.09,0.12,-0.98,3.60,-0.49,1.40
6.5000,0.09,0.13,-0.98,3.66,-0.37,1.53
6.5160,0.09,0.13,-0.98,3.60,-0.73,1.40
6.5330,0.09,0.13,-0.99,3.36,-0.31,1.46
6.5500,0.09,0.13,-0.98,3.78,-0.37,1.34
6.5650,0.09,0.13,-0.99,3.78,-0.61,1.46
6.5810,0.09,0.13,-0.98,3.60,-0.06,1.53
6.5980,0.09,0.13,-0.98,3.23,-0.37,1.40
6.6130,0.09,0.13,-0.99,3.54,0.12,1.34
6.6280,0.09,0.13,-0.98,3.60,-0.43,1.59
6.6430,0.09,0.13,-0.99,3.54,-0.55,1.46
6.6530,0.09,0.13,-0.98,3.54,-0.79,1.16
6.6650,0.09,0.13,-0.99,3.54,-0.79,1.34
6.6880,0.09,0.12,-0.98,3.72,-0.43,1.28
6.7050,0.09,0.13,-0.99,3.48,-0.37,1.46
6.7210,0.09,0.13,-0.98,3.60,-0.43,1.40
6.7370,0.09,0.13,-0.98,3.66,-0.79,1.46
6.7530,0.09,0.12,-0.98,3.36,-0.37,1.46
6.7680,0.09,0.12,-0.98,3.60,-0.98,1.34
6.7840,0.09,0.13,-0.98,3.72,-0.73,1.28
6.7990,0.09,0.13,-0.98,3.60,-0.49,1.59
6.8150,0.09,0.13,-0.99,3.54,-0.55,1.59
6.8300,0.09,0.13,-0.98,3.66,-0.85,1.59
6.8370,0.09,0.13,-0.99,3.78,-0.61,1.34
6.8520,0.09,0.13,-0.98,3.72,-0.85,1.53
6.8740,0.09,0.13,-0.99,3.54,-0.55,1.40
6.8910,0.09,0.12,-0.98,3.54,-0.79,1.22
6.9070,0.09,0.12,-0.99,3.78,-0.24,1.46
6.9230,0.09,0.13,-0.98,3.48,-0.37,1.46
6.9390,0.09,0.13,-0.98,3.66,-0.67,1.46
6.9550,0.09,0.12,-0.98,3.54,-1.10,1.46
6.9580,0.09,0.13,-0.98,3.60,-0.92,1.46
6.9730,0.09,0.13,-0.98,3.72,-0.61,1.28
7.0000,0.09,0.13,-0.98,3.60,-0.92,1.46
7.0120,0.09,0.12,-0.98,3.48,-0.98,1.34
7.0290,0.09,0.13,-0.98,3.60,-0.61,1.53
7.0450,0.09,0.12,-0.98,3.60,-0.79,1.34
7.0610,0.09,0.12,-0.98,3.66,-0.37,1.53
7.0780,0.08,0.13,-0.99,3.60,-0.37,1.40
7.0790,0.09,0.13,-0.99,3.78,-0.92,1.34
7.1100,0.09,0.12,-0.98,3.48,-0.92,1.34
7.1270,0.08,0.13,-0.99,3.60,-0.67,1.46
7.1430,0.08,0.12,-0.98,3.60,-0.67,1.40
7.1580,0.09,0.13,-0.99,3.60,-0.49,1.40
7.1730,0.09,0.12,-0.98,3.42,-0.67,1.65
7.1780,0.09,0.12,-0.98,3.42,-0.73,1.28
7.1940,0.09,0.13,-0.99,3.42,-1.04,1.28
7.2170,0.09,0.13,-0.99,3.66,-0.73,1.53
7.2340,0.09,0.13,-0.98,3.54,-0.67,1.40
7.2490,0.09,0.12,-0.98,3.54,-0.49,1.34
7.2640,0.09,0.13,-0.99,3.60,-0.55,1.53
7.2670,0.09,0.12,-0.98,3.60,-0.92,1.40
7.2830,0.09,0.12,-0.98,3.36,-0.55,1.53
7.3100,0.09,0.12,-0.98,3.54,-0.98,1.46
7.3210,0.09,0.13,-0.99,3.54,-0.73,1.22
7.3370,0.09,0.13,-0.98,3.60,-1.22,1.40
7.3540,0.09,0.12,-0.98,3.54,-0.85,1.46
7.3700,0.09,0.13,-0.98,3.60,-1.46,1.28
7.3870,0.09,0.13,-0.98,3.48,-0.85,1.40
7.4020,0.09,0.12,-0.99,3.42,-0.85,1.53
7.4180,0.09,0.12,-0.98,3.60,-0.85,1.40
7.4350,0.09,0.12,-0.99,3.54,-0.73,1.40
7.4500,0.09,0.12,-0.99,3.54,-0.85,1.53
7.4520,0.09,0.12,-0.99,3.66,-0.85,1.46
7.4820,0.09,0.12,-0.98,3.60,-0.73,1.40
7.4920,0.09,0.12,-0.98,3.42,-0.43,1.34
7.5090,0.09,0.12,-0.98,3.54,-0.92,1.46
7.5260,0.09,0.12,-0.98,3.60,-1.10,1.34
7.5430,0.09,0.12,-0.98,3.66,-0.98,1.40
7.5590,0.09,0.12,-0.98,3.78,-0.92,1.22
7.5760,0.09,0.12,-0.98,3.54,-1.10,1.28
7.5920,0.09,0.13,-0.98,3.42,-0.73,1.46
7.5930,0.09,0.12,-0.98,3.54,-0.79,1.40
7.6240,0.09,0.12,-0.98,3.60,-0.37,1.53
7.6390,0.09,0.13,-0.99,3.72,-0.49,1.40
7.6500,0.09,0.12,-0.98,3.66,-0.43,1.40
7.6580,0.09,0.12,-0.98,3.66,-0.85,1.40
7.6870,0.09,0.12,-0.98,3.48,-1.04,1.40
7.6980,0.09,0.12,-0.98,3.60,-0.67,1.46
7.7160,0.09,0.12,-0.99,3.54,-0.24,1.46
7.7310,0.09,0.12,-0.99,3.42,-0.55,1.46
7.7480,0.09,0.13,-0.98,3.54,-0.43,1.40
7.7630,0.09,0.12,-0.98,3.60,-0.49,1.40
7.7790,0.09,0.13,-0.99,3.54,-0.31,1.46
7.7940,0.09,0.12,-0.98,3.48,-0.67,1.40
7.8100,0.09,0.13,-0.98,3.48,-0.55,1.46
7.8250,0.09,0.12,-0.98,3.54,-0.18,1.34
7.8400,0.09,0.12,-0.99,3.78,-0.85,1.34
7.8550,0.09,0.12,-0.99,3.66,-0.73,1.53
7.8700,0.09,0.12,-0.98,3.60,-0.61,1.46
7.8810,0.09,0.12,-0.99,3.66,-0.31,1.40
7.8970,0.09,0.12,-0.98,3.48,-0.85,1.34
7.9140,0.09,0.12,-0.98,3.60,-0.49,1.40
7.9300,0.09,0.12,-0.98,3.60,-0.85,1.34
7.9450,0.09,0.13,-0.99,3.48,-0.55,1.34
7.9610,0.09,0.12,-0.98,3.48,-0.98,1.40
7.9770,0.09,0.12,-0.98,3.48,-0.67,1.46
7.9800,0.09,0.12,-0.99,3.72,-0.79,1.34
7.9960,0.09,0.12,-0.98,3.54,-0.31,1.34
8.0180,0.09,0.12,-0.98,3.60,-0.37,1.40
8.0340,0.09,0.12,-0.98,3.42,-0.67,1.46
8.0500,0.09,0.13,-0.99,3.48,-0.61,1.53
8.0660,0.09,0.12,-0.98,3.72,-0.79,1.40
8.0840,0.09,0.13,-0.99,3.48,-0.85,1.53
8.0990,0.09,0.12,-0.98,3.30,-0.49,1.46
8.1150,0.09,0.13,-0.99,3.54,-0.67,1.40
8.1310,0.09,0.12,-0.98,3.42,-0.24,1.40
8.1470,0.09,0.13,-0.98,3.60,-0.79,1.46
8.1620,0.09,0.13,-0.98,3.60,-0.67,1.34
8.1780,0.09,0.12,-0.98,3.23,-0.55,1.40
8.1820,0.09,0.13,-0.98,3.48,-0.43,1.40
8.1980,0.09,0.13,-0.98,3.60,-0.73,1.28
8.2200,0.09,0.12,-0.98,3.66,-0.73,1.40
8.2370,0.09,0.12,-0.98,3.60,-0.79,1.34
8.2530,0.09,0.12,-0.99,3.54,-0.67,1.40
8.2700,0.08,0.12,-0.98,3.54,-0.67,1.34
8.2860,0.09,0.12,-0.98,3.60,-0.67,1.40
8.3010,0.09,0.12,-0.98,3.48,-0.55,1.28
8.3170,0.09,0.12,-0.98,3.60,-0.98,1.34
8.3330,0.09,0.09,-0.98,3.48,-0.61,1.46
8.3480,0.09,0.12,-0.98,3.54,-0.55,1.46
8.3630,0.09,0.13,-0.99,3.48,-0.49,1.40
8.3790,0.09,0.12,-0.98,3.23,-0.61,1.40
8.3870,0.09,0.12,-0.98,3.30,-0.43,1.40
8.4020,0.09,0.12,-0.98,3.54,-0.49,1.40
8.4180,0.09,0.13,-0.99,3.72,-0.73,1.40
8.4410,0.09,0.13,-0.98,3.54,-0.37,1.28
8.4580,0.09,0.12,-0.98,3.60,-0.79,1.53
8.4740,0.09,0.13,-0.99,3.72,-0.92,1.59
8.4890,0.09,0.13,-0.98,3.72,-0.55,1.71
8.5050,0.08,0.12,-0.98,3.60,-0.49,1.71
8.5220,0.08,0.12,-0.99,3.54,-0.73,1.53
8.5380,0.09,0.12,-0.99,3.48,-0.61,1.34
8.5530,0.09,0.12,-0.98,3.54,-0.67,1.46
8.5690,0.09,0.13,-0.98,3.72,-0.67,1.46
8.5750,0.09,0.13,-0.98,3.60,-0.92,1.65
8.5910,0.08,0.13,-0.98,3.48,-0.55,1.59
8.6140,0.08,0.13,-0.98,3.54,-1.10,3.85
8.6300,0.09,0.13,-0.99,3.23,-0.73,3.66
8.6470,0.09,0.12,-0.99,3.72,-0.61,2.99
8.6620,0.09,0.12,-0.98,3.66,-0.85,2.56
8.6790,0.09,0.13,-0.98,3.60,-0.79,2.32
8.6940,0.09,0.13,-0.98,3.78,-0.73,2.20
8.7090,0.09,0.13,-0.98,3.66,-1.22,2.56
8.7240,0.09,0.13,-0.98,3.54,-1.10,2.69
8.7390,0.09,0.13,-0.99,3.48,-1.16,2.99
8.7460,0.08,0.12,-0.98,3.66,-1.16,2.75
8.7610,0.08,0.11,-0.99,3.66,-0.61,1.71
8.7820,0.08,0.12,-0.98,3.54,-0.61,1.71
8.8000,0.09,0.12,-0.98,3.36,-0.49,1.65
8.8160,0.09,0.13,-0.98,3.48,-0.55,2.01
8.8310,0.09,0.13,-0.98,3.42,-0.37,2.14
8.8480,0.09,0.13,-0.98,3.42,-0.79,2.38
8.8630,0.09,0.13,-0.99,3.60,-0.98,2.75
8.8650,0.09,0.12,-0.99,3.78,-0.67,2.69
8.8950,0.09,0.13,-0.98,3.66,-0.61,2.69
8.9100,0.09,0.13,-0.98,3.42,-0.55,3.11
8.9190,0.09,0.13,-0.98,3.36,-0.55,3.23
8.9350,0.08,0.13,-0.99,3.60,-0.98,3.72
8.9550,0.09,0.13,-0.98,3.17,-0.55,4.27
8.9710,0.08,0.12,-0.99,3.42,-1.16,3.30
8.9860,0.08,0.11,-0.99,3.42,-0.85,2.62
9.0010,0.08,0.11,-0.99,3.48,-0.85,2.20
9.0170,0.08,0.12,-0.99,3.42,-0.61,2.01
9.0310,0.08,0.12,-0.98,3.36,-0.24,1.77
9.0450,0.09,0.13,-0.98,3.54,-0.92,1.71
9.0560,0.09,0.13,-0.98,3.60,-0.43,1.95
9.0780,0.09,0.13,-0.98,3.66,-0.49,2.44
9.0940,0.09,0.13,-0.98,3.54,-1.10,2.26
9.1090,0.09,0.13,-0.99,3.60,-1.10,2.56
9.1250,0.09,0.13,-0.98,3.36,-0.85,3.05
9.1390,0.09,0.12,-0.99,3.42,-1.04,2.93
9.1550,0.08,0.11,-0.99,3.42,-0.43,2.99
9.1700,0.08,0.12,-0.98,3.30,-0.67,1.89
9.1780,0.09,0.13,-0.98,3.54,-0.92,1.71
9.1940,0.09,0.13,-0.98,3.60,-0.61,1.95
9.2160,0.09,0.13,-0.98,3.66,-0.73,2.01
9.2310,0.09,0.14,-0.98,3.60,-0.98,2.44
9.2470,0.09,0.13,-0.98,3.48,-0.61,2.75
9.2630,0.08,0.12,-0.99,3.42,-0.98,2.81
9.2790,0.08,0.12,-0.99,3.66,-1.16,3.30
9.2830,0.09,0.13,-0.98,3.17,-1.40,4.21
9.2980,0.08,0.11,-0.99,3.54,-1.10,2.26
9.3250,0.09,0.12,-0.98,3.54,-0.37,2.62
9.3370,0.09,0.12,-0.98,3.48,-0.67,1.89
9.3520,0.09,0.13,-0.98,3.30,-0.43,1.89
9.3700,0.09,0.13,-0.98,3.23,-0.67,1.59
9.3850,0.09,0.13,-0.98,3.36,-0.55,1.53
9.4030,0.09,0.13,-0.98,3.30,-0.67,1.46
9.4190,0.09,0.13,-0.98,3.54,-0.73,1.71
9.4350,0.09,0.12,-0.98,3.78,-1.34,2.08
9.4510,0.09,0.13,-0.98,3.42,-1.04,2.26
9.4680,0.09,0.13,-0.98,3.54,-0.92,2.08
9.4840,0.09,0.13,-0.99,3.23,-0.73,2.69
9.5000,0.08,0.12,-0.99,3.54,-1.16,2.50
9.5160,0.09,0.12,-0.99,3.54,-0.55,2.44
9.5320,0.09,0.13,-0.98,3.36,-0.85,2.81
9.5460,0.09,0.13,-0.98,3.30,-0.67,3.66
9.5610,0.09,0.12,-0.98,3.54,-1.10,3.48
9.5760,0.09,0.11,-0.99,3.60,-0.61,2.93
9.5910,0.09,0.12,-0.99,3.42,-0.67,2.38
9.6020,0.09,0.13,-0.99,3.42,-0.43,1.95
9.6200,0.09,0.13,-0.98,3.30,-0.67,1.89
9.6340,0.09,0.13,-0.98,3.60,-0.49,2.32
9.6520,0.09,0.12,-0.98,3.66,-0.67,2.56
9.6690,0.08,0.13,-0.98,3.54,-1.04,2.69
9.6840,0.09,0.12,-0.99,3.36,-0.55,2.81
9.7000,0.09,0.13,-0.99,3.48,-1.04,2.08
9.7150,0.09,0.13,-0.98,3.36,-0.31,2.75
9.7310,0.09,0.12,-0.99,3.48,-0.98,3.11
9.7430,0.08,0.11,-0.99,3.54,-1.10,2.75
9.7620,0.09,0.12,-0.99,3.42,-0.67,2.20
9.7780,0.08,0.14,-0.98,3.36,-0.98,2.20
9.7940,0.09,0.13,-0.98,3.36,-0.92,3.17
9.8010,0.08,0.12,-0.99,3.36,-1.22,2.93
9.8170,0.09,0.12,-0.98,3.42,-0.92,2.50
9.8390,0.09,0.12,-0.99,3.36,-0.43,2.01
9.8560,0.09,0.12,-0.98,3.48,-0.92,1.71
9.8730,0.09,0.12,-0.99,3.60,-0.55,1.65
9.8880,0.09,0.12,-0.99,3.54,-0.79,1.95
9.9050,0.08,0.13,-0.98,3.48,-0.55,1.83
9.9200,0.08,0.14,-0.98,3.30,-0.85,2.26
9.9350,0.08,0.13,-0.99,3.17,-0.06,1.77
9.9520,0.08,0.13,-0.99,3.17,-0.43,1.04
9.9670,0.09,0.12,-0.98,3.48,-0.61,0.98
9.9830,0.08,0.12,-0.98,3.36,-0.24,1.34
9.9880,0.09,0.10,-0.98,3.30,-0.85,1.77
10.0040,0.09,0.11,-0.99,3.48,-0.98,1.22
10.0270,0.09,0.11,-0.99,3.97,-0.55,1.59
10.0430,0.09,0.12,-0.99,3.42,-0.61,1.71
10.0600,0.08,0.12,-0.98,3.48,-0.37,1.77
10.0770,0.08,0.13,-0.98,3.48,-0.61,1.83
10.0920,0.09,0.13,-0.98,3.30,-0.37,2.08
10.0940,0.09,0.12,-0.98,3.48,-0.12,2.32
10.1210,0.09,0.12,-0.99,3.66,-0.55,2.14
10.1360,0.09,0.14,-0.98,3.36,-0.61,2.14
10.1520,0.09,0.14,-0.98,3.23,-0.49,2.56
10.1660,0.09,0.12,-0.98,3.60,-0.67,2.81
10.1760,0.09,0.11,-0.99,3.60,-0.92,3.05
10.1920,0.09,0.12,-0.98,3.66,-1.28,3.05
10.2110,0.09,0.13,-0.98,3.36,-0.61,2.69
10.2270,0.09,0.12,-0.98,3.42,-0.61,2.87
10.2420,0.09,0.11,-0.99,3.23,-0.67,2.44
10.2570,0.09,0.12,-0.99,3.42,-1.04,2.32
10.2720,0.09,0.13,-0.98,3.36,-0.92,2.26
10.2860,0.09,0.14,-0.98,3.42,-0.73,3.05
10.3020,0.09,0.13,-0.98,3.48,-1.04,4.15
10.3170,0.09,0.13,-0.98,3.30,-0.61,4.46
10.3330,0.09,0.12,-0.98,3.60,-0.67,2.87
10.3430,0.08,0.12,-0.98,3.54,-0.67,2.69
10.3600,0.09,0.13,-0.98,3.30,-0.92,2.99
10.3750,0.09,0.11,-0.99,3.42,-0.55,2.20
10.3930,0.08,0.11,-0.99,3.60,-0.37,2.20
10.4090,0.09,0.13,-0.98,3.54,-0.43,1.71
10.4250,0.09,0.15,-0.98,3.48,-0.85,1.95
10.4410,0.09,0.14,-0.98,3.54,-0.49,2.32
10.4560,0.09,0.12,-0.99,3.54,-0.55,2.87
10.4720,0.09,0.12,-0.98,3.42,-1.34,2.62
10.4750,0.09,0.13,-0.98,3.30,-1.10,2.93
10.4910,0.09,0.13,-0.98,3.36,-0.92,3.05
10.5190,0.09,0.11,-0.99,3.36,-0.85,2.75
10.5340,0.09,0.11,-0.99,3.48,-0.79,2.08
10.5450,0.09,0.13,-0.98,3.60,-0.67,1.77
10.5610,0.09,0.14,-0.98,3.48,-0.61,2.20
10.5790,0.09,0.14,-0.98,3.42,-0.92,2.69
10.5950,0.09,0.13,-0.98,3.36,-1.04,2.81
10.6100,0.09,0.12,-0.99,3.42,-1.04,2.99
10.6270,0.09,0.12,-0.99,3.36,-0.73,3.48
10.6420,0.09,0.13,-0.98,3.36,-0.98,2.99
10.6450,0.08,0.12,-0.98,3.48,-1.10,2.20
10.6610,0.09,0.12,-0.99,3.54,-0.92,2.38
10.6850,0.09,0.13,-0.98,3.30,-0.49,2.69
10.7010,0.09,0.13,-0.99,3.60,-0.67,2.62
10.7190,0.09,0.12,-0.98,3.23,-0.73,2.56
10.7350,0.09,0.12,-0.99,3.60,-1.10,2.69
10.7510,0.08,0.13,-0.98,3.30,-0.61,2.81
10.7660,0.09,0.13,-0.98,3.36,-0.31,3.23
10.7810,0.08,0.13,-0.98,3.30,-1.34,3.05
10.7970,0.09,0.13,-0.98,3.48,-1.04,2.75
10.8140,0.09,0.12,-0.98,3.60,-0.85,2.93
10.8290,0.09,0.13,-0.98,3.60,-0.85,3.05
10.8450,0.09,0.13,-0.99,3.54,-1.40,2.75
10.8600,0.09,0.13,-0.98,3.54,-0.73,2.69
10.8760,0.09,0.12,-0.99,3.54,-0.92,2.56
10.8910,0.09,0.13,-0.98,3.42,-1.10,2.87
10.9050,0.09,0.13,-0.98,3.30,-0.73,2.75
10.9170,0.09,0.13,-0.98,3.23,-1.10,2.75
10.9330,0.09,0.11,-0.99,3.48,-1.10,2.69
10.9530,0.08,0.15,-0.98,3.42,-0.24,2.56
10.9680,0.09,0.13,-0.98,3.54,-1.04,2.26
10.9830,0.09,0.13,-0.98,3.66,-1.28,2.44
10.9980,0.09,0.13,-0.99,3.78,-0.79,2.99
11.0140,0.09,0.12,-0.98,3.78,-1.22,2.69
11.0210,0.09,0.12,-0.99,3.60,-1.04,2.08
11.0400,0.09,0.12,-0.99,3.54,-0.79,2.08
11.0590,0.09,0.13,-0.98,3.66,-0.98,2.14
11.0750,0.09,0.13,-0.98,3.48,-0.79,2.14
11.0780,0.09,0.14,-0.99,3.85,-0.55,2.87
11.1070,0.09,0.14,-0.98,3.60,-0.73,3.85
11.1100,0.09,0.13,-0.98,3.66,-0.92,5.00
11.1360,0.09,0.13,-0.99,3.78,-1.22,4.52
11.1440,0.09,0.12,-0.98,3.36,-1.28,3.30
11.1600,0.08,0.12,-0.99,3.42,-0.98,3.23
11.1760,0.08,0.11,-0.99,3.54,-1.04,2.44
11.1930,0.09,0.13,-0.98,3.85,-1.22,1.77
11.2120,0.09,0.13,-0.98,3.66,-0.98,1.77
11.2270,0.09,0.13,-0.99,3.72,-1.16,1.89
11.2440,0.09,0.13,-0.98,3.72,-0.98,2.01
11.2590,0.09,0.13,-0.98,3.30,-0.79,2.38
11.2750,0.08,0.13,-0.99,3.48,-1.40,2.26
11.2910,0.08,0.12,-0.98,3.42,-1.34,1.59
11.3060,0.09,0.13,-0.98,3.54,-0.67,1.53
11.3120,0.09,0.13,-0.98,3.54,-0.92,1.71
11.3380,0.09,0.13,-0.98,3.66,-0.49,2.14
11.3530,0.09,0.13,-0.98,3.36,-1.10,2.26
11.3670,0.09,0.12,-0.98,3.72,-0.92,2.32
11.3820,0.09,0.12,-0.98,3.48,-1.10,2.08
11.3930,0.09,0.12,-0.99,3.66,-1.04,1.71
11.4100,0.09,0.13,-0.98,3.54,-0.73,1.65
11.4270,0.09,0.13,-0.98,3.54,-0.79,1.71
11.4420,0.09,0.14,-0.98,3.60,-1.34,2.44
11.4440,0.09,0.16,-0.98,3.30,-1.04,3.48
11.4600,0.09,0.15,-0.98,3.17,-1.77,5.31
11.4860,0.08,0.13,-0.98,3.72,-1.83,5.37
11.5020,0.08,0.11,-0.99,3.30,-1.71,4.88
11.5160,0.08,0.11,-0.99,3.23,-1.10,3.72
11.5260,0.08,0.11,-0.99,3.36,-0.85,1.40
11.5440,0.08,0.11,-0.99,3.48,-0.98,1.40
11.5590,0.09,0.12,-0.99,3.66,-0.73,1.46
11.5760,0.09,0.13,-0.98,3.42,-0.61,1.71
11.5910,0.09,0.13,-0.98,3.54,-0.79,1.83
11.6070,0.08,0.12,-0.98,3.60,-0.79,1.71
11.6220,0.09,0.12,-0.99,3.48,-0.55,2.01
11.6370,0.08,0.13,-0.98,3.54,-1.16,1.95
11.6520,0.08,0.14,-0.98,3.48,-0.79,2.20
11.6600,0.09,0.13,-0.98,3.66,-1.40,2.08
11.6750,0.09,0.13,-0.98,3.78,-1.04,1.83
11.6960,0.09,0.13,-0.99,4.03,-1.10,1.89
11.7120,0.09,0.14,-0.98,3.48,-0.92,2.75
11.7280,0.08,0.14,-0.98,3.48,-1.04,2.14
11.7430,0.08,0.12,-0.98,3.72,-0.73,2.08
11.7590,0.09,0.11,-0.99,3.72,-1.28,2.38
11.7750,0.09,0.11,-0.99,3.60,-0.85,1.83
11.7910,0.08,0.12,-0.99,3.54,-1.16,1.59
11.8070,0.09,0.13,-0.98,3.48,-1.28,1.53
11.8210,0.09,0.13,-0.98,3.60,-0.98,1.10
11.8360,0.09,0.13,-0.98,3.97,-1.34,1.40
11.8510,0.08,0.13,-0.98,3.72,-1.46,1.77
11.8620,0.09,0.14,-0.98,3.36,-0.92,2.38
11.8780,0.08,0.13,-0.98,3.48,-0.98,2.50
11.8960,0.09,0.12,-0.99,3.60,-0.79,1.83
11.9100,0.09,0.11,-0.99,3.66,-0.73,1.59
11.9260,0.09,0.12,-0.99,3.72,-0.67,1.77
11.9380,0.08,0.13,-0.99,3.66,-0.55,1.59
11.9440,0.08,0.15,-0.98,3.30,-1.04,2.62
11.9660,0.08,0.14,-0.98,3.60,-1.04,2.93
11.9830,0.09,0.12,-0.99,3.42,-1.10,3.78
11.9990,0.09,0.11,-0.99,3.48,-0.73,2.32
12.0150,0.09,0.12,-0.99,3.48,-0.85,1.83
12.0320,0.09,0.12,-0.98,3.60,-0.79,1.65
12.0460,0.09,0.13,-0.98,3.66,-1.10,1.65
12.0620,0.09,0.13,-0.98,3.48,-0.73,1.71
12.0780,0.09,0.13,-0.98,3.85,-1.10,1.65
12.0930,0.09,0.14,-0.98,3.78,-1.16,1.89
12.1080,0.08,0.14,-0.98,3.72,-0.92,1.40
12.1240,0.09,0.13,-0.99,3.85,-0.73,0.85
12.1400,0.08,0.11,-0.99,3.78,-0.24,-0.37
12.1490,0.09,0.11,-0.99,3.60,-0.49,-0.49
12.1670,0.09,0.13,-0.98,3.54,-0.55,1.10
12.1820,0.08,0.14,-0.98,3.54,-0.85,1.59
12.1980,0.08,0.14,-0.98,3.23,-0.43,2.01
12.2140,0.09,0.12,-0.98,3.85,-0.85,2.50
12.2300,0.09,0.11,-0.99,3.48,-0.73,2.56
12.2470,0.09,0.12,-0.99,3.42,-1.22,2.81
12.2620,0.09,0.12,-0.99,3.36,-0.79,2.26
12.2770,0.09,0.12,-0.98,3.42,-0.73,1.65
12.2920,0.09,0.13,-0.98,3.60,-0.73,1.22
12.3100,0.09,0.13,-0.99,3.78,-1.10,1.34
12.3250,0.09,0.13,-0.98,3.30,-0.49,1.53
12.3410,0.09,0.14,-0.98,3.48,-0.67,2.56
12.3560,0.09,0.13,-0.98,3.66,-1.40,3.05
12.3730,0.09,0.13,-0.99,3.54,-0.85,3.17
12.3880,0.09,0.13,-0.98,2.99,-0.85,3.05
12.3970,0.08,0.12,-0.98,3.48,-0.73,2.14
12.4130,0.08,0.11,-0.99,3.66,-0.31,2.14
12.4300,0.08,0.12,-0.99,3.54,-0.85,1.53
12.4470,0.09,0.14,-0.98,3.36,-0.67,1.28
12.4630,0.09,0.14,-0.98,3.54,-0.61,1.65
12.4810,0.09,0.13,-0.98,3.66,-0.85,2.32
12.4970,0.08,0.13,-0.98,3.60,-0.73,2.99
12.5130,0.09,0.14,-0.98,3.66,-1.10,3.05
12.5140,0.09,0.13,-0.99,3.72,-1.10,2.38
12.5430,0.09,0.13,-0.98,3.66,-0.92,2.69
12.5460,0.09,0.12,-0.98,3.54,-1.04,2.75
12.5610,0.08,0.12,-0.99,3.42,-0.73,1.10
12.5900,0.08,0.12,-0.98,3.54,-0.79,0.67
12.5990,0.08,0.12,-0.99,3.85,-1.10,0.67
12.6150,0.09,0.12,-0.99,3.66,-0.49,1.34
12.6360,0.08,0.13,-0.98,3.66,-0.67,1.71
12.6500,0.09,0.13,-0.98,3.66,-0.85,1.77
12.6520,0.09,0.14,-0.98,3.42,-0.73,1.95
12.6670,0.09,0.14,-0.98,3.30,-0.67,2.26
12.6850,0.09,0.13,-0.99,3.54,-0.49,2.26
12.7000,0.09,0.12,-0.99,3.48,-0.79,2.56
12.7280,0.08,0.12,-0.98,3.66,-0.98,2.14
12.7440,0.09,0.13,-0.99,3.36,-0.73,1.89
12.7500,0.09,0.12,-0.99,3.30,-0.73,1.16
12.7740,0.09,0.12,-0.99,3.72,-0.73,1.40
12.7830,0.09,0.13,-0.98,3.54,-0.55,1.77
12.7990,0.09,0.14,-0.98,3.78,-1.16,2.62
12.8190,0.09,0.14,-0.98,3.72,-0.73,3.23
12.8350,0.08,0.13,-0.98,3.60,-1.22,3.42
12.8510,0.09,0.12,-0.99,3.30,-1.10,4.27
12.8660,0.08,0.12,-0.99,3.48,-1.34,1.89
12.8810,0.09,0.13,-0.98,3.36,-0.49,1.71
12.8960,0.09,0.13,-0.98,3.42,-0.98,2.26
12.9060,0.09,0.12,-0.98,3.36,-0.92,2.50
12.9230,0.09,0.13,-0.98,3.23,-0.67,2.50
12.9390,0.08,0.12,-0.98,3.36,-0.73,2.75
12.9570,0.09,0.13,-0.98,3.30,-0.92,2.75
12.9720,0.09,0.13,-0.98,3.48,-1.16,2.99
12.9880,0.09,0.12,-0.98,3.54,-1.16,2.87
13.0030,0.09,0.11,-0.99,3.42,-0.43,2.20
13.0190,0.09,0.13,-0.98,3.60,-0.92,1.83
13.0340,0.09,0.14,-0.98,3.36,-0.85,1.83
13.0430,0.09,0.13,-0.98,3.72,-0.85,2.69
13.0590,0.09,0.12,-0.99,3.48,-1.04,2.69
13.0760,0.09,0.13,-0.98,3.48,-0.61,2.50
13.0920,0.09,0.14,-0.98,3.36,-0.79,2.56
13.1100,0.09,0.13,-0.98,3.36,-0.79,2.93
13.1260,0.08,0.12,-0.99,3.54,-0.92,2.93
13.1410,0.08,0.12,-0.99,3.60,-1.04,2.81
13.1570,0.09,0.13,-0.98,3.54,-1.59,2.38
13.1720,0.09,0.13,-0.98,3.42,-0.67,2.69
13.1870,0.09,0.13,-0.98,3.30,-0.61,3.17
13.2030,0.09,0.13,-0.98,3.72,-0.79,2.69
13.2180,0.09,0.14,-0.98,3.36,-0.55,3.23
13.2330,0.08,0.12,-0.99,3.11,-0.85,3.78
13.2480,0.09,0.13,-0.98,3.23,-1.04,3.17
13.2590,0.09,0.13,-0.98,3.11,-0.67,2.50
13.2750,0.09,0.13,-0.98,3.42,-0.98,2.93
13.2910,0.09,0.13,-0.98,3.17,-0.79,3.78
13.3090,0.08,0.11,-0.99,3.42,-0.79,2.26
13.3240,0.08,0.11,-0.99,3.54,-0.92,1.04
13.3420,0.09,0.12,-0.98,3.66,-0.79,1.53
13.3580,0.09,0.13,-0.98,3.54,-0.67,1.83
13.3740,0.09,0.14,-0.98,3.78,-1.04,2.14
13.3890,0.09,0.14,-0.98,3.72,-0.92,2.32
13.3930,0.08,0.13,-0.98,3.48,-0.92,2.32
13.4210,0.09,0.14,-0.98,3.48,-0.49,2.56
13.4330,0.09,0.15,-0.98,3.42,-0.73,3.66
13.4420,0.09,0.15,-0.98,3.11,-1.34,5.13
13.4670,0.09,0.13,-0.98,3.17,-0.79,5.19
13.4780,0.09,0.12,-0.98,3.42,-1.16,4.70
13.4950,0.08,0.11,-0.99,3.30,-1.34,4.58
13.5120,0.08,0.11,-0.99,3.17,-1.10,3.66
13.5280,0.08,0.11,-0.99,3.42,-0.61,2.08
13.5440,0.08,0.12,-0.98,3.30,-0.49,1.59
13.5600,0.09,0.14,-0.98,3.85,-0.98,1.71
13.5760,0.09,0.14,-0.98,3.54,-1.34,3.42
13.5910,0.09,0.13,-0.99,3.30,-1.04,3.97
13.6060,0.09,0.12,-0.98,3.30,-0.92,4.27
13.6220,0.09,0.12,-0.98,3.48,-0.92,4.21
13.6380,0.09,0.14,-0.98,3.30,-0.55,3.78
13.6540,0.09,0.13,-0.98,3.23,-1.04,3.17
13.6620,0.08,0.12,-0.98,3.17,-0.43,3.11
13.6850,0.08,0.11,-0.99,3.48,-0.73,2.69
13.7010,0.09,0.12,-0.99,3.66,-0.79,2.20
13.7100,0.08,0.12,-0.98,3.66,-0.37,2.08
13.7260,0.09,0.14,-0.98,3.36,-0.55,2.01
13.7460,0.09,0.14,-0.98,3.54,-1.10,2.26
13.7610,0.09,0.14,-0.98,3.66,-1.10,3.42
13.7770,0.08,0.12,-0.99,3.60,-1.59,3.97
13.7830,0.08,0.12,-0.98,3.42,-1.16,3.05
13.8080,0.08,0.13,-0.98,3.30,-1.10,2.69
13.8160,0.09,0.13,-0.98,3.42,-1.04,2.93
13.8330,0.09,0.13,-0.98,3.78,-0.73,3.17
13.8480,0.09,0.13,-0.98,3.72,-1.04,3.48
13.8650,0.09,0.13,-0.98,3.23,-0.49,3.23
13.8820,0.08,0.12,-0.98,3.17,-0.61,2.99
13.8980,0.08,0.12,-0.99,3.42,-1.28,2.50
13.9160,0.09,0.13,-0.98,3.42,-1.04,2.14
13.9310,0.09,0.13,-0.98,3.60,-0.92,2.38
13.9320,0.09,0.13,-0.99,3.85,-1.46,3.05
13.9630,0.09,0.13,-0.98,3.60,-1.28,3.36
13.9780,0.09,0.13,-0.98,3.48,-0.73,3.17
13.9940,0.09,0.13,-0.98,2.87,-1.46,3.11
14.0100,0.09,0.14,-0.98,3.30,-1.34,2.50
14.0160,0.08,0.12,-0.98,3.36,-0.79,2.75
14.0400,0.08,0.11,-0.99,3.48,-1.22,2.38
14.0560,0.08,0.12,-0.98,3.42,-0.92,1.71
14.0650,0.09,0.14,-0.98,3.42,-0.85,2.08
14.0810,0.09,0.14,-0.98,3.72,-1.10,2.56
14.0980,0.09,0.13,-0.98,3.72,-1.65,2.81
14.1140,0.09,0.13,-0.98,3.54,-0.73,2.56
14.1310,0.08,0.13,-0.99,3.23,-0.55,1.83
14.1480,0.08,0.13,-0.98,3.11,-0.79,1.77
14.1640,0.09,0.13,-0.98,3.36,-1.16,1.95
14.1800,0.08,0.12,-0.98,3.17,-1.10,1.34
14.1960,0.08,0.12,-0.99,3.48,-0.73,0.79
14.1980,0.09,0.13,-0.98,3.60,-0.31,0.49
14.2250,0.08,0.13,-0.98,3.42,-0.55,0.61
14.2400,0.09,0.13,-0.99,3.36,-0.79,0.37
14.2560,0.09,0.12,-0.99,3.54,-0.55,0.18
14.2630,0.08,0.13,-0.98,3.30,-0.67,0.55
14.2790,0.08,0.13,-0.98,3.30,-0.61,0.18
14.3000,0.09,0.12,-0.98,3.42,-0.43,0.00
14.3150,0.09,0.13,-0.98,3.78,-1.16,0.18
14.3310,0.09,0.13,-0.98,3.72,-0.92,0.61
14.3460,0.09,0.13,-0.98,3.72,-0.92,0.85
14.3620,0.09,0.12,-0.99,3.17,-0.79,1.10
14.3780,0.09,0.13,-0.99,3.42,-0.92,0.31
14.3850,0.09,0.12,-0.98,3.60,-0.79,0.18
14.4010,0.09,0.12,-0.99,3.66,-0.55,0.55
14.4210,0.09,0.14,-0.98,3.30,-0.37,0.79
14.4380,0.08,0.15,-0.98,3.36,-0.67,0.12
14.4550,0.08,0.14,-0.98,3.72,-0.55,-0.43
14.4710,0.09,0.11,-0.99,3.85,-0.73,0.18
14.4870,0.09,0.10,-0.99,3.42,-1.04,0.67
14.5040,0.09,0.12,-0.98,3.30,-0.67,0.79
14.5200,0.08,0.14,-0.98,3.48,-1.16,0.31
14.5360,0.09,0.13,-0.98,3.66,-0.24,0.06
14.5510,0.09,0.11,-0.99,3.66,-1.10,0.31
14.5660,0.09,0.12,-0.99,3.54,-0.67,0.61
14.5800,0.09,0.13,-0.98,3.30,-0.49,0.92
14.5880,0.09,0.13,-0.98,3.48,-0.61,1.04
14.6110,0.09,0.12,-0.99,3.72,-0.92,0.98
14.6210,0.09,0.13,-0.98,3.60,-0.79,1.16
14.6370,0.09,0.14,-0.98,3.42,-0.61,1.28
14.6580,0.09,0.14,-0.98,3.48,-0.61,1.04
14.6730,0.09,0.13,-0.98,3.72,-1.28,1.16
14.6890,0.09,0.12,-0.99,3.85,-0.85,0.98
14.7050,0.09,0.13,-0.98,3.85,-0.98,1.40
14.7090,0.09,0.13,-0.98,3.66,-0.67,1.71
14.7370,0.09,0.12,-0.99,3.78,-0.92,1.65
14.7530,0.09,0.13,-0.98,3.66,-0.55,1.71
14.7680,0.09,0.13,-0.98,3.72,-0.79,1.65
14.7750,0.09,0.12,-0.99,3.72,-0.43,1.28
14.7980,0.09,0.12,-0.99,3.72,-0.73,1.53
14.8070,0.09,0.14,-0.98,3.66,-1.04,1.34
14.8270,0.09,0.14,-0.98,3.60,-0.98,1.46
14.8410,0.09,0.13,-0.98,3.60,-0.55,2.50
14.8580,0.08,0.12,-0.99,3.42,-0.67,2.01
14.8580,0.09,0.16,-0.98,3.42,-0.61,1.28
14.8880,0.09,0.13,-0.98,3.66,-0.98,1.28
14.9030,0.09,0.12,-0.98,3.42,-0.67,1.59
14.9180,0.08,0.12,-0.99,3.60,-0.43,1.04
14.9270,0.08,0.12,-0.98,3.48,-0.67,0.98
14.9480,0.09,0.14,-0.98,3.54,-0.73,1.22
14.9570,0.09,0.13,-0.98,3.54,-0.92,1.53
14.9730,0.08,0.12,-0.99,3.36,-0.85,2.38
14.9940,0.08,0.11,-0.99,3.11,-1.16,1.46
15.0110,0.09,0.13,-0.98,3.05,-0.43,1.10
15.0270,0.09,0.14,-0.98,3.66,-0.73,1.40
15.0420,0.09,0.13,-0.99,3.78,-1.22,1.83
15.0580,0.09,0.12,-0.99,3.48,-1.04,2.08
15.0750,0.09,0.13,-0.99,3.48,-0.98,2.01
15.0900,0.09,0.13,-0.98,3.42,-0.43,2.01
15.1060,0.09,0.12,-0.98,3.42,-0.79,2.01
15.1220,0.09,0.13,-0.98,3.48,-0.79,1.95
15.1270,0.09,0.14,-0.98,3.54,-1.22,2.01
15.1430,0.09,0.13,-0.98,3.23,-1.28,2.50
15.1670,0.09,0.12,-0.99,3.23,-0.98,2.50
15.1820,0.08,0.12,-0.99,3.36,-0.61,1.95
15.1970,0.09,0.13,-0.99,3.54,-0.73,1.71
15.2120,0.09,0.13,-0.98,3.72,-0.61,2.01
15.2270,0.09,0.13,-0.98,3.78,-0.98,2.87
15.2420,0.09,0.13,-0.98,3.48,-0.67,3.05
15.2570,0.09,0.13,-0.98,3.30,-0.37,2.50
15.2670,0.09,0.13,-0.98,3.66,-0.49,2.38
15.2840,0.09,0.13,-0.98,3.42,-0.55,1.95
15.3010,0.09,0.13,-0.98,3.42,-1.04,2.08
15.3180,0.09,0.12,-0.99,3.48,-1.04,1.77
15.3350,0.09,0.13,-0.98,3.42,-0.79,1.83
15.3500,0.09,0.14,-0.98,3.60,-0.98,2.44
15.3660,0.09,0.14,-0.98,3.66,-0.92,3.23
15.3670,0.09,0.14,-0.98,3.42,-0.73,3.54
15.3980,0.09,0.13,-0.98,3.30,-1.16,3.60
15.4000,0.08,0.12,-0.98,3.23,-0.85,3.85
15.4300,0.08,0.12,-0.99,3.30,-0.92,3.11
15.4370,0.08,0.12,-0.99,3.30,-0.79,2.32
15.4600,0.09,0.12,-0.99,3.42,-1.04,2.26
15.4700,0.09,0.13,-0.98,3.48,-0.92,1.95
15.4860,0.08,0.13,-0.98,3.48,-0.67,2.01
15.5040,0.09,0.13,-0.98,3.48,-0.49,2.99
15.5200,0.08,0.12,-0.99,3.36,-0.67,3.23
15.5250,0.08,0.13,-0.98,3.30,-0.73,2.62
15.5510,0.09,0.13,-0.98,3.36,-0.79,2.14
15.5530,0.09,0.13,-0.98,3.48,-0.67,2.14
15.5700,0.09,0.12,-0.99,3.48,-0.67,2.14
15.5860,0.09,0.13,-0.98,3.42,-0.73,2.01
15.6030,0.09,0.13,-0.98,3.72,-0.79,1.89
15.6250,0.09,0.13,-0.98,3.54,-0.67,2.38
15.6450,0.09,0.13,-0.98,3.48,-0.79,2.56
15.6560,0.08,0.13,-0.98,3.54,-0.43,2.62
15.6740,0.09,0.13,-0.98,3.42,-0.79,2.32
15.6890,0.09,0.13,-0.99,3.36,-0.43,1.83
15.7060,0.09,0.13,-0.98,3.42,-0.73,1.95
15.7220,0.09,0.14,-0.98,3.60,-0.43,2.69
15.7380,0.09,0.14,-0.98,3.54,-1.16,4.03
15.7530,0.08,0.12,-0.99,3.60,-0.79,3.78
15.7690,0.08,0.11,-0.99,3.30,-1.04,2.62
15.7840,0.09,0.12,-0.99,3.30,-0.98,2.08
15.8000,0.09,0.13,-0.98,3.36,-0.49,2.26
15.8160,0.08,0.12,-0.99,3.30,-0.55,2.32
15.8240,0.08,0.11,-0.99,3.48,-0.79,1.46
15.8380,0.09,0.13,-0.98,3.54,-0.61,1.40
15.8590,0.09,0.15,-0.98,3.42,-0.79,1.65
15.8760,0.09,0.15,-0.98,3.54,-1.34,2.50
15.8920,0.09,0.12,-0.99,3.54,-0.92,2.81
15.9080,0.09,0.12,-0.99,3.66,-1.04,2.62
15.9240,0.08,0.12,-0.99,3.42,-0.98,2.87
15.9390,0.08,0.11,-0.99,3.11,-0.61,2.14
15.9550,0.09,0.13,-0.98,3.23,-0.73,1.40
15.9710,0.09,0.14,-0.98,3.36,-0.85,2.01
15.9870,0.09,0.12,-0.99,3.72,-1.28,2.81
16.0030,0.09,0.12,-0.99,3.72,-0.98,2.44
16.0190,0.09,0.13,-0.98,3.48,-0.98,2.26
16.0350,0.09,0.13,-0.98,3.42,-0.73,2.56
16.0420,0.09,0.13,-0.98,3.66,-0.85,2.38
16.0580,0.09,0.12,-0.98,3.48,-0.73,1.89
16.0810,0.09,0.13,-0.98,3.36,-0.85,1.95
16.0970,0.09,0.13,-0.98,3.36,-0.55,2.20
16.1130,0.09,0.14,-0.98,3.54,-0.73,2.87
16.1290,0.09,0.13,-0.99,3.17,-0.73,3.05
16.1450,0.08,0.12,-0.99,3.11,-0.73,2.26
16.1470,0.08,0.12,-0.99,3.36,-0.79,1.77
16.1780,0.08,0.12,-0.99,3.36,-0.43,1.83
16.1930,0.09,0.13,-0.98,3.72,-0.43,1.46
16.2080,0.09,0.14,-0.98,3.85,-0.85,1.71
16.2230,0.09,0.14,-0.98,3.85,-0.24,2.75
16.2390,0.08,0.12,-0.98,3.54,-0.79,2.81
16.2550,0.08,0.13,-0.98,3.36,-0.67,2.08
16.2710,0.08,0.13,-0.98,3.42,-0.67,1.59
16.2860,0.09,0.13,-0.98,3.30,-0.49,1.65
16.3010,0.09,0.13,-0.99,3.60,-0.37,2.08
16.3120,0.09,0.13,-0.98,3.72,-0.55,2.32
16.3290,0.09,0.13,-0.98,3.60,-0.61,2.87
16.3460,0.09,0.13,-0.98,3.48,-0.79,2.62
16.3620,0.08,0.12,-0.99,3.30,-0.98,2.14
16.3780,0.09,0.13,-0.98,3.23,-0.31,1.89
16.3940,0.09,0.13,-0.98,3.48,-0.92,2.26
16.4090,0.08,0.12,-0.99,3.48,-0.55,2.14
16.4240,0.08,0.12,-0.99,3.23,-0.67,1.46
16.4390,0.09,0.12,-0.98,3.11,-0.37,1.04
16.4450,0.09,0.13,-0.98,3.36,-0.73,1.04
16.4610,0.09,0.13,-0.99,3.85,-0.92,0.98
16.4820,0.09,0.14,-0.98,3.66,-0.73,1.65
16.4990,0.09,0.15,-0.98,3.36,-0.49,2.32
16.5150,0.09,0.13,-0.98,3.60,-0.67,2.69
16.5220,0.09,0.12,-0.98,3.72,-1.10,2.69
16.5480,0.09,0.12,-0.99,3.42,-1.28,2.32
16.5490,0.08,0.13,-0.98,3.36,-0.79,2.44
16.5790,0.09,0.13,-0.98,3.48,-0.49,2.44
16.5830,0.08,0.12,-0.98,3.85,-1.16,2.26
16.6100,0.09,0.13,-0.98,3.36,-0.49,2.14
16.6260,0.09,0.14,-0.98,3.54,-1.04,2.26
16.6320,0.09,0.13,-0.98,3.11,-0.73,2.20
16.6490,0.09,0.13,-0.99,3.54,-0.92,1.53
16.6650,0.09,0.13,-0.98,3.54,-0.61,1.71
16.6820,0.09,0.12,-0.98,3.42,-0.73,1.40
16.6990,0.08,0.12,-0.99,3.60,-0.79,0.67
16.7150,0.08,0.11,-0.99,3.42,-0.31,0.49
16.7320,0.09,0.12,-0.99,3.23,-0.61,1.22
16.7500,0.09,0.14,-0.98,2.93,-0.73,1.40
16.7650,0.09,0.13,-0.98,3.17,-0.85,1.53
16.7810,0.09,0.13,-0.99,3.42,-0.79,1.71
16.7980,0.09,0.13,-0.98,3.54,-0.85,1.53
16.8150,0.09,0.12,-0.99,3.60,-0.67,1.40
16.8210,0.09,0.12,-0.98,3.54,-0.43,1.34
16.8310,0.09,0.14,-0.98,3.30,-0.73,1.28
16.8620,0.09,0.14,-0.98,3.30,-0.31,1.04
16.8640,0.09,0.13,-0.99,3.54,-0.24,0.67
16.8810,0.09,0.13,-0.98,3.60,-0.73,1.28
16.9090,0.09,0.13,-0.98,3.36,-0.55,1.59
16.9210,0.09,0.12,-0.98,3.48,-0.55,1.04
16.9360,0.09,0.12,-0.99,3.72,-0.24,0.98
16.9510,0.08,0.10,-0.99,3.54,-0.37,1.34
16.9690,0.09,0.13,-0.98,3.48,-0.98,1.22
16.9850,0.09,0.13,-0.98,3.54,-0.61,1.34
17.0000,0.09,0.14,-0.98,3.60,-0.85,1.77
17.0160,0.08,0.13,-0.98,3.42,-0.61,1.34
17.0320,0.08,0.12,-0.99,3.66,-0.73,0.92
17.0470,0.09,0.13,-0.99,3.54,-0.55,0.31
17.0620,0.09,0.13,-0.98,3.48,-0.49,1.16
17.0780,0.09,0.12,-0.99,3.42,-0.61,1.83
17.0850,0.08,0.10,-0.99,3.42,-0.92,1.59
17.1000,0.10,0.15,-1.00,5.19,-1.04,1.28
17.1230,0.08,0.11,-0.98,3.48,-0.31,1.22
17.1390,0.09,0.13,-0.98,4.39,-0.92,1.22
17.1540,0.09,0.14,-0.99,4.15,-0.98,1.34
17.1690,0.09,0.13,-0.98,3.97,-1.28,1.40
17.1840,0.09,0.13,-0.99,4.27,-0.79,1.46
17.1990,0.09,0.13,-0.99,4.21,-0.92,1.40
17.2140,0.09,0.13,-0.98,4.03,-0.79,1.34
17.2290,0.09,0.13,-0.98,4.70,-1.04,1.46
17.2390,0.09,0.13,-0.98,4.82,-1.04,1.34
17.2550,0.09,0.13,-0.98,4.58,-1.22,1.40
17.2720,0.09,0.13,-0.99,4.39,-1.46,1.40
17.2890,0.09,0.13,-0.98,4.33,-0.92,1.34
17.3060,0.09,0.13,-0.98,4.33,-1.40,1.34
17.3220,0.09,0.13,-0.98,4.46,-1.22,1.22
17.3380,0.09,0.13,-0.98,4.76,-0.73,1.46
17.3530,0.09,0.13,-0.98,3.91,-0.61,1.46
17.3680,0.09,0.13,-0.98,3.85,-0.85,1.28
17.3840,0.09,0.13,-0.98,3.17,-0.24,1.40
17.4000,0.09,0.13,-0.98,3.66,-0.18,1.40
17.4050,0.09,0.13,-0.98,3.05,-0.24,1.53
17.4200,0.09,0.13,-0.98,2.87,-0.12,1.46
17.4430,0.09,0.13,-0.98,2.75,0.24,1.59
17.4600,0.10,0.14,-0.99,2.87,0.12,1.40
17.4760,0.09,0.13,-0.99,2.75,0.06,1.34
17.4930,0.09,0.13,-0.98,2.87,-0.12,1.34
17.5090,0.09,0.13,-0.98,2.56,0.06,1.40
17.5260,0.09,0.13,-0.98,3.23,-0.49,1.22
17.5420,0.09,0.13,-0.98,3.54,-0.24,1.34
17.5580,0.09,0.13,-0.98,4.09,-0.49,1.28
17.5740,0.09,0.13,-0.98,3.85,-0.43,1.46
17.5910,0.09,0.13,-0.98,3.42,-0.73,1.34
17.6060,0.09,0.13,-0.98,3.36,-0.49,1.34
17.6210,0.09,0.13,-0.98,3.42,-0.55,1.46
17.6260,0.09,0.13,-0.98,3.66,-0.06,1.53
17.6510,0.09,0.13,-0.98,3.72,-0.31,1.46
17.6600,0.10,0.13,-0.99,3.42,-0.43,1.40
17.6750,0.09,0.13,-0.98,3.11,-0.43,1.34
17.6920,0.09,0.13,-0.98,2.99,-0.43,1.46
17.7080,0.09,0.13,-0.98,3.42,-0.31,1.34
17.7260,0.09,0.13,-0.98,3.72,-0.31,1.34
17.7420,0.09,0.13,-0.98,3.48,-0.98,1.28
17.7570,0.09,0.13,-0.98,3.30,-0.24,1.34
17.7730,0.09,0.13,-0.98,3.66,-0.43,1.46
17.7880,0.09,0.13,-0.98,3.66,-0.37,1.28
17.8050,0.09,0.13,-0.98,3.60,-0.43,0.73
17.8200,0.10,0.13,-0.99,3.60,-0.18,-15.20
17.8360,0.08,0.14,-0.98,3.05,-0.24,-0.18
17.8520,0.09,0.13,-0.98,3.54,-1.28,1.16
17.8660,0.09,0.13,-0.98,3.48,-0.55,1.28
17.8760,0.09,0.12,-0.98,3.66,-0.37,0.18
17.8920,0.08,0.14,-0.98,3.91,-0.79,0.00
17.9110,0.09,0.13,-0.98,3.30,-0.55,0.85
17.9170,0.09,0.13,-0.99,3.11,-0.61,1.34
17.9430,0.09,0.13,-0.98,3.91,-0.37,1.40
17.9580,0.09,0.13,-0.98,3.66,-0.49,1.28
17.9640,0.08,0.13,-0.98,3.60,-0.55,0.55
17.9880,0.08,0.13,-0.98,3.91,-0.55,0.24
17.9970,0.08,0.13,-0.98,3.54,-0.49,0.73
18.0190,0.09,0.13,-0.98,3.48,-0.55,1.16
18.0310,0.09,0.13,-0.98,3.66,-0.24,1.46
18.0460,0.09,0.13,-0.98,3.72,-0.55,1.46
18.0630,0.09,0.13,-0.98,4.03,-0.85,1.34
18.0800,0.09,0.13,-0.98,3.97,-0.92,1.40
18.0950,0.09,0.13,-0.98,3.72,0.00,1.28
18.1120,0.09,0.13,-0.98,3.60,-0.24,1.40
18.1280,0.09,0.12,-0.98,4.03,-0.55,1.34
18.1300,0.11,0.11,-0.98,4.27,-0.67,1.53
18.1590,0.07,0.14,-0.99,3.60,-0.73,2.38
18.1760,0.08,0.14,-0.98,3.60,-0.55,2.44
18.1910,0.08,0.14,-0.98,3.42,-0.12,2.26
18.1960,0.08,0.14,-0.98,3.36,-0.43,1.95
18.2160,0.08,0.13,-0.98,3.54,-0.31,1.71
18.2280,0.09,0.12,-0.98,3.11,-0.73,1.65
18.2510,0.09,0.13,-0.98,3.60,-0.49,1.59
18.2670,0.09,0.13,-0.99,3.42,-0.43,1.46
18.2830,0.08,0.13,-0.98,3.42,-0.49,1.71
18.2980,0.08,0.13,-0.98,3.36,-0.55,1.59
18.3140,0.08,0.13,-0.98,3.42,-0.24,1.46
18.3300,0.09,0.13,-0.98,3.60,-0.55,1.46
18.3450,0.09,0.12,-0.98,3.66,-0.61,1.46
18.3510,0.09,0.13,-0.99,3.60,-0.31,1.46
18.3660,0.08,0.13,-0.98,3.17,-0.61,1.71
18.3890,0.08,0.13,-0.98,3.48,-0.61,1.77
18.4050,0.08,0.13,-0.98,3.78,-0.49,1.77
18.4200,0.08,0.13,-0.98,3.54,-1.28,1.71
18.4350,0.09,0.13,-0.98,3.30,-0.49,1.40
18.4530,0.09,0.13,-0.98,2.81,-0.37,1.34
18.4690,0.10,0.13,-0.98,2.50,-0.73,1.22
18.4840,0.09,0.13,-0.98,3.05,-0.49,0.92
18.5000,0.07,0.12,-0.98,2.87,-0.37,0.67
18.5150,0.08,0.13,-0.99,3.60,-0.49,0.61
18.5200,0.08,0.13,-0.99,3.23,-0.61,0.73
18.5420,0.07,0.12,-0.98,3.05,-0.79,0.67
18.5580,0.08,0.12,-0.98,2.99,-0.61,1.10
18.5750,0.09,0.13,-0.98,3.72,-0.85,1.34
18.5920,0.09,0.13,-0.98,3.91,-0.55,1.40
18.6080,0.09,0.13,-0.98,3.72,-0.73,1.34
18.6240,0.09,0.13,-0.98,3.36,-0.85,1.34
18.6400,0.09,0.13,-0.98,3.48,-0.73,1.28
18.6560,0.09,0.13,-0.98,3.48,-0.92,1.46
18.6580,0.09,0.13,-0.98,3.97,-0.43,1.40
18.6740,0.10,0.13,-0.98,3.85,-0.43,1.40
18.6970,0.07,0.13,-0.98,3.66,-0.49,1.16
18.7140,0.07,0.13,-0.99,3.36,-0.37,1.34
18.7290,0.08,0.12,-0.99,3.23,-0.43,1.34
18.7460,0.09,0.13,-0.98,3.54,-0.67,1.34
18.7620,0.09,0.13,-0.98,3.72,-0.67,1.40
18.7780,0.10,0.13,-0.98,3.66,-0.55,1.28
18.7940,0.07,0.13,-0.99,3.23,-0.43,1.34
18.8100,0.08,0.13,-0.99,3.23,-0.67,1.16
18.8250,0.09,0.13,-0.98,3.42,-0.73,1.40
18.8410,0.09,0.13,-0.98,3.36,-0.37,1.40
18.8570,0.09,0.13,-0.98,3.60,-0.98,1.34
18.8720,0.09,0.13,-0.98,3.30,-0.24,1.40
18.8890,0.09,0.13,-0.98,3.54,-0.73,1.28
18.8960,0.10,0.13,-0.98,3.48,-0.18,1.16
18.9190,0.10,0.14,-0.98,3.48,0.18,0.67
18.9290,0.08,0.13,-0.99,3.30,-0.12,0.43
18.9450,0.07,0.12,-0.99,3.30,-0.85,0.67
18.9630,0.09,0.12,-0.98,3.30,-0.43,1.34
18.9780,0.09,0.13,-0.98,3.97,-0.73,1.40
18.9940,0.09,0.13,-0.98,3.72,-0.49,1.10
19.0100,0.09,0.13,-0.98,3.72,-0.31,1.22
19.0260,0.08,0.13,-0.98,3.36,-0.55,1.22
19.0280,0.09,0.13,-0.98,3.36,-0.37,1.34
19.0440,0.09,0.13,-0.98,3.36,-0.55,1.28
19.0730,0.09,0.12,-0.98,3.30,-0.37,1.46
19.0880,0.09,0.13,-0.98,3.05,-0.37,1.28
19.0990,0.09,0.13,-0.98,3.17,-0.43,0.79
19.1160,0.09,0.13,-0.98,2.99,-0.24,0.00
19.1330,0.08,0.12,-0.99,3.54,-0.18,0.24
19.1490,0.09,0.13,-0.98,3.42,-0.67,1.10
19.1650,0.09,0.15,-0.98,2.44,-0.43,0.55
19.1810,0.08,0.12,-0.99,3.11,-0.55,-0.61
19.1970,0.08,0.12,-0.99,3.36,-0.79,1.16
19.2130,0.08,0.14,-0.98,3.05,-0.73,2.44
19.2290,0.08,0.13,-0.98,3.17,-0.85,3.60
19.2450,0.09,0.11,-0.99,3.36,-0.92,2.81
19.2600,0.09,0.11,-0.98,3.60,-0.79,1.95
19.2750,0.09,0.12,-0.99,4.33,-1.04,1.89
19.2900,0.09,0.12,-0.98,3.91,-1.10,1.77
19.3060,0.09,0.12,-0.98,3.78,-0.73,1.65
19.3210,0.09,0.13,-0.98,3.91,-0.92,1.46
19.3320,0.09,0.13,-0.99,3.78,-0.67,1.28
19.3480,0.09,0.13,-0.99,3.30,-0.79,1.34
19.3640,0.09,0.12,-0.98,3.48,-0.98,1.28
19.3810,0.09,0.12,-0.99,3.66,-1.04,1.28
19.3990,0.09,0.13,-0.99,3.60,-0.43,1.46
19.4140,0.09,0.12,-0.99,3.66,-0.85,1.22
19.4310,0.09,0.12,-0.98,3.97,-0.61,1.46
19.4320,0.09,0.13,-0.98,4.15,-0.85,1.34
19.4630,0.09,0.12,-0.98,3.60,-1.04,1.34
19.4780,0.09,0.12,-0.98,3.48,-0.49,1.40
19.4940,0.09,0.12,-0.98,3.91,-0.92,1.28
19.5090,0.09,0.13,-0.98,4.09,-0.85,1.28
19.5140,0.09,0.13,-0.98,3.97,-0.55,1.40
19.5300,0.08,0.12,-0.98,3.48,-0.79,1.22
19.5500,0.09,0.13,-0.98,3.85,-1.10,1.28
19.5690,0.09,0.12,-0.98,3.60,-0.85,1.22
19.5850,0.09,0.13,-0.98,3.97,-0.92,1.10
19.6000,0.11,0.13,-0.98,3.97,-1.04,0.92
19.6160,0.09,0.13,-0.98,3.54,-0.61,0.73
19.6310,0.07,0.13,-0.99,3.85,-1.04,0.98
19.6470,0.08,0.13,-0.98,3.85,-0.98,1.10
19.6630,0.08,0.13,-0.98,3.85,-0.67,1.16
19.6680,0.08,0.13,-0.98,3.48,-0.55,1.22
19.6830,0.08,0.12,-0.98,3.54,-0.61,1.34
19.6990,0.09,0.13,-0.98,3.78,-1.04,1.22
19.7260,0.09,0.13,-0.98,3.85,-1.22,1.04
19.7370,0.08,0.13,-0.98,3.66,-0.55,0.98
19.7530,0.09,0.13,-0.98,3.48,-1.22,1.04
19.7710,0.09,0.13,-0.99,3.30,-0.73,1.22
19.7870,0.08,0.13,-0.98,3.72,-0.98,1.28
19.8030,0.08,0.12,-0.98,3.78,-0.55,1.28
19.8190,0.09,0.13,-0.99,3.66,-0.85,1.22
19.8350,0.09,0.13,-0.98,3.48,-0.61,0.98
19.8380,0.08,0.12,-0.99,3.42,-1.10,0.79
19.8530,0.09,0.12,-0.98,4.09,-0.79,0.73
19.8690,0.08,0.13,-0.98,3.97,-1.16,0.73
19.8930,0.08,0.13,-0.99,3.60,-0.98,0.98
19.9110,0.08,0.13,-0.98,3.42,-1.46,1.04
19.9260,0.09,0.12,-0.98,3.66,-1.22,1.04
19.9430,0.09,0.13,-0.98,3.85,-1.16,0.98
19.9590,0.08,0.13,-0.99,3.72,-0.79,1.22
19.9740,0.08,0.12,-0.99,3.48,-0.49,1.16
19.9900,0.09,0.13,-0.98,3.60,-0.61,1.28
19.9930,0.09,0.13,-0.98,3.54,-0.92,1.22
20.0100,0.09,0.12,-0.98,3.17,-0.79,1.34
20.0330,0.08,0.12,-0.98,3.85,-0.98,1.28
20.0490,0.08,0.13,-0.98,3.36,-0.85,1.16
20.0660,0.09,0.12,-0.98,3.36,-0.98,1.04
20.0830,0.09,0.12,-0.98,3.54,-0.92,1.22
20.0990,0.09,0.12,-0.98,3.72,-1.16,1.22
20.1110,0.08,0.13,-0.98,3.66,-1.28,1.28
20.1160,0.08,0.13,-0.98,3.36,-0.92,1.16
20.1320,0.08,0.13,-0.99,3.42,-0.55,1.40
20.1490,0.08,0.12,-0.98,3.48,-1.04,1.10
20.1790,0.08,0.12,-0.98,3.36,-0.73,1.22
20.1940,0.09,0.13,-0.99,3.72,-0.85,1.40
20.2100,0.09,0.13,-0.98,3.60,-1.10,1.53
20.2260,0.08,0.12,-0.98,3.42,-0.85,1.59
20.2330,0.08,0.13,-0.99,3.42,-1.04,1.71
20.2580,0.08,0.13,-0.98,3.30,-0.55,1.34
20.2660,0.09,0.13,-0.98,3.42,-0.79,1.28
20.2810,0.09,0.13,-0.98,3.42,-0.31,1.53
20.2990,0.09,0.13,-0.98,3.54,-0.61,1.77
20.3170,0.07,0.12,-0.99,3.30,-0.24,1.77
20.3310,0.08,0.13,-0.98,3.60,-0.92,1.22
20.3480,0.09,0.13,-0.98,3.66,-0.55,1.28
20.3650,0.09,0.13,-0.99,3.72,-0.92,1.34
20.3660,0.10,0.13,-0.98,3.30,-0.67,1.40
20.3820,0.08,0.13,-0.99,3.60,-0.85,1.65
20.4130,0.08,0.13,-0.98,3.66,-1.04,1.34
20.4150,0.08,0.13,-0.99,3.48,-0.67,1.46
20.4440,0.10,0.13,-0.98,3.78,-1.34,1.28
20.4590,0.09,0.12,-0.98,3.78,-1.34,1.46
20.4750,0.09,0.13,-0.99,3.91,-0.85,1.59
20.4840,0.09,0.13,-0.98,3.91,-1.16,1.34
20.5010,0.08,0.13,-0.98,3.66,-0.92,1.10
20.5170,0.08,0.13,-0.98,3.60,-0.79,1.10
20.5340,0.09,0.13,-0.98,3.78,-1.10,1.10
20.5500,0.09,0.13,-0.98,3.72,-0.92,1.22
20.5670,0.09,0.12,-0.99,3.54,-1.34,1.22
20.5680,0.08,0.13,-0.98,3.97,-0.79,1.40
20.5990,0.08,0.13,-0.99,3.54,-0.73,1.34
20.6090,0.09,0.12,-0.98,3.48,-0.55,1.22
20.6310,0.09,0.13,-0.98,3.48,-1.28,1.34
20.6340,0.09,0.13,-0.98,3.30,-0.67,1.40
20.6620,0.08,0.13,-0.99,3.66,-0.55,1.53
20.6780,0.08,0.13,-0.98,3.60,-0.79,1.40
20.6940,0.09,0.13,-0.98,3.60,-0.85,1.40
20.7100,0.08,0.13,-0.99,3.54,-1.16,1.40
20.7160,0.08,0.13,-0.98,3.66,-0.92,1.46
20.7320,0.09,0.13,-0.98,3.78,-0.79,1.34
20.7560,0.09,0.13,-0.98,3.48,-1.10,1.28
20.7730,0.08,0.13,-0.99,3.48,-1.28,1.59
20.7880,0.08,0.13,-0.99,3.54,-0.55,1.46
20.8030,0.09,0.13,-0.98,3.48,-0.55,1.59
20.8090,0.09,0.12,-0.98,3.30,-0.92,1.40
20.8350,0.09,0.13,-0.98,3.42,-0.92,1.34
20.8500,0.09,0.12,-0.98,3.66,-0.43,1.34
20.8650,0.08,0.13,-0.98,3.48,-0.67,1.10
20.8810,0.09,0.13,-0.98,3.66,-0.79,1.10
20.8960,0.08,0.13,-0.98,3.48,-0.31,1.28
20.9110,0.07,0.13,-0.98,3.05,-0.55,1.34
20.9220,0.09,0.12,-0.98,3.42,-0.98,1.22
20.9380,0.09,0.12,-0.98,3.85,-1.04,1.16
20.9560,0.10,0.12,-0.98,3.66,-0.31,1.10
20.9720,0.08,0.12,-0.98,3.36,-0.85,1.28
20.9880,0.09,0.12,-0.98,3.72,-0.85,1.40
21.0050,0.09,0.12,-0.98,3.72,-1.04,1.34
21.0200,0.10,0.13,-0.98,3.54,-0.31,1.28
21.0350,0.09,0.13,-0.98,3.42,-0.85,1.59
21.0510,0.07,0.13,-0.99,3.54,-0.61,1.59
21.0670,0.08,0.13,-0.99,3.48,-0.98,1.28
21.0830,0.09,0.13,-0.98,3.60,-0.67,1.22
21.0880,0.09,0.12,-0.98,3.42,-0.79,1.34
21.1080,0.09,0.12,-0.98,3.85,-0.43,1.46
21.1300,0.08,0.13,-0.99,3.78,-1.10,1.40
21.1410,0.08,0.13,-0.98,3.72,-1.16,1.65
21.1570,0.08,0.13,-0.98,3.78,-0.79,1.65
21.1740,0.08,0.13,-0.99,3.36,-0.61,1.40
21.1900,0.08,0.13,-0.98,3.36,-0.98,1.34
21.2070,0.08,0.13,-0.99,3.48,-0.79,1.46
21.2090,0.09,0.13,-0.98,3.85,-1.10,1.53
21.2400,0.09,0.12,-0.98,3.72,-0.43,1.77
21.2570,0.09,0.13,-0.99,3.78,-0.43,1.65
21.2730,0.08,0.13,-0.98,3.72,-1.16,1.46
21.2880,0.08,0.13,-0.98,3.17,-0.55,1.65
21.3060,0.08,0.13,-0.98,3.17,-0.67,1.59
21.3210,0.09,0.13,-0.98,3.54,-0.79,1.77
21.3370,0.09,0.12,-0.98,3.72,-0.73,1.77
21.3520,0.09,0.13,-0.98,3.30,-0.61,1.53
21.3680,0.08,0.13,-0.99,3.60,-0.79,1.59
21.3830,0.08,0.13,-0.98,3.42,-0.79,1.77
21.3980,0.08,0.13,-0.98,3.23,-0.61,1.59
21.4120,0.09,0.13,-0.98,3.48,-0.67,1.77
21.4230,0.09,0.13,-0.98,3.60,-0.67,1.95
21.4390,0.08,0.13,-0.98,3.91,-1.10,1.83
21.4600,0.09,0.13,-0.98,3.54,-1.16,1.65
21.4760,0.08,0.13,-0.98,3.11,-0.55,1.71
21.4790,0.10,0.12,-0.98,3.42,-0.92,2.01
21.5070,0.09,0.13,-0.98,3.72,-0.67,2.08
21.5110,0.08,0.13,-0.99,3.60,-0.85,1.77
21.5350,0.09,0.13,-0.98,3.60,-0.43,1.40
21.5520,0.09,0.13,-0.98,3.36,-0.73,1.59
21.5680,0.09,0.13,-0.99,3.30,-0.55,1.89
21.5850,0.08,0.12,-0.98,3.30,-0.67,1.77
21.6010,0.09,0.13,-0.98,3.42,-0.49,1.77
21.6170,0.09,0.13,-0.98,3.36,-0.92,1.83
21.6320,0.08,0.13,-0.99,3.48,-0.98,2.01
21.6480,0.08,0.13,-0.99,3.48,-0.79,1.83
21.6640,0.09,0.13,-0.98,3.48,-0.85,1.83
21.6680,0.08,0.13,-0.99,3.66,-0.73,2.08
21.6840,0.08,0.13,-0.99,3.60,-0.92,2.20
21.7070,0.09,0.12,-0.98,3.36,-0.73,2.26
21.7230,0.08,0.13,-0.98,3.36,-0.67,1.89
21.7400,0.08,0.13,-0.99,3.30,-0.49,1.59
21.7570,0.10,0.13,-0.98,3.23,-0.92,1.71
21.7720,0.09,0.13,-0.98,3.42,-0.79,1.95
21.7880,0.08,0.13,-0.98,3.48,-0.43,2.26
21.8040,0.09,0.13,-0.98,3.48,-0.98,1.95
21.8190,0.08,0.13,-0.98,3.60,-0.85,1.83
21.8230,0.09,0.13,-0.99,3.30,-0.61,1.77
21.8390,0.10,0.13,-0.98,3.78,-0.92,1.95
21.8600,0.09,0.12,-0.98,3.54,-0.98,2.20
21.8760,0.09,0.13,-0.98,3.72,-0.55,2.20
21.8930,0.08,0.13,-0.98,3.60,-1.04,2.38
21.9100,0.08,0.13,-0.99,3.72,-0.85,2.08
21.9270,0.08,0.13,-0.98,3.72,-0.49,2.01
21.9430,0.08,0.13,-0.99,3.66,-0.73,1.65
21.9580,0.09,0.12,-0.98,3.05,-0.67,1.53
21.9750,0.08,0.13,-0.99,3.23,-0.49,1.28
21.9900,0.09,0.13,-0.98,3.60,-0.61,1.34
22.0050,0.09,0.13,-0.98,3.54,-0.92,1.53
22.0220,0.08,0.13,-0.98,3.54,-0.92,1.77
22.0370,0.09,0.12,-0.98,3.54,-0.37,1.83
22.0520,0.08,0.12,-0.98,3.54,-0.43,1.46
22.0630,0.09,0.13,-0.98,3.60,-0.67,0.98
22.0790,0.09,0.12,-0.98,3.36,-0.43,1.16
22.0980,0.09,0.13,-0.98,3.30,-0.49,1.22
22.1130,0.07,0.13,-0.99,3.36,-0.85,1.34
22.1190,0.08,0.13,-0.98,3.66,-1.16,1.53
22.1350,0.08,0.13,-0.99,3.42,-0.85,1.34
22.1590,0.08,0.12,-0.98,3.66,-0.85,1.28
22.1690,0.08,0.13,-0.98,3.72,-0.98,1.34
22.1840,0.08,0.13,-0.98,3.85,-0.85,1.16
22.2050,0.08,0.13,-0.98,3.97,-0.92,1.16
22.2210,0.08,0.13,-0.98,3.72,-1.10,1.40
22.2370,0.08,0.13,-0.98,3.11,-0.61,1.40
22.2520,0.09,0.12,-0.99,3.54,-0.92,1.46
22.2690,0.09,0.13,-0.98,3.66,-0.61,1.53
22.2840,0.09,0.13,-0.98,3.72,-0.73,1.40
22.2880,0.09,0.13,-0.98,3.48,-0.73,1.59
22.3150,0.08,0.13,-0.98,3.54,-0.61,1.53
22.3300,0.09,0.13,-0.98,3.72,-0.49,1.77
22.3380,0.09,0.13,-0.98,3.66,-0.79,1.71
22.3550,0.08,0.13,-0.98,3.60,-0.67,1.59
22.3710,0.08,0.13,-0.99,3.54,-0.85,1.53
22.3870,0.09,0.13,-0.98,3.23,-0.24,1.71
22.4040,0.09,0.12,-0.98,3.85,-1.16,1.59
22.4210,0.09,0.13,-0.98,3.78,-0.67,1.53
22.4370,0.09,0.13,-0.98,3.72,-0.55,1.16
22.4520,0.09,0.13,-0.98,3.42,-0.85,1.16
22.4680,0.08,0.13,-0.98,3.48,-0.43,1.59
22.4840,0.08,0.13,-0.98,3.36,-1.04,1.59
22.4990,0.09,0.12,-0.98,3.42,-0.67,1.59
22.5050,0.08,0.13,-0.98,3.48,-0.67,1.59
22.5310,0.08,0.13,-0.99,3.36,-0.24,1.53
22.5460,0.09,0.13,-0.98,3.42,-1.16,1.16
22.5540,0.09,0.13,-0.98,3.48,-1.10,1.16
22.5710,0.08,0.13,-0.98,3.42,-0.79,1.28
22.5870,0.09,0.13,-0.99,3.48,-0.67,1.34
22.6040,0.09,0.13,-0.98,3.48,-0.73,1.28
22.6190,0.09,0.13,-0.98,3.54,-0.73,1.16
22.6370,0.09,0.13,-0.98,3.60,-0.79,0.98
22.6530,0.09,0.12,-0.98,3.42,-0.61,1.16
22.6690,0.09,0.13,-0.98,3.48,-0.73,1.16
22.6850,0.09,0.13,-0.98,3.60,-0.24,1.22
22.7010,0.09,0.13,-0.98,3.48,-0.24,1.04
22.7170,0.08,0.13,-0.99,3.42,-0.79,1.10
22.7330,0.08,0.13,-0.98,3.48,-0.73,1.16
22.7360,0.08,0.13,-0.98,3.30,-0.49,1.28
22.7660,0.09,0.13,-0.98,3.42,-0.49,1.40
22.7740,0.08,0.13,-0.98,3.54,-0.31,1.40
22.7910,0.09,0.13,-0.98,3.85,-1.10,1.40
22.8070,0.09,0.13,-0.98,3.54,-0.92,1.46
22.8250,0.08,0.13,-0.98,3.72,-0.49,1.59
22.8410,0.08,0.13,-0.98,3.66,-0.85,1.10
22.8560,0.09,0.13,-0.99,3.36,-0.85,1.16
22.8740,0.09,0.13,-0.98,3.42,-0.73,1.04
22.8890,0.09,0.13,-0.98,3.36,-0.79,1.40
22.9050,0.08,0.12,-0.98,3.72,-0.73,1.59
22.9080,0.08,0.13,-0.99,3.72,-0.55,1.34
22.9370,0.08,0.13,-0.98,3.66,-0.43,1.34
22.9520,0.08,0.13,-0.99,3.48,-0.49,1.40
22.9570,0.08,0.13,-0.99,3.36,-0.43,1.40
22.9720,0.08,0.13,-0.99,3.85,-1.10,1.28
22.9950,0.09,0.13,-0.98,3.72,-0.85,1.28
23.0110,0.09,0.13,-0.98,3.48,-0.61,1.40
23.0290,0.09,0.13,-0.98,3.42,-0.67,1.34
23.0450,0.08,0.13,-0.99,3.30,-0.37,1.53
23.0600,0.09,0.12,-0.98,3.66,-0.92,1.28
23.0760,0.09,0.13,-0.98,3.78,-0.79,1.40
23.0920,0.09,0.13,-0.98,3.54,-0.98,1.40
23.1070,0.09,0.13,-0.98,3.48,0.06,1.53
23.1220,0.09,0.13,-0.98,3.54,-1.16,1.46
23.1380,0.09,0.13,-0.98,3.66,-0.61,1.46
23.1540,0.09,0.13,-0.98,3.42,-0.73,1.34
23.1700,0.08,0.13,-0.98,3.42,-0.92,1.34
23.1850,0.09,0.13,-0.98,3.42,-0.85,1.34
23.2000,0.09,0.13,-0.98,3.42,-0.85,1.16
23.2110,0.08,0.13,-0.99,3.78,-1.04,1.53
23.2280,0.09,0.13,-0.99,3.85,-0.73,1.59
23.2430,0.09,0.12,-0.98,3.72,-0.98,1.40
23.2600,0.08,0.13,-0.98,3.42,-0.79,1.46
23.2750,0.08,0.13,-0.98,3.36,-0.55,1.53
23.2910,0.08,0.13,-0.98,3.30,-0.98,1.28
23.3060,0.09,0.13,-0.99,3.30,-1.10,1.22
23.3220,0.09,0.13,-0.98,3.54,-1.10,1.40
23.3380,0.09,0.13,-0.98,3.36,-0.79,1.34
23.3540,0.09,0.13,-0.98,3.30,-0.67,1.34
23.3610,0.09,0.12,-0.98,3.66,-0.98,1.16
23.3770,0.10,0.13,-0.98,3.72,-0.18,1.22
23.3980,0.08,0.13,-0.99,3.60,-0.73,1.34
23.4140,0.08,0.13,-0.98,3.42,-0.61,1.53
23.4320,0.09,0.13,-0.99,3.66,-0.55,1.34
23.4470,0.08,0.13,-0.98,3.54,-0.43,1.40
23.4620,0.07,0.13,-0.99,3.36,-1.16,1.46
23.4650,0.08,0.13,-0.98,3.17,-0.37,1.46
23.4800,0.08,0.13,-0.98,3.30,-0.61,1.40
23.5100,0.07,0.13,-0.99,3.54,-0.85,1.40
23.5190,0.08,0.13,-0.99,3.60,-0.92,1.34
23.5350,0.08,0.13,-0.99,3.42,-0.61,1.40
23.5520,0.08,0.13,-0.98,3.36,-0.79,1.46
23.5680,0.09,0.13,-0.98,3.54,-1.04,1.22
23.5860,0.09,0.13,-0.98,3.48,-0.61,1.28
23.6020,0.09,0.13,-0.98,3.60,-1.10,1.40
23.6180,0.08,0.13,-0.98,3.54,-0.79,1.34
23.6190,0.08,0.13,-0.99,3.54,-1.10,1.34
23.6350,0.08,0.13,-0.98,3.48,-0.85,1.40
23.6510,0.09,0.13,-0.98,3.42,-0.79,1.53
23.6790,0.09,0.13,-0.98,3.48,-1.34,1.34
23.6900,0.08,0.13,-0.98,3.66,-0.67,1.40
23.7060,0.09,0.13,-0.98,3.48,-1.10,1.53
23.7230,0.09,0.13,-0.98,3.54,-1.10,1.53
23.7390,0.08,0.13,-0.98,3.42,-0.92,1.65
23.7550,0.08,0.13,-0.99,3.60,-1.10,1.40
23.7700,0.09,0.13,-0.98,3.42,-0.79,1.22
23.7860,0.08,0.13,-0.98,3.30,-0.49,1.53
23.8020,0.09,0.13,-0.98,3.54,-0.79,1.53
23.8180,0.09,0.13,-0.98,3.66,-0.49,1.59
23.8340,0.09,0.13,-0.98,3.66,-1.04,1.53
23.8490,0.09,0.13,-0.98,3.54,-0.49,1.53
23.8650,0.09,0.13,-0.98,3.48,-0.92,1.53
23.8810,0.09,0.13,-0.98,3.36,-0.73,1.59
23.8970,0.09,0.13,-0.98,3.48,-0.49,1.65
23.9110,0.09,0.12,-0.98,3.36,-0.73,1.65
23.9220,0.09,0.13,-0.98,3.48,-1.04,2.14
23.9400,0.08,0.13,-0.98,3.54,-0.79,2.26
23.9560,0.07,0.13,-0.99,3.60,-0.92,1.83
23.9720,0.08,0.13,-0.98,3.30,-0.79,1.28
23.9880,0.08,0.13,-0.99,3.42,-0.98,1.40
24.0040,0.09,0.12,-0.98,3.42,-1.10,1.46
24.0190,0.08,0.13,-0.98,3.78,-1.04,1.46
24.0360,0.09,0.13,-0.99,3.54,-0.98,1.40
24.0510,0.09,0.13,-0.98,3.54,-1.04,1.53
24.0660,0.09,0.13,-0.98,3.36,-0.79,1.59
24.0820,0.08,0.13,-0.98,3.23,-0.43,1.65
24.0980,0.08,0.13,-0.98,3.66,-0.67,1.65
24.1140,0.08,0.13,-0.98,3.42,-0.79,1.46
24.1280,0.09,0.13,-0.99,3.42,-0.92,1.59
24.1430,0.09,0.13,-0.98,3.42,-0.67,1.46
24.1540,0.08,0.13,-0.98,3.48,-0.79,1.59
24.1720,0.08,0.13,-0.98,3.48,-0.92,1.53
24.1880,0.09,0.13,-0.98,3.48,-0.79,1.53
24.2040,0.08,0.13,-0.99,3.54,-0.61,1.65
24.2200,0.09,0.13,-0.99,3.54,-0.98,1.46
24.2360,0.09,0.13,-0.98,3.54,-1.10,1.53
24.2520,0.09,0.12,-0.98,3.66,-0.92,1.65
24.2540,0.10,0.13,-0.98,3.78,-0.49,1.65
24.2700,0.08,0.13,-0.98,3.60,-0.43,1.83
24.2990,0.09,0.13,-0.98,3.72,-1.16,1.77
24.3080,0.09,0.12,-0.98,3.48,-0.98,1.65
24.3250,0.09,0.13,-0.98,3.60,-1.04,1.71
24.3430,0.07,0.13,-0.98,3.30,-0.73,1.65
24.3580,0.08,0.13,-0.98,3.48,-0.92,1.40
24.3740,0.08,0.13,-0.98,3.42,-1.04,1.28
24.3760,0.09,0.12,-0.98,3.42,-0.31,1.10
24.4060,0.09,0.13,-0.98,3.85,-1.04,1.28
24.4080,0.08,0.13,-0.99,3.66,-0.92,1.59
24.4360,0.08,0.13,-0.99,3.48,-0.61,1.46
24.4520,0.08,0.13,-0.98,3.30,-0.92,1.40
24.4670,0.09,0.13,-0.98,3.54,-1.04,1.22
24.4820,0.08,0.13,-0.98,3.78,-0.67,1.22
24.4970,0.08,0.13,-0.98,3.54,-0.24,1.28
24.5080,0.08,0.13,-0.98,3.60,-0.61,1.34
24.5240,0.09,0.13,-0.99,3.54,-0.43,1.28
24.5410,0.09,0.12,-0.98,3.85,-0.85,1.46
24.5570,0.08,0.13,-0.98,3.54,-1.10,1.28
24.5740,0.09,0.13,-0.98,3.78,-0.92,1.40
24.5890,0.09,0.13,-0.98,3.42,-0.79,1.40
24.6040,0.08,0.13,-0.98,3.42,-0.61,1.34
24.6190,0.08,0.13,-0.98,3.48,-0.85,1.40
24.6340,0.09,0.12,-0.98,3.42,-0.73,1.46
24.6490,0.09,0.13,-0.99,3.66,-0.98,1.40
24.6640,0.08,0.13,-0.99,3.54,-0.55,1.34
24.6790,0.08,0.13,-0.98,3.54,-0.85,1.34
24.6910,0.09,0.13,-0.98,3.42,-0.24,1.34
24.7080,0.09,0.13,-0.98,3.78,-0.43,1.53
24.7240,0.08,0.13,-0.98,3.54,-0.61,1.46
24.7380,0.08,0.13,-0.98,3.66,-0.37,1.46
24.7540,0.08,0.13,-0.99,3.36,-0.55,1.40
24.7690,0.08,0.13,-0.98,3.60,-0.37,1.22
24.7840,0.08,0.13,-0.98,3.36,-0.61,1.53
24.7980,0.09,0.13,-0.98,3.36,-0.61,1.34
24.8070,0.08,0.13,-0.98,3.48,-0.73,1.28
24.8240,0.08,0.13,-0.98,3.66,-0.79,1.46
24.8400,0.09,0.13,-0.98,3.54,-0.79,1.34
24.8560,0.09,0.13,-0.98,3.60,-0.79,1.34
24.8730,0.09,0.13,-0.98,3.48,-0.67,1.46
24.8890,0.09,0.13,-0.98,3.72,-1.04,1.28
24.9060,0.08,0.13,-0.98,3.48,-0.61,1.16
24.9230,0.10,0.13,-0.98,3.60,-1.40,1.16
24.9390,0.09,0.13,-0.98,3.72,-0.85,1.34
24.9550,0.08,0.13,-0.98,3.60,-0.73,1.22
24.9710,0.08,0.13,-0.99,3.66,-1.10,1.04
24.9870,0.09,0.13,-0.98,3.66,-1.28,1.22
25.0030,0.08,0.13,-0.99,3.42,-1.16,1.04
25.0180,0.08,0.13,-0.98,3.54,-0.67,1.22
25.0330,0.09,0.12,-0.98,3.72,-1.10,1.22
25.0490,0.09,0.13,-0.98,3.66,-0.79,1.46
25.0650,0.10,0.12,-0.98,3.60,-0.98,1.16
25.0800,0.07,0.13,-0.99,3.36,-0.73,1.04
25.0950,0.08,0.13,-0.98,3.66,-0.79,0.92
25.1100,0.08,0.13,-0.98,3.60,-0.73,0.73
25.1220,0.08,0.13,-0.98,3.54,-0.85,0.85
25.1380,0.08,0.13,-0.98,3.72,-0.79,0.85
25.1550,0.09,0.13,-0.98,3.48,-0.79,0.92
25.1710,0.08,0.13,-0.98,3.60,-0.73,0.73
25.1870,0.08,0.13,-0.99,3.54,-0.73,1.04
25.2040,0.08,0.13,-0.99,3.54,-0.79,0.92
25.2200,0.08,0.13,-0.98,3.78,-0.85,1.28
25.2360,0.08,0.13,-0.98,3.66,-0.85,1.16
25.2510,0.08,0.13,-0.98,3.42,-1.22,1.16
25.2670,0.09,0.13,-0.98,3.48,-0.92,1.22
25.2820,0.09,0.13,-0.99,3.54,-0.73,1.22
25.2980,0.09,0.13,-0.99,3.54,-1.16,1.10
25.3140,0.09,0.13,-0.98,3.60,-0.79,0.92
25.3290,0.09,0.13,-0.98,3.42,-0.79,1.16
25.3440,0.08,0.13,-0.98,3.36,-0.67,1.16
25.3600,0.09,0.13,-0.98,3.48,-0.37,1.10
25.3700,0.10,0.13,-0.98,3.66,-0.92,0.79
25.3870,0.09,0.12,-0.98,3.60,-1.46,0.61
25.4030,0.07,0.12,-0.99,3.60,-0.73,0.37
25.4210,0.08,0.13,-0.98,3.72,-0.79,0.73
25.4370,0.09,0.13,-0.98,3.42,-1.04,0.61
25.4540,0.09,0.13,-0.98,3.91,-0.79,0.31
25.4700,0.09,0.13,-0.99,4.09,-1.34,0.12
25.4850,0.09,0.13,-0.98,3.72,-0.92,0.37
25.5000,0.08,0.13,-0.98,3.91,-0.79,0.61
25.5150,0.07,0.13,-0.98,3.72,-0.73,0.61
25.5310,0.07,0.12,-0.99,3.66,-1.10,0.92
25.5470,0.08,0.13,-0.98,3.48,-0.98,1.28
25.5630,0.08,0.13,-0.98,3.66,-1.10,1.28
25.5790,0.09,0.13,-0.98,3.85,-1.10,1.16
25.5930,0.09,0.13,-0.99,3.91,-1.16,1.34
25.6020,0.08,0.13,-0.98,3.97,-0.98,1.34
25.6190,0.09,0.13,-0.98,4.09,-1.40,1.22
25.6400,0.09,0.13,-0.98,4.03,-1.59,1.22
25.6570,0.09,0.13,-0.99,4.39,-1.46,1.22
25.6740,0.10,0.13,-1.00,4.76,-1.65,1.34
25.6900,0.09,0.13,-0.99,4.15,-1.16,1.22
25.6940,0.09,0.13,-0.98,4.09,-1.46,1.34
25.7220,0.09,0.13,-0.98,3.85,-1.28,1.28
25.7380,0.09,0.13,-0.98,3.97,-1.22,1.34
25.7540,0.09,0.13,-0.98,3.91,-0.79,1.28
25.7700,0.09,0.13,-0.98,3.54,-0.73,1.40
25.7740,0.09,0.13,-0.98,3.11,-0.55,1.34
25.7930,0.09,0.13,-0.98,2.75,-0.43,1.28
25.8130,0.07,0.12,-0.97,2.75,-0.49,1.46
25.8280,0.09,0.13,-0.98,2.87,-0.18,1.22
25.8450,0.09,0.13,-0.98,2.87,-0.37,1.34
25.8620,0.09,0.13,-0.99,2.56,-0.37,1.22
25.8780,0.09,0.13,-0.98,2.56,0.00,1.28
25.8950,0.08,0.13,-0.98,3.17,-0.79,1.34
25.9110,0.09,0.13,-0.99,3.36,-1.22,1.34
25.9260,0.09,0.13,-0.98,3.48,-1.10,1.34
25.9430,0.09,0.13,-0.98,3.85,-0.67,1.40
25.9590,0.09,0.13,-0.98,3.60,-0.79,1.22
25.9750,0.09,0.13,-0.98,3.48,-0.67,1.34
25.9910,0.08,0.13,-0.98,3.36,-1.10,1.28
26.0070,0.09,0.13,-0.98,3.85,-1.40,1.34
26.0110,0.09,0.13,-0.98,3.66,-0.85,1.28
26.0270,0.09,0.13,-0.98,3.72,-1.10,1.28
26.0490,0.09,0.13,-0.98,3.66,-1.10,1.28
26.0660,0.09,0.13,-0.99,3.54,-1.22,1.22
26.0830,0.09,0.13,-0.98,3.48,-0.98,1.34
26.0980,0.09,0.13,-0.98,3.66,-0.79,1.34
26.1160,0.09,0.13,-0.98,3.48,-1.10,1.28
26.1310,0.08,0.13,-0.98,3.72,-0.92,1.28
26.1470,0.09,0.13,-0.98,3.66,-1.28,0.98
26.1620,0.09,0.13,-0.98,3.66,-1.28,1.40
26.1770,0.09,0.13,-0.98,3.54,-1.10,1.40
26.1930,0.08,0.13,-0.98,3.78,-0.98,1.22
26.2090,0.09,0.13,-0.98,3.78,-0.92,1.34
26.2150,0.09,0.13,-0.98,3.72,-0.79,1.28
26.2310,0.08,0.12,-0.99,3.54,-0.61,1.34
26.2530,0.08,0.13,-0.98,3.72,-0.98,1.46
26.2690,0.09,0.13,-0.99,3.85,-1.04,1.28
26.2850,0.09,0.12,-0.98,4.09,-1.16,1.53
26.3020,0.09,0.12,-0.98,3.85,-1.10,1.83
26.3190,0.09,0.13,-0.98,3.72,-1.04,1.65
26.3340,0.09,0.13,-0.98,3.66,-0.79,1.59
26.3510,0.09,0.13,-0.98,3.60,-0.61,1.28
26.3660,0.09,0.13,-0.98,3.60,-0.73,1.16
26.3820,0.09,0.12,-0.99,3.54,-0.79,0.79
26.3990,0.09,0.13,-0.98,3.60,-0.61,0.73
26.4010,0.09,0.13,-0.98,3.60,-0.67,0.98
26.4290,0.09,0.13,-0.98,3.60,-0.55,0.67
26.4440,0.09,0.13,-0.99,3.78,-0.67,0.43
26.4510,0.08,0.12,-0.98,3.97,-0.67,-0.31
26.4670,0.08,0.13,-0.98,3.85,-0.85,0.37
26.4850,0.08,0.13,-0.98,3.60,-1.04,1.77
26.5020,0.09,0.13,-0.98,3.60,-0.55,1.71
26.5180,0.09,0.12,-0.98,3.54,-1.16,1.34
26.5350,0.08,0.12,-0.98,3.66,-0.98,1.10
26.5520,0.09,0.13,-0.99,3.66,-0.79,1.65
26.5680,0.09,0.14,-0.98,3.48,-0.85,1.83
26.5840,0.09,0.13,-0.98,3.60,-1.22,1.22
26.6000,0.09,0.13,-0.99,3.60,-0.37,0.67
26.6160,0.09,0.13,-0.98,3.72,-0.43,-0.31
26.6320,0.08,0.13,-0.98,3.91,-1.10,0.06
26.6340,0.09,0.13,-0.99,3.72,-0.73,1.16
26.6650,0.09,0.13,-0.98,3.60,-0.55,1.22
26.6720,0.09,0.13,-0.98,3.60,-0.61,1.04
26.6950,0.09,0.12,-0.98,3.66,-0.85,0.37
26.7050,0.08,0.12,-0.98,3.91,-0.61,-0.31
26.7230,0.09,0.13,-0.98,3.60,-0.49,0.06
26.7380,0.09,0.13,-0.99,3.78,-0.61,0.24
26.7570,0.08,0.12,-0.98,3.72,-0.98,0.24
26.7720,0.08,0.12,-0.99,3.60,-0.61,1.04
26.7890,0.08,0.13,-0.99,3.66,-1.04,2.20
26.8050,0.09,0.13,-0.98,3.60,-0.92,2.50
26.8210,0.09,0.12,-0.99,3.42,-0.98,2.08
26.8220,0.09,0.12,-0.99,3.48,-0.85,1.95
26.8380,0.09,0.13,-0.99,3.54,-0.37,1.59
26.8550,0.09,0.13,-0.98,3.54,-0.67,0.92
26.8850,0.09,0.14,-0.98,3.48,-0.92,1.34
26.9010,0.08,0.14,-0.98,3.66,-1.10,1.28
26.9050,0.09,0.13,-0.98,3.60,-1.04,1.16
26.9310,0.09,0.13,-0.99,3.78,-1.28,0.98
26.9380,0.09,0.13,-0.98,3.72,-0.67,1.16
26.9550,0.09,0.12,-0.99,3.60,-0.37,1.10
26.9700,0.08,0.12,-0.99,3.54,-0.49,0.43
26.9890,0.08,0.11,-0.99,3.66,-0.73,0.12
27.0040,0.08,0.12,-0.98,3.85,-0.79,-0.18
27.0210,0.08,0.12,-0.99,3.91,-0.49,-0.79
27.0370,0.08,0.13,-0.98,3.91,-0.24,-1.04
27.0540,0.09,0.15,-0.98,3.54,-0.67,-0.06
27.0700,0.09,0.14,-0.98,3.60,-0.31,0.85
27.0720,0.09,0.13,-0.98,3.66,-1.10,1.22
27.1020,0.09,0.13,-0.98,3.78,-1.28,1.28
27.1040,0.09,0.11,-0.99,3.85,-0.49,0.61
27.1200,0.08,0.11,-0.99,3.91,-0.37,-0.24
27.1480,0.08,0.12,-0.99,3.54,-0.61,0.24
27.1590,0.08,0.13,-0.98,3.42,-0.73,0.79
27.1750,0.09,0.14,-0.98,3.48,-0.31,1.16
27.1920,0.08,0.12,-0.98,3.66,-0.37,1.28
27.2090,0.09,0.12,-0.99,3.48,-0.67,0.61
27.2250,0.09,0.13,-0.98,3.48,-0.92,0.61
27.2400,0.09,0.13,-0.98,3.36,-0.49,1.53
27.2420,0.08,0.12,-0.98,3.60,-0.67,1.46
27.2730,0.09,0.13,-0.98,3.54,-0.67,1.10
27.2880,0.09,0.13,-0.98,3.30,-0.43,0.85
27.3030,0.09,0.13,-0.98,3.60,-0.55,0.85
27.3090,0.09,0.12,-0.99,3.42,-0.49,0.67
27.3350,0.09,0.12,-0.99,3.66,-0.92,1.10
27.3500,0.08,0.12,-0.98,3.48,-0.85,1.83
27.3580,0.08,0.14,-0.98,3.36,-0.49,2.69
27.3750,0.09,0.14,-0.98,3.42,-0.79,1.65
27.3910,0.09,0.13,-0.98,3.72,-0.61,1.04
27.4070,0.08,0.13,-0.99,3.72,-0.67,0.79
27.4290,0.09,0.13,-0.98,3.60,-1.22,0.85
27.4440,0.09,0.12,-0.99,3.72,-0.31,0.31
27.4590,0.09,0.12,-0.98,3.66,-0.49,0.18
27.4640,0.08,0.13,-0.99,3.48,-0.18,-0.92
27.4870,0.09,0.12,-0.98,4.03,-0.43,-1.65
27.4960,0.09,0.12,-0.98,3.66,-0.49,-1.16
27.5170,0.08,0.13,-0.99,3.60,-0.61,-0.31
27.5330,0.09,0.13,-0.98,3.60,-0.37,0.00
27.5510,0.09,0.14,-0.99,3.54,-0.55,0.12
27.5670,0.09,0.14,-0.98,3.36,-0.37,0.73
27.5830,0.09,0.13,-0.98,3.66,-0.85,1.16
27.6000,0.08,0.12,-0.98,3.42,-1.16,0.98
27.6010,0.08,0.12,-0.99,3.66,-0.55,0.79
27.6310,0.09,0.12,-0.98,3.36,-0.24,0.61
27.6470,0.09,0.13,-0.98,3.60,-0.67,1.16
27.6630,0.09,0.13,-0.98,3.66,-0.92,1.34
27.6790,0.08,0.12,-0.99,3.85,-0.49,0.73
27.6960,0.08,0.11,-0.99,3.85,-0.79,-1.10
27.7110,0.08,0.12,-0.99,3.85,-0.73,-1.77
27.7170,0.09,0.14,-0.98,3.72,-0.31,-0.67
27.7340,0.09,0.14,-0.98,3.60,0.00,0.18
27.7570,0.09,0.14,-0.98,3.42,-0.31,0.92
27.7670,0.09,0.13,-0.98,3.60,-0.61,0.67
27.7860,0.08,0.12,-0.99,3.42,-1.22,0.67
27.7990,0.08,0.12,-0.99,3.48,-0.55,0.43
27.8180,0.08,0.12,-0.98,3.66,-0.67,0.24
27.8230,0.09,0.13,-0.98,3.36,-0.49,1.22
27.8480,0.08,0.12,-0.99,3.66,-0.73,1.16
27.8630,0.09,0.13,-0.98,3.60,-0.55,0.61
27.8770,0.08,0.13,-0.98,3.54,-0.24,0.24
27.8890,0.09,0.13,-0.98,3.72,-0.49,-0.18
27.9050,0.09,0.13,-0.98,3.85,-0.85,0.31
27.9220,0.08,0.13,-0.99,3.78,-0.55,0.24
27.9380,0.08,0.12,-0.99,3.85,-0.43,-0.24
27.9540,0.08,0.12,-0.99,3.85,-0.31,-0.98
27.9700,0.09,0.13,-0.99,3.85,-0.55,-0.43
27.9870,0.09,0.13,-0.98,3.66,-0.31,0.06
28.0020,0.09,0.13,-0.98,3.66,-0.79,0.61
28.0170,0.08,0.11,-0.99,4.03,-0.49,-0.49
28.0220,0.08,0.11,-0.99,3.91,-0.55,-1.46
28.0370,0.09,0.13,-0.98,3.36,-0.31,-0.24
28.0600,0.09,0.14,-0.98,3.36,-0.73,1.16
28.0760,0.09,0.14,-0.98,3.66,-1.04,0.98
28.0940,0.09,0.13,-0.99,3.66,-0.73,0.43
28.1100,0.09,0.13,-0.98,3.60,-0.37,0.43
28.1260,0.08,0.12,-0.99,3.72,-0.49,0.06
28.1270,0.08,0.11,-0.99,3.78,-0.55,-1.95
28.1430,0.07,0.10,-0.99,4.39,-0.24,-4.21
28.1750,0.09,0.13,-0.98,3.72,0.12,-3.72
28.1900,0.09,0.17,-0.98,3.11,-0.37,0.00
28.2060,0.09,0.15,-0.98,3.42,-0.79,1.40
28.2100,0.09,0.14,-0.98,3.66,-0.85,1.40
28.2260,0.08,0.11,-0.99,3.72,-0.31,0.55
28.2420,0.08,0.12,-0.98,3.48,-0.61,-0.06
28.2630,0.08,0.13,-0.98,3.36,-1.10,0.49
28.2800,0.09,0.14,-0.98,3.72,-1.10,1.04
28.2960,0.08,0.12,-0.99,3.60,-0.79,0.67
28.3140,0.08,0.12,-0.99,3.60,-0.98,-0.06
28.3300,0.09,0.12,-0.98,3.54,-0.61,-0.73
28.3450,0.09,0.12,-0.99,3.66,-0.12,-1.28
28.3620,0.09,0.14,-0.98,3.48,-0.31,-0.18
28.3640,0.09,0.14,-0.98,3.54,-0.49,1.28
28.3940,0.08,0.12,-0.99,3.48,-1.22,1.22
28.4090,0.08,0.11,-0.99,3.48,-1.04,0.67
28.4250,0.08,0.10,-0.99,3.60,0.00,-0.67
28.4290,0.08,0.10,-0.99,3.72,-0.06,-2.01
28.4450,0.08,0.13,-0.98,3.66,-0.67,-1.95
28.4710,0.09,0.15,-0.98,3.17,-0.49,0.31
28.4860,0.09,0.14,-0.98,3.36,-0.85,1.10
28.4960,0.08,0.13,-0.99,3.48,-1.04,0.49
28.5120,0.08,0.12,-0.99,3.42,-0.73,-0.12
28.5280,0.09,0.12,-0.99,3.48,-0.67,0.24
28.5460,0.08,0.12,-0.98,3.66,-1.16,0.92
28.5620,0.08,0.12,-0.99,3.78,-1.04,0.43
28.5780,0.08,0.12,-0.99,3.42,-1.04,-0.37
28.5940,0.09,0.13,-0.98,3.30,-0.67,-0.92
28.6090,0.08,0.13,-0.99,3.54,-0.85,-0.12
28.6160,0.08,0.12,-0.99,3.48,-1.28,-0.18
28.6330,0.09,0.13,-0.99,3.54,-1.22,-0.43
28.6480,0.09,0.13,-0.98,3.36,-0.73,-0.55
28.6710,0.09,0.14,-0.98,3.54,-0.92,-0.06
28.6860,0.09,0.13,-0.98,3.72,-0.85,0.18
28.7010,0.08,0.11,-0.99,3.78,-0.37,-0.06
28.7170,0.08,0.11,-0.99,3.54,-0.43,-1.28
28.7320,0.08,0.11,-0.99,3.48,-0.55,-1.40
28.7480,0.09,0.13,-0.98,3.42,-0.43,-1.10
28.7630,0.09,0.13,-0.98,3.60,-0.67,-1.10
28.7780,0.08,0.13,-0.99,3.66,-0.61,-1.22
28.7890,0.08,0.12,-0.99,3.66,-0.18,-1.77
28.8050,0.08,0.12,-0.98,3.60,-0.24,-1.53
28.8230,0.09,0.15,-0.98,3.48,-0.12,-0.31
28.8390,0.09,0.15,-0.98,3.48,-0.79,1.71
28.8550,0.08,0.12,-0.98,3.66,-1.04,1.10
28.8710,0.08,0.11,-0.99,3.48,-0.67,0.73
28.8880,0.08,0.12,-0.98,3.48,-0.67,0.31
28.9030,0.09,0.13,-0.98,3.54,-0.37,0.12
28.9180,0.09,0.14,-0.98,3.54,-0.92,1.28
28.9340,0.09,0.13,-0.98,3.42,-0.92,1.59
28.9480,0.09,0.13,-0.99,3.42,-0.85,1.71
28.9550,0.09,0.13,-0.98,3.48,-0.37,1.53
28.9720,0.09,0.12,-0.98,3.42,-0.79,2.26
28.9950,0.08,0.12,-0.99,3.36,-1.16,2.81
28.9970,0.09,0.12,-0.99,3.30,-1.46,2.69
29.0270,0.09,0.12,-0.99,3.42,-1.16,2.20
29.0300,0.09,0.13,-0.98,3.48,-1.28,2.50
29.0460,0.08,0.13,-0.98,3.11,-1.10,3.05
29.0620,0.09,0.12,-0.98,3.42,-0.79,2.56
29.0840,0.09,0.12,-0.98,3.36,-0.98,1.95
29.1010,0.08,0.13,-0.99,3.30,-1.04,1.46
29.1170,0.08,0.13,-0.99,3.42,-0.92,2.20
29.1340,0.08,0.12,-0.98,3.85,-0.79,1.46
29.1500,0.09,0.11,-0.99,3.66,-1.28,1.28
29.1660,0.08,0.11,-0.99,3.66,-1.16,1.40
29.1820,0.08,0.12,-0.99,3.48,-0.92,1.46
29.1980,0.08,0.12,-0.98,3.54,-0.92,2.08
29.2140,0.08,0.12,-0.99,3.60,-0.73,1.22
29.2300,0.09,0.14,-0.98,3.36,-1.40,2.26
29.2460,0.09,0.15,-0.98,3.60,-1.28,2.81
29.2620,0.09,0.14,-0.98,3.72,-0.92,1.83
29.2770,0.09,0.13,-0.98,3.66,-1.22,1.28
29.2940,0.09,0.12,-0.99,3.54,-1.04,1.22
29.3010,0.08,0.11,-0.99,3.60,-0.92,1.34
29.3240,0.09,0.11,-0.99,3.30,-0.43,1.89
29.3390,0.09,0.12,-0.99,3.17,-1.34,1.65
29.3490,0.09,0.13,-0.98,3.23,-0.79,1.65
29.3670,0.09,0.13,-0.99,3.60,-1.28,1.04
29.3830,0.08,0.12,-0.98,3.60,-1.22,1.04
29.3990,0.09,0.12,-0.98,3.36,-0.61,1.40
29.4160,0.09,0.13,-0.98,3.66,-0.67,1.04
29.4320,0.09,0.13,-0.98,3.30,-0.73,2.50
29.4470,0.09,0.12,-0.99,3.54,-0.43,1.89
29.4620,0.08,0.12,-0.99,3.23,-1.59,1.53
29.4760,0.09,0.13,-0.98,3.23,-0.73,1.40
29.4920,0.09,0.14,-0.98,3.48,-0.73,0.92
29.5080,0.09,0.14,-0.98,3.48,-0.24,1.34
29.5230,0.09,0.12,-0.99,3.72,-1.04,1.16
29.5380,0.08,0.11,-0.99,3.54,-0.73,1.10
29.5480,0.09,0.11,-0.99,3.91,-0.55,0.12
29.5650,0.09,0.11,-0.99,3.72,-0.92,-0.18
29.5820,0.09,0.13,-0.98,3.60,-0.24,0.85
29.5990,0.09,0.13,-0.98,3.54,-0.73,1.53
29.6150,0.09,0.13,-0.98,3.54,-1.04,1.46
29.6300,0.09,0.13,-0.98,3.36,-0.61,0.49
29.6450,0.09,0.13,-0.99,3.66,-1.04,0.61
29.6610,0.09,0.12,-0.99,3.78,-0.92,0.61
29.6760,0.08,0.12,-0.99,3.66,-1.16,1.10
29.6910,0.09,0.12,-0.99,3.48,-0.67,1.71
29.7080,0.09,0.13,-0.98,3.54,-0.79,1.46
29.7230,0.09,0.14,-0.98,3.42,-0.85,1.16
29.7380,0.08,0.13,-0.99,3.48,-0.61,1.28
29.7480,0.09,0.12,-0.99,3.48,-0.31,1.10
29.7640,0.09,0.12,-0.98,3.60,-0.73,0.73
29.7790,0.08,0.12,-0.98,3.66,-0.55,0.24
29.8000,0.08,0.12,-0.98,3.72,-0.55,0.55
29.8030,0.08,0.13,-0.98,3.54,-0.73,0.79
29.8300,0.09,0.13,-0.98,3.54,-0.67,1.22
29.8370,0.09,0.12,-0.99,3.66,-0.73,0.98
29.8530,0.09,0.11,-0.99,3.54,-0.85,0.49
29.8710,0.08,0.11,-0.99,3.85,-0.61,-0.43
29.8870,0.09,0.12,-0.99,3.60,-0.31,-1.77
29.9040,0.09,0.13,-0.98,3.85,-0.79,-0.85
29.9200,0.09,0.13,-0.98,3.72,-0.73,-0.12
29.9370,0.09,0.13,-0.98,3.72,-0.85,-0.06
29.9530,0.09,0.14,-0.98,3.66,-0.37,0.61
29.9690,0.09,0.13,-0.98,3.60,-0.85,0.49
29.9840,0.09,0.12,-0.98,3.66,-0.24,0.79
30.0000,0.09,0.12,-0.99,3.85,-0.92,0.98
30.0040,0.08,0.12,-0.99,3.60,-0.37,0.67
30.0210,0.08,0.11,-0.99,3.66,-0.49,0.49
30.0450,0.08,0.11,-0.99,3.72,-0.55,-0.18
30.0600,0.09,0.12,-0.99,3.85,-0.92,-1.16
30.0690,0.09,0.15,-0.98,3.36,-0.67,0.31
30.0860,0.09,0.14,-0.98,3.48,-0.24,0.85
30.1020,0.09,0.13,-0.99,3.54,-0.79,0.85
30.1210,0.09,0.13,-0.98,3.54,-0.67,0.85
30.1360,0.08,0.11,-0.99,3.66,-0.85,0.43
30.1520,0.08,0.11,-0.99,3.72,-0.67,-0.49
30.1680,0.09,0.12,-0.99,3.66,-0.98,-0.37
30.1840,0.09,0.14,-0.98,3.42,-0.61,0.55
30.1990,0.09,0.14,-0.98,3.60,-0.55,0.31
30.2150,0.08,0.12,-0.99,3.54,-0.43,0.31
30.2300,0.08,0.12,-0.98,3.66,-0.61,-0.61
30.2350,0.09,0.14,-0.98,3.72,-0.79,-0.61
30.2520,0.09,0.13,-0.99,3.60,-0.92,0.24
30.2680,0.09,0.12,-0.98,3.72,-0.49,0.43
30.2850,0.08,0.12,-0.98,3.66,-0.31,0.49
30.3020,0.09,0.13,-0.99,3.54,-0.61,0.61
30.3180,0.08,0.11,-0.99,3.66,-0.37,0.24
30.3360,0.08,0.12,-0.99,3.78,-0.79,-0.55
30.3520,0.09,0.13,-0.98,3.60,-0.61,0.06
30.3680,0.09,0.14,-0.98,3.60,-0.37,0.73
30.3850,0.09,0.13,-0.98,3.66,-1.22,0.61
30.3860,0.09,0.13,-0.98,3.48,-0.61,0.98
30.4170,0.09,0.13,-0.99,3.48,-0.67,1.10
30.4320,0.09,0.12,-0.99,3.48,-0.55,0.92
30.4340,0.08,0.11,-0.99,3.72,-1.04,0.61
30.4520,0.08,0.12,-0.99,3.72,-0.85,-0.31
30.4770,0.08,0.12,-0.98,3.54,-0.49,-0.24
30.4920,0.09,0.13,-0.98,3.66,-0.73,0.12
30.5100,0.09,0.13,-0.98,3.66,-0.73,0.31
30.5250,0.08,0.12,-0.98,3.66,-0.98,0.00
30.5420,0.09,0.11,-0.99,3.91,-0.67,-1.04
30.5440,0.08,0.11,-0.99,3.66,-0.31,-1.71
30.5740,0.09,0.13,-0.98,3.66,-0.31,-1.22
30.5880,0.09,0.13,-0.98,3.66,-0.24,-0.55
30.6040,0.09,0.13,-0.98,3.60,-0.55,0.12
30.6200,0.09,0.13,-0.98,3.60,-0.55,0.24
30.6360,0.08,0.11,-0.99,3.78,-0.12,-0.85
30.6510,0.08,0.11,-0.99,3.91,-0.43,-1.53
30.6660,0.08,0.12,-0.99,3.72,-0.67,-2.01
30.6810,0.09,0.13,-0.99,3.66,-0.24,-1.65
30.6910,0.09,0.13,-0.98,3.78,-0.18,-1.59
30.7080,0.09,0.14,-0.98,3.91,-0.12,-0.37
30.7250,0.09,0.15,-0.98,3.72,-0.92,0.85
30.7410,0.09,0.14,-0.98,3.66,-0.55,0.98
30.7560,0.08,0.13,-0.98,3.60,-1.16,1.16
30.7580,0.08,0.11,-0.99,3.66,-0.61,1.16
30.7760,0.08,0.09,-0.99,3.48,-0.24,-0.49
30.7960,0.08,0.10,-0.99,3.72,-0.12,-1.59
30.8130,0.08,0.12,-0.99,3.91,-0.18,-2.69
30.8290,0.09,0.15,-0.98,3.66,-0.49,-1.28
30.8470,0.09,0.14,-0.98,3.72,-0.31,-0.67
30.8630,0.09,0.13,-0.98,3.72,-0.61,-0.67
30.8780,0.09,0.13,-0.98,3.60,-0.85,-0.43
30.8950,0.09,0.13,-0.98,3.60,-0.49,-0.18
30.9110,0.09,0.13,-0.98,3.72,-0.98,-0.06
30.9260,0.09,0.12,-0.99,3.66,-0.31,-0.06
30.9410,0.08,0.11,-0.99,3.66,-0.31,-0.79
30.9560,0.08,0.12,-0.98,3.66,-0.06,-1.40
30.9710,0.09,0.14,-0.98,3.78,-0.43,-2.08
30.9860,0.09,0.15,-0.98,3.66,-0.79,0.61
31.0020,0.09,0.14,-0.98,3.60,-0.67,0.98
31.0120,0.08,0.12,-0.99,3.48,-1.10,1.28
31.0280,0.08,0.11,-0.99,3.36,-0.61,0.85
31.0450,0.08,0.10,-0.99,3.54,-0.37,-0.24
31.0610,0.09,0.13,-0.98,3.54,-0.18,-1.65
31.0780,0.09,0.15,-0.98,3.78,-0.61,-0.55
31.0940,0.09,0.14,-0.98,3.66,-0.92,0.31
31.1100,0.09,0.13,-0.98,3.54,-0.67,0.61
31.1250,0.08,0.12,-0.99,3.42,-0.67,0.43
31.1410,0.09,0.12,-0.99,3.54,-0.37,0.12
31.1450,0.09,0.13,-0.98,3.78,-0.49,0.49
31.1610,0.09,0.12,-0.99,3.91,-0.49,0.92
31.1830,0.09,0.12,-0.99,3.78,-0.98,0.79
31.2000,0.09,0.12,-0.98,3.54,-1.04,0.61
31.2170,0.08,0.11,-0.99,3.66,-1.28,0.12
31.2350,0.08,0.11,-0.99,3.78,-0.98,-0.85
31.2490,0.09,0.13,-0.99,3.85,-0.37,-1.04
31.2670,0.09,0.13,-0.98,3.85,-0.67,-0.24
31.2820,0.09,0.13,-0.98,3.72,-0.55,-0.24
31.2980,0.09,0.12,-0.99,3.54,-0.49,-0.61
31.3150,0.08,0.12,-0.99,3.66,-0.43,-1.40
31.3160,0.09,0.13,-0.98,3.60,-0.73,-1.04
31.3460,0.09,0.14,-0.98,3.78,-0.73,-0.12
31.3620,0.09,0.13,-0.98,3.85,-0.61,0.24
31.3790,0.08,0.12,-0.98,3.78,-0.92,0.61
31.3940,0.09,0.12,-0.98,3.72,-0.37,0.31
31.3990,0.09,0.14,-0.99,3.54,-0.79,0.24
31.4250,0.09,0.14,-0.98,3.54,-0.98,1.34
31.4400,0.08,0.12,-0.99,3.66,-1.16,1.40
31.4480,0.08,0.11,-0.99,3.30,-0.06,0.67
31.4640,0.09,0.12,-0.99,3.48,-0.55,0.55
31.4800,0.08,0.12,-0.99,3.66,-0.79,-0.18
31.5010,0.09,0.14,-0.98,3.36,-0.67,1.28
31.5170,0.09,0.14,-0.98,3.54,-0.92,1.89
31.5330,0.09,0.12,-0.99,3.72,-0.55,1.65
31.5500,0.09,0.10,-0.99,3.36,-1.04,1.46
31.5660,0.09,0.11,-0.99,3.42,-0.98,1.28
31.5810,0.08,0.12,-0.98,3.36,-0.92,0.61
31.5980,0.09,0.13,-0.99,3.36,-0.49,1.46
31.6130,0.09,0.14,-0.98,3.48,-0.98,2.20
31.6290,0.08,0.13,-0.98,3.42,-0.61,2.14
31.6330,0.09,0.12,-0.99,3.60,-1.04,1.40
31.6490,0.09,0.11,-0.99,3.48,-0.92,0.98
31.6740,0.09,0.12,-0.99,3.48,-0.85,0.55
31.6880,0.09,0.13,-0.98,3.48,-0.85,1.53
31.7050,0.09,0.14,-0.98,3.54,-0.92,1.77
31.7210,0.09,0.13,-0.98,3.54,-0.67,1.53
31.7370,0.09,0.12,-0.99,3.66,-1.28,1.34
31.7530,0.09,0.13,-0.99,3.60,-0.98,1.28
31.7680,0.09,0.13,-0.98,3.36,-1.04,1.34
31.7840,0.08,0.12,-0.98,3.48,-1.10,1.40
31.7880,0.09,0.12,-0.99,3.66,-0.37,1.53
31.8040,0.09,0.12,-0.99,3.66,-0.55,1.46
31.8260,0.09,0.11,-0.98,3.54,-0.98,1.10
31.8430,0.09,0.13,-0.98,3.36,-1.16,0.67
31.8580,0.09,0.13,-0.98,3.42,-0.67,0.98
31.8750,0.08,0.13,-0.98,3.60,-0.67,1.22
31.8910,0.09,0.12,-0.98,3.72,-1.22,1.22
31.9070,0.08,0.12,-0.99,3.72,-0.98,0.85
31.9210,0.09,0.11,-0.99,3.48,-0.85,0.55
31.9250,0.09,0.13,-0.99,3.42,-0.37,0.18
31.9410,0.09,0.13,-0.98,3.60,-0.61,1.16
31.9630,0.08,0.12,-0.98,3.48,-0.79,0.85
31.9800,0.09,0.12,-0.99,3.54,-0.98,0.31
31.9950,0.09,0.12,-0.99,3.66,-0.98,-0.12
32.0120,0.09,0.13,-0.98,3.78,-0.43,-0.18
32.0280,0.08,0.12,-0.98,3.36,-0.43,0.37
32.0450,0.09,0.12,-0.98,3.48,-0.98,0.79
32.0610,0.09,0.11,-0.99,3.54,-0.98,0.31
32.0760,0.09,0.12,-0.99,3.36,-0.67,-0.37
32.0920,0.09,0.11,-0.99,3.48,-0.98,-0.37
32.0960,0.08,0.11,-0.99,3.60,-0.55,-0.92
32.1120,0.09,0.12,-0.99,3.66,-0.79,-0.24
32.1360,0.08,0.13,-0.98,3.72,-0.31,-1.28
32.1530,0.09,0.14,-0.98,3.42,-0.55,-0.12
32.1690,0.09,0.15,-0.98,3.48,-0.85,0.55
32.1850,0.09,0.13,-0.99,3.48,-0.79,1.10
32.2020,0.09,0.12,-0.98,3.42,-0.85,0.98
32.2170,0.09,0.12,-0.99,3.48,-0.79,0.73
32.2330,0.08,0.11,-0.99,3.66,-0.85,0.43
32.2480,0.08,0.11,-0.99,3.78,-0.24,-0.55
32.2640,0.09,0.13,-0.98,3.60,-0.55,-0.98
32.2790,0.09,0.14,-0.98,3.66,-1.04,0.00
32.2950,0.09,0.14,-0.98,3.54,-0.37,0.92
32.3100,0.09,0.13,-0.98,3.78,-0.67,1.22
32.3190,0.08,0.12,-0.99,3.78,-0.98,0.98
32.3350,0.08,0.10,-0.99,3.54,-0.73,0.24
32.3560,0.09,0.12,-0.98,3.91,-0.73,-0.06
32.3720,0.09,0.13,-0.98,3.48,-0.55,-0.06
32.3890,0.09,0.13,-0.98,3.60,-0.55,0.73
32.4050,0.09,0.12,-0.99,3.42,-0.43,0.73
32.4200,0.08,0.11,-0.99,3.66,-0.67,-0.06
32.4360,0.08,0.11,-0.99,3.60,-0.37,-1.28
32.4520,0.08,0.12,-0.98,3.60,-0.67,-1.71
32.4660,0.09,0.13,-0.99,3.60,-0.24,-0.98
32.4810,0.09,0.13,-0.98,3.78,-0.31,-0.79
32.4960,0.09,0.13,-0.99,3.54,-0.18,-0.43
32.5110,0.08,0.12,-0.99,3.54,-0.49,-0.98
32.5230,0.08,0.11,-0.99,3.78,-0.43,-1.40
32.5390,0.08,0.11,-0.98,3.78,-0.43,-2.26
32.5560,0.09,0.13,-0.98,3.72,-0.67,-2.38
32.5730,0.09,0.15,-0.98,3.66,0.00,-0.37
32.5880,0.09,0.13,-0.98,3.78,-0.49,0.24
32.6050,0.09,0.13,-0.98,3.60,-0.67,0.67
32.6200,0.09,0.13,-0.98,3.42,-0.67,1.10
32.6350,0.09,0.12,-0.99,3.54,-0.73,1.10
32.6500,0.09,0.12,-0.99,3.72,-0.79,1.28
32.6650,0.08,0.11,-0.99,3.72,-0.49,0.06
32.6810,0.09,0.13,-0.98,3.66,-0.61,-0.79
32.6960,0.09,0.13,-0.98,3.72,-0.61,-0.55
32.7110,0.09,0.13,-0.99,3.60,-0.55,-0.24
32.7270,0.08,0.12,-0.98,3.54,-0.18,-0.06
32.7380,0.08,0.13,-0.99,3.91,-0.37,-0.31
32.7550,0.08,0.12,-0.99,3.85,-0.61,-0.12
32.7720,0.09,0.12,-0.99,3.78,-0.37,-0.31
32.7890,0.08,0.11,-0.99,3.78,-0.31,-1.34
32.8050,0.08,0.11,-0.99,3.91,-0.31,-3.11
32.8210,0.09,0.13,-0.99,3.60,0.12,-3.54
32.8220,0.09,0.15,-0.98,3.66,0.00,-1.65
32.8530,0.09,0.16,-0.98,3.72,-0.31,-0.18
32.8700,0.09,0.12,-0.98,3.54,-0.73,1.28
32.8710,0.09,0.12,-0.98,3.54,-0.98,1.16
32.8880,0.08,0.11,-0.99,3.66,-0.61,0.85
32.9160,0.09,0.13,-0.98,3.85,-0.73,-0.24
32.9270,0.09,0.13,-0.98,3.72,-0.67,0.92
32.9440,0.09,0.13,-0.99,3.60,-0.85,1.16
32.9600,0.09,0.12,-0.99,3.36,-0.61,1.34
32.9760,0.09,0.12,-0.99,3.36,-0.55,1.10
32.9930,0.08,0.10,-0.99,3.66,-0.67,0.31
33.0110,0.09,0.13,-0.99,3.48,-0.73,-1.04
33.0250,0.09,0.14,-0.98,3.72,-0.43,-0.31
33.0430,0.08,0.12,-0.98,3.78,-0.67,0.49
33.0580,0.08,0.12,-0.99,3.54,-0.37,0.37
33.0730,0.09,0.12,-0.99,3.60,-0.43,-0.18
33.0890,0.09,0.14,-0.98,3.42,-0.61,-0.12
33.1040,0.09,0.14,-0.98,3.60,-1.16,1.22
33.1080,0.09,0.12,-0.98,3.66,-0.92,1.34
33.1240,0.09,0.12,-0.99,3.54,-0.18,1.40
33.1450,0.08,0.10,-0.99,3.30,-0.98,0.73
33.1600,0.08,0.11,-0.99,3.54,-0.24,-0.55
33.1760,0.09,0.13,-0.98,3.54,-0.73,-1.22
33.1970,0.09,0.14,-0.98,3.72,-0.43,0.31
33.2120,0.09,0.14,-0.98,3.48,-0.49,0.55
33.2280,0.09,0.13,-0.99,3.54,-0.79,1.04
33.2440,0.09,0.12,-0.98,3.72,-0.55,1.10
33.2590,0.09,0.13,-0.98,3.54,-0.55,0.92
33.2760,0.08,0.12,-0.98,3.72,-0.61,1.22
33.2910,0.08,0.11,-0.99,3.60,-0.61,1.22
33.3080,0.09,0.11,-0.99,3.48,-0.31,0.79
33.3230,0.08,0.11,-0.99,3.60,-0.43,-0.06
33.3380,0.08,0.12,-0.98,3.48,-0.49,-0.24
33.3530,0.09,0.12,-0.98,3.66,-0.31,0.37
33.3640,0.08,0.12,-0.99,3.42,-0.12,0.79
33.3810,0.08,0.13,-0.98,3.36,-0.31,1.34
33.3980,0.09,0.14,-0.98,3.36,-0.73,1.28
33.4130,0.09,0.14,-0.98,3.48,-0.37,1.89
33.4290,0.08,0.11,-0.99,3.60,-0.73,1.71
33.4460,0.09,0.11,-0.99,3.36,-0.79,2.08
33.4470,0.09,0.11,-0.99,3.42,-0.31,0.98
33.4770,0.09,0.13,-0.98,3.54,-0.61,0.92
33.4920,0.09,0.14,-0.98,3.48,-0.61,1.77
33.5080,0.08,0.12,-0.98,3.72,-0.98,1.71
33.5240,0.09,0.12,-0.98,3.66,-1.40,2.08
33.5400,0.09,0.12,-0.99,3.54,-0.61,1.89
33.5560,0.09,0.12,-0.98,3.42,-0.73,2.14
33.5680,0.09,0.13,-0.98,3.36,-0.55,2.62
33.5790,0.09,0.12,-0.99,3.54,-0.73,2.44
33.6010,0.09,0.12,-0.98,3.42,-0.85,2.56
33.6160,0.09,0.12,-0.98,3.48,-1.04,1.89
33.6320,0.09,0.12,-0.99,3.42,-0.79,1.71
33.6480,0.09,0.13,-0.98,3.60,-0.85,1.40
33.6650,0.08,0.12,-0.99,3.72,-0.73,0.61
33.6810,0.08,0.12,-0.98,3.42,-0.73,0.67
33.6840,0.08,0.12,-0.99,3.54,-0.55,0.79
33.7000,0.08,0.12,-0.99,3.66,-0.85,0.31
33.7250,0.09,0.12,-0.98,3.66,-0.43,0.06
33.7400,0.09,0.12,-0.98,3.60,-0.55,-0.43
33.7570,0.09,0.13,-0.99,3.66,-0.92,0.24
33.7740,0.09,0.13,-0.98,3.48,-0.55,1.04
33.7920,0.08,0.12,-0.98,3.66,-0.85,0.92
33.8060,0.08,0.11,-0.99,3.66,-1.10,0.55
33.8090,0.08,0.11,-0.99,3.42,0.06,-0.67
33.8240,0.09,0.12,-0.98,3.60,-0.73,-0.49
33.8550,0.09,0.13,-0.98,3.54,-0.37,0.73
33.8680,0.09,0.13,-0.98,3.66,-0.79,1.34
33.8820,0.09,0.13,-0.98,3.36,-0.85,1.65
33.9000,0.09,0.13,-0.99,3.60,-0.73,1.46
33.9150,0.09,0.12,-0.98,3.72,-0.79,1.16
33.9330,0.09,0.13,-0.98,3.54,-0.43,0.73
33.9480,0.09,0.13,-0.98,3.72,-1.04,0.98
33.9640,0.09,0.12,-0.99,3.72,-0.85,1.59
33.9800,0.08,0.12,-0.99,3.36,-0.73,1.40
33.9960,0.09,0.12,-0.99,3.60,-0.37,1.10
33.9990,0.08,0.12,-0.99,3.42,-0.67,0.49
34.0150,0.08,0.13,-0.98,3.42,-0.31,1.28
34.0370,0.09,0.12,-0.99,3.60,-0.98,1.53
34.0530,0.09,0.11,-0.99,3.72,-0.49,1.53
34.0700,0.09,0.11,-0.99,3.36,-0.61,0.79
34.0870,0.09,0.11,-0.99,3.42,-0.49,0.06
34.1030,0.09,0.12,-0.98,3.60,-0.79,0.18
34.1190,0.08,0.13,-0.98,3.36,-0.31,1.22
34.1330,0.09,0.14,-0.98,3.36,-0.67,1.53
34.1370,0.08,0.14,-0.98,3.54,-1.04,1.89
34.1540,0.09,0.13,-0.98,3.66,-0.55,1.89
34.1700,0.09,0.12,-0.99,3.42,-0.79,1.22
34.1870,0.09,0.11,-0.99,3.36,-0.61,1.65
34.2030,0.09,0.12,-0.99,3.36,-0.43,2.14
34.2190,0.09,0.12,-0.98,3.23,-1.04,2.32
34.2360,0.09,0.13,-0.99,3.54,-0.92,2.14
34.2530,0.09,0.12,-0.98,3.36,-0.61,1.83
34.2690,0.09,0.11,-0.99,3.42,-0.43,1.53
34.2850,0.09,0.11,-0.99,3.54,-0.49,1.10
34.3020,0.08,0.11,-0.99,3.42,-0.85,0.43
34.3180,0.08,0.13,-0.98,3.30,-0.73,0.73
34.3340,0.09,0.12,-0.99,3.36,-0.37,1.34
34.3360,0.08,0.13,-0.98,3.42,-0.37,1.59
34.3660,0.08,0.13,-0.98,3.48,-0.61,1.71
34.3690,0.08,0.12,-0.99,3.66,-0.79,1.22
34.3860,0.09,0.12,-0.98,3.60,-0.61,1.04
34.4130,0.09,0.11,-0.99,3.48,-0.61,0.61
34.4290,0.09,0.11,-0.99,3.78,-0.67,-0.98
34.4440,0.08,0.11,-0.99,3.72,-0.67,-1.77
34.4600,0.08,0.12,-0.98,3.66,-0.67,-0.85
34.4680,0.08,0.14,-0.98,3.42,-0.31,0.18
34.4840,0.08,0.14,-0.98,3.85,-0.85,0.73
34.5020,0.09,0.13,-0.98,3.60,-0.79,0.79
34.5200,0.08,0.13,-0.98,3.72,-0.73,0.85
34.5340,0.08,0.11,-0.99,3.91,-0.92,0.61
34.5510,0.08,0.12,-0.99,3.91,-0.55,-0.37
34.5670,0.09,0.13,-0.98,3.54,-0.55,0.12
34.5680,0.09,0.14,-0.98,3.60,-0.43,0.79
34.5990,0.09,0.13,-0.98,3.72,-0.67,1.28
34.6150,0.09,0.12,-0.99,3.54,-0.31,1.28
34.6310,0.08,0.12,-0.98,3.54,-0.67,1.10
34.6470,0.09,0.13,-0.98,3.48,-0.67,1.10
34.6630,0.09,0.13,-0.98,3.60,-0.85,1.46
34.6790,0.09,0.12,-0.99,3.54,-0.73,1.46
34.6940,0.08,0.12,-0.99,3.66,-0.61,1.40
34.7110,0.08,0.11,-0.99,3.66,-0.67,2.01
34.7260,0.08,0.09,-0.99,3.36,-0.55,2.75
34.7350,0.09,0.12,-0.99,3.11,-0.31,3.17
34.7510,0.09,0.15,-0.98,3.17,-0.98,3.60
34.7680,0.09,0.14,-0.98,3.36,-0.79,2.44
34.7840,0.09,0.13,-0.98,3.48,-0.43,1.71
34.8040,0.08,0.12,-0.98,3.54,-0.31,1.46
34.8060,0.08,0.12,-0.99,3.91,-0.79,1.83
34.8360,0.08,0.11,-0.99,3.60,-0.92,2.32
34.8510,0.08,0.12,-0.99,3.30,-1.10,2.81
34.8670,0.09,0.15,-0.98,3.54,-0.98,2.81
34.8830,0.09,0.12,-0.98,3.85,-0.55,1.28
34.8990,0.09,0.12,-0.99,3.91,-0.92,1.46
34.9150,0.09,0.13,-0.98,3.60,-0.67,1.65
34.9300,0.09,0.12,-0.98,4.15,-1.22,1.34
34.9450,0.08,0.12,-0.98,4.64,-0.73,1.34
34.9600,0.09,0.12,-0.99,5.00,-0.67,1.34
34.9710,0.09,0.13,-0.99,4.82,-1.34,1.28
34.9870,0.09,0.13,-0.99,4.39,-0.67,1.46
35.0050,0.09,0.12,-0.99,4.27,-1.10,1.40
35.0200,0.09,0.12,-0.99,4.03,-0.85,1.34
35.0360,0.09,0.12,-0.99,3.97,-0.73,1.40
35.0520,0.09,0.13,-0.99,3.91,-0.73,1.34
35.0670,0.09,0.12,-0.99,3.72,-0.79,1.34
35.0840,0.09,0.13,-0.98,3.66,-1.04,1.53
35.1000,0.09,0.12,-0.98,3.17,-0.67,1.40
35.1160,0.09,0.13,-0.99,2.87,-0.43,1.65
35.1320,0.09,0.13,-0.99,2.56,-0.49,1.53
35.1370,0.09,0.12,-0.98,2.50,-0.12,1.40
35.1620,0.08,0.11,-0.98,2.08,0.12,1.89
35.1770,0.09,0.12,-0.99,2.20,-0.49,2.32
35.1860,0.09,0.12,-0.98,2.75,-0.85,2.08
35.2030,0.09,0.12,-0.98,2.81,-0.73,2.14
35.2200,0.08,0.12,-0.98,2.87,-0.73,2.08
35.2360,0.08,0.12,-0.97,2.14,0.12,2.01
35.2510,0.08,0.11,-0.98,3.11,-0.55,1.28
35.2680,0.09,0.12,-0.98,2.93,-0.24,2.14
35.2840,0.09,0.13,-0.98,3.30,-0.92,1.95
35.3000,0.09,0.13,-0.98,3.42,-0.85,1.71
35.3160,0.09,0.12,-0.99,3.05,-0.49,1.34
35.3320,0.09,0.12,-0.99,3.23,-0.73,1.22
35.3480,0.09,0.12,-0.98,3.48,-0.49,1.34
35.3640,0.08,0.09,-0.99,3.54,-0.61,1.22
35.3780,0.09,0.14,-0.99,3.30,-1.16,2.38
35.3950,0.08,0.12,-0.98,3.30,-0.92,1.71
35.4100,0.09,0.12,-0.98,3.60,-0.67,1.40
35.4250,0.09,0.12,-0.99,3.66,-0.92,1.22
35.4350,0.09,0.12,-0.99,3.66,-0.79,1.10
35.4520,0.08,0.11,-0.99,3.23,-0.79,1.65
35.4680,0.09,0.14,-0.98,3.23,-0.73,1.95
35.4850,0.09,0.12,-0.98,3.48,-0.55,1.10
35.5000,0.08,0.12,-0.99,3.60,-0.61,1.22
35.5170,0.09,0.12,-0.98,3.54,-0.67,1.34
35.5330,0.08,0.12,-0.99,3.66,-0.79,1.46
35.5490,0.08,0.09,-0.99,3.42,-0.49,1.34
35.5640,0.08,0.12,-0.99,3.17,-0.55,2.38
35.5690,0.09,0.13,-0.98,3.17,-1.10,2.32
35.5850,0.09,0.13,-0.99,3.48,-0.67,1.71
35.6010,0.09,0.13,-0.98,3.60,-0.85,1.71
35.6220,0.08,0.12,-0.99,3.48,-0.24,1.53
35.6390,0.09,0.12,-0.99,3.42,-0.55,1.34
35.6550,0.08,0.12,-0.98,3.66,-0.79,1.34
35.6720,0.09,0.12,-0.98,3.54,-0.31,1.28
35.6880,0.08,0.12,-0.99,3.72,-0.55,1.34
35.7050,0.08,0.12,-0.99,3.60,-0.85,1.46
35.7200,0.09,0.12,-0.98,3.42,-0.85,1.53
35.7360,0.08,0.12,-0.99,4.03,-0.67,1.34
35.7520,0.09,0.12,-0.98,3.85,-0.61,1.22
35.7610,0.08,0.12,-0.99,4.09,-0.79,1.22
35.7700,0.08,0.12,-0.98,3.91,-0.92,1.16
35.7920,0.09,0.12,-0.99,3.66,-0.55,1.46
35.8090,0.08,0.12,-0.98,3.72,-0.24,1.46
35.8250,0.09,0.12,-0.98,4.09,-0.67,1.34
35.8430,0.09,0.12,-0.98,3.72,-0.98,1.28
35.8580,0.08,0.12,-0.98,3.97,-0.61,1.28
35.8750,0.09,0.12,-0.98,4.03,-1.10,1.28
35.8910,0.09,0.13,-0.98,4.21,-0.79,1.34
35.9070,0.09,0.12,-0.99,4.03,-0.85,1.46
35.9230,0.09,0.12,-0.98,3.97,-0.98,1.40
35.9380,0.08,0.12,-0.98,4.27,-0.92,1.34
35.9410,0.09,0.13,-0.99,4.21,-0.67,1.34
35.9610,0.09,0.15,-1.00,4.33,-1.46,1.28
35.9820,0.08,0.12,-0.99,4.09,-1.22,1.16
35.9990,0.08,0.13,-0.99,3.91,-0.49,1.40
36.0140,0.09,0.12,-0.98,3.97,-1.28,1.34
36.0320,0.09,0.13,-0.99,4.03,-1.28,1.28
36.0470,0.09,0.13,-0.99,4.03,-0.73,1.22
36.0630,0.09,0.13,-0.98,3.48,-0.67,1.28
36.0790,0.09,0.13,-0.98,3.17,-0.61,1.40
36.0810,0.09,0.12,-0.98,3.11,-0.73,1.28
36.1100,0.09,0.12,-0.99,2.99,-0.49,1.40
36.1260,0.09,0.12,-0.98,2.81,-0.55,1.46
36.1420,0.07,0.12,-0.96,2.69,-0.37,1.34
36.1580,0.09,0.12,-0.98,2.87,-0.61,1.40
36.1730,0.09,0.12,-0.99,2.50,-0.61,1.34
36.1890,0.09,0.12,-0.99,2.87,-0.73,1.40
36.2030,0.08,0.12,-0.98,2.99,-0.67,1.40
36.2140,0.09,0.12,-0.98,3.05,-0.55,1.53
36.2310,0.09,0.12,-0.98,3.05,-0.24,1.46
36.2470,0.09,0.12,-0.98,2.93,-0.61,1.28
36.2640,0.08,0.12,-0.98,3.36,-0.24,1.22
36.2790,0.09,0.12,-0.98,3.60,-0.61,1.46
36.2950,0.09,0.12,-0.98,3.48,-0.49,1.40
36.2970,0.09,0.12,-0.99,3.66,-0.61,1.40
36.3140,0.08,0.12,-0.99,3.72,-0.37,1.53
36.3310,0.08,0.13,-0.98,3.85,-0.85,1.46
36.3460,0.10,0.12,-0.98,4.21,-1.16,1.10
36.3620,0.08,0.12,-0.98,3.66,-0.61,1.71
36.3780,0.08,0.12,-0.98,4.09,-0.43,1.34
36.4010,0.08,0.12,-0.98,3.42,-0.85,1.71
36.4170,0.08,0.12,-0.98,3.85,-0.73,1.46
36.4340,0.09,0.12,-0.99,3.30,-0.55,1.46
36.4490,0.08,0.12,-0.99,2.81,-0.37,1.65
36.4650,0.09,0.12,-0.98,3.11,-0.67,1.71
36.4670,0.09,0.12,-0.98,3.23,-0.31,1.65
36.4830,0.08,0.12,-0.98,3.66,-0.67,1.65
36.5060,0.08,0.12,-0.99,3.66,-0.49,1.53
36.5230,0.09,0.11,-0.97,2.99,-0.67,1.34
36.5390,0.08,0.12,-0.99,3.60,-0.31,1.34
36.5550,0.08,0.12,-0.98,3.30,-0.67,1.40
36.5720,0.08,0.13,-0.99,3.72,-0.85,1.53
36.5880,0.09,0.13,-0.99,3.42,-0.67,1.59
36.6050,0.08,0.12,-0.98,3.36,-0.61,1.77
36.6200,0.09,0.12,-0.98,3.72,-0.55,1.83
36.6350,0.09,0.12,-0.98,3.91,-0.31,1.65
36.6490,0.08,0.12,-0.99,3.72,-0.73,1.40
36.6650,0.08,0.13,-0.99,3.60,-0.37,1.34
36.6790,0.08,0.13,-0.99,3.36,-0.24,1.40
36.6890,0.08,0.12,-0.98,3.23,-0.55,1.46
36.7050,0.09,0.12,-0.99,3.78,-0.79,1.53
36.7250,0.08,0.12,-0.99,3.85,-0.67,1.34
36.7260,0.09,0.12,-0.99,3.72,-0.79,1.22
36.7570,0.09,0.12,-0.98,3.23,-0.12,1.46
36.7590,0.07,0.13,-0.98,3.30,-0.49,1.53
36.7880,0.07,0.12,-0.98,3.17,-0.61,1.95
36.8030,0.09,0.12,-0.98,3.66,-0.43,2.14
36.8180,0.09,0.12,-0.98,4.09,-0.43,1.46
36.8260,0.09,0.12,-0.99,3.97,-0.31,1.22
36.8420,0.09,0.12,-0.98,3.72,-0.06,0.49
36.8580,0.09,0.12,-0.98,3.72,-0.43,0.43
36.8760,0.10,0.13,-0.98,3.78,-0.61,1.10
36.8920,0.09,0.12,-0.98,3.48,-0.55,1.59
36.9080,0.09,0.12,-0.98,4.03,-0.85,1.53
36.9240,0.08,0.12,-0.98,4.27,-0.24,1.40
36.9390,0.09,0.12,-0.99,3.72,-0.31,1.40
36.9410,0.08,0.12,-0.99,3.72,-0.73,1.40
36.9590,0.08,0.12,-0.98,3.85,-0.79,1.46
36.9740,0.08,0.12,-0.99,3.85,-0.61,1.34
36.9900,0.08,0.12,-0.98,3.48,-0.85,1.40
37.0130,0.08,0.12,-0.98,3.48,-1.46,1.22
37.0290,0.08,0.12,-0.99,3.85,-0.98,1.46
37.0460,0.08,0.12,-0.98,3.42,-0.37,1.53
37.0610,0.09,0.13,-0.98,3.42,-0.55,1.46
37.0770,0.08,0.12,-0.99,3.36,-0.61,1.59
37.0940,0.09,0.12,-0.99,3.60,-0.49,1.65
37.0960,0.08,0.12,-0.99,3.60,-0.61,1.65
37.1250,0.08,0.12,-0.99,3.23,-0.55,1.71
37.1300,0.09,0.12,-0.98,3.36,-0.55,1.71
37.1560,0.08,0.13,-0.99,3.30,-0.85,1.89
37.1710,0.08,0.12,-0.99,3.17,-0.49,2.20
37.1860,0.08,0.12,-0.99,3.11,-0.73,1.89
37.1960,0.09,0.12,-0.98,3.30,-0.37,1.65
37.2120,0.09,0.13,-0.99,3.54,-0.49,1.71
37.2290,0.08,0.12,-0.98,3.42,-0.61,1.83
37.2450,0.09,0.12,-0.98,3.36,-0.31,1.89
37.2610,0.09,0.12,-0.99,3.54,-0.37,1.59
37.2700,0.08,0.12,-0.99,3.85,-0.24,1.34
37.2860,0.09,0.13,-0.99,3.91,-0.73,1.40
37.3020,0.08,0.13,-0.99,3.36,-1.10,1.46
37.3230,0.08,0.12,-0.98,3.17,-0.67,1.53
37.3390,0.08,0.12,-0.98,3.42,-0.73,1.71
37.3410,0.08,0.12,-0.99,3.85,-0.85,1.59
37.3570,0.09,0.12,-0.98,3.60,-0.61,1.59
37.3840,0.08,0.13,-0.99,3.30,-0.73,1.65
37.3890,0.08,0.13,-0.98,2.87,-0.79,1.77
37.4150,0.09,0.12,-0.98,3.05,-0.37,1.95
37.4230,0.08,0.12,-0.98,3.48,-0.85,1.83
37.4400,0.08,0.12,-0.99,3.60,-0.67,1.77
37.4570,0.08,0.12,-0.99,3.48,-0.24,1.65
37.4740,0.08,0.13,-0.98,3.36,-0.31,1.71
37.4900,0.08,0.12,-0.98,3.42,-0.67,2.14
37.5050,0.09,0.12,-0.99,3.60,-0.67,1.89
37.5200,0.09,0.12,-0.98,3.42,-0.43,1.89
37.5360,0.08,0.12,-0.99,3.66,-0.67,1.46
37.5520,0.08,0.13,-0.98,3.78,-0.61,1.46
37.5670,0.08,0.13,-0.98,3.48,-0.49,1.53
37.5820,0.09,0.12,-0.98,3.54,-0.55,1.77
37.5890,0.09,0.12,-0.98,3.60,-0.92,1.59
37.6060,0.09,0.12,-0.99,3.66,-0.49,1.34
37.6220,0.08,0.13,-0.99,3.54,-0.73,1.40
37.6380,0.09,0.12,-0.98,3.54,-0.55,1.40
37.6590,0.08,0.12,-0.99,3.66,-0.79,1.34
37.6750,0.09,0.12,-0.98,3.66,-0.18,1.46
37.6800,0.09,0.12,-0.99,3.54,-0.37,1.34
37.6950,0.09,0.12,-0.99,3.66,-0.49,1.46
37.7190,0.09,0.12,-0.99,3.66,-0.67,1.46
37.7360,0.08,0.12,-0.98,3.78,-0.37,1.65
37.7370,0.09,0.12,-0.98,3.48,-0.61,1.59
37.7540,0.09,0.12,-0.98,3.42,-0.37,1.46
37.7690,0.09,0.12,-0.98,3.36,-0.73,1.40
37.8000,0.08,0.12,-0.99,3.60,-0.73,1.40
37.8030,0.08,0.12,-0.98,3.66,-0.18,1.53
37.8190,0.08,0.13,-0.98,3.54,-0.79,1.53
37.8360,0.09,0.12,-0.98,3.42,-0.37,1.28
37.8630,0.09,0.12,-0.99,3.54,-0.79,1.40
37.8720,0.09,0.12,-0.98,3.78,-0.55,1.22
37.8880,0.09,0.13,-0.98,3.85,-0.55,1.34
37.9050,0.08,0.12,-0.99,3.48,-0.79,1.59
37.9210,0.08,0.12,-0.99,3.72,-0.43,1.59
37.9370,0.08,0.12,-0.99,3.72,-0.79,1.40
37.9540,0.08,0.13,-0.99,3.30,-0.49,1.16
37.9550,0.09,0.13,-0.98,3.30,-0.67,1.53
37.9860,0.08,0.13,-0.98,3.42,-0.61,1.65
37.9880,0.09,0.12,-0.99,3.54,-0.98,1.65
38.0180,0.09,0.13,-0.98,3.66,-0.31,1.59
38.0220,0.09,0.13,-0.98,3.60,-0.24,1.59
38.0370,0.08,0.12,-0.98,3.54,-0.37,1.77
38.0530,0.08,0.12,-0.99,3.60,-0.55,1.77
38.0780,0.09,0.12,-0.98,3.72,-0.79,1.83
38.0940,0.09,0.13,-0.99,3.42,-0.61,1.71
38.1110,0.09,0.13,-0.99,3.60,-0.92,1.77
38.1270,0.08,0.12,-0.98,3.36,-0.49,1.83
38.1430,0.08,0.12,-0.99,3.66,-0.98,1.71
38.1570,0.08,0.13,-0.99,3.42,-0.31,1.89
38.1730,0.09,0.12,-0.98,3.54,-0.55,1.59
38.1890,0.09,0.12,-0.98,3.78,-0.37,1.59
38.2050,0.09,0.12,-0.98,3.54,-0.31,1.46
38.2200,0.09,0.12,-0.98,3.42,-0.31,1.65
38.2370,0.09,0.13,-0.98,3.36,-0.67,1.77
38.2530,0.08,0.12,-0.98,3.72,-0.49,1.83
38.2610,0.08,0.12,-0.99,3.48,-0.24,2.01
38.2830,0.09,0.13,-0.98,3.36,-0.37,1.83
38.2930,0.08,0.13,-0.99,3.48,-0.12,1.71
38.3100,0.08,0.12,-0.99,3.78,-0.49,1.59
38.3270,0.09,0.12,-0.98,3.78,-0.67,1.28
38.3430,0.09,0.13,-0.98,3.91,-0.31,1.04
38.3600,0.09,0.13,-0.98,3.36,-0.18,1.34
38.3760,0.08,0.12,-0.98,3.66,-0.92,1.53
38.3910,0.09,0.12,-0.98,3.48,-0.85,1.53
38.4050,0.09,0.13,-0.99,3.54,-0.79,1.77
38.4210,0.08,0.13,-0.99,3.42,-0.12,1.65
38.4270,0.09,0.13,-0.98,3.60,-0.43,1.53
38.4520,0.09,0.12,-0.99,3.42,-0.18,1.89
38.4590,0.08,0.12,-0.99,3.60,-0.43,1.65
38.4800,0.08,0.12,-0.98,3.66,-0.79,1.53
38.4970,0.08,0.12,-0.98,3.30,-0.55,1.65
38.5120,0.08,0.13,-0.98,3.60,-0.67,1.40
38.5290,0.09,0.13,-0.98,3.66,-0.67,1.53
38.5310,0.09,0.12,-0.98,3.42,-0.79,1.71
38.5610,0.09,0.12,-0.99,3.60,-0.67,1.77
38.5760,0.09,0.12,-0.98,4.09,-0.55,1.40
38.5910,0.09,0.13,-0.99,3.78,-0.49,1.53
38.6070,0.09,0.13,-0.98,3.30,-0.73,1.34
38.6140,0.08,0.13,-0.99,3.30,-0.61,1.28
38.6290,0.08,0.12,-0.99,3.23,-0.49,1.34
38.6510,0.09,0.13,-0.98,3.30,-0.43,1.40
38.6520,0.08,0.13,-0.98,3.36,-0.49,1.46
38.6830,0.08,0.12,-0.98,3.30,-0.92,1.59
38.6850,0.08,0.13,-0.99,3.78,-0.92,1.46
38.7140,0.08,0.13,-0.98,3.54,-0.67,1.34
38.7300,0.09,0.12,-0.98,3.42,-0.67,1.10
38.7350,0.08,0.12,-0.98,3.42,0.06,0.98
38.7600,0.08,0.12,-0.98,3.85,-0.12,0.98
38.7750,0.09,0.13,-0.98,3.60,-0.61,0.61
38.7900,0.09,0.13,-0.98,3.66,-0.61,0.61
38.8010,0.09,0.13,-0.98,3.42,-0.37,0.98
38.8170,0.08,0.13,-0.98,3.36,-0.55,1.53
38.8380,0.09,0.12,-0.98,3.48,-0.85,1.59
38.8530,0.09,0.12,-0.98,3.78,-0.49,1.46
38.8690,0.08,0.13,-0.98,3.72,-0.85,1.16
38.8730,0.09,0.13,-0.99,3.85,-0.85,0.92
38.8880,0.10,0.13,-0.98,3.85,-0.85,1.22
38.9120,0.09,0.13,-0.99,3.42,-0.73,1.40
38.9280,0.08,0.12,-0.98,3.72,-0.55,1.65
38.9450,0.08,0.12,-0.99,3.78,-0.79,1.53
38.9610,0.09,0.12,-0.98,3.48,-0.85,1.40
38.9770,0.09,0.13,-0.98,3.36,-0.55,1.10
38.9920,0.09,0.13,-0.98,3.30,-0.85,1.16
39.0070,0.08,0.12,-0.99,3.36,-0.43,1.34
39.0210,0.09,0.12,-0.98,3.66,-0.43,1.34
39.0360,0.09,0.13,-0.98,3.78,-0.55,1.53
39.0520,0.08,0.13,-0.99,3.54,-0.49,1.53
39.0610,0.08,0.13,-0.98,3.42,-0.67,1.46
39.0770,0.08,0.12,-0.98,3.66,-0.61,1.53
39.0950,0.09,0.13,-0.98,3.48,-0.24,1.46
39.1100,0.09,0.13,-0.99,3.48,-0.24,1.28
39.1260,0.09,0.13,-0.98,3.36,-0.61,1.46
39.1430,0.09,0.12,-0.99,3.30,-0.55,1.59
39.1590,0.09,0.12,-0.98,3.72,-0.98,1.34
39.1740,0.08,0.13,-0.99,3.54,-0.37,1.16
39.1780,0.09,0.13,-0.98,3.42,-0.61,1.16
39.1940,0.08,0.13,-0.98,3.54,-0.61,1.22
39.2150,0.08,0.13,-0.98,3.54,0.31,1.53
39.2320,0.09,0.12,-0.99,3.60,-0.18,1.53
39.2500,0.08,0.13,-0.99,3.72,-0.31,1.28
39.2650,0.08,0.13,-0.98,3.66,-0.24,0.98
39.2790,0.09,0.12,-0.98,3.36,0.00,0.98
39.2940,0.10,0.12,-0.98,3.36,-0.06,0.92
39.2990,0.10,0.12,-0.99,3.54,-0.24,0.85
39.3150,0.09,0.12,-0.99,3.48,-0.49,1.16
39.3320,0.10,0.12,-0.98,3.72,-0.49,1.16
39.3490,0.09,0.13,-0.99,3.66,-0.98,1.46
39.3710,0.09,0.12,-0.99,3.48,-0.49,1.40
39.3740,0.09,0.12,-0.98,3.42,-0.43,1.28
39.4010,0.08,0.12,-0.99,3.48,-0.67,1.40
39.4170,0.08,0.13,-0.98,3.60,-0.98,1.16
39.4240,0.09,0.12,-0.98,3.42,-0.67,1.28
39.4390,0.09,0.12,-0.99,3.66,-0.67,1.28
39.4550,0.08,0.12,-0.98,3.72,-0.67,1.10
39.4790,0.09,0.13,-0.99,3.60,-0.37,1.16
39.4940,0.09,0.13,-0.98,3.66,-0.55,0.98
39.5090,0.09,0.13,-0.99,3.17,-0.31,1.04
39.5250,0.08,0.12,-0.98,3.23,-0.06,1.22
39.5280,0.08,0.13,-0.99,3.72,-0.49,0.98
39.5480,0.08,0.12,-0.99,3.60,-0.55,0.98
39.5700,0.09,0.13,-0.98,3.78,-0.43,0.61
39.5850,0.09,0.13,-0.98,3.36,-0.37,1.04
39.6020,0.09,0.12,-0.98,3.36,-0.73,1.22
39.6190,0.09,0.13,-0.99,3.54,-1.10,1.10
39.6340,0.08,0.13,-0.98,3.11,-0.49,1.10
39.6500,0.09,0.12,-0.99,3.42,-0.43,1.10
39.6530,0.08,0.12,-0.98,3.42,-0.79,0.79
39.6690,0.09,0.12,-0.99,3.42,-0.61,0.43
39.6960,0.09,0.12,-0.98,3.48,-0.55,0.43
39.7120,0.09,0.12,-0.99,3.42,-0.37,0.43
39.7280,0.08,0.12,-0.98,3.60,-0.24,0.37
39.7440,0.09,0.13,-0.98,3.48,-0.12,0.18
39.7530,0.08,0.12,-0.98,3.30,-0.31,0.12
39.7750,0.08,0.12,-0.99,3.72,-0.31,0.18
39.7860,0.09,0.12,-0.99,3.72,-0.24,-0.06
39.8010,0.09,0.12,-0.98,3.66,-0.73,0.00
39.8180,0.09,0.12,-0.99,3.85,-0.55,0.06
39.8350,0.09,0.12,-0.99,4.09,-0.79,0.12
39.8470,0.10,0.12,-0.98,3.36,-0.06,0.92
39.8660,0.10,0.13,-0.98,3.72,-0.12,1.28
39.8810,0.08,0.12,-0.99,2.81,-0.06,1.40
39.8970,0.09,0.09,-0.98,2.69,-0.37,1.28
39.9020,0.09,0.12,-0.98,3.05,-0.31,1.46
39.9180,0.09,0.12,-0.99,2.93,-0.49,1.22
39.9400,0.09,0.10,-0.98,3.36,-0.43,1.46
39.9560,0.05,0.17,-0.97,7.81,-0.73,2.20
39.9720,0.09,0.15,-0.99,3.05,-0.67,1.46
39.9890,0.08,0.13,-0.99,2.81,-0.55,1.34
40.0060,0.08,0.12,-0.98,3.42,-0.06,1.40
40.0220,0.09,0.12,-0.98,3.36,-0.18,1.40
40.0370,0.09,0.13,-0.98,3.54,-0.61,1.40
40.0530,0.09,0.13,-0.99,3.42,-0.18,1.40
40.0550,0.09,0.13,-0.98,3.42,-0.12,1.46
40.0710,0.09,0.13,-0.98,3.42,-0.24,1.34
40.0940,0.08,0.12,-0.98,3.48,-0.43,1.34
40.1100,0.09,0.13,-0.98,3.48,-0.85,1.34
40.1280,0.09,0.13,-0.99,3.54,-0.55,1.40
40.1430,0.09,0.13,-0.98,3.42,-0.24,1.22
40.1610,0.09,0.13,-0.99,3.54,-0.31,1.28
40.1780,0.09,0.12,-0.98,3.78,-0.55,1.46
40.1930,0.09,0.13,-0.99,3.54,-0.24,1.46
40.1940,0.09,0.12,-0.98,3.48,-0.73,1.34
40.2260,0.09,0.12,-0.99,3.66,-0.98,1.40
40.2420,0.09,0.13,-0.98,3.54,-0.79,1.28
40.2580,0.09,0.13,-0.98,3.66,-1.28,1.34
40.2600,0.09,0.12,-0.98,3.60,-0.67,1.40
40.2770,0.09,0.13,-0.99,3.60,-0.61,1.40
40.2930,0.09,0.13,-0.99,3.91,-0.67,1.28
40.3160,0.09,0.12,-0.98,3.60,-0.37,1.46
40.3320,0.09,0.12,-0.98,3.91,-0.55,1.53
40.3480,0.09,0.12,-0.99,4.03,-0.92,1.77
40.3650,0.09,0.12,-0.99,4.03,-0.49,1.95
40.3810,0.09,0.13,-0.98,4.03,-0.67,2.32
40.3970,0.09,0.13,-0.99,3.60,-0.67,1.77
40.4120,0.09,0.13,-0.98,3.17,-0.49,1.28
40.4280,0.09,0.13,-0.98,3.05,-0.24,1.34
40.4430,0.09,0.13,-0.98,3.11,-0.12,1.40
40.4590,0.09,0.13,-0.98,3.30,-0.37,1.46
40.4750,0.09,0.12,-0.99,3.48,-0.24,1.46
40.4890,0.09,0.13,-0.98,3.66,-0.43,1.40
40.4980,0.09,0.13,-0.99,3.42,-0.18,1.40
40.5150,0.09,0.13,-0.99,3.48,-0.37,1.40
40.5320,0.09,0.13,-0.98,3.36,-0.67,1.34
40.5480,0.09,0.12,-0.98,3.60,-0.49,1.40
40.5640,0.09,0.12,-0.98,3.66,-0.43,1.34
40.5810,0.08,0.13,-0.99,3.54,-0.37,1.40
40.5970,0.07,0.12,-0.99,3.30,-0.92,1.40
40.6130,0.07,0.12,-0.99,3.17,-0.61,1.22
40.6280,0.08,0.12,-0.99,3.48,0.00,0.98
40.6430,0.08,0.12,-0.99,3.72,-1.10,0.55
40.6570,0.09,0.12,-0.99,3.85,-0.85,1.04
40.6730,0.09,0.13,-0.98,3.66,-0.43,0.98
40.6800,0.09,0.13,-0.98,3.36,-0.49,0.92
40.6960,0.09,0.13,-0.98,3.30,-0.92,1.40
40.7180,0.08,0.12,-0.98,3.42,-0.37,1.22
40.7360,0.08,0.12,-0.99,3.48,-0.18,1.16
40.7520,0.08,0.12,-0.98,3.72,-0.61,0.98
40.7530,0.08,0.13,-0.98,3.72,-0.24,0.85
40.7830,0.08,0.13,-0.99,3.36,-0.43,0.85
40.7980,0.10,0.13,-0.98,3.17,-0.37,0.73
40.8020,0.10,0.13,-0.98,3.42,-0.67,0.98
40.8170,0.09,0.12,-0.98,3.36,-0.43,1.04
40.8450,0.08,0.13,-0.99,3.54,-0.73,0.92
40.8600,0.08,0.13,-0.99,3.54,-0.73,1.04
40.8750,0.08,0.13,-0.99,3.17,-0.24,0.92
40.8920,0.09,0.12,-0.98,3.42,-0.61,0.98
40.9080,0.08,0.13,-0.98,3.48,-0.24,0.98
40.9090,0.08,0.12,-0.99,3.66,-0.61,0.92
40.9400,0.09,0.13,-0.98,3.60,-0.24,0.92
40.9550,0.09,0.12,-0.98,3.60,-0.37,0.92
40.9600,0.09,0.12,-0.99,3.36,-0.79,1.04
40.9760,0.08,0.13,-0.99,3.66,-0.31,1.10
40.9980,0.08,0.13,-0.98,3.78,0.00,1.10
41.0130,0.09,0.12,-0.98,3.66,0.00,1.10
41.0310,0.08,0.13,-0.99,3.78,-0.43,0.92
41.0470,0.08,0.12,-0.99,3.54,-0.24,0.85
41.0620,0.09,0.12,-0.99,3.85,-0.55,0.61
41.0640,0.09,0.12,-0.99,3.85,-0.85,0.55
41.0920,0.09,0.12,-0.98,3.91,-0.37,0.92
41.1080,0.08,0.13,-0.99,3.66,-0.55,0.92
41.1240,0.08,0.12,-0.98,3.42,-0.61,0.85
41.1400,0.09,0.12,-0.99,3.72,-0.37,0.73
41.1560,0.09,0.13,-0.98,3.72,-0.37,0.67
41.1700,0.09,0.13,-0.98,3.85,-0.49,0.85
41.1800,0.09,0.12,-0.98,3.78,-0.79,0.67
41.1970,0.08,0.13,-0.99,3.60,-0.61,0.92
41.2120,0.09,0.12,-0.98,3.60,-0.24,0.49
41.2330,0.09,0.12,-0.98,3.42,-0.49,0.61
41.2490,0.09,0.12,-0.98,3.72,-0.49,0.92
41.2530,0.09,0.12,-0.99,3.78,-0.73,0.98
41.2800,0.09,0.13,-0.98,3.48,-0.31,1.22
41.2860,0.08,0.13,-0.99,3.66,-0.85,1.10
41.3040,0.08,0.13,-0.98,3.60,-0.43,1.04
41.3200,0.09,0.13,-0.99,3.72,-0.92,0.85
41.3430,0.09,0.13,-0.99,3.54,-0.61,0.79
41.3580,0.09,0.13,-0.98,3.36,-0.61,0.92
41.3740,0.08,0.13,-0.98,3.48,-0.67,0.92
41.3890,0.09,0.12,-0.99,3.60,-0.61,0.79
41.3950,0.09,0.13,-0.99,3.60,-0.43,0.79
41.4110,0.08,0.13,-0.98,3.36,-0.18,0.92
41.4350,0.09,0.13,-0.98,3.48,-0.55,0.73
41.4500,0.08,0.13,-0.99,3.42,-0.37,0.92
41.4610,0.08,0.12,-0.98,3.66,-0.43,0.85
41.4770,0.09,0.12,-0.98,3.72,-0.73,0.98
41.4930,0.08,0.12,-0.98,3.97,-0.55,0.85
41.5100,0.09,0.13,-0.99,3.91,-0.49,0.85
41.5260,0.09,0.12,-0.98,3.66,-0.55,0.61
41.5420,0.09,0.12,-0.98,3.48,0.00,1.04
41.5580,0.09,0.12,-0.98,3.42,-0.06,1.22
41.5740,0.08,0.13,-0.99,3.60,-0.55,1.16
41.5900,0.08,0.13,-0.98,3.85,-0.92,0.92
41.6050,0.08,0.13,-0.99,3.66,-0.37,0.85
41.6200,0.09,0.13,-0.98,3.72,-0.61,0.61
41.6350,0.08,0.13,-0.99,3.42,-0.55,0.98
41.6500,0.09,0.12,-0.98,3.48,-0.85,1.04
41.6650,0.09,0.12,-0.99,3.78,-0.18,1.04
41.6760,0.09,0.12,-0.99,3.78,-15.38,1.16
41.6930,0.09,0.13,-0.99,3.85,-0.37,1.16
41.7090,0.09,0.12,-0.99,3.78,-0.61,1.22
41.7260,0.08,0.13,-0.98,3.78,-0.55,1.22
41.7420,0.09,0.13,-0.99,3.66,-0.37,1.28
41.7580,0.09,0.12,-0.98,3.48,-0.18,1.16
41.7740,0.08,0.12,-0.99,3.66,-0.24,1.16
41.7760,0.09,0.12,-0.99,3.72,-0.31,1.16
41.7920,0.09,0.13,-0.98,3.66,-0.43,1.28
41.8150,0.09,0.13,-0.99,3.54,-0.43,1.34
41.8310,0.09,0.13,-0.98,3.23,-0.12,1.46
41.8470,0.09,0.12,-0.99,3.42,-0.49,1.40
41.8640,0.09,0.12,-0.98,3.42,-0.92,1.46
41.8810,0.09,0.12,-0.98,3.48,-0.49,1.59
41.8820,0.09,0.13,-0.98,3.42,-0.49,1.59
41.9120,0.08,0.13,-0.99,3.42,-0.61,1.40
41.9260,0.09,0.13,-0.98,3.66,-0.37,1.34
41.9420,0.08,0.13,-0.99,3.54,-0.31,1.28
41.9480,0.08,0.13,-0.98,3.42,-0.31,1.22
41.9730,0.08,0.13,-0.99,3.36,-0.55,1.04
41.9810,0.09,0.13,-0.98,3.48,-0.49,0.98
41.9970,0.08,0.13,-0.98,3.66,-0.18,0.85
42.0140,0.09,0.12,-0.99,3.54,-0.31,0.55
42.0310,0.09,0.12,-0.98,3.60,-0.43,0.85
42.0470,0.09,0.13,-0.98,3.42,-0.37,1.04
42.0620,0.09,0.12,-0.98,3.54,-0.49,1.10
42.0780,0.08,0.13,-0.98,3.72,-0.61,1.04
42.0940,0.08,0.13,-0.99,3.78,-0.43,0.92
42.1100,0.09,0.12,-0.98,3.48,-0.18,0.85
42.1130,0.09,0.12,-0.98,3.54,-0.31,0.73
42.1400,0.09,0.12,-0.98,3.54,-0.55,0.55
42.1520,0.09,0.13,-0.99,3.54,-0.61,0.61
42.1700,0.09,0.12,-0.98,3.42,-0.43,0.79
42.1850,0.08,0.13,-0.99,3.66,-0.37,0.98
42.2020,0.08,0.12,-0.98,3.72,-0.79,0.61
42.2180,0.09,0.12,-0.98,3.60,-0.67,0.67
42.2340,0.09,0.12,-0.98,3.72,-0.67,0.73
42.2510,0.09,0.13,-0.99,3.60,-0.55,0.98
42.2660,0.09,0.13,-0.99,3.54,-0.37,0.79
42.2820,0.09,0.12,-0.98,3.36,-0.31,0.85
42.2850,0.08,0.13,-0.99,3.42,-0.12,0.85
42.3000,0.08,0.13,-0.98,3.42,-0.37,0.61
42.3290,0.09,0.12,-0.98,3.66,-0.73,0.55
42.3390,0.09,0.13,-0.98,3.78,-0.61,0.55
42.3500,0.09,0.12,-0.99,3.85,-0.37,0.61
42.3680,0.09,0.13,-0.98,3.85,-0.73,0.73
42.3850,0.09,0.13,-0.99,3.72,-0.61,0.79
42.4010,0.08,0.13,-0.99,3.60,-0.31,0.67
42.4170,0.09,0.13,-0.98,3.85,-0.43,0.73
42.4350,0.08,0.13,-0.98,3.54,-0.06,1.04
42.4510,0.08,0.13,-0.99,3.78,-0.67,1.10
42.4680,0.08,0.12,-0.98,3.85,-0.43,1.10
42.4840,0.08,0.13,-0.99,3.91,-0.67,1.04
42.4990,0.08,0.13,-0.98,3.66,-0.37,0.67
42.5000,0.09,0.13,-0.98,3.66,-0.31,0.24
42.5170,0.09,0.13,-0.98,3.36,-0.12,0.24
42.5460,0.09,0.13,-0.98,3.66,-0.37,0.67
42.5500,0.08,0.13,-0.98,3.78,-1.04,0.73
42.5660,0.08,0.13,-0.98,3.54,-0.49,0.67
42.5920,0.08,0.13,-0.99,3.66,0.00,0.55
42.6080,0.08,0.12,-0.98,3.91,-0.37,0.43
42.6250,0.08,0.12,-0.98,3.78,-0.49,0.49
42.6410,0.08,0.12,-0.99,3.85,-0.24,0.92
42.6560,0.08,0.12,-0.98,3.97,0.06,1.40
42.6710,0.10,0.13,-0.98,3.72,-0.61,1.40
42.6740,0.10,0.13,-0.98,3.30,-0.12,1.53
42.6900,0.09,0.13,-0.98,3.42,-0.49,1.28
42.7130,0.08,0.13,-0.98,3.66,-0.24,1.34
42.7300,0.08,0.13,-0.98,3.72,-0.43,1.34
42.7460,0.09,0.13,-0.98,3.85,-1.10,0.98
42.7620,0.08,0.13,-0.98,3.54,-0.43,1.28
42.7780,0.08,0.12,-0.99,3.48,-0.31,1.34
42.7800,0.08,0.12,-0.98,3.48,0.06,1.34
42.7960,0.08,0.13,-0.98,3.66,-0.18,1.22
42.8130,0.08,0.13,-0.99,3.72,-0.31,1.16
42.8410,0.10,0.13,-0.98,3.30,-0.18,1.04
42.8460,0.09,0.13,-0.98,3.23,-0.49,1.16
42.8730,0.08,0.13,-0.99,3.72,-0.73,1.10
42.8790,0.09,0.13,-0.98,3.72,-0.55,1.16
42.8950,0.09,0.13,-0.98,3.42,-0.43,1.10
42.9120,0.09,0.13,-0.99,3.60,-0.43,1.22
42.9290,0.09,0.13,-0.98,3.42,-0.24,1.28
42.9450,0.09,0.13,-0.99,3.42,-0.73,1.40
42.9650,0.09,0.13,-0.98,3.60,-0.31,1.28
42.9660,0.09,0.13,-0.98,3.60,-0.61,1.28
42.9970,0.09,0.13,-0.98,3.36,-0.98,1.34
43.0120,0.09,0.13,-0.98,3.42,-0.24,1.53
43.0290,0.08,0.13,-0.98,3.36,-0.49,1.28
43.0440,0.09,0.12,-0.98,3.66,-0.49,1.28
43.0600,0.09,0.13,-0.98,3.48,-0.43,1.46
43.0660,0.09,0.13,-0.98,3.66,-0.92,1.28
43.0820,0.09,0.13,-0.98,3.72,-0.85,1.46
43.1050,0.09,0.13,-0.98,3.85,-0.79,1.34
43.1200,0.09,0.13,-0.98,4.03,-0.98,1.53
43.1230,0.09,0.13,-0.98,3.85,-0.85,1.40
43.1390,0.09,0.13,-0.99,3.78,-0.61,1.53
43.1650,0.09,0.13,-0.99,4.27,-0.85,1.34
43.1800,0.09,0.13,-0.99,4.94,-0.73,1.46
43.1960,0.09,0.13,-0.98,5.25,-0.85,1.40
43.1970,0.09,0.13,-0.98,5.25,-1.40,1.34
43.2290,0.09,0.13,-0.99,4.88,-0.92,1.40
43.2450,0.09,0.13,-0.98,4.39,-0.67,1.34
43.2610,0.09,0.13,-0.98,3.85,-0.61,1.28
43.2630,0.09,0.13,-0.98,3.54,-0.49,1.34
43.2790,0.09,0.13,-0.98,3.05,-0.31,1.34
43.3020,0.09,0.13,-0.98,2.87,-0.18,1.34
43.3180,0.09,0.13,-0.99,2.93,0.24,1.22
43.3360,0.07,0.12,-0.96,2.62,0.24,1.34
43.3510,0.08,0.13,-0.98,2.32,0.12,1.22
43.3670,0.09,0.13,-0.98,2.32,0.12,1.40
43.3840,0.09,0.13,-0.98,3.05,-0.18,1.28
43.3990,0.09,0.13,-0.98,3.17,0.00,1.28
43.4150,0.09,0.13,-0.98,3.54,-0.31,1.59
43.4300,0.09,0.13,-0.99,3.66,-0.24,1.28
43.4460,0.09,0.13,-0.99,3.36,0.00,1.34
43.4610,0.09,0.13,-0.98,2.81,0.06,1.34
43.4680,0.09,0.13,-0.98,3.30,-0.24,1.34
43.4840,0.09,0.13,-0.98,3.48,-0.43,1.34
43.5000,0.09,0.13,-0.99,3.36,-0.24,1.34
43.5220,0.09,0.13,-0.99,3.30,-0.12,1.28
43.5380,0.09,0.13,-0.98,2.99,0.31,1.40
43.5540,0.09,0.12,-0.98,2.93,-0.31,1.40
43.5700,0.09,0.13,-0.99,3.17,-0.06,1.46
43.5870,0.09,0.13,-0.98,3.23,-0.12,1.53
43.6020,0.09,0.09,-0.98,3.97,-0.06,1.59
43.6170,0.09,0.10,-0.98,3.66,-0.37,1.53
43.6330,0.09,0.12,-0.98,2.99,-0.49,1.46
43.6480,0.09,0.13,-0.99,2.93,-0.61,1.40
43.6630,0.09,0.11,-0.97,1.59,-0.18,1.28
43.6780,0.09,0.12,-0.98,3.54,-0.43,1.53
43.6890,0.09,0.12,-0.98,3.36,-0.24,1.40
43.7050,0.09,0.12,-0.98,3.36,-0.61,1.53
43.7220,0.09,0.13,-0.98,3.48,-0.61,1.34
43.7380,0.09,0.13,-0.98,3.54,-0.49,1.34
43.7540,0.09,0.13,-0.98,3.42,-0.43,1.34
43.7700,0.09,0.13,-0.98,3.54,-0.06,1.40
43.7850,0.09,0.13,-0.99,3.42,-0.18,1.34
43.7890,0.09,0.13,-0.98,3.54,-0.67,1.34
43.8040,0.09,0.13,-0.99,3.48,-0.61,1.40
43.8280,0.09,0.13,-0.98,3.48,-0.18,1.46
43.8440,0.09,0.13,-0.99,3.60,-0.61,1.40
43.8610,0.09,0.13,-0.99,3.30,-0.06,1.34
43.8780,0.09,0.13,-0.99,3.60,-0.49,1.40
43.8950,0.09,0.13,-0.98,3.36,-0.12,1.40
43.9100,0.09,0.13,-0.99,3.48,-0.12,1.65
43.9110,0.09,0.13,-0.98,3.78,-0.79,1.28
43.9420,0.09,0.13,-0.98,3.42,-0.61,1.34
43.9580,0.09,0.13,-0.98,3.48,-0.61,1.40
43.9630,0.09,0.13,-0.98,3.48,-0.43,1.28
43.9780,0.09,0.13,-0.98,3.54,-0.73,1.28
44.0010,0.09,0.13,-0.98,3.48,-0.12,1.53
44.0170,0.09,0.13,-0.98,3.54,-0.37,1.40
44.0340,0.09,0.13,-0.99,3.36,0.24,1.40
44.0500,0.09,0.12,-0.98,3.42,-0.18,1.28
44.0670,0.09,0.13,-0.98,3.60,-0.55,1.40
44.0840,0.09,0.13,-0.98,3.60,-0.18,1.34
44.0850,0.09,0.13,-0.98,3.30,-0.37,1.28
44.1150,0.09,0.13,-0.99,3.54,-0.49,1.46
44.1300,0.09,0.13,-0.98,3.60,-0.37,1.53
44.1460,0.09,0.13,-0.98,3.60,-0.61,1.34
44.1610,0.09,0.13,-0.98,3.60,-0.37,1.46
44.1760,0.09,0.13,-0.98,3.54,-0.85,1.34
44.1920,0.09,0.13,-0.98,3.48,-0.79,1.22
44.2080,0.09,0.13,-0.98,3.48,-0.49,1.53
44.2230,0.09,0.13,-0.98,3.36,-0.18,1.40
44.2330,0.09,0.13,-0.98,3.23,0.24,1.53
44.2500,0.09,0.13,-0.99,3.48,-0.31,1.40
44.2660,0.09,0.13,-0.98,3.54,-0.18,1.46
44.2820,0.09,0.13,-0.99,3.48,-0.43,1.34
44.3000,0.09,0.13,-0.98,3.54,-0.67,1.40
44.3160,0.09,0.13,-0.98,3.48,-0.18,1.34
44.3330,0.09,0.13,-0.99,2.99,-0.61,1.34
44.3480,0.06,0.13,-0.99,2.75,-0.37,0.98
44.3630,0.08,0.13,-0.99,3.11,0.00,-1.46
44.3780,0.08,0.12,-0.99,3.60,0.18,-2.75
44.3940,0.08,0.13,-0.99,3.78,0.49,-3.05
44.3990,0.08,0.12,-0.99,3.60,0.12,-3.23
44.4150,0.09,0.12,-0.99,3.72,0.31,-2.99
44.4390,0.09,0.12,-0.98,3.72,0.37,-2.87
44.4570,0.10,0.12,-0.99,3.97,0.55,-2.93
44.4730,0.10,0.13,-0.98,3.97,0.12,-1.95
44.4880,0.10,0.13,-0.98,3.60,0.12,-0.31
44.5040,0.09,0.12,-0.98,3.42,-0.55,1.34
44.5210,0.09,0.12,-0.98,3.78,-0.18,1.28
44.5370,0.09,0.13,-0.98,3.23,-0.43,1.46
44.5530,0.09,0.12,-0.98,3.54,-0.43,1.40
44.5670,0.09,0.12,-0.98,3.91,-0.31,1.34
44.5720,0.09,0.12,-0.99,3.60,-0.06,1.28
44.5880,0.09,0.13,-0.99,3.54,-0.24,0.37
44.6120,0.09,0.12,-0.98,3.23,-0.24,0.85
44.6130,0.09,0.12,-0.99,3.36,-0.12,1.04
44.6430,0.09,0.12,-0.98,3.60,0.00,0.85
44.6590,0.09,0.12,-0.99,3.72,0.37,0.37
44.6620,0.08,0.13,-0.99,3.78,-0.06,0.18
44.6900,0.09,0.13,-0.98,3.30,-0.24,0.73
44.7050,0.09,0.12,-0.98,3.30,0.12,0.24
44.7200,0.09,0.12,-0.98,3.54,0.37,-0.49
44.7320,0.09,0.12,-0.98,3.66,-0.06,-0.31
44.7470,0.08,0.13,-0.99,3.60,0.06,-0.18
44.7640,0.08,0.13,-0.98,3.54,-0.24,0.37
44.7810,0.08,0.13,-0.98,3.60,-0.06,1.10
44.7960,0.08,0.13,-0.99,3.60,-0.43,1.46
44.8120,0.09,0.12,-0.99,3.54,-0.37,1.40
44.8270,0.09,0.12,-0.98,3.60,0.00,1.40
44.8420,0.08,0.12,-0.98,3.66,-0.06,1.40
44.8470,0.09,0.12,-0.99,3.60,-0.06,1.53
44.8630,0.09,0.13,-0.98,3.66,-0.37,1.40
44.8880,0.09,0.13,-0.99,3.66,0.12,1.53
44.9030,0.09,0.12,-0.99,3.42,0.18,1.46
44.9200,0.09,0.13,-0.99,3.78,-0.18,1.40
44.9360,0.09,0.13,-0.98,3.42,0.00,1.28
44.9380,0.09,0.12,-0.99,3.54,-0.43,1.28
44.9680,0.09,0.12,-0.98,3.36,0.12,1.46
44.9840,0.09,0.13,-0.98,3.78,-0.06,1.28
45.0000,0.09,0.13,-0.99,3.48,0.06,1.28
45.0030,0.09,0.12,-0.98,3.54,-0.49,1.04
45.0190,0.09,0.12,-0.98,3.60,-0.37,0.92
45.0350,0.08,0.13,-0.99,3.60,-0.37,1.04
45.0600,0.09,0.12,-0.98,3.54,-0.24,1.34
45.0760,0.09,0.12,-0.98,3.54,-0.67,1.34
45.0920,0.09,0.13,-0.99,3.72,0.00,1.59
45.1070,0.09,0.13,-0.98,3.78,-0.49,1.34
45.1110,0.09,0.13,-0.98,3.85,0.00,1.59
45.1310,0.09,0.13,-0.99,3.85,-0.12,1.46
45.1510,0.09,0.13,-0.98,3.97,-0.37,1.59
45.1680,0.09,0.13,-0.98,3.60,-0.49,1.28
45.1840,0.09,0.13,-0.99,3.60,-0.31,1.40
45.1860,0.09,0.13,-0.98,3.48,-0.43,1.34
45.2010,0.09,0.13,-0.98,3.36,-0.18,1.34
45.2320,0.09,0.13,-0.98,3.48,-0.37,1.34
45.2340,0.09,0.13,-0.98,3.48,-0.37,1.46
45.2520,0.09,0.13,-0.99,3.78,-0.43,1.34
45.2680,0.09,0.13,-0.98,3.48,-0.18,1.34
45.2920,0.09,0.13,-0.98,3.72,-0.31,1.34
45.3090,0.09,0.13,-0.98,3.78,-0.43,1.40
45.3240,0.09,0.13,-0.99,3.60,0.18,1.28
45.3400,0.09,0.13,-0.98,3.72,-0.37,1.40
45.3420,0.09,0.13,-0.99,3.60,-0.24,1.46
45.3720,0.09,0.13,-0.98,3.60,-0.06,1.53
45.3860,0.09,0.13,-0.99,3.60,0.00,1.40
45.4010,0.09,0.13,-0.98,3.66,-0.37,1.40
45.4160,0.09,0.13,-0.98,3.66,-0.37,1.40
45.4300,0.09,0.13,-0.98,3.72,-0.37,1.46
45.4450,0.09,0.13,-0.99,3.66,-0.55,1.34
45.4610,0.09,0.13,-0.98,3.54,-0.18,1.34
45.4780,0.09,0.13,-0.98,3.66,-0.49,1.40
45.4940,0.09,0.13,-0.99,3.42,0.00,1.46
45.5100,0.09,0.13,-0.99,3.60,0.06,1.46
45.5260,0.09,0.13,-0.99,3.48,-0.49,1.40
45.5420,0.09,0.13,-0.98,3.30,0.24,1.40
45.5570,0.09,0.13,-0.98,3.30,-0.24,1.28
45.5620,0.09,0.13,-0.98,3.36,-0.18,1.34
45.5780,0.09,0.13,-0.98,3.60,-0.12,1.40
45.5940,0.09,0.13,-0.98,3.54,-0.24,1.40
45.6150,0.09,0.13,-0.98,3.66,-0.06,1.53
45.6310,0.09,0.13,-0.98,3.60,-0.37,1.28
45.6480,0.09,0.13,-0.98,3.48,-0.18,1.53
45.6640,0.09,0.13,-0.98,3.42,-0.06,1.46
45.6800,0.09,0.13,-0.98,3.54,-0.12,1.46
45.6970,0.09,0.13,-0.98,3.78,-0.31,1.40
45.7140,0.09,0.13,-0.98,3.48,-0.43,1.46
45.7300,0.09,0.13,-0.99,3.36,-0.24,1.34
45.7450,0.09,0.13,-0.98,3.72,-0.43,1.22
45.7600,0.09,0.13,-0.98,3.42,-0.43,1.28
45.7640,0.09,0.13,-0.98,3.48,-0.31,1.28
45.7790,0.09,0.13,-0.99,3.60,-0.31,1.40
45.8050,0.09,0.13,-0.98,3.54,-0.43,1.46
45.8200,0.09,0.13,-0.98,3.42,-0.43,1.53
45.8360,0.09,0.13,-0.98,3.36,-0.18,1.40
45.8520,0.09,0.13,-0.99,3.54,-0.37,1.34
45.8540,0.09,0.13,-0.98,3.66,-0.24,1.46
45.8850,0.09,0.13,-0.99,3.60,-0.61,1.40
45.9010,0.09,0.13,-0.99,3.48,-0.49,1.34
45.9170,0.09,0.13,-0.98,3.54,-0.24,1.53
45.9330,0.09,0.13,-0.98,3.42,-0.18,1.46
45.9490,0.09,0.13,-0.98,3.42,-0.61,1.40
45.9540,0.09,0.13,-0.99,3.17,0.00,1.46
45.9700,0.09,0.11,-0.97,1.04,-0.24,1.22
45.9910,0.09,0.13,-0.99,3.54,-0.24,1.34
46.0070,0.09,0.12,-0.99,3.30,0.06,1.34
46.0250,0.08,0.15,-0.99,4.46,-0.06,1.59
46.0400,0.09,0.14,-0.99,3.23,-0.37,1.40
46.0560,0.09,0.13,-0.98,2.99,-0.12,1.40
46.0710,0.09,0.12,-0.97,2.69,-0.06,1.22
46.0740,0.09,0.12,-0.99,3.42,-0.43,1.53
46.0900,0.09,0.13,-0.99,3.66,-0.73,1.28
46.1120,0.09,0.12,-0.98,3.36,-0.31,1.40
46.1290,0.09,0.13,-0.99,3.23,-0.43,1.34
46.1450,0.09,0.13,-0.98,3.30,-0.12,1.46
46.1630,0.09,0.13,-0.98,3.60,-0.18,1.40
46.1790,0.09,0.13,-0.98,3.11,0.00,1.53
46.1950,0.09,0.13,-0.99,3.48,-0.24,1.34
46.2110,0.09,0.13,-0.99,3.48,15.44,1.40
46.2270,0.09,0.13,-0.98,3.42,-0.24,1.46
46.2440,0.09,0.13,-0.98,3.48,-0.37,1.40
46.2600,0.09,0.13,-0.98,3.48,-0.55,1.40
46.2760,0.09,0.13,-0.98,3.36,0.00,1.53
46.2900,0.08,0.13,-0.98,3.54,-0.37,1.40
46.3060,0.09,0.13,-0.98,3.48,-0.31,1.34
46.3210,0.09,0.12,-0.98,3.60,-0.49,1.34
46.3360,0.09,0.13,-0.99,3.66,-0.92,1.34
46.3510,0.09,0.12,-0.98,3.42,-0.55,1.40
46.3610,0.09,0.13,-0.99,3.42,-0.06,1.28
46.3780,0.09,0.12,-0.98,3.54,-0.31,1.53
46.3940,0.09,0.13,-0.98,3.54,-0.06,1.46
46.4150,0.09,0.13,-0.98,3.66,-0.73,1.40
46.4260,0.09,0.13,-0.98,3.36,-0.31,1.28
46.4460,0.09,0.13,-0.98,3.36,0.06,1.40
46.4500,0.09,0.13,-0.99,3.42,0.00,1.40
46.4660,0.09,0.13,-0.99,3.72,-0.85,1.53
46.4890,0.09,0.13,-0.98,3.60,-0.61,1.28
46.5070,0.09,0.13,-0.99,3.48,-0.37,1.46
46.5220,0.09,0.13,-0.99,3.36,-0.24,1.34
46.5390,0.09,0.13,-0.99,3.54,-0.31,1.40
46.5550,0.09,0.13,-0.98,3.48,-0.61,1.34
46.5710,0.09,0.13,-0.98,3.66,-0.67,1.34
46.5870,0.09,0.13,-0.99,3.48,-0.49,1.53
46.6020,0.09,0.13,-0.98,3.36,-0.43,1.46
46.6050,0.09,0.13,-0.98,3.48,-0.37,1.40
46.6260,0.09,0.13,-0.99,3.54,-0.67,1.46
46.6460,0.09,0.13,-0.99,3.36,-0.43,1.34
46.6470,0.09,0.13,-0.98,3.48,-0.18,1.34
