Timestamp, AccX, AccY, AccZ, GyroX, GyroY, GyroZ
0.0130,0.07,0.12,-0.98,2.44,3.60,2.08
0.0280,0.07,0.12,-0.99,3.66,3.17,2.01
0.0430,0.07,0.12,-0.99,3.54,3.17,1.65
0.0580,0.07,0.11,-0.99,3.30,2.99,1.59
0.0660,0.08,0.12,-0.99,3.23,3.42,1.40
0.0880,0.08,0.12,-0.99,2.87,3.48,1.53
0.0990,0.08,0.12,-0.99,2.14,3.97,1.40
0.1160,0.08,0.12,-0.99,1.71,4.21,1.77
0.1320,0.07,0.12,-0.99,1.04,4.21,1.83
0.1480,0.07,0.11,-0.99,0.85,3.91,2.32
0.1630,0.07,0.11,-0.98,0.18,4.15,2.69
0.1780,0.07,0.12,-0.98,1.53,3.42,2.87
0.1930,0.07,0.11,-0.99,1.22,3.23,3.11
0.2070,0.08,0.12,-0.99,2.14,3.36,2.56
0.2230,0.07,0.12,-0.99,1.22,3.72,2.44
0.2390,0.09,0.12,-0.99,3.30,3.05,2.44
0.2490,0.10,0.12,-0.99,3.23,3.42,2.32
0.2660,0.06,0.11,-0.97,1.83,3.78,2.32
0.2820,0.08,0.12,-0.99,2.99,3.91,2.87
0.2980,0.10,0.14,-0.99,2.56,3.97,1.77
0.3130,0.11,0.17,-0.99,1.71,3.78,3.97
0.3270,0.11,0.18,-0.98,0.31,3.23,7.32
0.3330,0.09,0.14,-1.00,-2.08,1.77,16.05
0.3580,0.09,0.13,-0.97,-3.36,2.32,15.44
0.3730,0.07,0.10,-0.99,-0.55,2.08,13.61
0.3840,0.07,0.08,-0.99,-1.10,1.95,12.39
0.3990,0.06,0.06,-0.99,-0.67,2.32,9.95
0.4160,0.07,0.08,-0.98,2.62,2.75,4.76
0.4320,0.11,0.11,-0.97,8.18,2.26,0.49
0.4490,0.08,0.15,-1.00,11.05,2.32,-1.83
0.4640,0.07,0.19,-1.01,2.20,3.05,-0.49
0.4810,0.07,0.11,-0.98,-0.92,3.42,2.69
0.4830,0.05,0.07,-1.02,2.69,2.50,6.23
0.5110,0.07,0.08,-0.99,-1.22,2.81,8.06
0.5280,0.04,0.07,-0.99,1.16,2.69,8.06
0.5440,0.08,0.11,-1.00,3.05,3.05,3.78
0.5590,0.07,0.10,-0.99,-0.92,3.78,1.59
0.5750,0.11,0.11,-0.99,-0.61,3.66,1.10
0.5900,0.10,0.11,-0.98,-0.49,3.72,0.49
0.6000,0.09,0.14,-0.99,1.34,3.23,0.61
0.6160,0.09,0.14,-1.00,-4.46,4.52,1.28
0.6320,0.08,0.10,-0.97,-8.06,5.00,3.54
0.6490,0.07,0.10,-0.99,-2.69,3.78,5.55
0.6640,0.10,0.10,-0.98,13.92,2.26,4.52
0.6800,0.05,0.07,-0.98,3.11,2.62,2.81
0.6940,0.02,0.09,-1.00,5.68,2.26,1.95
0.7090,0.06,0.10,-0.99,4.64,2.81,1.28
0.7250,0.05,0.11,-0.99,5.25,2.62,1.04
0.7400,0.06,0.11,-0.99,4.70,2.81,0.85
0.7490,0.06,0.16,-1.03,2.87,3.42,0.98
0.7660,0.08,0.14,-1.02,-13.73,7.39,0.61
0.7830,0.07,0.06,-0.93,-17.46,8.00,-0.61
0.7990,0.05,0.04,-0.97,3.66,3.42,-1.71
0.8160,0.07,0.07,-0.99,9.70,2.14,0.00
0.8310,0.07,0.09,-0.99,10.68,1.89,1.59
0.8470,0.08,0.10,-1.00,9.34,2.32,2.08
0.8490,0.08,0.11,-0.99,7.02,2.62,2.14
0.8770,0.08,0.11,-0.99,5.80,2.87,1.95
0.8930,0.08,0.10,-0.99,5.07,2.75,1.77
0.9090,0.08,0.10,-0.99,6.29,2.44,1.46
0.9240,0.09,0.10,-0.99,6.71,2.62,1.46
0.9320,0.11,0.10,-1.00,6.16,2.81,-0.18
0.9480,0.09,0.10,-0.99,2.87,3.91,-2.08
0.9680,0.06,0.11,-0.98,3.05,3.78,-0.67
0.9830,0.07,0.10,-0.99,4.70,3.11,0.85
1.0010,0.07,0.10,-0.99,5.55,2.69,1.10
1.0180,0.07,0.12,-1.00,5.49,2.81,1.53
1.0330,0.07,0.12,-0.99,2.50,3.60,1.59
1.0480,0.08,0.11,-0.99,2.26,3.66,1.83
1.0640,0.08,0.11,-0.99,1.34,3.66,2.01
1.0670,0.08,0.11,-0.99,1.65,3.72,1.77
1.0830,0.08,0.10,-0.98,3.42,3.30,1.89
1.1100,0.08,0.11,-0.99,5.25,2.75,1.83
1.1260,0.08,0.11,-0.99,5.13,2.75,1.77
1.1370,0.08,0.12,-1.00,4.52,2.93,1.95
1.1520,0.07,0.11,-0.99,0.18,4.46,1.77
1.1720,0.07,0.10,-0.98,2.69,3.48,1.83
1.1890,0.08,0.12,-0.99,4.88,3.11,2.01
1.2050,0.08,0.12,-1.00,2.87,3.54,2.01
1.2210,0.08,0.12,-0.99,1.04,3.72,1.89
1.2370,0.08,0.11,-0.99,0.18,4.09,2.01
1.2520,0.08,0.11,-0.98,0.79,3.78,2.01
1.2670,0.08,0.11,-0.99,2.38,3.36,2.08
1.2820,0.07,0.10,-0.98,2.50,3.36,2.08
1.2890,0.08,0.11,-0.99,4.70,3.11,2.20
1.3050,0.07,0.11,-0.99,3.48,3.42,2.26
1.3240,0.07,0.10,-0.98,3.05,3.30,2.32
1.3410,0.08,0.11,-0.98,5.43,2.69,3.23
1.3580,0.08,0.12,-0.99,5.92,2.69,3.60
1.3760,0.08,0.12,-0.99,4.27,2.93,3.17
1.3910,0.08,0.11,-0.99,2.93,3.30,2.69
1.4070,0.08,0.11,-0.99,2.69,3.48,2.32
1.4080,0.08,0.11,-0.99,3.05,3.42,2.26
1.4390,0.08,0.11,-0.99,4.03,3.11,2.01
1.4560,0.08,0.11,-0.99,4.46,3.42,1.95
1.4720,0.08,0.11,-0.99,4.21,3.42,1.83
1.4870,0.08,0.12,-0.99,3.36,3.48,2.01
1.4910,0.08,0.12,-0.99,2.81,3.60,2.14
1.5190,0.07,0.11,-0.99,2.50,3.42,2.50
1.5270,0.08,0.11,-0.99,3.72,3.42,2.62
1.5450,0.08,0.12,-0.99,4.15,2.99,2.26
1.5610,0.08,0.12,-0.99,3.97,3.17,2.14
1.5780,0.08,0.12,-0.99,3.78,3.30,2.08
1.5940,0.08,0.12,-0.99,3.78,3.36,2.08
1.6110,0.08,0.12,-0.99,3.36,3.66,2.01
1.6280,0.08,0.12,-0.99,2.93,3.54,1.77
1.6440,0.08,0.12,-0.99,2.56,3.91,1.83
1.6600,0.08,0.12,-0.99,1.22,3.72,1.65
1.6760,0.08,0.11,-0.98,1.10,4.03,1.89
1.6920,0.08,0.11,-0.98,2.81,3.17,2.26
1.7070,0.07,0.11,-0.98,3.72,3.05,2.50
1.7110,0.08,0.12,-0.99,4.76,2.75,3.05
1.7270,0.08,0.12,-0.99,3.91,2.99,3.36
1.7540,0.08,0.12,-0.99,3.54,2.99,2.81
1.7650,0.08,0.12,-0.99,2.87,3.36,2.44
1.7820,0.08,0.12,-0.99,2.99,3.48,2.14
1.7990,0.08,0.12,-0.99,3.11,3.54,2.14
1.8150,0.08,0.12,-0.99,2.99,3.30,1.95
1.8310,0.08,0.12,-0.99,2.99,3.23,1.83
1.8470,0.08,0.12,-0.99,2.32,3.72,1.89
1.8620,0.08,0.11,-0.98,1.77,4.15,2.08
1.8770,0.08,0.12,-0.99,3.30,3.30,2.08
1.8810,0.08,0.12,-0.99,3.05,3.11,2.01
1.8970,0.08,0.12,-0.99,2.81,3.48,2.08
1.9240,0.08,0.12,-0.99,3.05,3.17,2.44
1.9340,0.08,0.12,-0.99,3.17,3.11,2.56
1.9510,0.08,0.12,-0.99,3.48,3.23,2.26
1.9680,0.08,0.12,-0.99,3.05,3.66,1.95
1.9840,0.08,0.12,-0.99,2.81,3.60,2.01
2.0000,0.08,0.12,-0.99,2.56,3.78,1.83
2.0160,0.08,0.12,-0.99,2.50,3.78,1.95
2.0310,0.08,0.12,-0.99,2.20,3.54,1.95
2.0460,0.08,0.12,-0.99,1.89,3.85,1.89
2.0500,0.08,0.12,-0.99,2.01,3.66,1.89
2.0660,0.08,0.12,-0.99,2.14,3.60,1.83
2.0880,0.08,0.12,-0.99,1.83,3.91,1.83
2.1050,0.08,0.12,-0.99,2.62,3.72,2.08
2.1210,0.08,0.12,-0.99,2.87,3.30,2.14
2.1370,0.08,0.12,-0.99,2.69,3.17,2.14
2.1540,0.08,0.12,-0.99,2.69,3.60,1.95
2.1700,0.08,0.12,-0.99,2.81,3.48,1.95
2.1850,0.08,0.12,-0.99,2.69,3.60,1.95
2.2010,0.08,0.12,-0.99,2.69,3.48,1.77
2.2050,0.08,0.12,-0.99,2.26,3.78,1.83
2.2200,0.08,0.12,-0.99,2.38,3.78,1.65
2.2480,0.08,0.12,-0.99,2.69,3.60,1.71
2.2590,0.08,0.12,-0.99,2.69,3.42,1.83
2.2770,0.08,0.12,-0.99,2.50,3.66,1.95
2.2920,0.08,0.12,-0.99,2.62,3.54,2.08
2.3080,0.08,0.12,-0.99,1.59,3.60,1.89
2.3230,0.08,0.12,-0.99,2.32,3.72,2.08
2.3390,0.08,0.12,-0.98,2.62,3.36,2.08
2.3540,0.08,0.12,-0.99,3.36,3.23,2.26
2.3600,0.08,0.12,-0.99,2.69,3.42,2.26
2.3750,0.08,0.12,-0.99,2.14,3.60,2.32
2.3920,0.08,0.12,-0.99,2.50,3.48,2.32
2.4080,0.08,0.12,-0.99,2.56,3.36,2.38
2.4260,0.08,0.12,-0.99,2.99,3.54,2.08
2.4420,0.08,0.12,-0.99,3.11,3.11,1.95
2.4580,0.08,0.12,-0.99,3.42,3.30,1.95
2.4730,0.08,0.12,-0.99,3.30,3.36,1.83
2.4880,0.08,0.12,-0.99,2.87,3.42,1.71
2.5040,0.08,0.12,-0.99,2.38,3.72,1.89
2.5190,0.08,0.12,-0.99,2.56,3.54,1.89
2.5250,0.08,0.12,-0.99,2.26,3.42,1.89
2.5420,0.08,0.12,-0.99,2.14,3.60,1.83
2.5590,0.08,0.12,-0.99,2.56,3.66,1.95
2.5740,0.08,0.12,-0.99,2.81,3.23,2.01
2.5920,0.08,0.12,-0.99,2.81,3.36,2.01
2.6090,0.08,0.12,-0.99,2.69,3.11,1.89
2.6250,0.08,0.12,-0.99,2.62,3.23,1.95
2.6400,0.08,0.12,-0.99,2.62,3.36,1.83
2.6430,0.08,0.12,-0.99,2.50,3.85,1.77
2.6600,0.08,0.12,-0.99,2.56,3.36,1.71
2.6760,0.08,0.12,-0.99,2.44,3.72,1.83
2.6960,0.08,0.12,-0.99,2.32,3.78,1.71
2.7130,0.08,0.12,-0.99,2.38,3.42,1.83
2.7290,0.08,0.12,-0.99,2.44,3.66,1.83
2.7460,0.08,0.12,-0.99,2.75,3.48,1.95
2.7630,0.08,0.12,-0.99,3.54,3.17,2.08
2.7790,0.08,0.12,-0.99,3.36,3.05,2.14
2.7940,0.08,0.12,-0.99,2.75,3.30,2.14
2.8100,0.08,0.12,-0.99,2.81,3.60,2.38
2.8260,0.08,0.12,-0.99,3.42,3.48,2.38
2.8410,0.08,0.12,-0.99,2.62,3.78,2.26
2.8470,0.08,0.12,-0.99,2.14,3.66,1.95
2.8630,0.08,0.12,-0.99,2.32,3.66,1.83
2.8860,0.08,0.12,-0.99,2.44,3.72,1.71
2.9020,0.08,0.12,-0.99,2.14,3.66,1.89
2.9180,0.08,0.12,-0.99,2.08,3.78,1.89
2.9330,0.08,0.12,-0.99,2.01,3.72,1.83
2.9480,0.08,0.12,-0.99,2.26,3.66,1.77
2.9520,0.08,0.12,-0.99,2.44,3.66,2.14
2.9690,0.08,0.12,-0.99,2.56,3.54,2.01
2.9940,0.08,0.12,-0.99,2.81,3.36,2.08
3.0090,0.08,0.12,-0.99,2.75,3.66,1.89
3.0240,0.08,0.12,-0.99,2.32,3.60,1.89
3.0350,0.08,0.12,-0.99,2.62,3.78,2.01
3.0520,0.08,0.12,-0.99,2.44,3.91,2.01
3.0690,0.08,0.12,-0.99,2.38,3.30,2.01
3.0850,0.08,0.12,-0.99,2.38,3.85,2.01
3.1010,0.08,0.12,-0.99,2.44,3.48,1.71
3.1160,0.08,0.12,-0.99,2.69,3.60,1.83
3.1310,0.08,0.13,-0.99,2.75,3.60,1.95
3.1460,0.08,0.13,-0.99,2.69,3.78,1.89
3.1620,0.08,0.13,-0.99,2.81,3.85,1.83
3.1770,0.08,0.12,-0.99,2.44,3.66,1.83
3.1920,0.08,0.12,-0.99,2.62,3.36,1.71
3.2070,0.08,0.12,-0.99,2.75,3.66,1.83
3.2190,0.08,0.12,-0.99,2.20,3.54,2.01
3.2360,0.08,0.12,-0.99,1.83,3.60,2.01
3.2520,0.08,0.12,-0.99,2.08,3.78,1.83
3.2660,0.08,0.12,-0.99,1.89,3.85,1.95
3.2810,0.08,0.12,-0.99,1.77,3.91,1.83
3.2970,0.08,0.12,-0.99,1.89,3.91,1.89
3.3120,0.08,0.12,-0.99,1.89,3.66,1.83
3.3270,0.08,0.12,-0.99,1.71,3.54,1.83
3.3420,0.08,0.12,-0.98,2.87,3.42,2.08
3.3570,0.08,0.12,-0.99,3.30,3.23,2.14
3.3690,0.08,0.12,-0.99,3.72,3.11,2.08
3.3850,0.08,0.12,-0.99,3.42,3.48,2.08
3.4020,0.08,0.12,-0.99,2.69,3.85,2.08
3.4190,0.08,0.12,-0.99,2.38,3.91,1.89
3.4360,0.08,0.12,-0.99,1.95,3.72,1.95
3.4510,0.08,0.12,-0.99,2.20,3.60,2.14
3.4670,0.08,0.12,-0.99,2.69,3.66,2.20
3.4820,0.08,0.12,-0.99,2.87,3.11,2.20
3.4970,0.08,0.13,-0.99,2.99,3.36,2.20
3.5130,0.08,0.13,-0.99,2.93,3.36,2.08
3.5280,0.08,0.13,-0.99,2.87,3.60,2.87
3.5430,0.07,0.13,-0.99,2.32,3.66,3.54
3.5580,0.06,0.14,-0.98,2.38,3.42,4.94
3.5690,0.09,0.12,-1.00,2.93,2.50,9.46
3.5860,0.08,0.10,-0.99,1.16,3.17,6.47
3.6020,0.08,0.11,-0.99,2.08,3.42,4.52
3.6190,0.08,0.11,-0.99,2.32,3.42,3.30
3.6350,0.08,0.12,-0.99,2.56,3.48,2.87
3.6500,0.08,0.12,-0.99,2.75,3.66,2.38
3.6650,0.08,0.12,-0.99,3.36,3.30,2.20
3.6800,0.08,0.12,-0.99,3.78,2.87,1.95
3.6850,0.08,0.12,-0.99,3.85,3.17,2.08
3.7010,0.08,0.12,-0.99,3.17,3.17,2.38
3.7220,0.05,0.12,-0.99,2.62,3.60,3.54
3.7390,0.01,0.07,-0.98,0.49,3.85,5.31
3.7560,0.11,0.16,-1.00,0.55,3.97,7.32
3.7720,0.09,0.11,-0.98,-2.01,4.76,5.19
3.7890,0.08,0.12,-0.99,2.14,3.60,3.17
3.8050,0.08,0.10,-0.99,3.60,2.81,2.44
3.8210,0.07,0.10,-0.99,5.31,2.75,1.77
3.8370,0.08,0.10,-0.99,5.25,3.17,-1.89
3.8520,0.05,0.08,-1.00,4.15,4.46,-5.74
3.8680,0.04,0.10,-1.00,2.69,5.98,-10.50
3.8840,0.07,0.14,-0.98,2.20,5.13,-6.16
3.9000,0.08,0.15,-0.98,2.69,4.94,-3.91
3.9160,0.09,0.13,-0.98,2.93,4.52,-1.34
3.9220,0.07,0.11,-0.99,3.23,4.09,-0.85
3.9380,0.08,0.11,-0.99,4.15,4.46,-2.01
3.9590,0.07,0.10,-0.99,4.88,3.91,-3.23
3.9760,0.07,0.10,-0.99,5.98,3.60,-5.37
3.9920,0.07,0.10,-0.99,7.39,4.09,-6.53
4.0070,0.08,0.11,-0.99,7.87,4.15,-9.40
4.0090,0.06,0.12,-1.00,4.09,6.35,-11.47
4.0400,0.07,0.14,-0.99,-1.04,8.79,-10.50
4.0550,0.10,0.16,-0.98,0.55,8.12,-6.71
4.0720,0.11,0.15,-0.98,0.55,7.02,-5.37
4.0870,0.10,0.13,-0.97,1.22,5.98,-1.59
4.0920,0.10,0.13,-0.99,4.82,3.42,1.04
4.1180,0.08,0.12,-0.99,5.13,3.23,-0.55
4.1250,0.02,0.08,-1.00,4.03,3.54,-3.30
4.1430,0.03,0.10,-0.99,4.58,4.21,-6.04
4.1590,0.04,0.11,-0.99,4.88,4.64,-8.61
4.1750,0.07,0.09,-0.99,5.86,4.76,-12.15
4.1940,0.08,0.11,-0.99,3.60,6.59,-15.56
4.2080,0.12,0.18,-0.97,-1.53,8.97,-14.59
4.2260,0.13,0.17,-0.98,-1.16,6.71,-3.23
4.2410,0.10,0.14,-0.98,0.92,4.39,2.62
4.2580,0.09,0.13,-0.99,1.04,3.97,2.87
4.2730,0.08,0.12,-0.98,0.85,3.85,2.93
4.2750,0.07,0.11,-0.99,1.83,3.36,3.05
4.2910,0.05,0.11,-0.99,2.87,3.23,2.56
4.3200,0.04,0.10,-0.99,3.36,3.30,0.55
4.3350,0.10,0.08,-0.99,4.88,4.39,-5.31
4.3460,0.07,0.11,-0.99,4.52,4.76,-6.71
4.3620,0.08,0.11,-0.99,4.94,4.64,-7.39
4.3800,0.10,0.13,-0.99,5.25,4.52,-8.12
4.3960,0.10,0.15,-0.97,1.65,5.07,-4.39
4.3970,0.10,0.13,-0.98,1.16,4.15,1.10
4.4280,0.09,0.12,-0.99,1.53,3.85,2.93
4.4430,0.08,0.12,-0.99,2.44,3.05,3.30
4.4580,0.08,0.12,-0.99,2.44,3.42,3.54
4.4640,0.08,0.12,-0.99,2.93,2.93,3.48
4.4800,0.08,0.13,-0.99,2.50,2.93,3.60
4.5060,-0.19,0.21,-1.02,-1.46,3.72,6.04
4.5210,0.09,0.15,-0.99,-5.80,2.75,24.05
4.5360,0.11,0.15,-1.00,-7.14,2.26,24.11
4.5460,0.10,0.13,-1.00,-10.19,2.75,24.90
4.5630,0.12,0.10,-0.96,-11.05,2.56,27.04
4.5800,0.13,0.03,-0.97,-3.48,0.49,27.40
4.5960,0.10,0.04,-0.97,8.18,0.98,10.38
4.6110,0.07,0.09,-0.99,16.17,0.79,2.26
4.6270,0.08,0.14,-1.03,17.03,0.55,2.01
4.6310,0.08,0.12,-0.99,6.59,2.75,1.59
4.6580,0.07,0.12,-0.99,3.72,3.11,1.53
4.6730,0.07,0.13,-0.99,1.89,3.66,1.59
4.6880,0.08,0.13,-0.99,0.12,4.03,1.71
4.7040,0.08,0.13,-0.98,-1.16,4.03,2.32
4.7190,0.07,0.14,-0.97,-0.67,3.72,4.33
4.7300,0.18,0.14,-0.92,-4.15,3.17,14.77
4.7470,0.07,0.08,-1.00,1.22,1.10,18.37
4.7630,0.05,0.03,-0.98,2.32,2.26,9.22
4.7780,0.05,0.07,-0.99,8.00,2.99,1.16
4.7940,0.07,0.11,-0.99,7.87,2.69,0.67
4.8100,0.08,0.11,-1.00,7.20,2.69,-0.49
4.8260,0.08,0.12,-0.99,5.13,3.66,-2.87
4.8410,0.08,0.12,-0.99,2.44,4.82,-3.05
4.8580,0.09,0.14,-0.99,-0.12,5.31,-1.77
4.8640,0.08,0.11,-0.99,1.16,4.88,-3.42
4.8790,0.08,0.11,-0.99,2.75,4.46,-2.87
4.9000,0.08,0.11,-0.99,2.69,4.03,-2.32
4.9170,0.07,0.12,-0.99,3.05,3.97,-0.55
4.9330,0.07,0.11,-0.98,2.56,3.60,1.28
4.9500,0.06,0.12,-0.99,3.97,3.23,0.55
4.9670,0.07,0.12,-0.99,4.15,3.48,-0.67
4.9830,0.07,0.12,-0.99,4.70,3.48,-2.14
4.9980,0.06,0.13,-0.99,4.33,3.72,-2.62
5.0130,0.07,0.13,-0.99,4.09,3.85,-1.95
5.0280,0.08,0.11,-0.99,4.15,3.60,-1.34
5.0430,0.08,0.11,-0.99,3.60,4.52,-4.09
5.0580,0.08,0.13,-0.99,2.69,4.70,-4.33
5.0730,0.08,0.13,-0.99,2.08,4.76,-2.50
5.0830,0.09,0.12,-0.98,1.83,4.58,-1.28
5.1000,0.07,0.12,-0.99,2.38,3.66,-0.18
5.1170,0.07,0.12,-0.99,2.75,4.03,1.04
5.1330,0.07,0.12,-0.99,3.05,3.17,1.95
5.1340,0.07,0.12,-0.99,3.17,3.05,2.08
5.1630,0.07,0.12,-0.99,2.93,3.30,1.71
5.1770,0.08,0.10,-0.98,2.99,3.42,1.53
5.1920,0.09,0.11,-0.99,4.88,3.11,1.16
5.2080,0.10,0.11,-0.99,4.21,3.23,-0.79
5.2230,0.09,0.12,-0.99,3.54,3.48,-1.95
5.2330,0.08,0.14,-0.99,2.69,4.03,-1.77
5.2510,0.07,0.14,-0.99,1.04,4.27,0.61
5.2670,0.08,0.14,-0.97,-0.31,3.78,4.88
5.2830,0.06,0.14,-0.98,0.98,2.69,10.13
5.2980,0.06,0.13,-1.01,2.75,0.49,17.94
5.3120,0.07,0.10,-0.99,2.87,0.61,20.02
5.3280,0.07,0.08,-0.99,5.19,0.98,11.35
5.3420,0.07,0.11,-0.99,8.12,1.34,2.20
5.3580,0.09,0.14,-1.00,8.73,1.22,1.71
5.3740,0.08,0.11,-0.99,5.74,2.93,-2.01
5.3900,0.09,0.08,-0.99,5.19,5.13,-12.21
5.4000,0.12,0.13,-0.98,5.19,6.90,-21.00
5.4170,0.05,0.20,-0.98,2.38,6.41,-12.27
5.4340,0.06,0.16,-1.00,-6.04,7.32,-1.16
5.4510,0.06,0.08,-0.97,-10.25,8.67,0.98
5.4660,0.07,0.10,-0.98,-0.61,4.58,2.99
5.4810,0.07,0.12,-0.98,0.85,3.48,4.94
5.4970,0.09,0.15,-0.99,0.85,2.08,15.44
5.5120,0.03,0.03,-1.01,0.18,1.95,16.60
5.5270,0.14,0.14,-0.99,2.14,2.69,8.97
5.5330,0.09,0.14,-0.99,4.39,2.56,4.03
5.5490,0.08,0.13,-0.99,4.94,2.87,1.46
5.5740,0.08,0.10,-0.98,5.13,3.48,-0.67
5.5860,0.08,0.12,-0.99,5.98,4.03,-4.46
5.6030,0.07,0.15,-0.98,3.42,4.09,-4.21
5.6200,0.07,0.13,-0.99,1.95,4.46,1.53
5.6360,0.07,0.10,-0.98,-1.28,5.13,1.89
5.6510,0.07,0.12,-0.99,1.65,4.03,2.44
5.6670,0.07,0.11,-0.98,1.46,3.72,2.81
5.6820,0.07,0.12,-0.99,1.89,3.05,3.72
5.6870,0.06,0.11,-1.00,1.95,2.93,5.19
5.7130,-0.02,0.02,-1.05,0.85,3.17,7.32
5.7280,0.10,0.13,-0.97,1.65,2.81,7.87
5.7430,0.08,0.12,-0.99,5.25,2.50,2.01
5.7580,0.08,0.12,-0.99,5.62,2.81,1.34
5.7690,0.08,0.12,-0.99,4.88,3.11,0.92
5.7860,0.08,0.13,-0.99,4.52,3.30,0.85
5.8030,0.07,0.12,-0.99,2.26,4.03,1.10
5.8190,0.08,0.12,-0.99,1.34,4.21,1.71
5.8350,0.07,0.11,-0.98,0.85,4.39,1.89
5.8510,0.08,0.13,-0.99,2.20,3.97,2.08
5.8670,0.08,0.12,-0.99,1.10,4.21,2.38
5.8830,0.08,0.12,-0.99,1.22,4.15,2.44
5.8980,0.08,0.12,-0.99,1.65,3.72,2.69
5.9130,0.08,0.12,-0.99,2.01,3.85,2.56
5.9280,0.08,0.12,-0.99,2.32,3.91,2.01
5.9430,0.08,0.12,-0.99,2.56,3.66,1.95
5.9530,0.08,0.12,-0.99,2.87,3.60,2.20
5.9700,0.08,0.12,-0.99,2.93,3.23,2.01
5.9860,0.08,0.13,-0.99,3.11,3.30,2.01
6.0030,0.07,0.11,-0.98,0.61,4.03,3.23
6.0190,0.07,0.12,-0.99,3.60,3.11,4.94
6.0350,0.07,0.13,-0.98,2.69,3.23,5.31
6.0490,0.08,0.12,-0.99,1.34,3.11,7.87
6.0530,0.08,0.12,-0.99,1.28,2.87,8.73
6.0700,0.09,0.11,-0.99,1.46,3.17,7.57
6.0860,0.08,0.11,-0.99,1.83,3.48,4.46
6.1110,0.08,0.12,-0.99,2.44,3.72,2.75
6.1260,0.07,0.13,-0.99,2.20,3.78,2.69
6.1410,0.07,0.12,-0.99,2.38,3.30,3.97
6.1520,0.07,0.12,-0.99,2.75,2.99,4.39
6.1700,0.06,0.14,-0.99,2.50,2.81,5.00
6.1860,0.08,0.11,-0.99,1.83,2.87,8.42
6.2020,0.08,0.11,-0.98,2.44,2.81,6.53
6.2170,0.09,0.10,-0.99,3.54,2.99,4.03
6.2330,0.08,0.12,-0.99,3.91,3.05,2.14
6.2360,0.08,0.12,-0.99,3.05,3.66,1.53
6.2640,0.08,0.12,-0.99,2.32,3.72,1.28
6.2690,0.08,0.12,-0.99,2.20,3.60,1.22
6.2940,0.08,0.12,-0.99,1.71,3.78,1.53
6.3030,0.08,0.12,-0.99,1.89,3.91,1.71
6.3200,0.07,0.11,-0.99,2.32,3.36,1.89
6.3360,0.08,0.13,-1.00,3.17,3.30,1.65
6.3530,0.07,0.13,-0.99,1.77,3.48,1.71
6.3690,0.07,0.11,-0.99,2.50,3.48,2.93
6.3840,0.07,0.13,-0.99,3.42,3.54,2.81
6.3990,0.07,0.12,-0.99,2.32,3.72,3.66
6.4150,0.08,0.11,-0.99,3.66,2.99,3.11
6.4300,0.08,0.12,-0.99,4.21,3.05,1.83
6.4450,0.08,0.12,-0.99,3.60,3.17,1.59
6.4530,0.08,0.13,-0.99,3.60,3.05,1.46
6.4760,0.08,0.12,-0.99,2.75,3.48,1.46
6.4930,0.08,0.12,-0.99,2.56,3.54,1.65
6.5030,0.07,0.12,-0.99,2.75,3.36,1.83
6.5200,0.07,0.12,-0.98,1.71,3.66,2.38
6.5370,0.07,0.12,-0.99,2.01,3.17,4.15
6.5520,0.07,0.12,-0.99,2.01,3.60,5.07
6.5690,0.07,0.13,-0.99,1.65,3.23,5.31
6.5700,0.08,0.11,-0.99,1.59,3.36,7.26
6.6000,0.08,0.11,-0.99,1.89,3.66,4.09
6.6030,0.08,0.12,-0.99,2.20,3.66,1.71
6.6310,0.07,0.12,-0.99,2.01,3.54,1.46
6.6460,0.07,0.12,-0.99,1.89,3.54,1.53
6.6600,0.12,0.16,-0.97,1.59,3.78,1.40
6.6760,0.07,0.13,-0.98,0.92,3.36,2.20
6.6860,0.08,0.17,-1.02,0.24,3.30,8.36
6.7080,0.15,0.14,-0.93,0.31,2.62,14.83
6.7190,0.13,0.16,-0.97,1.71,2.26,13.98
6.7360,0.06,0.08,-1.00,3.36,1.77,13.06
6.7540,0.07,0.06,-0.99,2.99,2.38,8.36
6.7690,0.07,0.11,-0.99,5.55,3.36,1.89
6.7690,0.08,0.12,-0.99,5.00,3.17,0.85
6.7990,0.08,0.13,-0.98,3.97,3.91,-2.81
6.8150,0.08,0.13,-0.99,3.72,4.64,-5.55
6.8200,0.08,0.14,-0.99,2.62,4.21,-3.85
6.8450,0.07,0.13,-0.99,1.40,4.46,-0.18
6.8530,0.08,0.13,-0.99,0.12,4.39,1.04
6.8700,0.06,0.10,-0.99,1.89,4.03,0.85
6.8870,0.05,0.10,-1.00,2.44,3.17,4.15
6.9030,0.07,0.13,-0.99,1.59,3.60,5.92
6.9200,0.07,0.12,-0.98,0.92,2.69,10.80
6.9350,0.09,0.09,-0.99,1.16,2.20,11.41
6.9520,0.08,0.11,-0.98,3.54,2.81,4.33
6.9680,0.08,0.14,-0.99,5.37,2.50,1.65
6.9830,0.08,0.13,-0.99,5.25,2.56,1.10
7.0000,0.08,0.12,-0.99,5.49,2.62,0.67
7.0150,0.08,0.12,-0.99,4.27,3.23,-0.55
7.0300,0.07,0.12,-0.99,3.54,3.72,-0.49
7.0360,0.07,0.12,-0.99,2.38,3.48,1.28
7.0530,0.08,0.12,-0.99,0.73,4.09,1.53
7.0750,0.07,0.12,-0.99,0.92,3.78,2.01
7.0900,0.08,0.12,-0.99,2.20,3.78,2.08
7.1050,0.07,0.12,-0.98,2.01,4.03,2.26
7.1080,0.08,0.12,-0.98,1.34,3.85,2.14
7.1370,0.08,0.12,-0.98,1.95,3.54,1.89
7.1530,0.08,0.12,-0.99,2.56,3.66,1.53
7.1690,0.07,0.12,-0.99,2.44,3.54,1.40
7.1750,0.07,0.11,-0.99,2.69,3.72,1.16
7.1900,0.08,0.11,-0.99,3.36,3.17,0.79
7.2060,0.08,0.10,-0.99,2.93,3.85,-0.98
7.2270,0.07,0.14,-0.99,2.38,4.21,-1.95
7.2450,0.07,0.10,-0.98,0.43,4.27,1.22
7.2600,0.08,0.11,-0.99,2.50,3.91,1.59
7.2610,0.08,0.12,-0.99,2.50,3.72,1.71
7.2780,0.08,0.12,-0.99,2.56,3.60,1.59
7.3070,0.07,0.12,-0.99,2.69,3.36,1.71
7.3230,0.07,0.12,-0.99,2.81,3.54,1.65
7.3370,0.07,0.12,-0.99,2.69,3.78,1.40
7.3450,0.07,0.13,-0.99,2.56,3.66,1.22
7.3620,0.07,0.12,-0.99,2.50,3.36,1.34
7.3770,0.08,0.12,-0.99,2.75,3.48,1.34
7.3960,0.08,0.12,-0.99,2.32,3.91,1.53
7.4110,0.08,0.12,-0.99,1.95,3.66,1.71
7.4270,0.07,0.12,-0.99,1.16,4.21,1.95
7.4450,0.07,0.12,-0.99,2.01,4.09,2.32
7.4600,0.07,0.12,-0.99,2.56,3.42,2.87
7.4740,0.08,0.13,-0.99,2.08,3.48,3.11
7.4780,0.08,0.11,-0.99,2.50,3.36,3.36
7.4940,0.08,0.11,-0.99,2.69,3.30,2.08
7.5120,0.08,0.12,-0.99,2.81,3.42,1.71
7.5290,0.07,0.12,-0.99,3.05,3.60,1.40
7.5450,0.07,0.12,-0.99,3.78,3.23,1.53
7.5600,0.07,0.12,-0.99,3.48,3.23,1.77
7.5780,0.08,0.12,-0.99,3.17,3.48,1.40
7.5940,0.08,0.13,-0.99,2.56,3.54,1.53
7.6100,0.08,0.12,-0.99,1.16,3.85,1.53
7.6240,0.07,0.11,-0.99,1.34,4.33,1.83
7.6390,0.07,0.12,-0.99,1.89,3.85,2.26
7.6440,0.07,0.12,-0.99,1.95,3.72,2.32
7.6700,0.07,0.12,-0.99,2.26,3.60,3.23
7.6770,0.08,0.11,-0.99,2.75,3.48,3.54
7.6950,0.08,0.12,-0.99,2.81,3.36,2.93
7.7120,0.08,0.12,-0.99,2.87,3.48,2.38
7.7270,0.08,0.12,-0.99,2.62,3.54,2.08
7.7440,0.08,0.12,-0.99,2.62,3.42,2.08
7.7450,0.08,0.13,-0.99,2.38,3.30,1.89
7.7740,0.08,0.13,-0.99,1.46,3.60,2.20
7.7890,0.08,0.14,-0.99,1.46,3.60,3.11
7.8040,0.14,0.19,-0.97,2.62,2.50,7.08
7.8190,0.05,0.11,-1.03,1.16,2.93,8.30
7.8290,0.07,0.09,-0.99,1.59,2.44,11.78
7.8450,0.07,0.12,-1.01,2.01,2.81,8.00
7.8610,0.08,0.11,-1.00,1.65,2.75,7.39
7.8780,0.08,0.13,-0.98,1.95,2.69,6.96
7.8950,0.08,0.14,-0.99,2.26,2.08,9.89
7.9100,0.07,0.14,-0.99,1.77,1.95,11.78
7.9240,0.07,0.15,-0.98,1.53,1.40,14.47
7.9390,0.08,0.16,-0.98,0.61,1.34,15.93
7.9540,0.09,0.07,-0.99,1.04,1.22,15.93
7.9600,0.05,0.03,-1.00,2.75,2.99,5.55
7.9790,0.07,0.10,-0.99,3.78,3.66,1.16
7.9950,0.07,0.12,-0.99,4.21,3.42,1.04
8.0110,0.07,0.12,-0.99,3.85,3.30,0.98
8.0280,0.07,0.12,-0.99,2.87,3.54,0.98
8.0450,0.08,0.12,-0.99,2.38,3.60,0.85
8.0620,0.08,0.13,-0.99,2.01,4.15,0.55
8.0760,0.08,0.13,-0.99,1.28,4.39,0.06
8.0920,0.07,0.11,-0.99,2.38,4.03,0.24
8.0940,0.07,0.11,-0.99,1.83,3.97,1.53
8.1230,0.07,0.12,-0.99,1.40,3.91,3.11
8.1370,0.06,0.12,-0.99,1.65,3.54,5.55
8.1440,0.06,0.13,-0.99,1.65,2.99,8.00
8.1620,0.07,0.13,-0.99,1.40,2.81,8.73
8.1790,0.08,0.16,-1.00,-0.06,2.81,9.34
8.1950,0.09,0.09,-0.97,-2.81,3.11,12.94
8.2110,0.09,0.09,-0.98,1.10,2.62,8.61
8.2280,0.08,0.11,-0.99,3.48,2.50,5.00
8.2440,0.08,0.11,-0.99,4.15,2.44,4.88
8.2590,0.08,0.11,-0.99,5.68,2.32,4.21
8.2600,0.07,0.12,-0.99,2.81,3.05,3.54
8.2900,0.07,0.13,-0.99,1.95,3.23,4.15
8.2950,0.06,0.15,-1.00,-1.71,4.21,4.52
8.3200,0.06,0.13,-0.98,-3.85,4.03,6.96
8.3350,0.08,0.11,-0.99,-3.48,4.21,7.39
8.3440,0.08,0.10,-0.98,-2.81,3.72,7.63
8.3600,0.11,0.16,-0.99,1.16,3.48,5.68
8.3790,0.08,0.09,-1.00,10.93,2.32,1.34
8.3950,0.07,0.12,-1.00,12.82,1.71,1.04
8.4120,0.08,0.14,-1.02,10.99,3.05,-0.67
8.4280,0.07,0.12,-0.99,4.88,3.17,-0.73
8.4440,0.07,0.13,-0.99,4.58,2.93,0.49
8.4600,0.08,0.15,-1.00,2.32,3.48,1.10
8.4750,0.01,0.14,-0.99,0.92,4.82,-2.32
8.4780,0.07,0.13,-0.99,1.46,4.46,0.49
8.4950,0.09,0.09,-0.99,0.67,4.39,1.46
8.5190,0.09,0.09,-0.99,1.10,4.15,2.93
8.5350,0.08,0.09,-0.98,1.10,4.09,2.93
8.5440,0.08,0.11,-0.98,5.25,3.23,2.20
8.5610,0.08,0.12,-0.99,6.53,2.56,1.65
8.5780,0.08,0.13,-0.99,6.10,2.62,0.24
8.5940,0.08,0.12,-0.99,4.70,2.93,-0.18
8.6100,0.07,0.13,-0.99,4.15,3.17,-0.37
8.6280,0.07,0.12,-0.98,2.62,3.30,1.53
8.6440,0.08,0.13,-1.00,1.34,3.97,1.83
8.6590,0.07,0.10,-0.98,-1.16,4.21,2.01
8.6620,0.08,0.11,-0.99,2.69,3.78,2.38
8.6770,0.08,0.12,-0.99,2.81,3.85,2.56
8.7060,0.08,0.12,-0.99,2.26,3.91,2.62
8.7210,0.08,0.11,-0.99,2.44,4.09,2.32
8.7370,0.08,0.12,-0.99,3.23,3.72,1.83
8.7450,0.08,0.12,-0.99,2.75,3.48,1.59
8.7620,0.08,0.12,-0.99,2.32,3.54,1.40
8.7770,0.07,0.12,-0.99,2.14,3.66,1.71
8.7950,0.07,0.12,-0.99,1.16,3.66,1.77
8.8120,0.07,0.13,-0.99,2.01,3.23,1.95
8.8290,0.15,0.56,-0.90,0.12,3.91,1.53
8.8440,0.09,0.13,-1.01,4.64,0.31,17.52
8.8610,0.10,0.11,-0.99,-2.01,-0.06,27.77
8.8770,0.07,-0.01,-1.02,-0.49,1.53,19.59
8.8930,0.08,-0.04,-1.01,1.95,2.93,8.91
8.9070,0.03,0.00,-0.99,2.93,3.91,1.40
8.9110,0.10,0.09,-1.00,5.62,3.36,-1.34
8.9270,0.07,0.13,-0.99,4.27,4.88,-8.61
8.9520,0.07,0.14,-0.99,2.75,4.94,-5.19
8.9610,0.06,0.15,-0.99,2.01,4.52,-0.79
8.9780,0.08,0.13,-0.99,0.00,4.39,0.79
8.9950,0.13,0.23,-0.96,-0.79,4.58,0.43
9.0120,0.07,0.17,-0.98,2.38,3.30,3.91
9.0280,0.05,0.13,-1.01,-0.31,2.44,10.99
9.0430,0.08,0.17,-0.97,1.53,2.38,10.99
9.0590,0.07,0.07,-0.99,1.53,1.65,14.59
9.0730,0.07,0.02,-1.00,0.92,2.50,11.05
9.0890,0.07,0.06,-0.98,3.78,2.81,5.07
9.0950,0.08,0.13,-1.01,7.45,2.44,2.08
9.1200,0.08,0.13,-0.99,4.03,3.30,1.04
9.1360,0.08,0.12,-0.99,3.36,3.42,0.79
9.1440,0.08,0.13,-0.99,2.62,3.23,0.98
9.1620,0.08,0.12,-0.99,1.77,3.30,1.46
9.1770,0.07,0.13,-0.99,-0.43,4.03,1.89
9.1960,0.08,0.11,-0.99,1.89,3.48,3.05
9.2110,0.08,0.11,-0.99,3.36,3.54,2.81
9.2110,0.08,0.12,-0.99,2.08,3.54,2.87
9.2280,0.08,0.11,-0.99,2.50,3.30,2.93
9.2560,0.07,0.11,-0.99,3.97,3.30,2.20
9.2720,0.08,0.12,-0.99,4.46,3.30,2.01
9.2860,0.08,0.12,-0.99,4.15,3.30,1.89
9.2950,0.08,0.12,-0.99,3.72,3.11,1.34
9.3110,0.08,0.12,-0.99,2.62,3.54,1.04
9.3300,0.08,0.12,-0.99,2.44,3.36,1.28
9.3450,0.08,0.12,-0.99,1.65,3.48,1.40
9.3620,0.08,0.12,-0.99,1.59,3.54,1.59
9.3770,0.07,0.14,-0.98,1.04,3.85,1.95
9.3930,0.05,0.08,-1.00,3.11,3.36,2.32
9.4080,0.08,0.09,-0.99,2.26,2.62,7.45
9.4240,0.08,0.10,-0.99,2.99,3.30,3.72
9.4390,0.08,0.12,-0.99,3.72,2.99,2.32
9.4540,0.07,0.10,-0.98,3.30,3.42,1.95
9.4680,0.08,0.12,-0.99,4.39,3.11,1.65
9.4790,0.08,0.13,-0.99,3.54,3.23,0.85
9.4950,0.08,0.13,-0.99,2.62,3.72,0.67
9.5130,0.07,0.12,-0.99,2.32,3.78,0.92
9.5270,0.07,0.12,-0.99,2.44,3.54,1.59
9.5440,0.07,0.12,-0.99,2.20,3.48,1.59
9.5610,0.07,0.11,-0.99,1.95,3.72,2.20
9.5770,0.07,0.11,-0.98,2.38,3.36,2.93
9.5780,0.08,0.12,-0.99,2.99,3.05,3.54
9.6090,0.08,0.12,-0.99,3.23,2.99,3.23
9.6260,0.08,0.12,-0.99,3.42,3.42,2.56
9.6420,0.08,0.12,-0.99,3.17,3.42,2.20
9.6580,0.08,0.12,-0.99,2.50,3.66,1.95
9.6620,0.08,0.12,-0.99,2.26,3.97,1.65
9.6780,0.08,0.12,-0.99,1.59,3.72,1.77
9.6990,0.08,0.12,-0.99,2.14,3.30,2.32
9.7150,0.08,0.12,-0.99,2.32,3.05,3.54
9.7330,0.08,0.13,-0.99,2.20,2.93,5.37
9.7490,0.08,0.13,-0.99,2.14,2.99,6.23
9.7660,0.08,0.10,-0.99,1.89,3.23,6.71
9.7820,0.08,0.12,-0.99,3.11,3.48,2.69
9.7970,0.08,0.12,-0.99,2.99,3.60,1.95
9.8120,0.08,0.12,-0.99,3.23,3.54,1.40
9.8170,0.07,0.12,-0.99,2.81,3.78,0.92
9.8320,0.07,0.12,-0.99,2.62,4.03,0.43
9.8540,0.08,0.12,-0.99,2.50,4.03,0.43
9.8710,0.07,0.12,-0.99,2.32,3.72,0.92
9.8870,0.06,0.13,-0.99,2.20,3.78,1.16
9.9040,0.08,0.12,-0.99,1.77,3.72,1.53
9.9200,0.09,0.11,-0.99,2.20,3.72,2.44
9.9350,0.08,0.11,-0.99,2.93,3.11,2.56
9.9380,0.07,0.11,-0.99,3.17,3.11,2.99
9.9540,0.06,0.11,-0.99,3.05,3.11,3.78
9.9820,0.07,0.12,-0.99,2.44,3.42,3.91
9.9970,0.06,0.13,-0.99,1.65,3.78,2.99
10.0050,0.08,0.14,-0.99,1.10,3.97,2.26
10.0210,0.09,0.14,-1.00,-0.12,4.03,2.08
10.0400,0.09,0.12,-0.97,-1.77,4.39,2.75
10.0560,0.08,0.13,-0.97,-1.46,3.97,3.91
10.0740,0.09,0.10,-0.98,-3.66,4.09,5.92
10.0900,0.09,0.09,-0.99,-2.01,3.91,5.80
10.0900,0.08,0.10,-0.97,0.92,3.60,3.11
10.1220,0.08,0.10,-0.98,5.13,2.87,1.95
10.1380,0.09,0.13,-0.99,5.43,2.99,1.16
10.1530,0.08,0.13,-0.99,5.19,3.30,0.12
10.1680,0.08,0.13,-0.99,5.19,3.11,0.85
10.1740,0.11,0.17,-0.98,3.91,3.05,2.26
10.1900,0.08,0.12,-1.00,4.46,2.62,4.21
10.2070,0.09,0.13,-0.98,2.32,2.99,4.39
10.2230,0.06,0.12,-1.00,2.99,2.93,5.07
10.2400,0.06,0.08,-0.99,1.34,3.48,6.71
10.2570,0.06,0.07,-0.99,2.26,2.87,5.62
10.2740,0.07,0.09,-0.99,4.21,3.17,2.26
10.2900,0.08,0.12,-1.00,7.02,2.75,1.04
10.3060,0.08,0.12,-1.00,5.00,3.23,0.43
10.3220,0.08,0.12,-0.99,3.48,3.72,-0.18
10.3240,0.08,0.12,-0.99,2.87,3.85,-0.43
10.3540,0.07,0.12,-0.99,2.99,3.91,0.31
10.3700,0.07,0.12,-0.99,2.69,3.30,1.40
10.3730,0.08,0.11,-0.99,2.14,3.66,1.83
10.3900,0.07,0.12,-0.99,2.26,3.78,2.32
10.4140,0.07,0.12,-0.99,2.01,3.42,2.75
10.4300,0.06,0.13,-0.99,1.28,3.48,5.74
10.4460,0.07,0.13,-0.99,0.55,3.23,9.64
10.4630,0.06,0.12,-0.97,-1.53,3.30,10.13
10.4800,0.08,0.12,-0.99,-0.79,2.20,12.94
10.4950,0.08,0.11,-0.97,-1.28,2.69,11.96
10.4970,0.08,0.10,-0.98,2.75,2.26,10.01
10.5250,0.09,0.06,-1.00,5.68,1.95,7.51
10.5400,0.08,0.07,-0.98,4.76,2.62,4.64
10.5550,0.08,0.13,-1.01,7.93,2.08,1.95
10.5630,0.08,0.12,-0.99,3.48,3.30,1.71
10.5810,0.08,0.11,-0.98,2.26,3.60,1.71
10.5980,0.08,0.12,-0.99,2.50,3.66,1.83
10.6140,0.08,0.12,-0.99,2.38,3.48,1.71
10.6300,0.08,0.12,-1.00,1.83,3.72,1.65
10.6300,0.08,0.11,-0.99,2.20,3.72,1.89
10.6600,0.08,0.12,-0.99,2.62,3.36,1.89
10.6750,0.08,0.12,-0.99,2.69,3.85,1.89
10.6910,0.08,0.12,-0.99,2.50,3.66,1.71
10.7060,0.08,0.12,-0.99,2.38,3.48,1.77
10.7220,0.08,0.12,-0.99,2.56,3.54,1.89
10.7370,0.08,0.12,-0.99,2.81,3.48,1.77
10.7520,0.08,0.12,-0.99,2.75,3.60,1.89
10.7630,0.08,0.12,-0.99,2.69,3.42,1.95
10.7800,0.08,0.12,-0.99,2.32,3.30,1.95
10.7970,0.08,0.12,-0.99,2.38,3.42,1.95
10.8120,0.08,0.12,-0.99,1.77,3.54,2.01
10.8290,0.08,0.12,-0.99,1.34,3.54,1.89
10.8440,0.08,0.12,-0.99,1.10,3.72,1.95
10.8610,0.08,0.12,-0.99,1.16,3.72,2.08
10.8760,0.07,0.12,-0.98,1.04,3.78,3.11
10.8910,0.08,0.11,-0.99,2.75,3.17,4.76
10.9070,0.08,0.11,-0.99,3.17,3.17,4.46
10.9220,0.07,0.12,-0.99,3.72,2.87,3.66
10.9370,0.07,0.12,-0.99,3.85,2.81,3.42
10.9520,0.08,0.12,-1.00,3.48,2.99,3.42
10.9630,0.07,0.12,-0.99,1.65,3.30,4.15
10.9800,0.07,0.13,-0.99,1.65,3.23,4.64
10.9960,0.07,0.13,-0.98,0.79,3.11,6.59
11.0120,0.07,0.14,-0.99,0.98,2.99,7.75
11.0140,0.07,0.13,-0.98,0.79,2.87,10.25
11.0430,0.08,0.12,-0.93,-1.10,2.69,10.25
11.0590,0.07,0.12,-0.99,2.62,1.77,10.80
11.0750,0.07,0.10,-0.98,1.59,1.95,9.64
11.0910,0.08,0.06,-1.00,2.38,2.26,7.08
11.1070,0.08,0.11,-0.99,2.56,2.75,4.27
11.1230,0.08,0.14,-0.99,2.69,2.99,4.03
11.1390,0.09,0.15,-0.97,2.20,3.05,5.98
11.1550,0.09,0.15,-0.98,1.77,2.87,7.20
11.1700,0.08,0.13,-0.99,0.98,2.38,9.70
11.1860,0.08,0.10,-0.99,1.10,2.81,8.67
11.1970,0.07,0.06,-0.99,2.50,3.23,3.85
11.2130,0.07,0.10,-0.99,3.85,3.72,0.00
11.2300,0.08,0.10,-0.99,3.78,4.03,-1.04
11.2460,0.08,0.11,-0.99,3.66,3.97,-2.01
11.2620,0.07,0.12,-0.99,3.42,3.91,-1.95
11.2640,0.07,0.13,-0.99,2.62,3.85,0.06
11.2940,0.09,0.15,-0.98,1.40,3.78,1.10
11.3090,0.06,0.13,-0.99,1.95,4.09,-1.65
11.3250,0.07,0.13,-0.99,1.65,3.60,4.03
11.3410,0.09,0.15,-0.99,1.10,3.17,6.96
11.3570,0.06,0.10,-1.02,1.65,3.05,7.20
11.3730,0.12,0.07,-1.00,1.04,1.95,13.98
11.3890,0.08,0.05,-0.98,2.32,3.05,5.37
11.3960,0.09,0.11,-1.00,6.47,4.21,0.43
11.4120,0.08,0.11,-0.99,4.64,4.58,-3.72
11.4360,0.07,0.13,-0.99,3.42,4.27,-3.05
11.4510,0.07,0.14,-0.99,2.75,3.48,-0.92
11.4680,0.07,0.13,-0.99,1.34,3.48,1.16
11.4840,0.08,0.13,-0.99,0.55,2.81,2.44
11.5010,0.08,0.17,-0.97,0.37,2.62,3.85
11.5160,0.09,0.22,-0.97,0.98,1.89,11.35
11.5310,0.06,0.06,-0.98,-2.20,0.37,20.32
11.5470,0.07,0.06,-1.00,2.38,2.01,16.24
11.5620,0.09,0.02,-1.00,1.77,1.89,13.55
11.5770,0.07,0.10,-0.99,3.30,3.54,4.33
11.5920,0.08,0.11,-0.99,4.21,4.03,0.37
11.6020,0.09,0.10,-0.99,3.85,4.21,-1.71
11.6170,0.08,0.11,-0.99,3.23,4.33,-4.88
11.6400,0.07,0.14,-0.99,2.87,4.33,-5.55
11.6560,0.07,0.14,-0.99,2.14,3.85,-2.26
11.6720,0.08,0.12,-0.99,1.16,3.54,1.65
11.6880,0.08,0.14,-1.00,1.16,3.91,1.59
11.7040,0.06,0.18,-0.97,1.95,4.58,-2.62
11.7200,0.07,0.07,-1.00,2.75,3.23,8.91
11.7360,0.08,0.09,-1.00,2.08,2.69,14.10
11.7400,0.08,0.08,-0.99,1.89,2.81,11.17
11.7560,0.09,0.15,-1.01,2.50,3.11,6.41
11.7800,0.08,0.11,-0.99,3.48,3.42,4.76
11.7960,0.08,0.12,-0.99,3.36,3.72,2.14
11.8110,0.07,0.13,-0.98,3.11,3.36,1.95
11.8140,0.08,0.12,-0.98,2.69,3.66,1.77
11.8300,0.08,0.11,-0.99,2.50,3.54,1.46
11.8540,0.08,0.11,-0.99,2.01,2.75,1.59
11.8710,0.08,0.11,-0.98,1.71,3.11,2.08
11.8880,0.07,0.16,-0.98,1.59,3.05,5.49
11.9040,0.09,0.09,-1.00,2.08,2.87,9.34
11.9210,0.07,0.11,-0.99,1.40,2.87,10.99
11.9360,0.10,0.15,-1.01,0.61,2.87,9.64
11.9370,0.08,0.10,-0.98,0.85,3.42,6.84
11.9670,0.08,0.12,-0.99,2.93,3.30,2.93
11.9700,0.08,0.12,-1.00,1.46,3.42,1.83
11.9860,0.08,0.12,-0.99,-0.43,4.15,2.26
12.0140,0.08,0.12,-0.97,2.01,3.17,4.46
12.0240,0.07,0.12,-0.97,6.96,2.14,4.76
12.0410,0.08,0.12,-0.99,3.05,2.44,6.59
12.0580,0.07,0.14,-0.98,2.38,2.69,6.16
12.0740,0.08,0.12,-0.99,2.01,2.44,9.28
12.0900,0.06,0.17,-0.97,0.79,2.26,8.79
12.1060,0.09,0.16,-0.97,0.24,2.26,13.18
12.1220,0.08,0.03,-1.00,0.61,2.81,7.87
12.1380,0.08,0.10,-0.99,1.04,3.23,3.11
12.1410,0.08,0.13,-0.99,1.65,3.60,1.22
12.1570,0.07,0.15,-0.99,0.12,3.85,1.28
12.1800,0.10,0.29,-0.94,-3.17,3.72,5.74
12.1960,0.09,0.10,-1.02,11.90,0.92,6.96
12.2130,0.07,0.12,-0.96,0.24,2.56,9.83
12.2290,0.10,0.08,-1.00,2.08,2.62,6.96
12.2470,0.08,0.01,-1.00,1.95,3.05,5.25
12.2620,0.06,0.08,-0.99,3.48,3.36,1.77
12.2790,0.08,0.11,-1.00,4.03,3.91,1.89
12.2810,0.08,0.11,-0.99,2.99,3.48,1.28
12.3100,0.08,0.12,-0.99,2.08,3.72,1.22
12.3130,0.08,0.13,-0.99,1.59,3.42,1.22
12.3310,0.09,0.14,-0.98,1.53,3.48,0.92
12.3470,0.07,0.12,-0.99,2.38,3.78,-2.62
12.3730,0.09,0.18,-0.99,2.32,3.72,-0.43
12.3890,0.07,0.08,-1.00,3.23,3.17,1.34
12.3960,0.08,0.09,-0.99,1.59,2.20,8.54
12.4120,0.07,0.07,-0.99,2.08,2.99,5.62
12.4350,0.06,0.07,-0.99,2.50,2.99,4.76
12.4510,0.06,0.09,-0.99,3.11,3.11,2.93
12.4670,0.08,0.11,-0.99,3.30,3.23,3.17
12.4830,0.08,0.13,-0.99,2.50,3.42,2.99
12.4990,0.08,0.12,-0.99,1.95,3.54,1.59
12.5140,0.09,0.13,-0.98,1.71,3.78,1.04
12.5170,0.08,0.11,-0.99,2.20,3.60,0.06
12.5330,0.09,0.12,-0.98,2.20,3.30,2.20
12.5570,0.08,0.12,-0.99,2.38,2.99,4.09
12.5730,0.07,0.10,-0.99,1.59,2.08,9.09
12.5740,0.07,0.10,-0.99,1.83,2.69,7.75
12.6040,0.07,0.11,-0.99,2.08,2.93,6.35
12.6070,0.07,0.11,-0.99,2.08,2.93,5.80
12.6240,0.06,0.10,-0.99,1.89,3.30,4.70
12.6500,0.07,0.11,-0.99,1.34,3.42,4.09
12.6620,0.08,0.13,-0.99,1.22,3.42,3.60
12.6790,0.09,0.17,-0.98,0.85,3.05,6.47
12.6960,0.08,0.15,-0.99,1.77,2.87,8.18
12.7120,0.07,0.16,-0.97,1.77,1.95,12.88
12.7280,0.10,0.10,-0.99,2.62,2.14,13.06
12.7440,0.06,0.08,-0.98,1.95,2.14,9.34
12.7590,0.07,0.00,-1.01,3.85,2.44,6.23
12.7630,0.08,0.10,-0.99,3.23,3.60,1.95
12.7910,0.08,0.11,-0.99,3.11,3.48,1.71
12.8070,0.08,0.12,-0.99,1.95,3.42,1.53
12.8220,0.08,0.12,-0.99,1.89,3.42,1.83
12.8370,0.08,0.12,-0.99,1.46,3.42,1.34
12.8530,0.06,0.17,-1.02,-0.85,4.21,1.04
12.8630,0.06,0.15,-0.99,-9.22,5.37,5.19
12.8790,0.07,0.11,-0.92,-10.80,5.49,8.85
12.8950,0.10,0.08,-1.02,-0.12,3.23,9.95
12.9130,0.07,0.08,-0.97,-3.60,3.60,8.24
12.9280,0.10,-0.00,-1.00,5.00,1.71,8.54
12.9440,0.07,0.04,-0.96,8.30,2.14,2.69
12.9450,0.09,0.09,-0.99,20.26,0.18,1.77
12.9760,0.08,0.08,-1.00,10.50,2.87,-4.33
12.9920,0.07,0.14,-0.98,3.78,4.52,-4.64
12.9960,0.07,0.16,-0.98,3.05,4.15,-3.23
13.0240,0.08,0.12,-0.99,1.46,3.91,1.04
13.0400,0.08,0.12,-0.98,1.22,3.85,1.46
13.0570,0.08,0.10,-0.98,-1.40,4.76,1.46
13.0720,0.08,0.10,-0.99,0.67,4.27,2.01
13.0780,0.08,0.10,-0.98,2.38,3.60,1.95
13.0940,0.08,0.10,-0.98,4.70,2.87,2.01
13.1150,0.08,0.13,-1.01,6.65,2.62,2.20
13.1320,0.08,0.11,-0.99,3.54,3.54,2.08
13.1480,0.08,0.11,-0.99,3.17,3.78,2.50
13.1650,0.08,0.12,-0.99,2.87,3.60,2.44
13.1810,0.08,0.12,-0.99,2.50,3.54,2.14
13.1980,0.08,0.12,-0.99,2.26,3.48,1.95
13.2130,0.08,0.12,-0.99,1.83,3.60,1.77
13.2290,0.08,0.11,-0.99,2.01,3.66,1.71
13.2310,0.09,0.14,-1.03,1.34,3.72,2.14
13.2470,0.07,0.09,-0.97,-1.59,4.27,2.20
13.2750,0.07,0.10,-0.98,1.95,3.66,2.56
13.2850,0.08,0.10,-0.99,5.19,2.87,2.56
13.3010,0.08,0.11,-0.99,4.52,2.87,2.75
13.3170,0.08,0.12,-0.99,3.11,3.30,2.99
13.3340,0.08,0.12,-0.99,2.99,3.36,2.32
13.3520,0.08,0.12,-0.99,2.81,3.17,1.95
13.3680,0.08,0.11,-0.99,2.62,3.42,2.14
13.3830,0.08,0.11,-0.99,2.62,3.30,1.89
13.3990,0.08,0.11,-0.99,2.50,3.36,2.08
13.4140,0.08,0.11,-0.99,2.32,3.60,1.89
13.4290,0.08,0.11,-0.99,2.56,3.48,2.14
13.4350,0.08,0.11,-0.99,2.62,3.60,2.56
13.4520,0.08,0.11,-0.99,2.50,3.60,2.69
13.4680,0.08,0.11,-0.99,2.44,3.48,2.87
13.4850,0.08,0.12,-0.99,2.56,3.54,2.62
13.5010,0.08,0.11,-0.99,2.75,3.72,2.38
13.5180,0.08,0.11,-0.99,2.50,3.54,2.20
13.5350,0.08,0.11,-0.99,2.32,3.60,2.44
13.5510,0.08,0.11,-0.99,2.69,3.60,2.50
13.5680,0.08,0.11,-0.99,2.62,3.17,2.81
13.5830,0.08,0.12,-0.99,2.38,3.36,2.75
13.5990,0.08,0.12,-0.99,2.20,3.30,2.50
13.6140,0.08,0.11,-0.99,2.32,3.36,2.01
13.6300,0.08,0.11,-0.99,2.44,3.66,1.95
13.6450,0.08,0.11,-0.99,2.44,3.85,1.77
13.6610,0.08,0.11,-0.98,2.99,3.72,1.83
13.6770,0.08,0.11,-1.00,3.05,2.87,1.89
13.6930,0.08,0.11,-0.99,3.05,2.69,2.20
13.7080,0.08,0.09,-0.99,2.99,2.69,3.48
13.7180,0.08,0.12,-0.99,2.62,2.62,5.68
13.7350,0.08,0.12,-0.99,2.75,2.93,4.15
13.7520,0.08,0.12,-0.99,2.50,3.17,3.85
13.7680,0.08,0.11,-0.99,2.44,3.42,3.54
13.7840,0.08,0.12,-0.98,2.14,3.60,3.48
13.8010,0.08,0.12,-0.99,2.20,3.85,2.81
13.8190,0.08,0.11,-0.99,1.95,3.60,2.08
13.8350,0.08,0.11,-0.99,2.26,3.97,1.95
13.8510,0.08,0.11,-0.99,2.56,3.54,1.77
13.8670,0.08,0.11,-0.99,2.32,3.78,1.71
13.8830,0.08,0.10,-0.98,2.69,3.48,1.71
13.8980,0.08,0.11,-0.99,2.56,3.60,1.83
13.9130,0.08,0.11,-1.00,2.62,3.85,2.08
13.9280,0.08,0.11,-0.99,2.38,3.78,1.83
13.9440,0.08,0.11,-0.99,2.08,3.97,1.83
13.9520,0.08,0.11,-0.98,2.50,3.72,1.89
13.9680,0.08,0.12,-0.99,2.56,3.66,1.89
13.9850,0.08,0.11,-0.99,2.20,3.60,1.77
14.0020,0.08,0.12,-0.99,1.71,3.60,1.65
14.0180,0.10,0.20,-1.07,0.92,4.21,0.79
14.0350,0.06,0.06,-0.94,-6.10,5.68,-1.34
14.0520,0.08,0.09,-0.96,5.19,3.42,0.12
14.0680,0.08,0.11,-0.99,4.64,2.99,-0.18
14.0840,0.07,0.11,-0.99,4.52,3.30,0.18
14.1010,0.07,0.10,-0.99,5.80,3.05,1.10
14.1170,0.08,0.11,-0.99,4.64,3.54,1.40
14.1320,0.08,0.11,-0.99,2.93,3.54,1.77
14.1480,0.09,0.11,-0.99,2.56,3.60,2.14
14.1630,0.09,0.12,-0.99,2.32,3.66,2.01
14.1790,0.10,0.14,-1.01,1.77,3.78,1.16
14.1860,0.09,0.12,-0.97,-2.99,4.70,0.49
14.2010,0.07,0.11,-0.97,-1.59,4.03,3.17
14.2170,0.07,0.11,-0.99,2.26,3.30,3.36
14.2380,0.08,0.11,-0.98,3.11,3.11,3.36
14.2550,0.08,0.10,-0.99,5.25,2.44,4.52
14.2720,0.07,0.10,-1.01,4.94,2.75,2.50
14.2890,0.08,0.10,-0.99,2.87,3.48,0.79
14.3040,0.07,0.10,-0.99,2.81,3.72,0.24
14.3210,0.06,0.11,-0.99,2.81,3.60,-0.06
14.3370,0.07,0.11,-0.99,2.50,3.60,0.31
14.3530,0.07,0.11,-0.99,2.32,3.60,0.61
14.3690,0.08,0.11,-0.99,2.56,4.09,0.67
14.3860,0.08,0.11,-0.99,2.81,3.72,0.55
14.4010,0.09,0.11,-0.98,2.75,3.72,0.18
14.4050,0.09,0.11,-0.99,2.69,4.15,0.24
14.4210,0.09,0.11,-0.99,2.38,3.97,-0.06
14.4370,0.08,0.11,-0.99,2.08,3.78,0.18
14.4590,0.08,0.11,-0.99,2.32,3.60,1.04
14.4750,0.07,0.11,-0.99,2.32,3.60,1.28
14.4920,0.07,0.10,-0.99,2.75,3.54,1.83
14.5090,0.07,0.11,-0.99,2.75,3.48,1.83
14.5250,0.07,0.11,-0.99,3.36,3.36,1.40
14.5410,0.07,0.11,-0.99,3.23,3.66,0.67
14.5420,0.07,0.12,-0.99,2.56,3.54,0.43
14.5730,0.08,0.12,-0.99,2.08,3.91,0.98
14.5750,0.08,0.11,-0.99,2.08,3.97,0.67
14.6060,0.10,0.11,-0.99,2.56,3.78,0.55
14.6200,0.10,0.11,-0.99,2.69,3.66,0.18
14.6310,0.08,0.10,-0.99,2.69,3.66,0.06
14.6480,0.08,0.11,-0.99,2.56,3.36,0.43
14.6630,0.07,0.11,-0.99,2.50,3.48,0.73
14.6810,0.07,0.11,-0.99,2.81,3.48,0.92
14.6820,0.07,0.11,-0.99,2.93,3.54,0.85
14.7120,0.07,0.11,-0.99,2.87,3.72,0.79
14.7290,0.08,0.11,-0.99,3.17,3.48,0.37
14.7440,0.08,0.11,-0.99,2.93,3.60,-0.18
14.7610,0.08,0.11,-0.99,2.75,3.72,-0.37
14.7650,0.09,0.10,-0.99,3.05,3.54,-0.98
14.7920,0.09,0.10,-0.99,3.36,4.03,-3.11
14.8080,0.08,0.11,-0.99,3.60,4.52,-5.19
14.8230,0.07,0.12,-0.99,3.23,4.52,-5.19
14.8380,0.07,0.13,-0.99,2.87,4.27,-3.54
14.8470,0.04,0.15,-0.99,2.01,3.91,-0.61
14.8620,0.07,0.12,-0.99,1.71,3.72,1.40
14.8840,0.08,0.11,-0.99,1.46,3.66,1.83
14.8990,0.08,0.11,-0.99,1.95,3.48,2.14
14.9140,0.08,0.11,-0.99,2.87,3.36,2.32
14.9290,0.09,0.11,-0.99,2.75,2.99,2.44
14.9450,0.09,0.10,-0.99,2.75,3.05,3.30
14.9610,0.07,0.11,-0.99,2.56,3.05,4.21
14.9760,0.07,0.12,-0.99,2.56,3.30,3.36
14.9910,0.08,0.12,-0.99,2.44,3.36,2.56
15.0010,0.08,0.12,-0.99,2.26,3.42,2.38
15.0190,0.08,0.11,-0.99,2.32,3.66,2.01
15.0350,0.08,0.11,-0.99,2.62,3.42,2.14
15.0510,0.08,0.11,-0.99,2.81,3.23,2.14
15.0670,0.08,0.11,-0.99,2.56,3.30,1.95
15.0840,0.08,0.11,-0.99,2.26,3.54,1.95
15.1000,0.08,0.11,-0.99,2.01,3.42,2.01
15.1150,0.08,0.11,-0.99,2.14,3.36,1.95
15.1300,0.08,0.11,-0.99,2.44,3.54,2.14
15.1350,0.07,0.11,-0.99,2.62,3.30,2.08
15.1500,0.07,0.11,-0.99,2.69,3.36,1.95
15.1730,0.08,0.11,-0.99,2.75,3.66,1.89
15.1900,0.08,0.11,-0.99,2.69,3.66,1.71
15.2060,0.08,0.11,-0.99,2.81,3.42,1.65
15.2220,0.08,0.11,-0.99,2.44,3.72,1.71
15.2390,0.08,0.11,-0.99,2.08,3.54,1.77
15.2540,0.08,0.11,-0.99,2.20,3.72,1.83
15.2700,0.08,0.11,-0.99,2.38,3.60,1.89
15.2730,0.08,0.11,-0.99,2.56,3.48,1.83
15.2890,0.08,0.11,-0.99,2.69,3.60,1.89
15.3110,0.10,0.11,-0.99,2.81,3.17,1.77
15.3270,0.10,0.10,-0.99,3.05,3.48,2.01
15.3430,0.12,0.10,-0.97,3.17,3.30,2.26
15.3620,0.14,0.11,-0.99,3.85,2.99,0.73
15.3780,0.09,0.14,-0.98,2.14,2.99,-0.37
15.3920,0.09,0.14,-0.99,2.56,3.36,-0.55
15.4080,0.07,0.14,-0.98,1.83,3.30,-0.06
15.4240,0.06,0.12,-0.99,2.50,3.36,1.77
15.4290,0.05,0.09,-0.99,2.32,3.23,3.72
15.4460,0.05,0.08,-0.99,2.56,3.30,3.48
15.4670,0.05,0.08,-0.99,2.69,3.42,2.50
15.4830,0.06,0.10,-0.99,2.93,3.42,2.32
15.5010,0.08,0.11,-0.99,3.23,3.60,2.08
15.5170,0.08,0.11,-0.99,2.93,3.42,2.08
15.5320,0.09,0.11,-0.99,2.81,3.42,2.20
15.5470,0.08,0.12,-0.99,2.44,3.42,1.71
15.5630,0.08,0.12,-0.99,2.44,3.78,1.71
15.5790,0.08,0.11,-0.99,2.14,3.60,1.46
15.5930,0.08,0.11,-0.99,2.38,3.91,1.34
15.6030,0.08,0.11,-0.99,2.56,3.42,1.22
15.6190,0.08,0.11,-0.99,2.62,3.66,1.34
15.6400,0.08,0.11,-0.99,2.87,3.48,1.40
15.6560,0.08,0.11,-0.99,2.81,3.54,1.46
15.6580,0.08,0.11,-0.99,2.93,3.36,1.59
15.6880,0.08,0.11,-0.99,2.69,3.60,1.28
15.6920,0.08,0.12,-0.99,2.62,3.66,0.92
15.7080,0.08,0.12,-0.99,2.38,3.66,1.04
15.7280,0.08,0.11,-0.99,2.56,3.54,1.22
15.7430,0.08,0.11,-0.99,2.50,3.48,1.16
15.7650,0.08,0.11,-0.99,2.75,3.60,0.98
15.7810,0.08,0.11,-0.99,2.87,3.60,0.92
15.7970,0.08,0.11,-0.99,3.05,3.85,0.55
15.8120,0.08,0.12,-0.99,2.99,3.72,0.00
15.8290,0.08,0.12,-0.99,2.75,3.72,0.61
15.8450,0.08,0.12,-0.99,2.62,3.72,0.92
15.8590,0.08,0.11,-0.99,2.56,3.48,1.22
15.8750,0.08,0.11,-0.99,2.44,3.54,1.22
15.8910,0.08,0.11,-0.99,2.50,3.66,0.98
15.9060,0.08,0.11,-0.99,2.50,3.66,1.04
15.9150,0.08,0.11,-0.99,2.50,3.66,1.34
15.9330,0.09,0.11,-0.99,2.62,3.60,1.65
15.9500,0.08,0.11,-0.99,2.69,3.60,1.95
15.9660,0.08,0.11,-0.99,2.69,3.48,2.14
15.9810,0.08,0.11,-0.99,2.75,3.36,2.08
15.9990,0.08,0.11,-0.99,2.56,3.48,2.01
16.0150,0.08,0.11,-0.99,2.32,3.36,2.08
16.0330,0.08,0.11,-0.99,2.14,3.78,2.01
16.0490,0.09,0.11,-0.99,2.20,3.48,1.83
16.0500,0.09,0.11,-0.99,2.32,3.54,2.01
16.0800,0.09,0.11,-0.99,2.56,3.23,1.95
16.0830,0.07,0.11,-0.99,2.93,3.36,2.14
16.1110,0.07,0.11,-0.99,2.87,3.36,1.95
16.1270,0.08,0.11,-0.99,2.87,3.30,1.77
16.1330,0.07,0.12,-0.99,2.56,3.48,1.89
16.1490,0.08,0.12,-0.99,2.26,3.60,1.71
16.1720,0.09,0.11,-0.98,2.32,3.60,1.83
16.1890,0.13,0.11,-0.99,2.44,3.54,1.83
16.2040,0.07,0.11,-0.99,2.14,3.17,2.44
16.2050,0.08,0.11,-0.99,2.93,3.30,2.75
16.2360,0.09,0.11,-0.99,1.77,3.11,2.75
16.2380,0.07,0.10,-0.98,2.26,3.17,2.87
16.2690,0.07,0.11,-0.99,2.69,3.60,2.32
16.2720,0.06,0.12,-0.99,3.05,3.72,1.77
16.2890,0.08,0.12,-0.99,2.75,3.66,1.65
16.3050,0.08,0.12,-0.99,2.38,3.42,1.53
16.3260,0.08,0.11,-0.99,2.38,3.60,1.83
16.3430,0.08,0.11,-0.99,2.26,3.54,1.71
16.3600,0.08,0.11,-0.99,2.01,3.66,1.83
16.3760,0.09,0.11,-0.99,2.44,3.72,1.89
16.3920,0.09,0.11,-0.99,2.62,3.72,2.20
16.3930,0.08,0.11,-0.99,2.50,3.30,2.69
16.4090,0.07,0.11,-0.99,2.69,3.30,2.62
16.4390,0.08,0.11,-0.99,2.56,3.66,2.26
16.4450,0.08,0.11,-0.99,2.50,3.54,2.20
16.4710,0.09,0.11,-0.99,2.08,3.72,2.26
16.4850,0.09,0.11,-0.99,2.20,3.54,2.32
16.4960,0.09,0.11,-0.99,2.38,3.42,2.26
16.5120,0.08,0.11,-0.99,2.62,3.36,2.01
16.5290,0.09,0.10,-0.98,2.69,3.36,1.65
16.5450,0.09,0.11,-0.99,2.62,3.60,1.40
16.5460,0.07,0.11,-0.99,2.50,3.72,1.59
16.5770,0.08,0.11,-0.99,2.81,3.54,1.65
16.5920,0.08,0.12,-0.99,2.69,3.42,1.59
16.6080,0.08,0.11,-0.99,2.20,3.36,1.77
16.6130,0.10,0.11,-0.98,2.44,3.48,1.83
16.6400,0.10,0.12,-0.98,1.59,3.23,1.95
16.6560,0.09,0.11,-0.98,1.71,3.42,2.99
16.6620,0.08,0.11,-0.99,2.75,3.11,3.11
16.6780,0.07,0.10,-0.99,2.56,3.17,3.11
16.6990,0.08,0.10,-0.98,2.99,3.05,1.83
16.7140,0.08,0.11,-0.99,3.11,3.72,1.16
16.7300,0.08,0.11,-0.99,2.75,3.66,0.85
16.7330,0.08,0.11,-0.99,2.56,3.36,0.85
16.7630,0.07,0.11,-0.99,2.38,3.91,0.79
16.7790,0.07,0.11,-0.99,2.56,3.48,1.22
16.7940,0.09,0.11,-0.99,2.56,3.78,1.53
16.8100,0.08,0.11,-0.99,2.50,3.48,1.65
16.8250,0.08,0.11,-0.99,2.75,3.54,1.89
16.8410,0.08,0.11,-0.99,2.81,3.30,1.83
16.8570,0.08,0.11,-0.99,2.62,3.66,1.95
16.8720,0.08,0.11,-0.99,2.56,3.30,1.83
16.8820,0.09,0.11,-0.99,2.50,3.54,1.28
16.8990,0.08,0.11,-0.99,2.50,3.66,0.43
16.9150,0.08,0.11,-0.99,2.44,3.72,0.43
16.9320,0.09,0.11,-0.99,2.50,3.54,0.43
16.9480,0.09,0.10,-0.99,2.56,3.48,0.61
16.9500,0.08,0.10,-0.99,2.56,3.42,0.98
16.9780,0.08,0.11,-0.99,2.93,3.48,1.46
16.9930,0.08,0.11,-0.99,2.69,3.78,1.40
17.0080,0.07,0.12,-0.99,2.81,3.60,1.40
17.0150,0.08,0.12,-0.99,2.56,3.60,1.53
17.0330,0.08,0.12,-0.99,2.14,3.91,1.53
17.0490,0.08,0.11,-0.99,2.01,3.54,1.53
17.0660,0.08,0.11,-0.99,1.89,3.66,1.65
17.0820,0.08,0.11,-0.99,2.14,3.60,1.71
17.0980,0.08,0.11,-0.99,2.56,3.60,1.95
17.1130,0.09,0.11,-0.99,2.75,3.48,1.83
17.1280,0.09,0.10,-0.99,2.75,3.60,1.77
17.1320,0.10,0.10,-0.99,2.75,3.54,1.46
17.1580,0.09,0.11,-0.99,2.56,3.36,1.28
17.1730,0.07,0.12,-0.99,2.38,3.48,1.04
17.1880,0.07,0.12,-0.99,1.95,3.72,1.40
17.2040,0.08,0.11,-0.99,1.77,3.66,1.65
17.2150,0.09,0.12,-1.00,3.66,3.60,1.53
17.2320,0.07,0.11,-0.99,2.01,3.72,1.65
17.2480,0.09,0.11,-0.99,2.56,3.30,2.14
17.2650,0.09,0.11,-0.99,2.62,3.30,2.20
17.2800,0.09,0.11,-0.99,2.50,3.42,2.44
17.2950,0.11,0.11,-0.99,2.50,3.23,2.38
17.3110,0.10,0.12,-0.99,2.44,3.54,2.32
17.3160,0.10,0.11,-0.99,2.81,3.30,2.08
17.3320,0.11,0.12,-0.98,2.50,3.17,1.16
17.3480,0.06,0.11,-0.99,2.44,3.66,1.71
17.3690,0.06,0.11,-0.99,2.38,3.72,1.77
17.3860,0.03,0.10,-0.99,2.56,3.48,2.08
17.4020,0.07,0.11,-0.99,2.93,3.48,2.26
17.4180,0.08,0.11,-0.99,2.75,3.42,2.08
17.4350,0.08,0.11,-0.99,2.69,3.60,1.95
17.4510,0.08,0.12,-0.99,2.32,3.60,1.77
17.4670,0.09,0.12,-0.99,1.40,3.66,1.71
17.4820,0.09,0.11,-0.98,1.40,3.72,1.77
17.4850,0.09,0.11,-0.99,1.71,3.78,1.95
17.5010,0.09,0.12,-0.99,2.50,3.23,3.36
17.5230,0.07,0.09,-0.99,2.56,2.87,4.76
17.5390,0.08,0.10,-0.99,2.87,2.93,2.87
17.5570,0.08,0.11,-0.99,2.75,3.17,2.08
17.5720,0.08,0.11,-0.99,2.87,3.66,1.89
17.5880,0.08,0.11,-0.99,2.87,3.66,1.89
17.5900,0.09,0.11,-0.99,2.75,3.78,1.83
17.6070,0.09,0.11,-0.99,2.62,3.91,2.14
17.6330,0.09,0.12,-0.98,2.26,3.42,2.38
17.6400,0.12,0.13,-0.98,2.50,3.36,3.36
17.6570,0.08,0.11,-0.99,2.50,2.44,8.12
17.6740,0.06,0.10,-0.99,2.26,2.32,8.30
17.6900,0.07,0.10,-0.99,2.44,2.99,4.76
17.7070,0.08,0.10,-0.99,2.62,3.05,2.69
17.7240,0.08,0.11,-0.99,2.87,3.23,2.44
17.7390,0.09,0.11,-0.99,2.50,3.36,2.26
17.7540,0.09,0.11,-0.99,2.38,3.36,2.20
17.7570,0.10,0.11,-0.99,2.50,3.17,2.56
17.7860,0.08,0.11,-0.99,1.77,2.93,3.42
17.8010,0.08,0.11,-0.99,1.83,2.99,3.97
17.8170,0.08,0.11,-0.99,2.20,2.87,4.46
17.8230,0.07,0.10,-0.99,2.20,3.11,4.21
17.8390,0.07,0.11,-0.99,2.69,3.11,2.99
17.8600,0.08,0.11,-0.99,3.11,3.48,2.38
17.8780,0.08,0.11,-0.99,2.93,3.72,2.50
17.8940,0.08,0.12,-0.99,2.62,3.66,2.08
17.9110,0.09,0.11,-0.99,2.08,3.54,1.83
17.9250,0.12,0.11,-0.99,1.65,3.60,1.71
17.9410,0.15,0.13,-0.98,1.10,3.42,2.08
17.9560,0.08,0.11,-0.99,1.16,2.87,5.55
17.9720,0.06,0.12,-0.99,1.16,3.17,4.94
17.9770,0.05,0.10,-0.99,1.16,3.36,3.48
17.9930,0.02,0.06,-1.00,2.38,3.23,2.87
18.0160,0.08,0.10,-0.99,3.60,3.60,1.65
18.0320,0.08,0.11,-0.99,4.09,3.42,2.01
18.0470,0.08,0.11,-0.99,3.72,3.72,1.95
18.0630,0.09,0.06,-0.99,3.36,4.15,-0.79
18.0780,0.11,0.10,-0.99,3.30,4.64,-4.82
18.0940,0.08,0.14,-0.99,3.60,5.07,-8.06
18.1110,0.09,0.11,-0.99,3.42,4.58,-2.87
18.1270,0.16,0.12,-0.98,1.71,3.97,-1.59
18.1430,0.07,0.12,-0.98,1.04,2.32,4.52
18.1580,0.05,0.10,-0.99,1.34,2.20,8.18
18.1730,0.05,0.09,-0.99,1.95,2.99,6.65
18.1890,0.06,0.10,-0.99,2.50,3.60,3.48
18.1990,0.06,0.10,-0.99,2.26,3.66,2.81
18.2160,0.08,0.11,-0.99,3.36,3.78,1.83
18.2310,0.09,0.11,-0.99,3.17,3.48,1.16
18.2480,0.10,0.08,-0.99,3.36,4.03,-2.32
18.2660,0.09,0.09,-0.99,4.15,5.43,-10.80
18.2660,0.07,0.13,-0.99,4.15,5.43,-9.46
18.2960,0.07,0.14,-0.99,3.11,4.52,-4.03
18.3110,0.09,0.12,-0.99,2.32,3.48,1.16
18.3150,0.08,0.12,-0.99,0.73,2.87,1.95
18.3310,0.10,0.14,-0.98,1.16,2.93,4.64
18.3570,0.09,0.11,-0.99,1.89,2.01,11.78
18.3680,0.08,0.12,-1.00,1.83,2.01,12.08
18.3850,0.07,0.08,-0.99,2.50,2.50,9.40
18.4030,0.07,0.10,-0.99,3.17,3.42,3.91
18.4200,0.08,0.11,-0.99,3.17,3.91,2.20
18.4350,0.08,0.11,-0.99,3.05,3.60,1.53
18.4510,0.09,0.11,-0.99,2.69,3.48,1.28
18.4660,0.09,0.12,-0.99,2.32,3.48,0.73
18.4820,0.08,0.11,-0.99,2.14,3.36,0.73
18.4970,0.11,0.11,-0.99,2.01,3.54,1.04
18.5120,0.15,0.12,-0.98,2.26,3.72,1.40
18.5270,0.07,0.12,-0.99,1.65,3.36,3.72
18.5430,0.05,0.10,-0.99,1.77,2.87,6.53
18.5570,0.06,0.10,-0.99,2.87,3.05,4.03
18.5690,0.09,0.10,-1.00,3.42,3.36,2.81
18.5850,0.05,0.11,-0.99,2.56,3.78,0.79
18.6020,0.07,0.11,-0.99,3.23,3.72,0.49
18.6180,0.09,0.11,-0.99,2.81,3.72,0.31
18.6350,0.09,0.11,-0.99,2.62,3.85,0.24
18.6520,0.09,0.11,-0.99,2.44,3.72,0.12
18.6530,0.11,0.12,-0.99,2.50,3.91,0.00
18.6840,0.12,0.12,-0.98,2.32,3.85,0.31
18.7010,0.09,0.11,-0.99,2.08,3.11,2.75
18.7160,0.04,0.10,-0.99,1.59,2.99,4.88
18.7320,0.05,0.10,-0.99,2.01,3.23,3.97
18.7480,0.08,0.11,-0.99,2.62,3.66,2.44
18.7530,0.08,0.11,-0.99,2.50,3.36,1.89
18.7690,0.09,0.11,-0.99,2.87,3.48,1.83
18.7920,0.09,0.11,-0.99,3.05,3.54,1.95
18.8070,0.09,0.11,-0.99,3.11,3.72,1.83
18.8240,0.09,0.11,-0.99,3.05,3.54,1.89
18.8410,0.08,0.11,-0.99,2.69,3.60,2.01
18.8420,0.08,0.11,-0.99,2.32,3.42,1.89
18.8730,0.08,0.11,-0.99,2.26,3.42,1.95
18.8880,0.08,0.11,-0.99,2.26,3.42,1.83
18.8910,0.08,0.11,-0.99,2.20,3.54,1.95
18.9070,0.08,0.11,-0.99,2.38,3.23,2.20
18.9340,0.08,0.11,-0.99,2.26,3.36,2.08
18.9450,0.08,0.11,-0.99,2.56,3.42,1.95
18.9620,0.08,0.11,-0.99,2.62,3.48,1.95
18.9780,0.08,0.11,-0.99,2.69,3.42,2.08
18.9950,0.08,0.11,-0.99,2.69,3.36,2.01
19.0110,0.08,0.11,-0.99,2.44,3.42,1.95
19.0270,0.08,0.11,-0.99,2.44,3.30,1.83
19.0430,0.08,0.11,-0.99,2.38,3.42,1.83
19.0580,0.08,0.11,-0.99,2.38,3.48,2.01
19.0610,0.08,0.11,-0.99,2.50,3.54,1.89
19.0770,0.08,0.11,-0.99,2.69,3.48,1.89
19.1040,0.08,0.11,-0.99,2.69,3.60,1.95
19.1150,0.08,0.11,-0.99,2.69,3.48,1.95
19.1310,0.08,0.11,-0.99,2.93,3.60,1.89
19.1480,0.08,0.11,-0.99,2.75,3.54,1.95
19.1650,0.08,0.11,-0.99,2.44,3.42,1.83
19.1810,0.08,0.11,-0.99,2.62,3.72,1.89
19.1970,0.08,0.11,-0.99,2.50,3.66,1.89
19.2130,0.08,0.11,-0.99,2.44,3.54,1.89
19.2280,0.08,0.11,-0.99,2.56,3.48,1.89
19.2430,0.08,0.11,-0.99,2.32,3.60,1.89
19.2580,0.08,0.11,-0.99,2.62,3.36,1.95
19.2730,0.08,0.11,-0.99,2.56,3.17,1.83
19.2880,0.08,0.11,-0.99,2.81,3.42,1.95
19.2980,0.08,0.11,-0.99,2.69,3.60,1.89
19.3140,0.08,0.11,-0.99,2.62,3.48,1.77
19.3330,0.08,0.11,-0.99,2.56,3.66,1.89
19.3490,0.08,0.11,-0.99,2.50,3.66,1.77
19.3640,0.08,0.11,-0.99,2.32,3.54,1.77
19.3800,0.08,0.11,-0.99,2.62,3.54,1.77
19.3960,0.08,0.11,-0.99,2.44,3.78,1.95
19.4040,0.08,0.11,-0.99,2.38,3.36,2.01
19.4190,0.08,0.11,-0.99,2.44,3.54,2.14
19.4410,0.08,0.11,-0.99,2.50,3.42,2.14
19.4560,0.08,0.11,-0.99,2.50,3.60,2.08
19.4730,0.08,0.11,-0.99,2.99,3.36,2.08
19.4880,0.08,0.11,-0.99,2.87,3.30,1.77
19.5050,0.08,0.11,-0.99,2.69,3.66,1.71
19.5210,0.08,0.11,-0.99,2.75,3.66,1.83
19.5360,0.08,0.11,-0.99,2.62,3.72,1.77
19.5510,0.08,0.11,-0.99,2.44,3.54,1.95
19.5610,0.08,0.11,-0.99,2.56,3.85,1.83
19.5770,0.08,0.11,-0.99,2.38,3.60,1.89
19.5940,0.08,0.11,-0.99,2.14,3.60,1.89
19.6100,0.08,0.11,-0.99,2.26,3.23,1.95
19.6260,0.08,0.11,-0.99,2.14,3.54,2.01
19.6430,0.08,0.11,-0.99,2.44,3.72,2.08
19.6600,0.08,0.11,-0.99,2.75,3.54,2.14
19.6760,0.08,0.11,-0.99,2.69,3.42,2.08
19.6920,0.08,0.11,-0.99,2.87,3.60,1.89
19.7070,0.08,0.11,-0.99,2.75,3.54,1.83
19.7230,0.08,0.11,-0.99,2.62,3.42,1.83
19.7390,0.08,0.11,-0.99,2.56,3.66,1.71
19.7440,0.08,0.11,-0.99,2.50,3.36,1.77
19.7600,0.08,0.11,-0.99,2.56,3.42,1.95
19.7820,0.08,0.11,-0.99,2.44,3.48,1.89
19.7980,0.08,0.11,-0.99,2.26,3.54,1.89
19.8150,0.08,0.11,-0.99,2.44,3.66,1.89
19.8310,0.08,0.11,-0.99,2.44,3.23,2.08
19.8460,0.08,0.11,-0.98,2.62,3.17,2.01
19.8610,0.08,0.11,-0.99,2.87,3.42,1.83
19.8760,0.08,0.11,-0.99,2.81,3.54,1.89
19.8910,0.08,0.11,-0.99,2.75,3.48,1.77
19.9060,0.08,0.11,-0.99,2.81,3.36,1.89
19.9210,0.08,0.11,-0.99,2.62,3.60,1.89
19.9310,0.08,0.11,-0.99,2.69,3.54,1.89
19.9480,0.08,0.11,-0.99,2.56,3.36,1.83
19.9650,0.08,0.11,-0.99,2.08,3.54,1.89
19.9810,0.08,0.11,-0.99,2.32,3.60,2.14
19.9960,0.08,0.11,-0.99,2.56,3.54,2.38
20.0120,0.08,0.11,-0.99,2.75,3.54,2.50
20.0270,0.08,0.11,-0.99,2.99,3.42,2.87
20.0430,0.08,0.11,-0.99,2.93,3.36,2.62
20.0580,0.08,0.11,-0.99,2.75,3.60,2.38
20.0740,0.08,0.11,-0.99,2.62,3.30,2.01
20.0890,0.08,0.11,-0.99,2.32,3.60,1.77
20.1040,0.08,0.11,-0.99,2.32,3.48,1.83
20.1150,0.08,0.11,-0.99,2.14,3.05,2.01
20.1310,0.08,0.11,-0.99,1.95,3.60,2.26
20.1480,0.08,0.11,-0.98,1.83,3.78,2.44
20.1640,0.08,0.11,-0.99,1.65,3.60,2.62
20.1810,0.08,0.11,-0.99,1.83,3.60,2.44
20.1970,0.08,0.12,-0.99,2.44,3.54,2.38
20.1990,0.08,0.11,-0.98,2.50,3.42,1.59
20.2270,0.08,0.11,-1.00,3.05,3.72,1.95
20.2430,0.08,0.11,-0.99,2.99,3.72,1.71
20.2580,0.08,0.11,-0.99,2.93,3.48,1.89
20.2640,0.08,0.11,-0.99,2.99,3.54,2.01
20.2810,0.08,0.11,-0.99,3.05,3.54,1.89
20.3020,0.08,0.11,-0.99,2.69,3.48,2.08
20.3190,0.08,0.11,-0.99,2.38,3.23,2.44
20.3340,0.08,0.11,-0.99,2.08,3.60,2.69
20.3510,0.08,0.11,-0.99,1.89,3.48,2.62
20.3520,0.08,0.11,-0.99,2.01,3.54,2.32
20.3680,0.08,0.11,-0.99,2.38,3.54,2.08
20.3980,0.08,0.11,-0.99,2.14,3.36,1.89
20.4120,0.08,0.11,-0.99,2.20,3.54,1.77
20.4280,0.08,0.11,-0.99,2.50,3.48,1.83
20.4350,0.08,0.11,-0.99,2.62,3.11,1.77
20.4580,0.08,0.11,-0.99,2.75,3.36,1.95
20.4680,0.08,0.11,-0.99,2.62,3.48,1.95
20.4850,0.08,0.11,-0.99,2.87,3.30,2.08
20.5010,0.08,0.11,-0.99,2.50,3.54,1.95
20.5180,0.08,0.11,-0.99,2.44,3.48,1.83
20.5180,0.08,0.11,-0.99,2.69,3.36,1.89
20.5480,0.08,0.11,-0.99,2.38,3.36,1.89
20.5630,0.08,0.11,-0.99,2.44,3.30,1.95
20.5780,0.08,0.11,-0.99,2.56,3.60,1.83
20.5930,0.08,0.11,-0.99,2.56,3.72,1.83
20.6080,0.08,0.11,-0.99,2.56,3.60,1.77
20.6230,0.08,0.11,-0.99,2.50,3.54,1.77
20.6340,0.08,0.11,-0.99,2.50,3.72,1.89
20.6520,0.08,0.11,-0.99,2.62,3.30,1.95
20.6680,0.08,0.11,-0.99,2.56,3.54,2.01
20.6820,0.08,0.11,-0.99,2.69,3.48,1.83
20.6860,0.08,0.11,-0.99,2.69,3.36,1.89
20.7130,0.08,0.11,-0.99,2.69,3.48,1.89
20.7290,0.08,0.11,-0.99,2.50,3.78,1.77
20.7450,0.08,0.11,-0.99,2.62,3.85,1.89
20.7590,0.08,0.11,-0.99,2.69,3.54,1.71
20.7740,0.08,0.11,-0.99,2.75,3.72,1.89
20.7850,0.08,0.11,-0.99,2.75,3.42,1.77
20.8010,0.08,0.11,-0.99,2.62,3.97,1.89
20.8180,0.08,0.11,-0.99,2.50,3.66,1.95
20.8340,0.08,0.11,-0.99,2.56,3.48,1.83
20.8520,0.08,0.11,-0.99,2.44,3.72,1.83
20.8680,0.08,0.11,-0.99,2.38,3.48,1.77
20.8840,0.08,0.11,-0.99,2.69,3.54,2.01
20.9000,0.08,0.11,-0.99,2.50,3.42,1.89
20.9160,0.08,0.11,-0.99,2.50,3.48,1.83
20.9320,0.08,0.11,-0.99,2.44,3.30,1.77
20.9480,0.08,0.11,-0.99,2.44,3.48,1.95
20.9510,0.08,0.11,-0.99,2.62,3.48,1.95
20.9670,0.08,0.11,-0.99,2.75,3.54,1.77
20.9900,0.08,0.11,-0.99,2.62,3.42,1.77
21.0060,0.08,0.11,-0.99,2.32,3.66,2.01
21.0230,0.08,0.11,-0.99,2.62,3.48,1.77
21.0410,0.08,0.11,-0.99,2.75,3.66,1.95
21.0560,0.08,0.11,-0.99,2.69,3.66,1.83
21.0730,0.08,0.11,-0.99,2.69,3.66,2.01
21.0890,0.08,0.11,-0.99,2.38,3.78,1.89
21.1050,0.08,0.11,-0.99,2.44,3.60,1.89
21.1220,0.08,0.11,-0.99,2.50,3.48,1.77
21.1380,0.08,0.11,-0.99,2.69,3.60,1.89
21.1400,0.08,0.11,-0.99,2.50,3.54,1.95
21.1680,0.08,0.11,-0.99,2.56,3.48,1.83
21.1740,0.08,0.11,-0.99,2.69,3.48,2.01
21.1900,0.08,0.11,-0.99,2.62,3.48,1.95
21.2100,0.08,0.11,-0.99,2.38,3.60,2.08
21.2270,0.08,0.11,-0.99,2.38,3.54,2.01
21.2440,0.08,0.11,-0.99,2.44,3.30,1.95
21.2600,0.08,0.11,-0.99,2.56,3.54,2.01
21.2770,0.08,0.11,-0.99,2.56,3.66,1.83
21.2780,0.08,0.11,-0.99,2.50,3.48,1.89
21.3080,0.08,0.11,-0.99,2.62,3.54,1.77
21.3250,0.08,0.11,-0.99,2.56,3.36,1.83
21.3410,0.08,0.11,-0.99,2.44,3.48,1.71
21.3570,0.08,0.11,-0.99,2.62,3.42,1.83
21.3730,0.08,0.11,-0.99,2.56,3.42,1.89
21.3770,0.08,0.11,-0.99,2.50,3.66,1.89
21.4050,0.08,0.11,-0.99,2.50,3.17,1.89
21.4100,0.08,0.11,-0.99,2.44,3.54,1.89
21.4350,0.08,0.11,-0.99,2.56,3.85,2.01
21.4500,0.08,0.11,-0.99,2.62,3.78,1.89
21.4600,0.08,0.11,-0.99,2.62,3.66,2.01
21.4770,0.08,0.11,-0.99,2.62,3.78,1.83
21.4950,0.08,0.11,-0.99,2.81,3.42,1.95
21.5100,0.08,0.11,-0.99,2.69,3.60,1.95
21.5260,0.08,0.11,-0.99,2.69,3.60,1.89
21.5420,0.08,0.11,-0.99,2.56,3.54,1.77
21.5580,0.08,0.11,-0.99,3.11,3.54,1.83
21.5740,0.08,0.10,-0.99,2.87,3.91,2.01
21.5900,0.08,0.10,-0.99,3.05,3.36,2.44
21.6050,0.08,0.07,-1.00,2.62,3.48,3.11
21.6200,0.10,-0.02,-1.01,1.89,5.13,-10.25
21.6270,0.05,0.07,-1.00,3.48,6.16,-13.98
21.6430,0.07,0.11,-0.98,3.78,5.74,-10.13
21.6600,0.15,0.26,-0.96,1.65,3.48,0.79
21.6780,0.09,0.17,-0.97,2.87,4.52,-5.07
21.6940,0.10,0.18,-0.98,2.56,4.03,-1.34
21.7110,0.09,0.15,-0.98,2.62,3.72,2.81
21.7110,0.08,0.12,-0.99,2.50,3.23,2.38
21.7260,0.08,0.11,-0.99,2.32,3.54,2.08
21.7540,0.08,0.11,-0.99,2.56,3.36,1.95
21.7700,0.08,0.10,-0.99,2.62,3.36,2.20
21.7770,0.06,0.09,-1.00,2.56,3.23,2.75
21.7940,0.04,0.06,-1.02,2.81,3.91,1.22
21.8100,0.09,0.10,-0.99,3.60,4.15,-1.53
21.8270,0.08,0.10,-0.99,3.60,4.58,-2.56
21.8430,0.09,0.12,-0.99,2.99,3.91,-0.98
21.8610,0.09,0.13,-0.99,3.17,3.85,-0.49
21.8780,0.09,0.12,-0.98,3.05,3.78,-0.06
21.8930,0.09,0.12,-0.99,3.48,3.85,-0.55
21.9100,0.08,0.11,-0.99,3.48,3.97,-1.10
21.9270,0.08,0.10,-0.99,3.17,4.27,-1.95
21.9440,0.07,0.10,-0.99,3.36,4.15,-2.87
21.9600,0.06,0.10,-0.99,3.36,4.46,-3.72
21.9610,0.06,0.10,-0.99,3.42,4.70,-4.88
21.9760,0.05,0.09,-0.99,3.48,4.70,-6.53
22.0070,0.07,0.11,-0.99,3.23,4.88,-8.00
22.0220,0.09,0.13,-0.98,3.30,5.07,-8.85
22.0380,0.08,0.12,-0.99,3.42,4.33,-5.98
22.0440,0.08,0.11,-0.99,3.11,4.21,-4.58
22.0690,0.09,0.11,-0.99,3.36,4.09,-5.13
22.0840,0.08,0.11,-0.99,3.30,4.21,-5.86
22.0940,0.08,0.10,-0.99,2.87,4.52,-7.08
22.1100,0.08,0.10,-0.99,3.48,4.70,-8.48
22.1280,0.08,0.11,-0.99,4.09,5.07,-11.05
22.1440,0.09,0.13,-0.99,3.91,5.00,-11.29
22.1600,0.11,0.12,-0.99,3.23,5.37,-8.85
22.1760,0.07,0.11,-0.99,3.60,5.13,-8.67
22.1930,0.08,0.11,-0.99,3.23,5.19,-7.93
22.2080,0.08,0.12,-0.99,2.32,4.64,-7.02
22.2240,0.08,0.10,-0.99,2.87,4.70,-5.13
22.2400,0.08,0.11,-0.98,3.23,5.07,-5.31
22.2560,0.09,0.11,-1.00,3.66,5.68,-5.74
22.2720,0.06,0.11,-0.99,1.71,5.98,-7.75
22.2880,0.07,0.11,-0.98,1.53,6.10,-8.30
22.3040,0.08,0.10,-0.98,2.50,5.92,-9.58
22.3110,0.07,0.10,-0.99,3.60,6.10,-9.46
22.3330,0.10,0.12,-0.99,5.31,5.62,-9.09
22.3440,0.10,0.12,-0.99,5.19,5.62,-8.79
22.3600,0.10,0.12,-0.99,5.37,5.13,-7.02
22.3760,0.08,0.11,-0.99,5.31,4.82,-7.32
22.3960,0.08,0.12,-0.99,5.55,4.76,-7.51
22.4100,0.08,0.13,-0.98,5.43,4.82,-6.90
22.4250,0.09,0.13,-0.98,5.13,4.70,-6.23
22.4310,0.07,0.07,-0.99,6.04,4.52,-4.64
22.4460,0.08,0.09,-0.98,9.77,4.09,-5.98
22.4730,0.09,0.13,-0.99,8.18,4.33,-6.84
22.4880,0.08,0.11,-0.99,4.09,4.94,-6.65
22.5030,0.04,0.07,-1.00,4.09,5.00,-5.80
22.5180,0.08,0.13,-0.99,3.78,5.31,-9.46
22.5300,0.09,0.15,-0.98,3.36,5.74,-9.70
22.5470,0.10,0.16,-0.98,3.05,4.82,-5.92
22.5630,0.09,0.14,-0.98,2.56,4.27,-2.56
22.5790,0.09,0.14,-0.98,2.26,3.72,-0.06
22.5810,0.08,0.12,-0.98,2.26,3.54,0.31
22.6120,0.08,0.12,-0.99,2.38,3.72,0.79
22.6140,0.07,0.11,-0.99,3.11,3.54,1.40
22.6440,0.08,0.11,-0.99,3.05,3.72,1.34
22.6600,0.08,0.11,-0.99,2.93,4.03,0.55
22.6760,0.08,0.12,-0.99,3.23,4.27,-0.43
22.6910,0.09,0.13,-0.99,3.05,4.39,-1.16
22.7070,0.08,0.12,-0.99,3.05,3.91,-1.34
22.7230,0.09,0.13,-0.99,3.23,4.09,-1.53
22.7310,0.08,0.12,-0.99,3.36,3.97,-1.59
22.7530,0.07,0.11,-0.99,3.30,4.09,-1.71
22.7630,0.08,0.11,-0.99,3.30,4.15,-1.89
22.7800,0.07,0.11,-0.99,3.30,3.78,-1.59
22.8000,0.07,0.11,-0.99,3.30,4.03,-1.53
22.8010,0.07,0.11,-0.99,3.17,4.15,-2.01
22.8320,0.07,0.12,-0.99,3.17,4.33,-1.77
22.8470,0.08,0.13,-0.99,2.99,4.27,-1.71
22.8620,0.08,0.12,-0.99,2.99,4.15,-0.85
22.8780,0.09,0.13,-0.99,2.87,4.03,0.12
22.8850,0.08,0.12,-0.99,2.99,3.85,0.73
22.9010,0.08,0.11,-0.99,2.87,3.85,0.31
22.9240,0.08,0.11,-0.99,2.75,4.27,-0.98
22.9400,0.08,0.12,-0.99,2.93,3.97,-1.10
22.9410,0.08,0.12,-0.99,2.87,4.15,-0.79
22.9720,0.08,0.12,-0.99,2.99,4.03,-0.49
22.9740,0.07,0.12,-0.99,2.75,3.91,-1.34
23.0040,0.08,0.13,-0.99,2.62,3.91,-0.55
23.0070,0.08,0.12,-0.99,2.69,4.03,-0.98
23.0240,0.09,0.12,-0.99,2.75,4.15,-1.28
23.0410,0.07,0.11,-0.99,2.99,4.15,-1.46
23.0670,0.08,0.12,-0.99,3.11,4.21,-1.89
23.0740,0.07,0.11,-0.99,3.36,4.21,-2.44
23.0920,0.08,0.11,-0.99,3.42,4.15,-3.05
23.1080,0.06,0.11,-0.99,4.09,4.46,-4.33
23.1280,0.08,0.14,-0.99,3.54,4.33,-4.27
23.1450,0.08,0.14,-0.98,3.17,4.39,-2.69
23.1600,0.09,0.15,-0.98,2.87,4.15,-0.92
23.1770,0.08,0.13,-0.99,2.93,4.09,-0.49
23.1930,0.08,0.12,-0.99,3.11,3.91,-0.31
23.1940,0.08,0.12,-0.99,3.05,4.33,0.24
23.2100,0.07,0.11,-0.99,2.62,4.27,0.61
23.2410,0.08,0.12,-0.99,2.50,4.33,0.67
23.2440,0.07,0.12,-0.99,3.48,4.15,1.10
23.2600,0.07,0.12,-0.99,4.27,4.39,-1.10
23.2840,0.07,0.11,-0.99,2.93,5.55,-5.07
23.3020,0.08,0.13,-0.99,2.93,5.62,-5.62
23.3170,0.09,0.14,-0.98,3.05,4.46,-3.66
23.3350,0.09,0.14,-0.98,3.11,3.66,-1.16
23.3500,0.09,0.13,-0.98,3.54,3.36,0.49
23.3660,0.08,0.12,-0.99,3.48,3.17,1.28
23.3820,0.09,0.13,-0.98,3.42,3.60,0.61
23.3980,0.09,0.13,-0.99,2.99,4.03,-0.49
23.4140,0.08,0.13,-0.99,2.08,4.27,-0.61
23.4180,0.08,0.13,-0.99,2.08,4.39,-1.10
23.4460,0.08,0.14,-1.01,4.03,3.54,-1.04
23.4510,0.07,0.13,-0.98,0.98,5.00,-2.56
23.4780,0.08,0.14,-0.99,3.66,3.48,-0.85
23.4940,0.08,0.12,-0.98,1.10,4.52,-1.04
23.5090,0.08,0.12,-0.98,2.38,3.91,0.73
23.5170,0.08,0.12,-0.99,3.17,3.60,1.04
23.5330,0.08,0.12,-0.99,3.05,3.48,1.04
23.5540,0.08,0.13,-0.99,2.93,3.60,1.10
23.5700,0.08,0.13,-0.99,2.56,3.72,0.61
23.5750,0.08,0.14,-1.00,2.69,3.66,0.49
23.6000,0.07,0.12,-0.99,1.10,4.33,0.49
23.6090,0.06,0.08,-0.96,0.85,4.33,0.67
23.6270,0.07,0.12,-1.00,3.17,3.36,1.04
23.6420,0.08,0.12,-0.98,1.28,4.21,0.37
23.6610,0.07,0.10,-0.98,2.87,3.78,0.73
23.6760,0.08,0.11,-0.98,2.50,4.03,-0.24
23.6910,0.08,0.12,-0.99,2.62,3.85,-0.85
23.6970,0.08,0.13,-0.99,2.93,3.91,-1.59
23.7130,0.08,0.13,-0.99,2.93,3.91,-1.83
23.7320,0.08,0.13,-0.99,2.20,4.33,-1.22
23.7500,0.08,0.12,-0.99,1.65,4.33,-0.12
23.7660,0.08,0.12,-0.99,1.65,4.09,0.37
23.7830,0.08,0.12,-0.99,2.50,3.78,0.24
23.7990,0.08,0.11,-0.99,2.93,4.03,-0.92
23.8150,0.07,0.12,-1.00,3.85,3.85,-2.62
23.8300,0.07,0.13,-0.99,2.20,5.07,-4.46
23.8330,0.08,0.13,-0.99,2.69,4.64,-3.97
23.8490,0.08,0.13,-0.99,2.69,4.58,-2.99
23.8710,0.09,0.12,-0.98,2.62,4.09,-1.34
23.8900,0.08,0.11,-0.98,2.99,3.91,-0.37
23.9050,0.08,0.11,-0.99,3.60,3.78,-0.85
23.9220,0.08,0.11,-0.99,3.78,3.97,-3.30
23.9390,0.08,0.12,-0.99,3.72,4.15,-4.09
23.9550,0.08,0.12,-0.99,4.27,4.46,-5.62
23.9730,0.08,0.13,-0.99,3.78,4.52,-5.98
23.9880,0.08,0.13,-0.99,3.48,4.27,-4.70
24.0040,0.08,0.14,-0.99,2.81,4.46,-3.72
24.0190,0.08,0.13,-0.99,1.46,4.15,-1.04
24.0350,0.08,0.13,-0.99,0.98,4.39,1.04
24.0380,0.07,0.12,-0.99,1.46,3.60,1.34
24.0540,0.07,0.12,-0.99,2.20,3.85,1.77
24.0780,0.08,0.12,-0.99,2.32,3.66,1.89
24.0950,0.08,0.12,-0.99,2.38,3.54,1.71
24.1110,0.08,0.12,-0.99,2.81,3.54,1.04
24.1130,0.08,0.12,-0.99,3.17,3.54,0.73
24.1430,0.08,0.12,-0.99,3.48,3.36,-0.18
24.1580,0.08,0.12,-0.99,4.39,3.66,-1.34
24.1740,0.15,0.12,-0.99,4.64,3.85,-2.32
24.1900,0.02,0.14,-0.98,3.91,3.78,-3.11
24.2060,0.15,0.10,-0.98,1.40,4.15,0.49
24.2120,0.09,0.12,-0.98,2.38,3.48,-0.18
24.2360,0.10,0.12,-0.99,2.26,3.78,-0.31
24.2460,0.07,0.12,-0.98,1.95,4.21,-0.85
24.2610,0.07,0.12,-0.98,2.99,4.03,-1.34
24.2800,0.10,0.10,-0.98,4.15,4.21,-2.69
24.2960,0.08,0.13,-1.02,4.33,4.88,-7.45
24.3120,0.09,0.11,-0.98,-1.22,6.16,-10.99
24.3280,0.11,0.12,-0.98,1.95,5.19,-12.39
24.3440,0.12,0.11,-0.97,6.47,4.03,-15.08
24.3450,0.10,0.13,-0.99,9.64,3.05,-15.99
24.3620,0.09,0.12,-0.99,5.74,5.31,-15.08
24.3910,0.08,0.13,-1.00,2.75,6.23,-14.95
24.4060,0.07,0.11,-0.99,0.37,6.65,-13.98
24.4200,0.06,0.12,-0.99,0.37,6.41,-11.96
24.4360,0.07,0.12,-0.99,1.22,6.16,-11.78
24.4460,0.08,0.11,-0.98,1.10,6.04,-13.67
24.4610,0.08,0.11,-0.98,3.23,5.62,-14.89
24.4780,0.08,0.12,-0.99,4.15,5.74,-14.59
24.4960,0.07,0.13,-0.99,3.60,5.55,-12.27
24.5110,0.06,0.13,-0.99,4.15,4.88,-9.28
24.5280,0.07,0.13,-0.99,4.46,4.39,-7.93
24.5450,0.08,0.11,-0.98,4.82,3.60,-6.29
24.5610,0.08,0.12,-0.99,5.98,3.85,-4.15
24.5750,0.08,0.12,-0.99,5.31,4.76,-3.78
24.5910,0.05,0.14,-0.98,4.33,5.62,-6.47
24.6060,0.05,0.16,-0.99,3.85,5.49,-6.59
24.6210,0.06,0.15,-0.99,3.11,5.31,-5.92
24.6280,0.08,0.13,-0.98,2.56,5.13,-4.52
24.6460,0.10,0.10,-0.98,4.33,4.76,-5.49
24.6610,0.11,0.09,-0.99,6.77,5.07,-10.68
24.6780,0.11,0.09,-0.99,7.39,5.31,-13.92
24.6960,0.08,0.12,-0.99,7.45,5.25,-15.63
24.7110,0.08,0.15,-0.99,6.04,5.19,-12.88
24.7260,0.07,0.16,-0.99,4.03,5.07,-8.36
24.7280,0.07,0.16,-0.98,3.36,4.64,-4.52
24.7560,0.06,0.15,-0.98,2.50,4.33,-2.62
24.7700,0.07,0.14,-0.99,2.62,4.03,0.24
24.7790,0.09,0.11,-0.99,3.23,3.60,0.49
24.8010,0.10,0.10,-0.99,4.21,3.54,-3.23
24.8110,0.08,0.11,-0.99,4.33,4.15,-6.77
24.8280,0.07,0.14,-0.99,2.32,5.00,-11.60
24.8450,0.06,0.16,-0.99,0.18,4.33,-9.28
24.8610,0.04,0.16,-0.98,-0.61,3.72,-6.16
24.8620,0.04,0.16,-0.98,0.18,3.60,-2.44
24.8900,0.04,0.15,-0.98,0.98,3.48,-0.31
24.9060,0.07,0.13,-0.98,1.89,3.48,2.08
24.9210,0.08,0.12,-0.99,2.38,3.42,2.32
24.9350,0.08,0.12,-0.99,2.81,3.30,2.62
24.9510,0.08,0.12,-0.99,2.81,3.54,2.20
24.9620,0.10,0.11,-0.99,2.93,3.48,1.53
24.9780,0.10,0.11,-0.99,2.69,4.15,-2.99
24.9960,0.09,0.13,-0.99,3.36,4.39,-5.00
25.0120,0.08,0.14,-0.98,3.17,4.09,-3.17
25.0280,0.06,0.14,-0.99,2.75,3.54,-1.10
25.0290,0.05,0.15,-0.99,2.32,3.48,0.73
25.0580,0.08,0.13,-0.99,1.71,3.48,2.38
25.0730,0.08,0.12,-0.99,2.20,2.93,2.62
25.0880,0.08,0.12,-0.99,2.26,3.30,2.99
25.1030,0.09,0.12,-0.98,2.62,3.23,3.17
25.1180,0.09,0.13,-0.99,2.87,3.54,2.81
25.1280,0.12,0.12,-0.99,3.11,3.78,0.43
25.1450,0.11,0.11,-0.98,3.23,4.33,-4.46
25.1640,0.09,0.12,-0.99,3.72,4.82,-8.00
25.1790,0.08,0.12,-0.99,3.78,5.00,-7.63
25.1790,0.07,0.13,-0.99,3.36,4.94,-6.59
25.2100,0.06,0.14,-0.99,2.81,4.52,-3.60
25.2250,0.06,0.13,-0.99,1.89,3.48,0.43
25.2410,0.07,0.12,-0.99,2.20,3.17,3.48
25.2450,0.08,0.11,-0.99,3.11,2.99,4.76
25.2610,0.08,0.12,-0.99,2.99,3.23,5.00
25.2830,0.08,0.13,-0.99,2.81,3.05,4.64
25.2990,0.08,0.14,-0.99,2.56,3.17,3.42
25.3160,0.08,0.13,-0.99,2.81,3.30,2.26
25.3320,0.09,0.12,-0.98,2.69,3.72,1.71
25.3490,0.10,0.12,-0.99,2.81,3.48,1.10
25.3500,0.10,0.11,-0.98,2.99,3.72,0.73
25.3800,0.09,0.12,-0.99,2.87,3.72,0.92
25.3950,0.07,0.13,-0.99,2.75,3.42,1.22
25.3990,0.07,0.14,-0.99,2.20,3.17,1.46
25.4150,0.08,0.12,-0.99,1.77,3.72,0.79
25.4370,0.08,0.12,-0.99,2.44,3.78,-0.73
25.4540,0.08,0.12,-0.99,2.44,4.27,-2.81
25.4710,0.07,0.14,-0.99,2.62,4.09,-2.93
25.4870,0.08,0.13,-0.99,3.11,3.48,-0.67
25.5030,0.08,0.12,-0.99,2.93,3.97,-0.18
25.5190,0.08,0.12,-0.99,2.99,3.78,0.06
25.5200,0.10,0.09,-0.99,3.05,3.85,0.61
25.5510,0.10,0.11,-0.99,2.87,3.42,1.65
25.5540,0.10,0.11,-0.99,4.03,3.54,1.59
25.5700,0.07,0.15,-1.00,2.93,3.48,0.85
25.5920,0.05,0.15,-0.98,1.71,2.99,1.28
25.6090,0.07,0.13,-0.98,2.32,3.54,1.95
25.6250,0.08,0.13,-0.99,2.32,3.48,1.83
25.6420,0.09,0.12,-0.99,2.75,3.36,1.53
25.6590,0.10,0.11,-0.99,2.81,3.72,0.06
25.6740,0.10,0.10,-0.99,2.93,4.39,-4.76
25.6920,0.10,0.11,-0.99,3.23,5.07,-8.18
25.6920,0.10,0.09,-0.98,3.30,5.25,-8.24
25.7220,0.09,0.12,-0.99,2.44,4.76,-6.59
25.7250,0.08,0.14,-0.98,2.81,4.58,-4.58
25.7420,0.09,0.14,-0.98,2.38,4.15,-3.17
25.7660,0.11,0.13,-0.98,2.38,4.33,-3.05
25.7740,0.13,0.13,-0.98,2.69,4.76,-3.05
25.7910,0.11,0.13,-0.99,3.30,4.39,-2.81
25.8080,0.10,0.12,-0.99,3.36,4.03,-1.95
25.8260,0.06,0.11,-0.99,2.87,3.97,-0.73
25.8420,0.02,0.11,-0.99,3.05,3.97,-1.71
25.8580,0.02,0.14,-0.99,3.66,4.03,-2.26
25.8740,0.03,0.16,-0.99,2.99,3.91,-1.59
25.8890,0.06,0.16,-0.98,2.69,3.72,0.79
25.8920,0.08,0.14,-0.99,2.26,3.42,2.14
25.9090,0.08,0.13,-0.99,2.01,3.17,1.71
25.9260,0.08,0.13,-0.98,1.65,3.11,1.83
25.9420,0.06,0.12,-0.99,1.53,3.42,2.69
25.9580,0.04,0.10,-0.99,2.26,2.87,5.49
25.9750,0.08,0.11,-0.99,2.32,2.20,9.28
25.9920,0.09,0.11,-0.99,2.26,2.32,9.40
26.0090,0.10,0.12,-0.98,2.56,2.50,6.90
26.0260,0.09,0.14,-0.99,2.93,3.17,5.25
26.0410,0.09,0.14,-0.99,2.81,3.66,2.56
26.0570,0.09,0.14,-0.98,2.56,3.91,0.67
26.0580,0.07,0.11,-0.99,2.56,3.60,0.79
26.0860,0.08,0.14,-0.99,2.38,3.48,0.55
26.1010,0.06,0.12,-0.99,1.53,3.48,0.98
26.1080,-0.01,0.08,-1.00,2.01,3.72,2.56
26.1250,0.03,0.08,-1.00,2.69,3.11,4.76
26.1410,0.06,0.08,-1.00,2.14,2.87,4.94
26.1580,0.07,0.09,-0.99,1.71,2.99,3.48
26.1740,0.12,0.13,-0.99,1.89,2.93,1.71
26.1920,0.11,0.14,-0.97,0.55,2.62,2.69
26.2070,0.13,0.18,-0.97,2.32,2.50,4.52
26.2230,0.11,0.18,-0.98,2.01,2.99,4.09
26.2380,0.09,0.17,-0.99,1.59,3.05,4.15
26.2530,-0.04,0.16,-1.00,-0.24,2.75,5.25
26.2680,-0.03,0.13,-0.98,-0.18,1.46,14.89
26.2830,0.02,0.11,-1.00,2.62,1.04,19.41
26.2920,-0.02,0.15,-1.00,1.71,1.16,23.80
26.3090,0.04,0.15,-0.99,0.43,0.43,25.57
26.3250,0.07,0.16,-0.98,0.43,-0.73,26.92
26.3420,0.07,0.15,-0.98,-0.24,-0.12,25.45
26.3580,0.13,0.15,-0.97,-0.31,0.73,20.20
26.3760,0.22,0.12,-0.98,2.50,1.40,14.34
26.3920,0.24,0.08,-0.98,1.34,2.14,11.11
26.4080,0.19,0.09,-0.98,2.08,2.56,8.48
26.4230,0.12,0.13,-0.99,2.08,2.81,7.81
26.4380,0.07,0.25,-1.02,-0.67,1.65,20.08
26.4410,0.17,0.22,-0.91,-11.35,0.79,37.48
26.4680,0.11,0.13,-1.00,-0.61,-1.46,34.67
26.4740,0.13,0.07,-0.99,1.89,-0.55,29.36
26.4920,0.13,0.03,-1.01,2.87,15.56,12.51
26.5080,0.09,0.03,-0.98,1.65,3.36,2.44
26.5260,0.10,0.07,-0.98,9.03,3.91,-5.49
26.5410,0.11,0.11,-0.99,8.91,4.33,-7.32
26.5580,0.10,0.13,-0.99,4.21,4.70,-5.74
26.5740,0.10,0.16,-0.99,2.81,4.33,-2.87
26.5920,0.09,0.18,-0.98,0.55,3.30,3.36
26.6070,0.12,0.29,-0.94,0.61,2.69,8.36
26.6220,0.06,0.24,-1.00,2.99,1.83,20.26
26.6370,0.06,0.20,-0.97,-4.21,0.61,29.66
26.6520,0.03,0.12,-0.98,-3.60,-0.67,31.86
26.6670,0.05,0.07,-0.98,-0.73,0.24,29.11
26.6750,0.06,-0.03,-1.01,4.58,0.00,22.89
26.6920,0.05,-0.07,-1.00,7.45,2.81,4.94
26.7090,0.08,0.09,-1.03,12.39,2.26,-2.81
26.7260,0.12,0.07,-0.99,3.91,4.70,-6.10
26.7410,0.09,0.08,-0.99,3.60,5.37,-10.74
26.7590,0.08,0.11,-0.99,3.85,5.25,-8.91
26.7750,0.07,0.12,-0.99,3.72,5.37,-7.87
26.7920,0.07,0.15,-0.98,3.30,4.88,-6.90
26.8070,0.05,0.19,-0.98,3.85,4.94,-9.64
26.8220,0.08,0.14,-0.98,3.05,5.31,-8.48
26.8360,0.10,0.10,-0.99,2.38,5.68,-9.64
26.8410,0.10,0.10,-0.99,2.56,5.98,-12.21
26.8660,0.10,0.08,-0.99,4.21,6.41,-16.30
26.8820,0.09,0.10,-0.99,4.70,6.16,-16.42
26.8910,0.09,0.11,-1.00,2.44,6.23,-15.38
26.9080,0.08,0.11,-0.98,1.71,5.80,-14.53
26.9260,0.06,0.17,-0.98,3.17,5.55,-10.56
26.9410,0.08,0.17,-0.98,2.81,4.94,-4.15
26.9570,0.05,0.19,-0.98,2.26,4.58,-3.36
26.9710,0.06,0.16,-0.98,1.77,3.97,-0.55
26.9870,0.07,0.15,-0.98,1.53,3.85,0.85
26.9920,0.07,0.13,-0.98,1.59,3.36,0.98
27.0160,0.07,0.12,-0.98,2.14,3.36,1.34
27.0240,0.08,0.13,-0.99,2.20,3.66,1.16
27.0420,0.08,0.13,-0.99,2.01,3.78,1.28
27.0580,0.08,0.13,-0.99,1.89,3.42,1.16
27.0770,0.08,0.13,-0.98,1.40,3.72,1.28
27.0920,0.09,0.13,-0.98,1.65,3.60,1.16
27.1070,0.08,0.12,-1.00,3.36,3.30,1.65
27.1230,0.08,0.11,-0.99,4.70,3.36,1.83
27.1250,0.08,0.10,-0.99,5.19,3.30,1.83
27.1420,0.10,0.06,-1.00,5.37,3.66,1.46
27.1690,0.04,0.09,-1.00,3.72,3.48,-0.49
27.1840,0.07,0.10,-0.99,2.20,2.93,3.60
27.1910,0.08,0.09,-0.99,1.77,4.27,-2.20
27.2090,0.09,0.14,-0.99,2.01,4.33,-5.68
27.2250,0.09,0.15,-0.98,1.89,5.07,-7.39
27.2420,0.10,0.13,-0.98,3.17,5.55,-8.91
27.2580,0.09,0.14,-0.99,4.52,5.55,-10.80
27.2750,0.09,0.12,-0.99,4.27,5.55,-12.08
27.2920,0.09,0.10,-0.99,4.39,6.23,-14.59
27.3080,0.05,0.13,-1.00,5.80,6.41,-17.15
27.3260,0.07,0.14,-0.98,3.23,5.25,-12.63
27.3420,0.06,0.13,-0.98,3.36,5.19,-11.11
27.3580,0.07,0.14,-0.98,2.44,5.07,-6.65
27.3730,0.08,0.15,-0.98,2.50,4.70,-5.37
27.3740,0.09,0.14,-0.98,3.30,5.07,-6.16
27.3910,0.09,0.15,-0.98,3.23,5.00,-7.14
27.4080,0.09,0.15,-0.98,3.11,4.64,-5.68
27.4250,0.08,0.13,-0.98,3.23,4.52,-4.64
27.4420,0.08,0.12,-0.99,3.60,4.52,-4.33
27.4590,0.09,0.09,-0.99,3.54,4.64,-5.13
27.4760,0.08,0.07,-0.99,3.78,5.19,-8.36
27.4920,0.05,0.13,-1.01,4.21,5.37,-8.73
27.5090,0.07,0.14,-0.98,1.89,4.46,-3.17
27.5260,0.08,0.14,-0.98,2.20,4.27,-2.93
27.5410,0.09,0.21,-0.98,2.56,4.27,-2.14
27.5420,0.09,0.17,-0.98,1.65,3.54,0.92
27.5590,0.08,0.13,-0.98,1.83,3.48,1.71
27.5760,0.08,0.12,-0.98,2.32,3.42,1.83
27.6000,0.08,0.12,-0.99,2.81,3.66,1.95
27.6160,0.08,0.12,-0.99,2.93,3.54,1.83
27.6250,0.08,0.13,-0.99,2.62,3.66,1.89
27.6420,0.08,0.13,-0.99,1.65,3.36,1.65
27.6580,0.08,0.14,-0.98,0.79,3.48,1.59
27.6750,0.08,0.15,-0.98,1.04,3.36,3.11
27.6920,0.05,0.16,-0.98,2.38,2.75,6.90
27.7090,0.07,0.19,-0.99,2.44,0.73,22.64
27.7250,0.15,0.04,-1.00,2.08,0.43,22.40
27.7400,0.08,0.10,-0.99,3.23,3.42,1.28
27.7430,0.10,0.10,-0.99,4.82,3.85,0.00
27.7600,0.12,0.08,-0.99,4.70,5.07,-8.06
27.7770,0.10,0.13,-0.99,4.03,5.55,-10.62
27.7930,0.08,0.14,-0.98,3.05,5.49,-9.22
27.8100,0.09,0.14,-0.99,2.69,4.70,-5.25
27.8260,0.13,0.11,-0.98,2.14,4.15,-2.01
27.8440,0.11,0.15,-0.99,2.14,4.15,-3.36
27.8590,0.06,0.16,-0.98,1.34,3.91,-2.87
27.8770,0.06,0.15,-0.98,0.98,3.97,-0.06
27.8930,0.08,0.14,-0.98,2.50,3.36,3.23
27.9090,0.05,0.08,-1.00,3.60,3.42,4.82
27.9260,0.07,0.11,-0.99,3.23,3.30,2.01
27.9270,0.08,0.13,-0.99,3.17,3.72,1.95
27.9570,0.10,0.13,-0.98,3.23,3.78,1.40
27.9720,0.11,0.12,-0.99,2.50,4.52,-1.77
27.9870,0.10,0.12,-0.99,2.38,4.76,-5.68
28.0030,0.08,0.13,-0.98,2.44,4.64,-5.86
28.0190,0.07,0.14,-0.99,2.44,4.27,-3.05
28.0270,0.06,0.15,-0.99,1.04,3.42,1.40
28.0430,0.06,0.22,-0.97,-1.28,3.05,5.80
28.0610,-0.07,0.23,-0.95,14.95,-1.04,35.95
28.0760,0.10,0.11,-1.01,-1.22,-3.48,54.99
28.0940,0.13,-0.02,-0.99,-2.75,-1.95,39.67
28.1100,0.11,0.10,-1.00,4.39,2.44,8.12
28.1250,0.09,0.12,-0.99,4.58,3.85,1.71
28.1390,0.09,0.12,-0.99,4.76,4.46,-0.98
28.1550,0.11,0.11,-0.99,4.33,4.70,-5.43
28.1590,0.08,0.14,-0.99,3.97,5.43,-11.05
28.1850,0.08,0.14,-0.98,3.36,5.13,-7.75
28.2000,0.10,0.13,-0.99,3.78,4.82,-7.87
28.2100,0.05,0.18,-0.99,3.23,4.82,-8.67
28.2260,0.07,0.13,-0.98,-0.12,3.60,0.18
28.2430,0.07,0.12,-0.99,1.83,3.48,1.77
28.2600,0.07,0.13,-0.99,2.26,2.99,4.21
28.2760,0.08,0.11,-0.99,2.44,2.62,9.03
28.2770,0.11,0.10,-0.99,2.62,3.23,5.31
28.2930,0.09,0.12,-0.98,3.36,3.72,2.81
28.3210,0.09,0.12,-0.99,4.33,4.15,1.77
28.3360,0.11,0.10,-0.99,4.21,4.46,-3.30
28.3430,0.11,0.11,-0.98,3.85,5.37,-10.68
28.3670,0.09,0.12,-0.99,4.33,5.62,-13.12
28.3760,0.09,0.13,-0.99,4.03,5.43,-12.21
28.3940,0.06,0.14,-0.99,2.99,5.98,-14.47
28.4090,0.06,0.15,-0.98,1.71,3.97,-3.78
28.4270,0.08,0.13,-0.98,0.24,3.36,1.95
28.4430,0.07,0.12,-0.98,1.22,3.42,3.23
28.4570,0.06,0.13,-0.98,2.20,3.05,5.49
28.4730,0.10,0.11,-0.99,2.87,3.23,7.32
28.4870,0.09,0.12,-0.99,2.26,3.54,2.87
28.5020,0.08,0.12,-0.98,2.56,3.54,1.53
28.5170,0.08,0.13,-0.98,2.99,3.97,1.04
28.5260,0.09,0.12,-0.99,3.36,3.91,0.37
28.5430,0.09,0.12,-0.99,3.42,4.09,-1.34
28.5600,0.08,0.13,-0.99,3.42,4.15,-2.01
28.5760,0.07,0.14,-0.99,2.56,3.72,-0.06
28.5940,0.08,0.13,-0.99,2.20,3.60,1.77
28.6080,0.08,0.12,-0.98,1.71,3.36,1.89
28.6240,0.08,0.12,-0.98,2.20,3.48,2.08
28.6390,0.08,0.12,-0.99,2.75,3.42,1.95
28.6440,0.08,0.13,-0.99,2.69,3.72,1.83
28.6690,0.08,0.13,-0.98,2.32,3.78,1.46
28.6850,0.08,0.12,-0.98,2.44,3.85,1.40
28.6930,0.08,0.13,-0.99,2.99,3.91,1.34
28.7100,0.08,0.13,-0.99,3.11,3.54,0.98
28.7250,0.08,0.12,-0.99,3.17,3.54,1.04
28.7430,0.08,0.12,-0.99,2.99,3.97,1.22
28.7590,0.08,0.12,-0.99,2.62,3.23,1.59
28.7760,0.08,0.13,-1.00,2.69,3.48,2.14
28.7910,0.08,0.12,-0.99,2.50,3.54,2.26
28.7980,0.08,0.12,-0.99,2.20,3.30,2.62
28.8130,0.08,0.13,-0.99,2.69,3.36,2.87
28.8370,0.09,0.13,-0.98,2.56,3.42,3.23
28.8540,0.09,0.13,-0.99,2.69,3.60,2.81
28.8700,0.09,0.13,-0.98,2.62,3.66,2.38
28.8700,0.08,0.12,-0.99,2.93,3.66,1.89
28.8870,0.08,0.12,-0.99,2.99,3.66,1.89
28.9040,0.08,0.13,-0.99,2.81,3.66,2.01
28.9210,0.08,0.12,-0.99,2.75,3.72,1.95
28.9370,0.08,0.12,-0.99,2.87,3.72,1.95
28.9540,0.08,0.13,-0.99,2.56,3.17,2.01
28.9710,0.08,0.13,-0.99,2.08,3.48,2.01
28.9870,0.08,0.13,-0.99,2.32,3.42,1.89
29.0030,0.08,0.13,-0.98,2.32,3.54,1.89
29.0230,0.08,0.13,-0.99,2.44,3.36,2.01
29.0260,0.08,0.12,-0.99,2.56,3.30,2.08
29.0420,0.08,0.12,-0.99,2.93,3.48,2.14
29.0590,0.08,0.12,-0.99,2.93,3.48,2.26
29.0850,0.08,0.13,-0.99,3.05,3.54,2.14
29.0920,0.08,0.13,-0.99,2.69,3.42,2.08
29.1080,0.08,0.13,-0.99,2.56,3.48,1.83
29.1250,0.08,0.13,-0.99,2.38,3.54,1.77
29.1410,0.08,0.13,-1.01,2.50,3.54,2.01
29.1580,0.08,0.12,-0.99,2.50,3.36,2.20
29.1750,0.08,0.13,-0.98,2.56,3.72,2.26
29.1920,0.09,0.13,-0.99,2.75,3.48,2.08
29.2080,0.08,0.13,-0.98,2.87,3.66,2.01
29.2240,0.08,0.13,-0.99,3.23,3.48,1.83
29.2400,0.08,0.13,-0.99,3.30,3.66,2.01
29.2430,0.08,0.12,-0.98,3.17,3.85,2.08
29.2590,0.08,0.12,-0.99,3.23,3.66,2.44
29.2750,0.08,0.13,-0.99,2.87,3.54,2.87
29.2910,0.08,0.13,-0.99,2.44,3.42,2.69
29.3130,0.08,0.12,-0.99,2.50,3.36,2.75
29.3300,0.08,0.12,-0.99,2.26,3.48,3.72
29.3460,0.08,0.13,-0.99,2.14,3.36,3.78
29.3610,0.08,0.13,-0.98,1.83,3.60,3.17
29.3640,0.08,0.13,-0.99,2.26,3.78,2.69
29.3800,0.08,0.13,-0.99,2.20,3.54,2.56
29.4090,0.08,0.13,-0.99,1.95,3.42,2.32
29.4140,0.08,0.12,-0.99,2.01,3.72,2.20
29.4410,0.08,0.12,-0.99,2.56,3.97,2.26
29.4570,0.08,0.13,-0.99,2.50,3.42,2.44
29.4730,0.08,0.13,-0.99,2.44,3.72,2.26
29.4890,0.08,0.12,-0.99,1.95,3.36,2.32
29.5040,0.08,0.13,-0.99,1.71,3.42,2.93
29.5190,0.08,0.13,-0.98,1.46,3.48,3.11
29.5300,0.08,0.13,-0.99,2.14,3.30,2.99
29.5460,0.08,0.13,-0.98,2.26,3.66,2.62
29.5640,0.08,0.13,-0.99,2.75,3.66,2.20
29.5800,0.08,0.13,-0.99,2.69,3.48,1.89
29.5960,0.08,0.13,-0.99,2.87,3.60,1.71
29.6120,0.08,0.13,-0.99,2.69,3.42,1.89
29.6270,0.08,0.13,-0.99,1.95,3.54,1.65
29.6420,0.08,0.12,-0.99,1.46,3.72,1.77
29.6570,0.08,0.12,-0.99,1.71,3.66,2.01
29.6630,0.08,0.12,-0.99,1.83,3.54,2.26
29.6870,0.08,0.12,-0.99,1.71,3.48,2.62
29.7020,0.08,0.12,-0.99,1.77,3.48,3.72
29.7130,0.08,0.12,-0.98,0.06,4.03,4.33
29.7290,0.09,0.13,-0.98,0.73,3.78,3.91
29.7490,0.08,0.12,-0.98,2.87,3.48,2.75
29.7650,0.08,0.13,-0.99,4.52,3.30,2.20
29.7810,0.08,0.12,-0.99,2.62,3.48,2.38
29.7970,0.07,0.12,-0.99,1.83,3.42,2.75
29.8120,0.04,0.10,-0.97,-1.89,3.66,4.64
29.8270,0.08,0.12,-1.00,2.62,2.62,8.61
29.8420,0.09,0.13,-0.99,1.46,2.93,7.75
29.8500,0.10,0.14,-0.99,-1.40,3.36,6.47
29.8660,0.10,0.13,-0.98,-2.32,3.54,5.74
29.8840,0.10,0.11,-0.97,-0.37,3.78,4.27
29.9000,0.08,0.11,-0.98,5.80,2.75,2.87
29.9170,0.08,0.14,-1.01,6.35,2.81,2.38
29.9340,0.04,0.13,-1.01,0.67,3.48,2.75
29.9490,0.04,0.11,-0.98,-1.95,3.36,7.57
29.9650,0.07,0.12,-0.99,-0.31,2.75,10.19
29.9810,0.09,0.12,-0.98,1.16,2.75,9.52
29.9980,0.10,0.12,-0.98,2.01,2.75,7.08
30.0130,0.11,0.11,-0.95,1.89,3.11,4.70
30.0280,0.09,0.11,-0.98,4.03,3.17,3.17
30.0440,0.08,0.12,-0.99,5.00,2.93,2.81
30.0600,0.08,0.11,-0.98,5.80,3.05,2.93
30.0660,0.08,0.12,-0.99,6.96,2.69,2.81
30.0820,0.08,0.13,-1.00,6.65,2.75,2.62
30.1050,0.08,0.12,-0.99,3.11,3.30,2.56
30.1210,0.08,0.12,-0.99,2.99,3.54,2.44
30.1220,0.08,0.13,-0.99,2.87,3.30,2.32
30.1530,0.09,0.12,-0.99,2.81,3.54,2.26
30.1540,0.08,0.13,-0.98,2.99,3.60,2.08
30.1710,0.08,0.13,-0.99,3.05,3.30,1.83
30.2010,0.08,0.13,-1.00,3.17,3.23,1.89
30.2040,0.08,0.12,-0.99,3.17,3.42,1.83
30.2210,0.08,0.12,-0.99,3.05,3.30,1.77
30.2490,0.08,0.13,-0.99,2.75,3.78,1.89
30.2640,0.08,0.13,-0.99,2.50,3.42,1.89
30.2740,0.08,0.13,-0.99,2.56,3.66,1.95
30.2900,0.08,0.12,-0.98,2.38,3.85,1.95
30.3080,0.08,0.13,-0.98,2.26,3.72,1.89
30.3240,0.08,0.13,-0.99,2.38,3.78,1.71
30.3400,0.08,0.12,-0.98,2.20,3.66,1.59
30.3560,0.08,0.13,-0.99,2.87,3.85,1.40
30.3720,0.08,0.12,-0.99,2.62,3.78,1.28
30.3740,0.08,0.12,-0.99,2.93,3.60,1.16
30.4040,0.08,0.12,-0.99,2.81,3.66,1.16
30.4070,0.08,0.13,-0.99,2.93,3.54,1.28
30.4240,0.08,0.12,-0.98,2.50,3.54,1.46
30.4400,0.08,0.12,-0.99,2.75,3.42,1.53
30.4590,0.08,0.13,-0.99,2.75,3.42,1.77
30.4760,0.08,0.13,-0.99,2.50,3.36,2.08
30.4930,0.08,0.13,-0.99,2.69,3.48,2.08
30.5100,0.08,0.13,-0.99,2.69,3.66,2.01
30.5250,0.08,0.13,-0.99,2.50,3.66,2.08
30.5420,0.08,0.13,-0.99,2.56,3.85,1.95
30.5430,0.08,0.13,-0.99,2.81,3.60,1.83
30.5740,0.08,0.13,-0.99,2.62,3.36,1.71
30.5770,0.08,0.12,-0.99,2.62,3.05,1.77
30.5930,0.08,0.13,-0.99,2.56,3.78,1.77
30.6090,0.08,0.13,-0.99,2.62,3.66,1.83
30.6320,0.08,0.13,-0.99,2.62,3.54,1.71
30.6490,0.08,0.13,-0.99,2.26,3.48,1.77
30.6660,0.08,0.12,-0.98,1.34,3.17,1.71
30.6810,0.08,0.12,-0.99,2.14,3.91,2.01
30.6980,0.08,0.13,-0.99,2.69,3.78,2.01
30.7150,0.08,0.12,-0.98,2.44,3.60,1.95
30.7310,0.08,0.13,-0.99,2.62,3.91,1.83
30.7460,0.08,0.13,-0.99,2.99,4.03,2.01
30.7490,0.08,0.13,-0.99,3.11,3.85,1.71
30.7640,0.08,0.13,-0.99,2.93,3.60,1.83
30.7910,0.08,0.12,-0.99,2.99,3.91,1.53
30.8070,0.08,0.12,-0.99,2.81,3.85,1.04
30.8230,0.08,0.13,-0.99,2.81,3.78,1.10
30.8390,0.08,0.13,-0.99,2.20,3.48,1.40
30.8550,0.08,0.13,-0.99,2.38,3.48,1.71
30.8710,0.08,0.13,-0.99,2.50,3.66,1.65
30.8870,0.08,0.13,-0.99,2.32,3.54,1.77
30.9030,0.08,0.13,-0.99,2.38,3.60,1.95
30.9180,0.08,0.12,-0.99,2.38,3.48,1.95
30.9330,0.08,0.12,-0.99,2.26,3.78,2.20
30.9480,0.08,0.13,-0.99,2.44,3.23,2.14
30.9590,0.08,0.12,-0.99,2.93,3.42,2.01
30.9750,0.08,0.13,-0.99,2.75,3.60,2.08
30.9920,0.08,0.13,-0.99,2.81,3.91,2.14
31.0090,0.08,0.13,-0.99,2.75,3.78,2.08
31.0250,0.08,0.13,-0.99,2.75,3.85,2.01
31.0400,0.08,0.13,-0.99,2.56,3.23,1.83
31.0560,0.08,0.13,-0.99,2.44,3.91,1.77
31.0730,0.08,0.13,-0.99,2.38,3.85,1.77
31.0880,0.08,0.13,-0.99,2.62,3.30,1.77
31.1040,0.08,0.12,-0.99,2.56,3.17,1.77
31.1200,0.08,0.12,-0.98,2.69,3.66,2.14
31.1360,0.08,0.12,-0.99,2.75,3.78,2.14
31.1430,0.08,0.13,-0.99,2.69,3.85,2.08
31.1590,0.08,0.13,-0.99,2.75,3.78,1.95
31.1820,0.08,0.13,-0.99,2.81,3.66,1.46
31.1830,0.08,0.12,-0.99,2.81,3.97,0.49
31.2130,0.08,0.12,-0.99,2.81,4.09,-0.37
31.2160,0.08,0.12,-0.99,2.81,4.09,-0.67
31.2430,0.08,0.13,-0.99,2.81,4.09,-0.55
31.2490,0.08,0.13,-0.99,2.56,3.85,-0.31
31.2650,0.08,0.13,-0.99,2.26,3.91,0.85
31.2860,0.08,0.13,-0.99,2.08,3.60,1.65
31.3020,0.08,0.13,-0.99,1.95,3.54,1.83
31.3190,0.08,0.13,-0.99,1.77,3.72,1.95
31.3350,0.08,0.13,-0.98,2.14,3.97,2.08
31.3520,0.08,0.12,-0.98,1.95,3.23,2.20
31.3680,0.08,0.12,-0.99,2.38,3.36,2.38
31.3830,0.08,0.12,-0.99,2.87,3.54,2.20
31.3990,0.08,0.12,-0.99,3.17,3.66,1.95
31.4140,0.08,0.13,-0.99,2.99,3.66,1.77
31.4290,0.08,0.12,-0.99,2.87,3.60,1.65
31.4440,0.08,0.13,-0.99,2.93,3.54,1.53
31.4600,0.08,0.13,-0.99,2.56,3.60,1.16
31.4680,0.08,0.12,-0.99,2.38,3.42,1.53
31.4860,0.08,0.13,-0.99,2.20,3.42,1.65
31.5020,0.08,0.13,-0.99,2.26,3.60,2.01
31.5180,0.08,0.13,-0.99,2.20,3.60,1.89
31.5350,0.08,0.12,-0.99,2.08,3.72,1.89
31.5510,0.08,0.12,-0.99,2.20,3.60,2.26
31.5650,0.08,0.13,-0.99,2.32,3.23,2.62
31.5810,0.08,0.12,-0.99,2.62,3.30,2.99
31.5950,0.08,0.12,-0.99,2.50,3.36,3.11
31.6110,0.08,0.12,-0.99,2.69,3.66,3.11
31.6250,0.08,0.13,-0.99,2.69,3.54,2.62
31.6350,0.08,0.12,-0.99,2.75,3.48,2.26
31.6530,0.08,0.13,-0.99,2.75,3.60,1.89
31.6680,0.08,0.13,-0.99,2.56,3.78,1.77
31.6850,0.08,0.12,-0.99,2.69,3.72,1.83
31.7010,0.08,0.12,-0.99,2.75,3.54,1.83
31.7160,0.08,0.12,-0.99,2.81,3.78,1.95
31.7320,0.08,0.12,-0.99,2.69,3.60,1.89
31.7460,0.08,0.12,-0.99,2.50,3.72,1.89
31.7620,0.08,0.13,-0.99,2.56,3.66,2.08
31.7690,0.08,0.13,-0.99,2.38,3.72,2.20
31.7860,0.08,0.13,-0.99,2.50,3.66,2.01
31.8010,0.08,0.13,-0.99,2.56,3.54,2.14
31.8190,0.08,0.13,-0.99,2.44,3.48,2.26
31.8350,0.08,0.13,-0.99,2.38,3.42,2.20
31.8510,0.08,0.13,-0.99,1.95,3.23,2.99
31.8660,0.08,0.13,-0.99,1.89,3.30,4.21
31.8810,0.08,0.12,-0.98,1.10,3.54,4.76
31.8980,0.09,0.12,-0.99,3.05,3.05,4.64
31.9130,0.09,0.12,-0.99,2.93,3.54,2.44
31.9190,0.08,0.12,-0.99,3.17,3.48,1.34
31.9350,0.08,0.12,-0.99,2.87,3.78,1.40
31.9540,0.08,0.12,-0.99,2.87,3.60,1.40
31.9700,0.08,0.12,-0.99,2.62,3.78,1.65
31.9870,0.08,0.12,-0.99,2.75,3.60,1.89
32.0030,0.08,0.13,-0.99,2.62,3.60,2.14
32.0200,0.08,0.13,-0.99,2.50,3.54,2.26
32.0210,0.08,0.13,-0.99,2.20,3.66,2.69
32.0370,0.07,0.13,-0.99,1.95,3.48,3.91
32.0540,0.06,0.13,-0.98,1.89,3.05,4.88
32.0700,0.03,0.15,-0.99,1.95,2.69,8.06
32.0870,0.07,0.11,-0.99,1.65,2.14,11.78
32.1040,0.10,0.10,-0.99,2.01,2.26,10.07
32.1200,0.11,0.11,-0.98,2.75,2.87,6.77
32.1370,0.11,0.13,-0.99,2.81,3.23,4.82
32.1540,0.09,0.13,-0.98,2.01,3.60,3.23
32.1710,0.09,0.13,-0.98,2.38,3.42,2.44
32.1870,0.09,0.12,-0.98,2.20,3.54,2.32
32.2070,0.08,0.13,-0.99,2.38,3.42,1.95
32.2230,0.06,0.13,-0.99,1.59,3.42,2.20
32.2390,0.05,0.13,-0.99,2.14,3.17,5.62
32.2560,0.06,0.13,-0.99,2.20,2.62,7.39
32.2720,0.05,0.13,-0.98,2.26,2.56,8.24
32.2740,0.06,0.14,-0.99,2.38,3.17,5.55
32.2900,0.10,0.12,-0.99,1.40,2.99,5.43
32.3070,0.09,0.12,-0.99,1.16,2.69,6.71
32.3240,0.09,0.11,-0.99,1.46,2.75,5.55
32.3390,0.08,0.12,-0.99,1.89,2.87,4.70
32.3570,0.08,0.13,-0.99,1.95,2.81,4.46
32.3740,0.07,0.14,-0.98,2.32,2.81,4.52
32.3990,0.06,0.14,-0.99,2.01,3.05,4.64
32.4130,0.05,0.14,-0.97,0.67,2.69,7.08
32.4230,0.06,0.14,-0.98,0.31,1.83,11.60
32.4400,0.08,0.09,-0.99,2.75,1.95,10.62
32.4570,0.10,0.09,-0.99,2.56,2.56,7.32
32.4740,0.09,0.10,-0.99,2.38,3.05,3.91
32.4740,0.10,0.12,-0.99,2.56,3.60,2.62
32.4910,0.10,0.13,-0.98,2.87,3.78,1.95
32.5070,0.09,0.14,-0.99,2.93,3.72,1.22
32.5230,0.10,0.14,-0.98,2.32,3.48,2.26
32.5400,0.07,0.16,-0.99,1.89,2.87,4.33
32.5570,0.08,0.15,-1.00,0.49,2.08,10.74
32.5730,0.08,0.09,-0.97,-2.50,2.20,15.32
32.5900,0.10,0.07,-0.98,4.46,1.16,14.53
32.6060,0.11,0.08,-0.99,4.58,2.87,6.96
32.6230,0.09,0.11,-0.99,3.78,3.60,1.40
32.6490,0.09,0.12,-0.99,3.23,4.03,-2.14
32.6570,0.10,0.13,-0.98,3.11,3.97,-3.23
32.6740,0.11,0.14,-0.98,2.81,4.27,-3.66
32.6900,0.11,0.14,-0.99,2.56,3.85,-1.65
32.7060,-0.01,0.22,-0.99,0.61,3.97,0.98
32.7230,0.03,0.23,-1.02,-7.45,4.27,12.33
32.7400,0.09,0.06,-0.97,1.22,1.34,21.24
32.7570,0.10,0.05,-0.98,4.09,1.77,14.53
32.7740,0.10,0.10,-1.00,5.92,1.46,12.82
32.7890,0.11,0.09,-0.99,5.00,2.14,9.22
32.7910,0.09,0.12,-0.99,4.21,3.42,3.17
32.8210,0.08,0.13,-0.99,2.87,3.48,2.08
32.8240,0.08,0.13,-0.99,2.26,3.60,1.89
32.8540,0.08,0.13,-0.99,2.50,3.36,2.08
32.8690,0.07,0.13,-0.99,1.95,3.30,2.50
32.8730,0.06,0.12,-0.98,2.20,3.30,4.27
32.8880,0.06,0.11,-0.98,3.05,3.05,5.68
32.9110,0.08,0.10,-0.99,3.11,2.75,5.13
32.9290,0.09,0.11,-0.99,2.14,4.15,3.23
32.9450,0.09,0.12,-0.99,3.05,3.78,1.77
32.9620,0.08,0.14,-0.99,2.56,3.91,0.61
32.9770,0.08,0.13,-0.99,2.08,4.15,-0.55
32.9920,0.07,0.12,-0.99,2.44,4.39,-1.46
33.0070,0.05,0.12,-0.99,2.75,4.03,-3.36
33.0230,0.03,0.13,-0.99,2.75,4.21,-3.11
33.0390,-0.03,0.14,-1.00,0.61,3.42,0.92
33.0540,0.07,0.10,-0.99,1.95,3.05,3.36
33.0640,0.06,0.10,-1.01,3.11,3.11,4.15
33.0800,0.11,0.09,-0.98,1.28,3.78,3.17
33.0950,0.13,0.10,-0.99,2.87,3.36,1.28
33.1130,0.14,0.14,-0.99,4.27,4.39,-2.99
33.1290,0.12,0.13,-0.98,2.38,4.46,-4.33
33.1390,0.12,0.15,-0.98,2.56,4.33,-4.52
33.1560,0.09,0.14,-0.98,2.44,3.85,-2.75
33.1720,0.08,0.13,-0.99,2.44,4.03,-2.38
33.1880,0.07,0.14,-0.98,1.77,4.52,-2.69
33.2060,0.06,0.14,-0.99,0.92,4.76,-2.14
33.2220,0.06,0.11,-0.99,-1.46,5.74,-2.38
33.2390,0.10,0.11,-0.99,-5.43,6.96,-2.26
33.2550,0.10,0.11,-0.98,-5.43,7.14,-3.11
33.2710,0.09,0.10,-0.99,-3.91,6.90,-3.78
33.2720,0.10,0.10,-0.98,-1.53,6.47,-5.37
33.3020,0.10,0.10,-0.98,3.54,5.00,-6.59
33.3160,0.11,0.12,-0.99,7.57,3.91,-5.80
33.3220,0.10,0.13,-0.99,7.02,2.99,-1.71
33.3390,0.09,0.11,-0.98,5.98,2.44,1.28
33.3560,0.08,0.10,-0.97,8.36,2.20,1.89
33.3720,0.11,0.19,-1.08,16.17,0.43,2.08
33.3890,0.12,0.09,-1.00,4.52,3.23,-0.85
33.4050,0.08,0.11,-0.99,3.66,4.33,-5.31
33.4220,0.08,0.11,-0.98,3.48,4.88,-8.30
33.4390,0.09,0.12,-0.99,3.78,4.82,-8.97
33.4560,0.08,0.13,-0.99,3.30,4.94,-7.87
33.4710,0.08,0.14,-0.99,2.87,4.64,-5.49
33.4730,0.11,0.12,-0.99,2.38,3.91,-2.75
33.4880,0.11,0.11,-0.98,2.50,3.66,-1.77
33.5050,0.11,0.11,-0.99,3.05,3.54,-0.31
33.5350,0.11,0.11,-0.99,2.87,3.60,-0.37
33.5390,0.10,0.11,-1.00,2.87,3.23,-1.16
33.5540,0.07,0.13,-0.98,2.56,3.30,-0.12
33.5780,0.04,0.13,-0.98,2.87,3.11,0.61
33.5950,-0.01,0.17,-0.99,2.56,3.23,1.16
33.6120,0.04,0.15,-0.99,1.40,3.91,0.85
33.6280,0.08,0.14,-1.00,-0.06,4.15,0.92
33.6430,0.08,0.11,-0.98,-3.05,4.76,1.22
33.6580,0.08,0.11,-0.98,-1.46,4.39,1.46
33.6620,0.08,0.11,-0.98,1.10,3.97,2.01
33.6780,0.08,0.11,-0.99,3.42,3.30,2.14
33.7010,0.08,0.12,-0.99,3.30,3.72,1.83
33.7170,0.08,0.12,-0.99,2.44,3.72,1.28
33.7340,0.08,0.13,-0.99,1.46,3.91,1.16
33.7510,0.08,0.12,-0.99,0.31,4.27,0.85
33.7670,0.08,0.12,-0.99,-0.37,4.70,-0.73
33.7830,0.06,0.12,-1.00,-0.73,4.94,-2.20
33.8000,0.04,0.12,-1.00,-4.33,5.86,-2.87
33.8160,0.07,0.11,-0.98,-6.23,6.77,-3.72
33.8320,0.08,0.09,-0.97,-4.15,6.04,-2.32
33.8470,0.09,0.10,-0.99,0.49,4.58,0.06
33.8620,0.10,0.10,-0.99,1.71,4.03,1.83
33.8770,0.10,0.10,-0.99,2.08,3.48,2.62
33.8920,0.09,0.11,-0.99,2.81,3.42,2.50
33.9080,0.08,0.11,-0.99,2.69,3.60,2.32
33.9230,0.07,0.11,-0.99,1.83,3.42,1.71
33.9330,0.05,0.11,-0.99,1.16,3.78,1.40
33.9490,0.04,0.11,-1.01,-0.67,4.82,0.67
33.9710,0.05,0.09,-1.00,-1.89,5.68,-1.16
33.9730,0.07,0.09,-0.99,-2.08,5.55,-2.87
34.0030,0.09,0.09,-0.98,-1.16,5.43,-3.23
34.0190,0.10,0.09,-0.99,2.20,5.00,-3.36
34.0230,0.11,0.12,-0.98,2.93,4.27,-0.06
34.0390,0.09,0.11,-0.99,2.81,3.72,1.83
34.0540,0.08,0.10,-0.99,2.87,3.66,1.71
34.0770,0.08,0.10,-0.99,3.05,3.60,1.83
34.0950,0.08,0.10,-0.99,2.38,3.66,1.95
34.1100,0.07,0.11,-0.99,2.14,3.36,1.83
34.1260,0.07,0.09,-0.99,1.77,3.60,1.59
34.1280,0.07,0.10,-0.99,1.77,3.54,1.04
34.1440,0.07,0.11,-0.99,1.28,3.78,0.43
34.1720,0.08,0.10,-0.99,0.79,4.52,0.12
34.1830,0.09,0.09,-0.99,0.85,4.39,0.37
34.2000,0.10,0.09,-0.98,2.14,4.15,1.28
34.2170,0.09,0.10,-0.98,3.36,3.97,2.08
34.2320,0.12,0.06,-1.00,3.36,3.36,2.56
34.2500,0.09,0.09,-0.99,4.09,3.23,3.78
34.2660,0.06,0.10,-0.99,2.93,2.93,4.39
34.2820,0.05,0.11,-0.99,1.89,2.62,3.60
34.2980,0.05,0.11,-0.99,1.77,2.81,2.50
34.3000,0.07,0.10,-0.99,1.71,2.99,2.01
34.3160,0.08,0.10,-0.99,1.71,3.48,1.77
34.3410,0.08,0.10,-0.99,2.32,3.42,1.95
34.3580,0.08,0.10,-0.99,2.38,3.54,2.08
34.3740,0.08,0.10,-0.99,2.38,3.78,2.14
34.3910,0.08,0.10,-0.99,2.50,3.85,2.20
34.4070,0.08,0.10,-0.99,2.50,3.48,2.14
34.4220,0.07,0.10,-0.99,2.62,3.48,2.14
34.4370,0.08,0.10,-0.99,2.62,3.72,2.44
34.4410,0.07,0.10,-0.99,2.50,3.60,2.26
34.4580,0.07,0.10,-0.99,2.20,3.85,1.77
34.4740,0.08,0.10,-0.99,2.01,3.60,1.53
34.4910,0.08,0.10,-0.99,2.93,3.85,1.53
34.5070,0.08,0.10,-0.99,2.87,3.72,1.77
34.5240,0.08,0.10,-0.99,2.56,3.85,1.71
34.5410,0.08,0.10,-0.99,2.69,3.48,1.59
34.5560,0.08,0.10,-0.99,2.75,3.48,1.65
34.5710,0.08,0.10,-0.99,2.56,3.78,1.71
34.5860,0.08,0.10,-0.99,2.56,3.66,1.83
34.6010,0.08,0.09,-0.99,2.56,3.85,1.95
34.6160,0.08,0.10,-0.99,2.69,3.54,1.77
34.6240,0.08,0.10,-0.99,2.62,3.54,1.83
34.6410,0.08,0.10,-0.99,2.56,3.54,1.83
34.6580,0.07,0.10,-0.99,2.56,3.60,2.01
34.6740,0.07,0.10,-0.99,2.56,3.66,2.01
34.6910,0.07,0.10,-0.99,2.44,3.48,1.95
34.7060,0.08,0.10,-0.99,2.69,3.48,2.14
34.7220,0.07,0.10,-0.99,2.87,3.54,2.01
34.7250,0.07,0.10,-0.99,2.38,3.54,1.95
34.7420,0.08,0.10,-0.99,2.44,3.66,1.89
34.7570,0.08,0.10,-0.99,2.69,3.72,1.89
34.7780,0.08,0.10,-0.99,2.69,3.60,1.71
34.7960,0.07,0.10,-0.99,2.56,3.48,1.71
34.8110,0.07,0.10,-0.99,2.44,3.60,1.77
34.8280,0.07,0.10,-0.99,2.56,3.66,1.89
34.8290,0.07,0.10,-0.99,2.69,3.66,1.95
34.8450,0.07,0.10,-0.99,2.50,3.78,2.14
34.8750,0.07,0.10,-0.99,2.50,3.42,2.20
34.8780,0.08,0.10,-0.99,2.32,3.36,2.26
34.8940,0.08,0.10,-0.99,2.56,3.66,2.32
34.9220,0.08,0.10,-0.99,2.75,3.54,2.32
34.9310,0.08,0.10,-0.99,2.75,3.60,2.32
34.9470,0.08,0.10,-0.99,2.56,3.54,2.26
34.9650,0.08,0.10,-0.99,2.44,3.36,2.14
34.9830,0.08,0.10,-0.99,2.50,3.54,2.01
34.9980,0.08,0.10,-0.99,2.75,3.30,2.14
35.0150,0.08,0.10,-0.99,2.62,3.72,2.01
35.0310,0.08,0.10,-0.99,2.50,3.54,2.14
35.0470,0.08,0.10,-0.99,2.56,3.42,2.01
35.0630,0.07,0.10,-0.99,2.62,3.66,1.95
35.0790,0.07,0.10,-0.99,2.75,3.54,1.95
35.0940,0.08,0.10,-0.99,2.75,3.60,2.20
35.0980,0.08,0.10,-0.99,2.44,3.48,1.89
35.1140,0.08,0.10,-0.99,2.62,3.72,1.95
35.1290,0.08,0.10,-0.99,2.38,3.42,1.95
35.1530,0.08,0.10,-0.99,2.69,3.60,1.83
35.1700,0.08,0.10,-0.99,2.56,3.54,1.83
35.1870,0.08,0.10,-0.99,2.20,3.48,1.71
35.2030,0.08,0.10,-0.99,2.20,3.48,1.71
35.2190,0.08,0.10,-0.99,2.38,3.48,1.71
35.2200,0.08,0.10,-0.99,2.32,3.78,1.95
35.2510,0.07,0.10,-0.99,2.38,3.54,1.83
35.2530,0.07,0.10,-0.99,2.50,3.66,1.83
35.2690,0.07,0.10,-0.99,2.38,3.30,1.89
35.2920,0.08,0.10,-0.99,2.56,3.23,2.01
35.3090,0.08,0.10,-0.99,2.69,3.54,1.89
35.3250,0.08,0.10,-0.99,2.62,3.85,2.01
35.3430,0.08,0.10,-0.99,2.81,3.54,1.89
35.3450,0.08,0.10,-0.99,2.62,3.78,1.89
35.3750,0.08,0.10,-0.99,2.56,3.42,1.59
35.3780,0.07,0.10,-0.99,2.69,3.54,1.77
35.3940,0.07,0.10,-0.99,2.32,3.17,1.71
35.4090,0.07,0.10,-0.99,2.38,3.42,1.71
35.4320,0.07,0.10,-0.99,2.44,3.42,1.77
35.4480,0.08,0.10,-0.99,2.44,3.60,1.71
35.4650,0.08,0.10,-0.99,2.62,3.48,1.83
35.4820,0.08,0.10,-0.99,2.56,3.66,1.95
35.4980,0.08,0.10,-0.99,2.50,3.42,1.89
35.5140,0.08,0.10,-0.99,2.56,3.60,2.01
35.5290,0.07,0.10,-0.99,2.56,3.78,1.83
35.5450,0.07,0.10,-0.99,2.62,3.66,1.89
35.5610,0.07,0.10,-0.99,2.62,3.23,1.89
35.5770,0.08,0.10,-0.99,2.75,3.42,1.95
35.5820,0.08,0.10,-0.99,2.93,3.48,2.01
35.5980,0.08,0.10,-0.99,2.69,3.42,2.01
35.6210,0.08,0.10,-0.99,2.62,3.48,1.95
35.6390,0.08,0.10,-0.99,2.62,3.54,2.08
35.6550,0.08,0.10,-0.99,2.50,3.66,2.01
35.6700,0.08,0.10,-0.99,2.56,3.66,2.01
35.6870,0.08,0.09,-0.99,2.50,3.48,2.14
35.6880,0.07,0.10,-0.99,2.62,3.36,2.01
35.7200,0.08,0.10,-0.99,2.50,3.54,2.01
35.7210,0.08,0.10,-0.99,2.69,3.54,2.20
35.7380,0.08,0.10,-0.99,2.75,3.60,2.38
35.7680,0.08,0.10,-0.99,2.99,3.78,2.38
35.7830,0.08,0.09,-0.99,2.81,3.72,2.56
35.8000,0.08,0.10,-0.99,2.87,3.36,2.69
35.8040,0.07,0.10,-0.99,2.56,3.36,2.62
35.8200,0.07,0.10,-0.99,2.56,3.48,2.44
35.8450,0.07,0.10,-0.99,2.26,3.78,2.26
35.8620,0.08,0.10,-0.99,2.44,3.42,2.32
35.8780,0.08,0.10,-0.99,2.56,3.36,2.32
35.8930,0.08,0.10,-0.99,2.62,3.60,2.08
35.8950,0.08,0.10,-0.99,2.56,3.30,2.01
35.9110,0.08,0.10,-0.99,2.81,3.42,1.95
35.9330,0.08,0.10,-0.99,3.11,3.54,1.83
35.9500,0.08,0.10,-0.99,2.99,3.72,1.95
35.9670,0.08,0.10,-0.99,2.93,3.60,2.01
35.9840,0.08,0.10,-0.99,2.75,3.36,1.71
36.0000,0.08,0.10,-0.99,2.44,3.54,1.89
36.0180,0.08,0.10,-0.99,2.14,3.36,1.65
36.0340,0.07,0.10,-0.99,2.26,3.36,1.77
36.0490,0.07,0.10,-0.99,2.26,3.60,2.08
36.0660,0.07,0.10,-0.99,2.44,3.05,2.08
36.0680,0.07,0.10,-0.99,2.50,3.48,2.14
36.0980,0.08,0.10,-0.99,2.56,3.42,2.14
36.1000,0.08,0.10,-0.99,2.81,3.66,2.26
36.1290,0.08,0.10,-0.99,2.81,3.54,2.14
36.1340,0.08,0.10,-0.99,2.75,3.42,2.01
36.1610,0.08,0.10,-0.99,2.87,3.60,1.95
36.1770,0.08,0.10,-0.99,2.99,3.66,1.59
36.1840,0.07,0.10,-0.99,2.87,3.78,1.65
36.2000,0.07,0.10,-0.99,2.93,3.60,1.71
36.2180,0.07,0.10,-0.99,2.69,3.48,1.65
36.2340,0.08,0.10,-0.99,2.69,3.54,1.83
36.2500,0.08,0.10,-0.99,2.32,3.54,1.77
36.2610,0.08,0.10,-0.99,2.38,3.54,1.95
36.2780,0.08,0.10,-0.99,2.26,3.48,1.95
36.2940,0.08,0.10,-0.99,2.26,3.36,2.14
36.3110,0.08,0.10,-0.99,2.32,3.42,2.38
36.3270,0.08,0.10,-0.99,2.75,3.42,2.44
36.3420,0.08,0.10,-0.99,2.69,3.17,2.44
36.3580,0.08,0.10,-0.99,2.69,3.36,2.56
36.3730,0.07,0.10,-0.99,3.11,3.66,2.44
36.3890,0.07,0.10,-0.99,2.75,3.66,2.08
36.4040,0.08,0.10,-0.99,2.87,3.42,1.83
36.4200,0.08,0.10,-0.99,3.11,3.60,1.65
36.4280,0.08,0.10,-0.99,3.11,4.15,1.59
36.4430,0.08,0.10,-0.99,3.05,3.66,1.46
36.4600,0.08,0.10,-0.99,2.75,3.66,1.53
36.4800,0.08,0.10,-0.99,2.56,3.60,1.53
36.4880,0.08,0.10,-0.99,2.32,3.60,1.71
36.5040,0.08,0.10,-0.99,2.26,3.54,1.77
36.5210,0.07,0.10,-0.99,2.20,3.30,1.83
36.5380,0.07,0.10,-0.99,2.44,3.42,2.20
36.5560,0.07,0.10,-0.99,2.20,3.72,2.14
36.5720,0.08,0.10,-0.99,2.38,3.66,2.20
36.5880,0.07,0.10,-0.99,2.14,3.48,2.20
36.6030,0.08,0.10,-0.99,2.81,3.60,2.50
36.6190,0.08,0.10,-0.99,2.87,3.30,2.38
36.6330,0.08,0.10,-0.99,3.05,3.60,1.71
36.6390,0.08,0.10,-0.99,2.69,3.85,1.40
36.6550,0.08,0.10,-0.99,3.05,3.60,1.46
36.6800,0.08,0.10,-0.99,3.30,3.72,1.34
36.6960,0.07,0.10,-0.99,2.93,4.03,1.28
36.7120,0.07,0.10,-0.99,2.26,3.42,1.22
36.7290,0.08,0.11,-0.99,2.08,3.78,1.53
36.7440,0.08,0.11,-0.99,2.26,3.30,1.65
36.7590,0.08,0.11,-0.99,1.71,2.93,1.95
36.7750,0.08,0.10,-0.99,1.83,3.42,2.14
36.7900,0.07,0.10,-0.99,2.08,3.48,2.08
36.8060,0.07,0.08,-0.99,1.65,3.54,2.32
36.8220,0.07,0.08,-0.99,3.23,3.54,2.93
36.8370,0.08,0.09,-0.99,3.48,3.54,2.99
36.8470,0.08,0.10,-0.99,3.11,3.54,2.20
36.8630,0.08,0.11,-0.99,2.87,3.23,1.71
36.8800,0.07,0.11,-0.99,2.81,3.48,1.53
36.8960,0.08,0.11,-0.99,2.87,3.60,1.65
36.9130,0.08,0.10,-0.99,2.62,3.60,1.71
36.9140,0.08,0.10,-0.99,2.56,3.36,1.71
36.9300,0.07,0.10,-0.99,2.44,3.42,1.83
36.9590,0.07,0.09,-0.99,2.44,3.48,2.14
36.9620,0.08,0.10,-1.00,2.20,3.36,2.26
36.9890,0.07,0.10,-0.99,1.95,3.42,2.14
37.0040,0.07,0.10,-0.99,2.20,3.66,2.14
37.0130,0.08,0.10,-0.99,2.26,3.85,2.14
37.0290,0.08,0.10,-0.99,2.14,3.72,2.08
37.0460,0.08,0.10,-0.99,2.69,3.54,1.77
37.0620,0.08,0.10,-0.99,2.62,3.72,1.77
37.0790,0.09,0.09,-0.95,3.48,4.21,1.59
37.0940,0.08,0.11,-0.97,3.23,3.54,1.77
37.0960,0.07,0.10,-0.99,3.78,2.87,1.59
37.1130,0.07,0.10,-0.99,3.23,2.99,2.08
37.1390,0.07,0.10,-0.99,2.75,2.93,2.20
37.1460,0.07,0.10,-0.99,2.62,2.81,2.26
37.1630,0.08,0.10,-0.99,2.20,3.17,2.20
37.1790,0.08,0.10,-0.99,2.44,3.66,2.20
37.1960,0.08,0.10,-0.99,2.56,3.54,2.20
37.2130,0.08,0.10,-0.99,2.75,3.85,2.26
37.2300,0.08,0.11,-0.99,2.99,3.78,2.38
37.2470,0.08,0.10,-0.99,2.99,3.54,2.32
37.2630,0.08,0.10,-0.99,2.87,3.48,2.26
37.2630,0.07,0.10,-0.99,2.81,3.23,2.44
37.2940,0.07,0.10,-0.99,2.75,3.17,2.62
37.3090,0.07,0.10,-0.99,2.62,3.05,2.50
37.3130,0.08,0.10,-0.99,2.50,3.30,2.56
37.3290,0.08,0.11,-0.99,2.62,3.60,2.50
37.3450,0.08,0.10,-0.99,2.75,3.30,2.08
37.3680,0.08,0.11,-0.99,2.50,3.72,2.20
37.3850,0.08,0.10,-0.99,2.50,3.48,1.95
37.4020,0.08,0.10,-0.99,2.81,3.85,2.01
37.4180,0.09,0.10,-0.99,3.23,3.23,2.50
37.4340,0.09,0.11,-0.99,3.48,3.11,2.81
37.4510,0.10,0.11,-0.98,4.46,2.69,3.85
37.4660,0.10,0.11,-0.98,5.49,1.89,5.37
37.4680,0.09,0.11,-0.96,9.22,0.61,8.36
37.4840,0.06,0.10,-0.97,21.48,-1.89,12.15
37.5090,0.01,0.11,-1.06,24.54,-1.46,7.69
37.5250,0.07,0.13,-1.00,6.16,2.93,0.92
37.5420,0.07,0.11,-0.99,2.69,3.60,1.10
37.5580,0.07,0.11,-0.99,2.75,3.85,1.59
37.5740,0.07,0.12,-0.99,2.38,3.66,2.32
37.5750,0.08,0.13,-0.99,2.44,3.85,2.32
37.6060,0.09,0.12,-0.99,2.50,4.09,2.50
37.6220,0.09,0.13,-0.99,2.69,3.48,2.14
37.6370,0.09,0.13,-0.99,3.11,3.23,2.50
37.6420,0.09,0.12,-0.99,2.99,3.05,2.44
37.6580,0.08,0.12,-0.99,3.11,2.93,2.81
37.6760,0.08,0.12,-0.99,2.81,3.11,2.87
37.6920,0.07,0.12,-0.99,2.56,3.17,2.81
37.7130,0.07,0.12,-0.99,2.26,3.36,2.69
37.7300,0.08,0.12,-0.98,1.77,3.42,2.81
37.7470,0.08,0.12,-0.99,1.28,3.66,3.23
37.7480,0.09,0.13,-0.99,1.77,3.42,3.48
37.7790,0.08,0.11,-0.98,1.83,3.66,3.36
37.7940,0.09,0.11,-0.98,1.83,4.03,2.75
37.8100,0.09,0.12,-0.98,1.46,3.97,2.20
37.8250,0.09,0.12,-0.97,2.75,3.42,2.32
37.8310,0.08,0.12,-0.99,3.48,3.11,3.17
37.8570,0.08,0.12,-0.99,3.23,2.81,4.15
37.8650,0.08,0.12,-0.99,2.99,2.62,4.76
37.8880,0.08,0.13,-0.99,2.75,2.87,4.94
37.8980,0.08,0.13,-0.99,2.38,3.17,4.70
37.9140,0.08,0.12,-0.98,2.01,3.17,4.58
37.9310,0.08,0.11,-0.98,2.14,3.54,4.39
37.9470,0.08,0.13,-0.99,2.50,3.17,4.46
37.9640,0.08,0.12,-0.99,1.65,3.30,4.58
37.9800,0.09,0.15,-1.01,-0.24,3.60,5.07
37.9810,0.08,0.11,-0.96,-3.60,4.09,6.90
37.9980,0.09,0.12,-0.97,1.46,2.20,12.08
38.0250,0.09,0.12,-0.97,6.96,-0.06,17.76
38.0310,0.08,0.11,-1.01,7.51,-0.06,17.46
38.0460,0.08,0.11,-0.99,2.99,1.16,13.49
38.0720,0.06,0.14,-0.99,1.95,1.53,13.24
38.0890,0.07,0.13,-0.99,0.55,1.65,12.63
38.1040,0.08,0.14,-1.01,0.61,2.56,11.17
38.1210,0.08,0.13,-1.00,-5.80,4.03,9.64
38.1360,0.08,0.12,-1.00,-8.79,4.39,9.34
38.1530,0.08,0.11,-0.99,-10.74,4.64,9.77
38.1690,0.08,0.11,-0.98,-10.86,4.64,10.68
38.1850,0.08,0.10,-0.96,-6.23,3.48,14.59
38.2010,0.09,0.09,-0.96,-1.89,2.44,16.66
38.2050,0.08,0.07,-0.96,7.45,0.79,15.75
38.2310,0.08,0.08,-0.98,18.01,-0.79,13.49
38.2380,0.08,0.15,-1.03,20.26,-1.04,11.23
38.2530,0.08,0.13,-0.99,8.36,1.22,9.28
38.2760,0.08,0.13,-1.00,6.04,1.28,9.16
38.2920,0.07,0.12,-0.99,3.05,2.44,8.73
38.3090,0.07,0.12,-0.99,1.34,2.62,8.85
38.3240,0.07,0.12,-0.99,-0.37,3.11,8.48
38.3280,0.08,0.13,-0.99,0.00,2.81,10.74
38.3440,0.08,0.10,-0.99,-1.22,2.93,10.99
38.3610,0.08,0.11,-0.99,0.67,3.11,8.61
38.3780,0.10,0.13,-0.98,3.72,2.62,7.57
38.3940,0.12,0.13,-0.98,9.70,1.22,8.79
38.4200,0.09,0.13,-1.00,8.42,2.20,8.73
38.4280,0.08,0.13,-0.99,3.17,1.95,9.46
38.4440,0.07,0.11,-0.99,2.62,2.32,10.19
38.4610,0.08,0.12,-0.99,2.50,2.44,8.18
38.4780,0.08,0.12,-0.99,2.20,2.56,6.47
38.4940,0.07,0.12,-0.99,2.14,2.81,5.98
38.5100,0.08,0.11,-0.99,1.89,3.11,5.00
38.5110,0.08,0.12,-0.99,1.89,2.99,4.09
38.5410,0.08,0.12,-0.99,2.01,3.78,3.23
38.5440,0.08,0.12,-0.99,2.38,3.66,2.99
38.5600,0.08,0.11,-0.99,1.95,3.54,3.72
38.5840,0.09,0.13,-0.99,3.11,3.42,3.54
38.6000,0.09,0.14,-0.99,3.66,3.30,3.78
38.6170,0.08,0.13,-0.99,3.54,3.11,3.97
38.6340,0.07,0.11,-0.99,3.30,2.87,4.03
38.6480,0.07,0.12,-0.99,3.17,3.30,3.30
38.6500,0.07,0.12,-0.99,2.87,3.30,2.87
38.6780,0.08,0.13,-0.99,2.62,2.93,2.81
38.6930,0.08,0.12,-0.99,2.50,3.05,3.05
38.7000,0.08,0.12,-0.99,2.32,3.23,3.60
38.7170,0.08,0.12,-0.98,2.32,3.36,4.03
38.7340,0.09,0.12,-0.99,2.50,3.36,4.70
38.7500,0.09,0.12,-0.98,2.69,3.42,4.82
38.7670,0.09,0.12,-0.99,3.17,3.05,3.72
38.7840,0.08,0.12,-0.99,3.30,3.30,3.11
38.7990,0.08,0.13,-0.99,2.81,3.23,3.05
38.8140,0.07,0.14,-0.99,2.32,3.36,3.11
38.8160,0.08,0.13,-0.98,1.95,3.23,3.72
38.8330,0.08,0.13,-0.98,1.77,3.36,5.25
38.8530,0.09,0.14,-0.98,2.01,3.05,7.45
38.8700,0.09,0.13,-0.98,2.69,2.50,10.19
38.8850,0.09,0.13,-0.99,2.81,2.50,11.35
38.9030,0.09,0.11,-0.99,2.99,2.38,10.86
38.9200,0.08,0.10,-0.99,3.11,2.44,6.16
38.9360,0.07,0.11,-0.99,3.05,3.23,2.81
38.9360,0.08,0.12,-0.99,2.81,2.87,1.89
38.9540,0.09,0.13,-0.98,2.56,3.54,2.08
38.9700,0.08,0.15,-0.99,2.08,3.66,2.44
38.9970,0.07,0.14,-0.98,1.46,2.99,5.31
39.0020,0.08,0.15,-0.99,1.46,2.32,9.46
39.0190,0.07,0.12,-0.99,1.34,2.14,11.90
39.0420,0.08,0.12,-0.99,2.26,2.69,8.97
39.0580,0.09,0.11,-0.99,2.38,2.81,7.93
39.0610,0.08,0.11,-0.99,2.50,2.75,6.41
39.0760,0.08,0.12,-0.98,2.81,2.93,5.55
39.1010,0.08,0.12,-0.99,2.99,2.93,5.62
39.1170,0.09,0.13,-0.99,2.75,2.93,6.41
39.1330,0.09,0.14,-0.98,2.50,2.44,8.36
39.1500,0.08,0.15,-0.99,2.26,2.38,9.89
39.1670,0.07,0.15,-0.98,1.89,1.59,13.67
39.1830,0.07,0.12,-0.99,1.34,1.40,15.32
39.1980,0.08,0.12,-0.99,2.26,2.38,11.60
39.2000,0.09,0.13,-0.99,2.08,1.77,12.39
39.2160,0.09,0.10,-0.99,1.16,2.26,11.41
39.2410,0.09,0.09,-0.98,0.98,2.56,9.58
39.2570,0.08,0.10,-0.99,2.99,2.87,3.78
39.2740,0.08,0.11,-0.99,3.42,3.60,0.98
39.2910,0.08,0.13,-0.99,3.05,3.60,0.24
39.3060,0.08,0.14,-0.98,3.05,3.30,-0.06
39.3080,0.09,0.14,-0.98,2.99,3.85,1.89
39.3380,0.07,0.16,-0.98,1.83,2.93,5.37
39.3410,0.06,0.14,-0.98,1.10,2.56,11.29
39.3560,0.06,0.14,-0.98,0.92,2.08,13.85
39.3840,0.08,0.14,-0.98,-0.49,1.89,16.54
39.4000,0.09,0.10,-0.99,-0.73,2.56,14.40
39.4160,0.07,0.10,-0.98,1.10,2.56,10.19
39.4330,0.09,0.10,-0.99,1.65,2.62,9.34
39.4480,0.08,0.10,-0.99,2.62,2.75,7.02
39.4650,0.08,0.12,-0.99,2.69,2.99,5.86
39.4670,0.08,0.13,-0.99,2.44,2.69,6.35
39.4960,0.08,0.12,-0.99,2.38,2.93,6.96
39.5110,0.08,0.13,-0.99,2.14,2.50,8.00
39.5190,0.08,0.13,-0.98,1.46,2.14,10.25
39.5350,0.08,0.12,-0.99,2.14,2.38,10.99
39.5520,0.08,0.10,-0.99,2.50,2.87,8.42
39.5710,0.08,0.10,-0.99,2.62,2.75,6.77
39.5750,0.08,0.11,-0.99,2.62,3.23,3.97
39.5910,0.08,0.12,-0.99,2.69,3.54,2.38
39.6190,0.08,0.13,-0.99,2.50,3.60,1.83
39.6250,0.08,0.13,-0.99,2.69,3.30,2.44
39.6410,0.08,0.15,-0.98,2.75,2.81,4.03
39.6630,0.10,0.17,-0.99,3.11,1.10,12.94
39.6810,0.10,0.16,-1.00,1.71,-0.12,19.65
39.6980,0.09,0.14,-0.98,0.73,-0.06,21.24
39.7140,0.09,0.14,-0.98,0.92,0.31,20.08
39.7300,0.07,0.09,-0.99,0.37,1.28,17.76
39.7310,0.07,0.07,-0.99,1.40,2.32,10.86
39.7600,0.07,0.10,-0.99,2.69,3.85,3.05
39.7760,0.08,0.12,-0.99,2.75,3.91,0.85
39.7800,0.08,0.13,-0.99,2.75,4.15,0.55
39.8070,0.08,0.13,-0.99,2.44,4.39,0.67
39.8230,0.09,0.13,-0.99,2.56,4.15,0.43
39.8380,0.11,0.12,-0.98,2.87,4.39,-1.53
39.8470,0.11,0.12,-0.99,3.54,5.00,-6.23
39.8640,0.09,0.14,-0.98,4.70,5.19,-8.48
39.8820,0.09,0.14,-0.98,3.85,4.82,-6.84
39.8980,0.06,0.13,-0.99,4.15,4.82,-6.65
39.9140,0.06,0.12,-0.99,3.17,4.33,-3.60
39.9310,0.06,0.12,-0.99,3.11,3.72,-0.43
39.9320,0.06,0.12,-0.99,2.99,3.60,1.28
39.9470,0.07,0.13,-0.99,2.62,3.72,2.01
39.9640,0.07,0.13,-0.99,2.14,3.66,1.77
39.9930,0.08,0.13,-0.99,2.14,3.60,1.71
39.9980,0.08,0.13,-0.99,2.50,3.78,1.53
40.0140,0.09,0.13,-0.99,2.44,4.03,1.04
40.0380,0.11,0.12,-0.98,3.05,3.91,-0.18
40.0550,0.11,0.12,-0.98,3.42,4.39,-3.11
40.0560,0.10,0.15,-0.98,4.15,4.64,-6.35
40.0860,0.07,0.14,-0.99,3.66,4.76,-6.59
40.1010,0.08,0.14,-0.99,3.05,4.64,-6.53
40.1170,0.06,0.11,-1.00,3.91,5.25,-7.26
40.1220,0.07,0.12,-0.99,2.56,5.13,-5.31
40.1470,0.06,0.11,-0.99,2.75,4.46,-3.85
40.1560,0.06,0.11,-0.99,2.62,4.21,-1.53
40.1720,0.06,0.12,-0.99,2.50,4.15,-0.43
40.1920,0.08,0.13,-0.99,2.38,3.97,0.85
40.2060,0.10,0.12,-0.98,2.44,3.91,0.92
40.2140,0.13,0.12,-0.98,3.60,3.78,-0.31
40.2370,0.12,0.12,-0.98,3.85,3.54,-0.61
40.2470,0.16,0.14,-0.97,4.09,3.23,-0.49
40.2640,0.07,0.12,-0.99,4.03,3.85,0.18
40.2820,0.03,0.14,-0.99,2.99,3.60,2.01
40.2980,0.03,0.14,-0.99,2.32,3.17,2.50
40.3150,0.04,0.12,-0.99,2.08,3.54,1.77
40.3300,0.06,0.12,-0.99,1.95,3.36,2.01
40.3470,0.07,0.12,-0.99,2.01,3.66,2.32
40.3620,0.09,0.12,-0.98,2.44,3.48,2.56
40.3780,0.10,0.14,-0.98,2.99,3.72,2.69
40.3940,0.13,0.15,-0.98,2.99,3.30,3.36
40.4080,0.13,0.16,-0.98,2.81,3.11,2.81
40.4150,0.10,0.14,-0.99,2.87,3.66,1.28
40.4300,0.08,0.14,-0.98,2.81,3.30,0.73
40.4480,0.07,0.12,-0.99,2.14,3.48,1.28
40.4630,0.03,0.10,-0.99,1.40,3.54,2.99
40.4810,0.04,0.10,-1.00,1.46,2.93,4.58
40.4980,0.05,0.11,-0.99,1.53,3.48,5.43
40.5140,0.07,0.12,-0.99,1.89,2.93,5.07
40.5310,0.08,0.13,-0.99,1.77,3.17,4.88
40.5320,0.08,0.13,-0.99,1.53,3.54,4.58
40.5630,0.09,0.12,-0.99,2.14,3.48,4.64
40.5650,0.10,0.13,-0.98,2.38,3.54,4.82
40.5810,0.12,0.14,-0.98,2.50,2.93,7.14
40.5980,0.09,0.14,-0.98,1.95,2.69,9.09
40.6250,0.09,0.14,-0.98,1.71,2.81,8.24
40.6310,0.07,0.13,-0.99,1.77,2.93,7.87
40.6480,0.04,0.11,-0.99,2.20,3.05,6.53
40.6630,0.05,0.11,-0.99,2.26,3.30,4.09
40.6850,0.08,0.12,-0.99,2.50,3.72,2.26
40.6990,0.07,0.12,-1.00,2.01,4.15,2.01
40.7150,0.08,0.12,-0.99,2.08,3.91,1.89
40.7210,0.08,0.13,-0.99,2.62,3.54,1.83
40.7380,0.08,0.13,-0.99,2.32,3.42,1.77
40.7550,0.08,0.13,-0.99,3.11,3.48,1.89
40.7700,0.09,0.13,-0.99,3.05,3.30,2.01
40.7900,0.08,0.13,-0.99,2.62,3.30,2.20
40.7930,0.07,0.13,-0.99,1.89,3.54,2.50
40.8200,0.07,0.13,-0.99,1.95,3.23,3.36
40.8270,0.07,0.14,-0.98,1.95,3.30,5.37
40.8450,0.07,0.14,-0.99,1.77,2.99,9.83
40.8610,0.08,0.14,-0.99,0.85,2.38,11.84
40.8770,0.08,0.14,-0.98,0.43,2.14,14.28
40.8950,0.09,0.16,-1.01,-3.11,2.26,16.11
40.9100,0.08,0.14,-0.99,-9.58,3.30,15.93
40.9270,0.07,0.11,-0.96,-6.47,2.32,17.46
40.9440,0.08,0.13,-0.96,3.30,0.67,17.15
40.9590,0.09,0.16,-1.00,7.45,0.24,17.52
40.9760,0.08,0.12,-0.97,7.39,-0.18,19.17
40.9770,0.06,0.09,-0.99,3.66,0.31,19.04
40.9930,0.07,0.10,-0.99,0.31,1.22,16.05
41.0110,0.09,0.13,-0.99,0.00,1.59,14.22
41.0280,0.09,0.12,-0.99,-0.98,1.10,14.04
41.0440,0.08,0.11,-0.99,-0.24,1.89,13.92
41.0610,0.07,0.11,-0.99,-0.12,1.59,13.98
41.0780,0.09,0.10,-0.99,0.73,2.01,13.43
41.0940,0.08,0.09,-0.99,0.98,2.87,9.52
41.1140,0.07,0.17,-0.99,2.14,3.11,8.00
41.1310,0.07,0.23,-0.95,-0.06,1.89,16.85
41.1470,0.08,0.16,-1.01,2.44,-0.61,28.87
41.1630,0.08,0.11,-0.97,-0.06,-0.43,27.65
41.1640,0.11,0.08,-1.00,1.04,-0.12,23.62
41.1810,0.09,-0.00,-1.00,0.73,1.46,11.66
41.1980,0.08,0.08,-0.99,2.81,3.36,2.62
41.2150,0.08,0.12,-0.99,3.60,3.54,1.59
41.2310,0.08,0.12,-0.99,2.87,3.78,1.77
41.2560,0.08,0.12,-0.99,2.69,3.66,1.46
41.2630,0.09,0.12,-0.99,2.56,4.09,0.37
41.2800,0.09,0.11,-0.99,2.69,3.97,-0.73
41.2960,0.09,0.12,-0.99,3.05,4.39,-3.05
41.3170,0.08,0.12,-0.99,3.48,4.64,-3.91
41.3350,0.07,0.12,-0.99,3.17,4.33,-3.48
41.3510,0.07,0.12,-0.99,3.36,3.97,-1.77
41.3670,0.07,0.12,-0.99,3.23,4.27,-0.55
41.3830,0.08,0.12,-0.99,2.99,3.85,-0.24
41.3990,0.08,0.11,-0.99,3.42,3.66,-0.92
41.4150,0.10,0.10,-0.99,3.42,4.94,-4.70
41.4320,0.11,0.09,-0.99,4.46,5.68,-7.63
41.4470,0.12,0.08,-0.99,5.55,6.41,-14.47
41.4630,0.12,0.09,-1.00,6.96,7.32,-22.64
41.4680,0.09,0.13,-0.98,4.76,7.14,-23.68
41.4840,0.08,0.17,-0.98,5.13,5.98,-12.76
41.5080,0.05,0.17,-0.99,3.17,5.19,-6.23
41.5090,0.03,0.17,-0.99,2.69,4.70,-1.40
41.5250,0.02,0.15,-0.99,2.62,4.03,0.12
41.5420,0.07,0.12,-0.99,2.26,3.48,1.71
41.5570,0.08,0.12,-0.99,2.38,3.42,2.14
41.5730,0.08,0.12,-0.98,2.87,3.36,2.08
41.5970,0.08,0.12,-0.98,3.66,3.85,2.26
41.6130,0.09,0.12,-0.99,3.72,4.03,2.20
41.6310,0.11,0.11,-0.99,3.97,3.78,1.77
41.6470,0.12,0.11,-0.98,3.23,4.03,-0.98
41.6630,0.09,0.11,-0.99,3.91,4.82,-3.91
41.6790,0.07,0.13,-0.99,3.48,4.46,-3.30
41.6810,0.04,0.15,-0.99,3.05,4.39,-1.59
41.6960,0.03,0.16,-0.99,0.67,3.60,2.20
41.7130,0.06,0.15,-0.98,0.43,3.05,3.48
41.7410,0.04,0.18,-0.98,-0.06,1.40,17.33
41.7580,0.07,0.10,-0.99,-2.81,-0.49,29.60
41.7720,0.10,0.09,-0.98,-1.95,-0.92,27.40
41.7870,0.13,0.06,-0.99,0.61,1.59,15.93
41.7970,0.08,0.11,-0.98,3.11,3.72,2.56
41.8130,0.08,0.12,-0.99,3.78,3.78,1.83
41.8340,0.08,0.11,-0.99,3.42,4.03,1.46
41.8490,0.08,0.11,-0.99,3.17,3.72,0.06
41.8530,0.08,0.12,-0.99,3.30,4.21,-1.16
41.8680,0.08,0.13,-0.99,2.75,4.09,-0.73
41.8940,0.08,0.13,-0.99,2.69,3.78,0.12
41.9100,0.08,0.13,-0.99,2.08,3.78,1.59
41.9260,0.07,0.12,-0.98,1.71,3.48,2.01
41.9280,0.04,0.12,-0.98,2.81,3.36,3.42
41.9570,0.09,0.12,-0.99,2.93,3.11,6.04
41.9610,0.10,0.12,-0.99,2.69,2.81,5.74
41.9890,0.09,0.12,-0.99,2.69,3.36,3.78
42.0060,0.08,0.12,-0.99,2.75,3.48,2.26
42.0120,0.08,0.12,-0.99,2.69,3.36,1.28
42.0360,0.08,0.13,-0.99,2.87,3.42,1.04
42.0450,0.07,0.13,-0.99,1.89,3.48,1.10
42.0620,0.02,0.18,-0.99,1.46,2.93,5.37
42.0780,0.07,0.12,-1.00,0.79,1.59,15.75
42.0940,0.10,0.08,-0.99,1.22,1.65,16.11
42.1120,0.12,0.07,-0.99,1.34,2.14,8.24
42.1280,0.11,0.10,-0.99,3.36,3.17,4.33
42.1430,0.10,0.12,-0.99,3.91,4.03,-0.55
42.1480,0.10,0.12,-0.99,3.48,4.21,-3.23
42.1630,0.09,0.13,-0.99,3.30,4.46,-4.46
42.1850,0.08,0.12,-0.99,2.69,4.39,-2.93
42.2020,0.08,0.13,-0.99,2.62,3.91,-1.89
42.2190,0.08,0.12,-0.99,2.62,3.42,0.12
42.2360,0.08,0.13,-0.99,2.14,3.17,0.73
42.2520,0.08,0.11,-0.98,2.26,3.42,1.28
42.2670,0.08,0.11,-0.99,3.60,3.30,1.46
42.2690,0.08,0.12,-0.99,3.30,3.54,1.95
42.3000,0.08,0.12,-0.98,3.36,3.60,1.83
42.3020,0.08,0.12,-0.97,3.78,3.54,1.83
42.3180,0.08,0.13,-0.99,3.78,3.42,1.83
42.3350,0.08,0.13,-0.99,3.17,3.54,1.71
42.3520,0.08,0.13,-0.99,2.75,3.48,1.83
42.3690,0.08,0.12,-0.99,2.56,3.66,1.77
42.3860,0.08,0.12,-0.99,2.38,3.48,2.08
42.4070,0.08,0.12,-0.99,2.14,3.66,2.08
42.4240,0.08,0.12,-0.99,1.77,3.72,2.08
42.4400,0.09,0.12,-0.99,1.89,3.78,1.83
42.4570,0.08,0.13,-0.99,2.56,3.97,1.40
42.4720,0.08,0.11,-0.99,2.56,3.30,0.79
42.4860,0.09,0.11,-0.99,3.91,3.72,0.43
42.4900,0.09,0.11,-0.99,2.81,3.54,0.61
42.5070,0.08,0.14,-0.99,2.26,3.91,-0.79
42.5240,0.08,0.13,-0.99,2.38,3.72,-0.98
42.5400,0.08,0.13,-0.99,2.38,3.78,-0.73
42.5570,0.08,0.12,-0.99,2.50,3.54,0.24
42.5740,0.08,0.12,-0.99,2.56,3.48,1.28
42.5900,0.08,0.12,-0.99,2.50,3.48,1.28
42.6070,0.08,0.12,-0.99,2.32,3.66,1.40
42.6220,0.08,0.12,-0.99,2.32,3.42,1.65
42.6370,0.08,0.12,-0.99,2.14,3.54,1.77
42.6520,0.08,0.12,-0.99,1.95,3.48,1.83
42.6570,0.08,0.12,-0.99,2.08,3.11,1.95
42.6730,0.08,0.12,-0.99,2.32,3.48,1.89
42.6900,0.08,0.12,-0.99,2.62,3.42,1.95
42.7070,0.08,0.12,-0.99,2.75,3.60,1.95
42.7240,0.08,0.12,-0.99,2.56,3.60,1.95
42.7420,0.08,0.12,-0.99,2.56,3.66,1.89
42.7570,0.08,0.12,-0.99,2.62,3.54,1.89
42.7740,0.08,0.12,-0.99,2.69,3.17,1.83
42.7900,0.08,0.12,-0.99,2.56,3.36,1.71
42.8050,0.08,0.12,-0.99,2.81,3.54,1.77
42.8070,0.08,0.12,-0.99,2.75,3.78,1.83
42.8380,0.08,0.12,-0.99,2.44,3.78,1.71
42.8550,0.08,0.12,-0.99,2.44,3.54,1.83
42.8710,0.08,0.12,-0.99,2.87,3.66,1.83
42.8730,0.08,0.12,-0.99,2.75,4.03,1.46
42.9020,0.08,0.12,-0.99,3.17,4.03,1.04
42.9180,0.08,0.12,-0.99,2.99,3.85,0.24
42.9230,0.08,0.12,-0.99,2.81,3.72,0.37
42.9410,0.08,0.12,-0.99,2.69,3.85,0.55
42.9570,0.08,0.12,-0.99,2.69,3.66,0.55
42.9750,0.08,0.12,-0.99,2.44,3.72,0.61
42.9900,0.08,0.12,-0.99,2.44,3.60,0.61
43.0060,0.09,0.12,-0.99,2.44,3.78,0.12
43.0220,0.09,0.12,-0.99,2.81,3.66,-1.53
43.0380,0.09,0.12,-0.99,2.99,4.09,-2.20
43.0400,0.07,0.13,-0.99,3.11,4.27,-2.62
43.0700,0.07,0.13,-1.00,3.36,4.33,-1.34
43.0860,0.07,0.13,-0.99,2.81,3.85,-0.73
43.1020,0.07,0.13,-0.99,2.32,3.60,0.24
43.1170,0.07,0.12,-0.99,2.01,3.42,1.22
43.1240,0.09,0.12,-0.99,2.01,3.54,1.77
43.1400,0.09,0.12,-0.99,2.26,3.72,0.43
43.1620,0.09,0.12,-0.99,2.08,3.85,0.12
43.1770,0.07,0.12,-0.99,2.50,3.91,-0.85
43.1810,0.07,0.12,-0.99,2.69,3.91,-0.24
43.2070,0.07,0.12,-0.99,2.99,4.03,0.43
43.2140,0.07,0.12,-0.99,3.05,3.91,0.67
43.2310,0.08,0.12,-0.99,2.81,3.60,1.46
43.2470,0.08,0.12,-0.99,2.81,3.54,1.77
43.2690,0.08,0.12,-0.99,2.56,3.66,2.01
43.2860,0.08,0.12,-0.99,2.75,3.72,2.14
43.3020,0.08,0.12,-0.99,2.56,3.36,1.95
43.3180,0.08,0.12,-0.99,2.75,3.30,1.77
43.3340,0.08,0.12,-0.99,2.81,3.42,2.01
43.3360,0.08,0.12,-0.99,2.50,3.42,2.01
43.3530,0.08,0.12,-0.99,2.50,3.42,2.01
43.3780,0.08,0.12,-0.99,2.56,3.66,2.08
43.3940,0.08,0.12,-0.99,2.44,3.48,2.01
43.4100,0.08,0.12,-0.99,2.32,3.36,1.83
43.4270,0.08,0.12,-0.99,2.50,3.72,1.71
43.4420,0.08,0.12,-0.99,2.69,3.72,2.08
43.4440,0.08,0.12,-0.99,2.75,3.78,2.01
43.4740,0.08,0.12,-0.99,2.75,3.23,2.01
43.4780,0.08,0.12,-0.99,2.50,3.54,2.08
43.4950,0.08,0.12,-0.99,2.56,3.66,1.89
43.5210,0.08,0.12,-0.99,2.44,3.66,2.01
43.5360,0.08,0.12,-0.99,2.62,3.66,1.95
43.5440,0.08,0.12,-0.99,2.38,3.66,1.95
43.5610,0.08,0.12,-0.99,2.44,3.72,1.89
43.5780,0.08,0.12,-0.99,2.38,3.42,2.08
43.5950,0.08,0.12,-0.99,2.50,3.78,2.01
43.6110,0.08,0.12,-0.99,2.56,3.48,1.95
43.6260,0.08,0.12,-0.99,2.44,3.36,2.01
43.6280,0.08,0.12,-0.99,2.62,3.42,1.89
43.6450,0.08,0.12,-0.99,2.38,3.36,2.01
43.6720,0.08,0.12,-0.99,2.69,3.60,2.01
43.6780,0.08,0.12,-0.99,2.38,3.66,2.01
43.7030,0.08,0.12,-0.99,2.56,3.36,2.01
43.7110,0.08,0.12,-0.99,2.56,3.60,2.01
43.7280,0.08,0.12,-0.99,2.56,3.42,2.01
43.7450,0.08,0.12,-0.99,2.56,3.48,1.89
43.7610,0.08,0.12,-0.99,2.56,3.48,1.83
43.7780,0.08,0.12,-0.99,2.56,3.54,1.83
43.7930,0.08,0.12,-0.99,2.87,3.72,1.89
43.7940,0.08,0.12,-0.99,2.81,3.42,1.77
43.8110,0.08,0.12,-0.99,2.56,3.85,1.89
43.8280,0.08,0.12,-0.99,2.69,3.60,1.89
43.8550,0.08,0.12,-0.99,2.69,3.60,1.77
43.8710,0.08,0.12,-0.99,2.56,3.54,1.89
43.8780,0.08,0.12,-0.99,2.56,3.36,1.95
43.8950,0.08,0.12,-0.99,2.50,3.60,1.95
43.9110,0.08,0.12,-0.99,2.50,3.85,1.89
43.9320,0.08,0.12,-0.99,2.50,3.54,1.95
43.9490,0.08,0.12,-0.99,2.44,3.36,2.08
43.9650,0.08,0.12,-0.99,2.62,3.30,1.95
43.9810,0.08,0.12,-0.99,2.69,3.42,1.89
43.9960,0.08,0.12,-0.99,2.81,3.42,1.89
44.0130,0.08,0.12,-0.99,2.81,3.54,1.83
44.0280,0.08,0.12,-0.99,2.75,3.42,2.01
44.0430,0.08,0.12,-0.99,2.56,3.54,1.83
44.0500,0.08,0.12,-0.99,2.38,3.30,1.89
44.0660,0.08,0.12,-0.99,2.38,3.23,1.89
44.0830,0.08,0.12,-0.99,2.93,3.30,1.83
44.1000,0.08,0.12,-0.99,2.75,3.60,1.89
44.1170,0.08,0.12,-0.99,2.81,3.42,1.89
44.1330,0.08,0.12,-0.99,2.75,3.48,1.89
44.1500,0.08,0.12,-0.99,2.69,3.48,1.89
44.1660,0.08,0.12,-0.99,2.62,3.54,1.83
44.1820,0.08,0.12,-0.99,2.56,3.42,1.83
44.1980,0.08,0.12,-0.99,2.44,3.54,1.89
44.2000,0.08,0.12,-0.99,2.38,3.42,1.77
44.2160,0.08,0.12,-0.99,2.44,3.48,1.95
44.2400,0.08,0.12,-0.99,2.44,3.60,1.89
44.2570,0.08,0.12,-0.99,2.32,3.66,1.89
44.2740,0.08,0.12,-0.98,2.44,3.42,1.89
44.2900,0.08,0.12,-0.99,2.69,3.30,1.89
44.3050,0.08,0.12,-0.99,3.05,3.60,1.95
44.3220,0.08,0.12,-0.99,2.81,3.42,1.77
44.3380,0.08,0.12,-0.99,2.75,3.78,2.01
44.3540,0.08,0.12,-0.99,2.99,3.66,2.08
44.3570,0.08,0.12,-0.99,2.62,3.85,2.08
44.3860,0.08,0.12,-0.99,2.62,3.72,2.08
44.3910,0.08,0.12,-0.99,2.69,3.66,2.08
44.4150,0.08,0.13,-0.99,2.44,3.66,2.01
44.4230,0.08,0.12,-0.99,2.20,3.60,1.95
44.4400,0.08,0.12,-0.99,2.14,3.54,1.89
44.4570,0.08,0.12,-0.99,2.38,3.72,1.95
44.4740,0.08,0.12,-0.98,2.44,3.60,2.01
44.4910,0.08,0.12,-0.99,2.50,3.36,2.01
44.5060,0.08,0.12,-0.99,2.75,3.48,2.01
44.5220,0.08,0.12,-0.99,2.87,3.30,1.95
44.5230,0.08,0.12,-0.99,2.81,3.42,2.01
44.5540,0.08,0.12,-0.99,2.75,3.60,1.83
44.5700,0.08,0.12,-0.99,2.44,3.60,1.95
44.5730,0.08,0.12,-0.99,2.32,3.60,1.95
44.6010,0.08,0.12,-0.99,2.38,3.54,1.89
44.6060,0.08,0.12,-0.99,2.38,3.60,1.95
44.6230,0.08,0.12,-0.99,2.38,3.54,1.95
44.6470,0.08,0.12,-0.99,2.50,3.48,2.08
44.6620,0.08,0.12,-0.99,2.56,3.48,2.01
44.6630,0.08,0.12,-0.99,2.75,3.54,2.01
44.6800,0.08,0.12,-0.99,2.99,3.54,1.95
44.7080,0.08,0.12,-0.99,2.99,3.36,1.95
44.7240,0.08,0.12,-0.99,2.81,3.66,2.01
44.7290,0.08,0.12,-0.99,2.81,3.48,2.01
44.7460,0.08,0.12,-0.99,2.93,3.60,2.14
44.7640,0.08,0.12,-0.99,2.81,3.78,1.95
44.7800,0.08,0.12,-0.99,2.62,4.15,2.08
44.7960,0.08,0.12,-0.99,2.69,3.60,2.01
44.8130,0.08,0.12,-0.99,2.32,3.54,2.56
44.8300,0.08,0.12,-0.99,2.50,3.54,2.50
44.8460,0.08,0.11,-0.98,2.38,3.54,2.44
44.8630,0.08,0.12,-0.99,2.20,3.23,2.69
44.8770,0.08,0.12,-0.99,2.38,3.36,2.38
44.8790,0.08,0.12,-0.99,2.38,3.23,2.26
44.8960,0.08,0.12,-0.99,2.75,3.60,2.14
44.9120,0.08,0.12,-0.99,2.56,3.36,2.14
44.9360,0.08,0.12,-0.99,2.50,3.48,2.08
44.9530,0.08,0.12,-0.99,2.50,3.42,2.08
44.9690,0.08,0.12,-0.99,2.50,3.72,2.08
44.9860,0.08,0.12,-0.99,2.56,3.30,1.89
45.0030,0.08,0.12,-0.99,2.32,3.54,2.01
45.0190,0.08,0.12,-0.99,2.26,3.54,2.01
45.0340,0.08,0.12,-0.99,2.56,3.30,2.08
45.0490,0.08,0.12,-0.99,2.62,3.42,2.20
45.0550,0.08,0.12,-0.99,2.81,3.72,2.26
45.0700,0.08,0.12,-0.99,2.69,3.54,2.01
45.0880,0.08,0.12,-0.99,2.62,3.66,2.14
45.1040,0.08,0.12,-0.99,2.75,3.11,2.32
45.1210,0.08,0.12,-0.99,2.62,3.36,2.26
45.1370,0.08,0.12,-0.99,2.56,3.42,2.20
45.1530,0.08,0.12,-0.99,2.56,3.42,2.20
45.1710,0.08,0.12,-0.99,2.50,3.66,2.38
45.1860,0.08,0.12,-0.99,2.44,3.78,2.32
45.2020,0.08,0.12,-0.99,2.38,3.54,1.95
45.2190,0.08,0.12,-0.99,2.56,3.30,1.89
45.2350,0.08,0.12,-0.99,2.69,3.48,1.83
45.2500,0.08,0.12,-0.99,2.62,3.54,1.59
45.2670,0.08,0.12,-0.99,2.75,3.66,1.53
45.2700,0.08,0.12,-0.99,2.99,3.78,0.85
45.2880,0.08,0.11,-0.99,3.05,4.09,-0.12
45.3040,0.08,0.12,-0.99,3.05,4.27,-1.16
45.3270,0.08,0.12,-0.99,3.05,4.21,-1.59
45.3450,0.08,0.13,-0.99,2.81,3.97,-0.49
45.3610,0.08,0.13,-0.99,2.62,3.54,1.34
45.3760,0.08,0.13,-0.99,2.62,3.42,1.77
45.3910,0.08,0.12,-0.99,2.26,3.48,2.08
45.3950,0.08,0.12,-0.99,2.56,3.42,2.14
45.4250,0.08,0.12,-0.99,2.44,3.60,2.20
45.4400,0.08,0.12,-0.99,2.56,3.36,2.08
45.4550,0.08,0.12,-0.99,2.56,3.54,2.14
45.4710,0.08,0.12,-0.99,2.56,3.72,2.14
45.4790,0.08,0.12,-0.99,2.62,3.48,2.14
45.4940,0.08,0.12,-0.98,2.69,3.78,2.20
45.5110,0.08,0.13,-0.99,2.75,3.42,1.89
45.5280,0.08,0.12,-0.98,3.11,3.36,1.95
45.5440,0.08,0.12,-0.99,2.87,3.66,1.89
45.5610,0.08,0.12,-0.99,2.99,3.66,2.01
45.5760,0.08,0.12,-0.99,2.99,3.36,2.38
45.5930,0.08,0.12,-0.99,2.69,3.42,1.89
45.5940,0.08,0.12,-0.99,2.62,3.48,1.89
45.6110,0.08,0.12,-0.99,2.56,3.72,1.83
45.6280,0.08,0.12,-0.99,2.69,3.54,1.65
45.6560,0.08,0.12,-0.99,2.44,3.60,1.65
45.6710,0.08,0.12,-0.99,2.50,3.72,1.04
45.6870,0.09,0.11,-0.99,2.81,4.21,0.06
45.6950,0.08,0.11,-0.99,3.17,4.03,-3.42
45.7130,0.08,0.12,-0.99,3.85,4.76,-3.91
45.7280,0.08,0.13,-0.99,3.48,4.21,-2.81
45.7450,0.08,0.13,-0.99,3.17,4.27,-2.38
45.7620,0.08,0.13,-0.99,2.93,4.03,-1.53
45.7780,0.08,0.13,-0.99,2.69,4.33,-1.40
45.7930,0.08,0.12,-0.99,2.99,3.97,-1.46
45.8090,0.08,0.11,-0.99,2.99,4.33,-2.50
45.8110,0.08,0.11,-0.99,3.48,4.94,-4.39
45.8410,0.08,0.12,-0.99,3.97,5.25,-5.68
45.8570,0.08,0.12,-0.99,4.76,5.19,-7.45
45.8720,0.06,0.03,-1.00,5.07,5.25,-8.12
45.8870,0.08,0.16,-0.99,5.43,5.55,-10.99
45.8950,0.08,0.10,-0.99,5.68,5.55,-10.93
45.9120,0.07,0.13,-0.99,5.68,6.10,-15.08
45.9280,0.09,0.16,-0.99,4.27,5.92,-13.00
45.9450,0.08,0.15,-0.98,3.54,5.86,-11.78
45.9620,0.09,0.15,-0.97,3.11,5.31,-6.96
45.9780,0.08,0.15,-0.98,2.50,4.70,-3.54
45.9940,0.08,0.12,-0.99,2.44,4.52,-3.30
46.0100,0.11,0.07,-0.99,2.75,4.88,-5.55
46.0270,0.08,0.10,-1.00,4.03,6.04,-14.28
46.0280,0.07,0.08,-0.99,4.09,6.53,-16.78
46.0560,0.07,0.12,-0.99,5.19,6.71,-18.49
46.0710,0.06,0.15,-0.98,4.94,5.49,-13.12
46.0870,0.08,0.14,-0.98,4.09,4.76,-5.86
46.0940,0.09,0.14,-0.99,3.66,4.76,-6.35
46.1100,0.09,0.13,-0.99,3.54,5.19,-7.39
46.1310,0.09,0.16,-0.98,3.36,5.07,-7.08
46.1460,0.08,0.15,-0.98,2.99,3.91,-2.75
46.1610,0.08,0.14,-0.98,2.69,3.42,0.67
46.1690,0.08,0.13,-0.99,2.75,3.60,1.16
46.1860,0.08,0.13,-0.99,2.75,3.54,0.98
46.2020,0.08,0.13,-0.99,2.87,3.78,0.49
46.2190,0.08,0.13,-0.99,2.50,3.72,0.85
46.2360,0.08,0.13,-0.99,2.44,3.66,1.22
46.2530,0.08,0.12,-0.99,2.38,3.48,1.71
46.2690,0.08,0.12,-0.99,2.44,3.66,1.40
46.2860,0.08,0.12,-0.99,2.50,3.66,0.24
46.3020,0.08,0.12,-0.99,2.44,4.21,-0.24
46.3190,0.08,0.12,-0.99,2.81,4.39,-1.40
46.3350,0.07,0.10,-1.00,3.11,4.09,-2.08
46.3350,0.08,0.14,-0.98,3.23,4.46,-3.48
46.3670,0.08,0.15,-0.99,4.09,3.78,-1.89
46.3690,0.08,0.13,-0.99,3.60,3.91,-0.49
46.3990,0.08,0.13,-0.99,2.75,3.72,0.73
46.4150,0.07,0.12,-0.99,2.50,3.42,2.08
46.4190,0.08,0.13,-0.99,2.14,3.60,2.08
46.4370,0.08,0.13,-0.99,2.20,3.66,2.14
46.4600,0.08,0.13,-0.99,2.20,3.66,2.38
46.4690,0.08,0.12,-0.99,2.44,3.48,2.44
46.4860,0.08,0.12,-0.99,2.44,3.48,2.26
46.5020,0.08,0.12,-0.99,2.81,3.60,1.34
46.5190,0.08,0.12,-0.99,3.48,3.85,-0.49
46.5360,0.07,0.12,-0.99,3.17,4.39,-2.99
46.5530,0.05,0.09,-1.00,3.60,4.58,-3.48
46.5690,0.07,0.12,-0.99,3.36,4.52,-3.91
46.5850,0.08,0.13,-0.99,3.11,3.97,-1.95
46.6000,0.09,0.14,-0.99,3.11,3.97,-0.37
46.6150,0.09,0.14,-0.98,2.87,3.85,0.37
46.6300,0.09,0.14,-0.98,2.87,3.78,0.92
46.6450,0.09,0.14,-0.98,2.69,3.78,1.16
46.6600,0.08,0.13,-0.98,2.75,3.54,1.28
46.6690,0.08,0.13,-0.99,2.56,3.72,0.92
46.6840,0.08,0.11,-0.99,2.50,3.54,0.37
46.7040,0.08,0.12,-1.00,2.99,3.60,0.43
46.7200,0.07,0.13,-0.99,2.87,3.66,-1.28
46.7270,0.06,0.13,-1.01,3.72,4.15,-2.69
46.7430,0.08,0.14,-0.99,3.36,4.33,-3.30
46.7670,0.08,0.14,-0.98,3.17,3.91,-1.95
46.7840,0.09,0.13,-0.99,2.81,3.66,-0.49
46.8010,0.09,0.12,-0.99,3.05,3.91,-0.37
46.8170,0.09,0.12,-0.99,2.93,4.03,-1.28
46.8330,0.08,0.12,-0.99,2.87,4.27,-2.44
46.8480,0.08,0.12,-0.99,2.99,4.15,-2.93
46.8650,0.07,0.12,-0.99,3.05,4.58,-4.82
46.8680,0.07,0.14,-1.00,3.48,4.82,-5.37
46.8830,0.08,0.15,-0.98,2.62,4.27,-3.48
46.9110,0.09,0.14,-0.98,2.32,3.97,-0.37
46.9250,0.08,0.13,-0.99,2.56,3.72,0.85
46.9290,0.08,0.13,-0.98,2.62,3.42,0.98
46.9460,0.08,0.12,-0.99,2.75,3.60,0.61
46.9710,0.09,0.12,-0.97,3.54,3.66,-0.18
46.9790,0.08,0.14,-0.99,3.23,3.72,-1.77
46.9950,0.08,0.13,-0.99,3.78,4.03,-2.32
47.0180,0.08,0.14,-0.98,2.93,4.09,-2.44
47.0190,0.08,0.12,-0.98,2.87,4.09,-2.38
47.0500,0.08,0.14,-0.99,3.11,3.60,-1.89
47.0520,0.08,0.13,-0.99,2.50,3.85,-0.61
47.0680,0.08,0.13,-0.99,2.20,3.78,0.49
47.0920,0.08,0.10,-0.97,2.08,3.85,0.43
47.1090,0.07,0.11,-1.00,2.38,4.15,-2.32
47.1250,0.09,0.06,-0.99,2.93,4.64,-3.91
47.1410,0.09,0.08,-1.00,3.36,5.55,-9.64
47.1570,0.08,0.12,-0.98,2.75,6.16,-13.00
47.1580,0.08,0.16,-0.97,2.01,5.86,-10.99
47.1890,0.09,0.13,-0.96,2.87,5.37,-9.28
47.2040,0.09,0.16,-0.98,2.99,5.13,-7.45
47.2090,0.08,0.15,-0.99,3.17,4.21,-4.27
47.2360,0.09,0.13,-0.98,2.50,4.46,-3.23
47.2420,0.09,0.10,-1.00,2.69,4.52,-3.17
47.2600,0.10,0.01,-1.01,2.75,5.13,-6.41
47.2760,0.08,0.00,-0.99,2.93,6.53,-18.19
47.2920,0.07,0.13,-0.99,4.58,6.59,-19.71
47.3080,0.08,0.14,-0.99,3.85,6.29,-14.28
47.3260,0.07,0.23,-0.99,2.44,5.92,-12.39
47.3430,0.07,0.28,-0.97,1.71,4.82,-5.31
