Timestamp, AccX, AccY, AccZ, GyroX, GyroY, GyroZ
0.0110,0.08,0.10,-0.98,2.56,3.97,1.95
0.0260,0.07,0.11,-0.99,3.23,3.78,1.95
0.0330,0.07,0.12,-1.00,2.75,4.09,1.83
0.0560,0.08,0.11,-0.99,2.87,3.66,1.83
0.0710,0.08,0.11,-0.99,3.05,3.66,1.89
0.0830,0.08,0.11,-0.99,2.93,4.03,1.95
0.1000,0.07,0.11,-0.99,2.75,3.97,2.01
0.1160,0.07,0.11,-0.99,2.99,4.15,2.08
0.1310,0.08,0.11,-0.99,3.30,3.60,2.14
0.1330,0.08,0.11,-0.99,3.05,3.91,2.20
0.1610,0.08,0.11,-0.99,3.17,3.66,1.95
0.1760,0.08,0.11,-0.99,2.93,4.09,1.89
0.1830,0.07,0.11,-0.99,2.81,3.78,2.01
0.2060,0.07,0.11,-0.99,3.23,3.78,1.95
0.2210,0.08,0.11,-0.99,3.05,3.91,1.95
0.2330,0.08,0.11,-0.99,2.99,3.78,2.08
0.2500,0.08,0.11,-0.99,3.05,3.42,2.14
0.2660,0.08,0.11,-0.99,2.93,3.85,2.08
0.2810,0.07,0.11,-0.99,2.93,3.72,2.08
0.2960,0.07,0.11,-0.99,2.99,3.78,2.08
0.3000,0.07,0.11,-0.99,3.11,3.66,1.95
0.3260,0.08,0.11,-0.99,2.81,3.72,2.01
0.3410,0.08,0.11,-0.99,2.93,4.03,1.89
0.3560,0.08,0.11,-0.99,3.05,3.85,2.01
0.3670,0.07,0.11,-0.99,3.11,3.72,2.01
0.3820,0.08,0.11,-0.99,3.11,3.60,2.01
0.4000,0.07,0.11,-0.99,3.11,3.97,2.08
0.4160,0.07,0.11,-0.99,2.93,4.27,2.08
0.4170,0.07,0.11,-0.99,2.87,3.66,2.08
0.4460,0.08,0.11,-0.99,2.99,3.72,2.08
0.4610,0.07,0.11,-0.99,2.93,3.85,2.01
0.4760,0.07,0.11,-0.99,2.87,3.60,1.95
0.4830,0.08,0.11,-0.99,2.93,3.78,1.89
0.5060,0.07,0.11,-0.99,2.93,3.60,2.14
0.5210,0.07,0.11,-0.99,2.69,3.91,2.08
0.5330,0.08,0.11,-0.99,3.11,3.85,1.89
0.5500,0.08,0.11,-0.99,3.05,4.15,2.01
0.5660,0.07,0.11,-0.99,2.93,3.72,1.95
0.5820,0.07,0.11,-0.99,2.99,3.78,2.01
0.5960,0.08,0.11,-0.99,2.75,3.72,1.95
0.6120,0.08,0.11,-0.99,2.87,3.85,2.01
0.6270,0.07,0.11,-0.99,3.05,3.60,1.95
0.6420,0.08,0.11,-0.99,2.99,3.97,2.14
0.6500,0.07,0.11,-0.99,3.11,3.66,2.14
0.6720,0.07,0.11,-0.99,3.05,3.97,2.08
0.6830,0.07,0.11,-1.00,2.93,3.97,2.08
0.7000,0.07,0.11,-0.97,2.93,3.60,1.95
0.7180,0.08,0.11,-1.03,3.42,3.78,2.01
0.7180,0.08,0.12,-1.00,2.99,3.72,2.08
0.7460,0.07,0.12,-0.98,2.32,4.21,2.01
0.7620,0.07,0.11,-1.00,2.75,3.78,2.08
0.7770,0.09,0.12,-1.03,3.11,3.85,2.08
0.7920,0.09,0.11,-0.99,3.05,3.60,2.01
0.8070,0.08,0.11,-0.96,3.05,3.66,2.01
0.8220,0.07,0.11,-0.99,2.75,4.03,2.08
0.8330,0.07,0.12,-1.03,2.75,4.21,2.01
0.8490,0.07,0.11,-0.98,3.23,3.48,1.95
0.8670,0.08,0.11,-0.97,3.42,3.23,2.01
0.8820,0.08,0.11,-0.99,3.23,3.72,2.14
0.8830,0.07,0.11,-1.01,2.32,4.15,2.14
0.9110,0.07,0.11,-0.98,3.11,3.66,1.89
0.9270,0.07,0.11,-1.00,3.42,3.85,2.20
0.9420,0.08,0.11,-0.99,3.23,3.72,2.14
0.9570,0.08,0.11,-0.99,2.69,3.72,1.89
0.9720,0.08,0.11,-1.00,2.50,3.85,2.14
0.9880,0.08,0.11,-1.00,2.99,3.54,1.89
1.0000,0.07,0.11,-0.98,3.23,3.23,1.89
1.0160,0.07,0.12,-0.98,3.17,3.72,2.08
1.0310,0.08,0.12,-0.99,2.81,4.27,1.89
1.0460,0.08,0.11,-1.00,2.87,4.03,1.89
1.0620,0.07,0.11,-1.00,3.05,3.85,2.14
1.0770,0.08,0.11,-0.99,3.23,3.72,2.01
1.0920,0.07,0.11,-0.98,2.87,3.72,2.08
1.1070,0.07,0.11,-1.00,2.62,4.15,2.08
1.1220,0.07,0.11,-1.00,2.69,4.15,1.95
1.1320,0.07,0.11,-1.00,3.11,3.42,1.89
1.1500,0.08,0.11,-0.99,3.17,3.66,2.01
1.1670,0.08,0.11,-0.99,2.81,3.97,1.95
1.1820,0.07,0.11,-1.00,2.81,3.66,2.01
1.1840,0.07,0.11,-1.00,2.99,3.85,2.08
1.2120,0.07,0.11,-1.00,3.17,3.60,2.01
1.2270,0.08,0.12,-0.98,3.05,3.91,2.08
1.2420,0.08,0.12,-0.99,2.99,3.97,2.20
1.2570,0.08,0.11,-1.00,2.62,4.15,2.08
1.2720,0.08,0.11,-1.00,2.75,3.72,2.01
1.2830,0.07,0.11,-0.98,3.11,3.60,2.01
1.2990,0.08,0.11,-1.00,3.78,3.42,2.14
1.3170,0.08,0.11,-0.97,2.62,3.91,2.01
1.3170,0.07,0.11,-0.98,2.14,4.33,2.01
1.3470,0.07,0.11,-1.01,2.81,4.03,1.95
1.3630,0.08,0.12,-1.02,3.30,3.66,2.01
1.3670,0.08,0.11,-0.96,3.11,3.36,1.95
1.3920,0.08,0.12,-0.98,3.05,4.03,2.08
1.4000,0.08,0.12,-1.01,2.50,4.27,2.01
1.4220,0.08,0.12,-1.03,2.50,4.27,2.01
1.4340,0.07,0.11,-0.98,3.11,3.42,1.89
1.4500,0.08,0.12,-0.98,3.23,3.78,2.01
1.4670,0.08,0.11,-1.00,2.56,4.03,2.14
1.4820,0.08,0.11,-1.01,2.26,3.97,1.95
1.4960,0.07,0.11,-0.99,2.75,3.54,1.95
1.5130,0.07,0.11,-0.99,3.30,3.48,1.95
1.5270,0.07,0.11,-0.98,2.93,3.97,2.01
1.5340,0.07,0.11,-0.99,2.44,3.85,2.01
1.5570,0.07,0.11,-1.00,2.50,4.03,1.95
1.5720,0.07,0.11,-1.00,3.17,3.48,1.89
1.5830,0.08,0.12,-0.98,3.23,3.36,1.95
1.6010,0.08,0.12,-0.99,3.11,3.85,1.89
1.6160,0.08,0.12,-0.99,2.56,4.15,2.08
1.6320,0.08,0.12,-1.00,2.56,3.85,2.01
1.6470,0.08,0.12,-1.00,2.93,3.72,2.01
1.6620,0.08,0.12,-0.98,2.99,3.48,1.95
1.6770,0.08,0.12,-0.99,2.87,4.03,1.89
1.6920,0.07,0.12,-1.00,2.69,3.91,1.89
1.7070,0.07,0.11,-1.00,2.81,3.97,2.08
1.7220,0.08,0.11,-0.99,2.81,3.72,1.95
1.7320,0.08,0.11,-0.99,3.05,3.60,1.95
1.7500,0.07,0.11,-1.00,2.75,3.72,2.01
1.7660,0.07,0.11,-1.00,2.56,3.72,2.01
1.7820,0.07,0.10,-1.00,2.75,3.91,2.01
1.7970,0.07,0.11,-0.99,2.93,3.72,1.89
1.8000,0.07,0.11,-0.99,3.05,3.42,2.01
1.8270,0.07,0.11,-1.00,2.69,3.60,2.20
1.8420,0.07,0.11,-1.00,2.69,3.91,2.14
1.8570,0.08,0.12,-0.99,2.93,4.03,2.08
1.8720,0.08,0.12,-0.99,2.99,3.72,1.89
1.8830,0.08,0.12,-0.99,2.81,4.03,2.08
1.9010,0.08,0.12,-0.99,2.87,3.91,1.89
1.9160,0.08,0.12,-1.00,2.93,3.72,2.01
1.9320,0.08,0.12,-0.99,2.81,3.48,2.08
1.9330,0.08,0.11,-0.99,2.99,3.72,2.14
1.9620,0.08,0.11,-0.99,2.87,4.15,2.14
1.9670,0.07,0.11,-1.00,2.87,3.97,2.01
1.9910,0.07,0.11,-1.00,3.11,3.78,2.14
2.0070,0.07,0.11,-0.99,2.87,3.54,2.75
2.0220,0.07,0.11,-0.99,2.81,3.17,5.55
2.0320,0.07,0.10,-0.99,2.56,3.11,5.19
2.0490,0.07,0.10,-1.00,2.62,3.42,3.85
2.0670,0.08,0.11,-1.00,2.62,3.78,2.14
2.0670,0.08,0.12,-0.99,3.05,3.60,2.01
2.0970,0.08,0.12,-0.99,2.75,3.91,2.14
2.1000,0.08,0.12,-0.99,2.87,3.72,2.01
2.1270,0.08,0.12,-0.99,2.81,3.54,1.95
2.1330,0.08,0.12,-0.99,2.81,3.42,2.01
2.1570,0.08,0.12,-0.99,2.93,3.78,2.08
2.1670,0.08,0.11,-0.99,2.87,3.91,1.95
2.1830,0.07,0.11,-0.99,2.75,3.78,1.89
2.1990,0.07,0.11,-1.00,2.75,3.54,1.95
2.2170,0.07,0.11,-1.00,2.93,3.91,1.89
2.2170,0.07,0.10,-0.98,3.11,3.72,1.89
2.2470,0.08,0.11,-1.00,3.48,3.91,2.01
2.2620,0.08,0.11,-0.99,2.75,4.27,2.14
2.2770,0.07,0.11,-0.98,2.56,3.97,1.83
2.2920,0.07,0.12,-1.00,3.11,3.78,2.01
2.3070,0.07,0.12,-1.00,3.30,3.72,1.95
2.3210,0.08,0.12,-0.98,3.05,3.54,1.89
2.3320,0.08,0.12,-0.98,2.93,3.54,2.08
2.3490,0.08,0.12,-1.00,2.56,4.09,2.01
2.3650,0.08,0.12,-1.01,2.81,3.66,2.01
2.3820,0.08,0.12,-0.99,2.81,3.66,2.01
2.3840,0.08,0.12,-0.98,3.05,3.66,1.95
2.4120,0.08,0.11,-1.00,2.81,3.85,2.01
2.4270,0.07,0.11,-1.00,2.75,3.85,2.08
2.4420,0.07,0.11,-0.99,3.11,3.54,1.95
2.4570,0.07,0.11,-1.00,3.17,3.72,2.14
2.4720,0.08,0.11,-0.99,2.99,3.85,2.01
2.4820,0.07,0.11,-0.99,2.69,4.09,2.08
2.5000,0.07,0.11,-1.00,2.87,3.91,1.83
2.5160,0.07,0.11,-1.00,3.17,3.23,2.14
2.5320,0.08,0.11,-0.99,3.11,3.42,2.01
2.5470,0.08,0.11,-0.99,2.93,3.78,2.14
2.5620,0.08,0.12,-1.00,2.99,3.91,1.83
2.5770,0.07,0.12,-1.00,2.69,3.85,1.89
2.5920,0.08,0.12,-0.99,2.81,3.66,1.95
2.6070,0.08,0.12,-0.99,2.99,3.91,1.95
2.6170,0.08,0.11,-0.99,2.69,4.03,1.83
2.6320,0.08,0.11,-1.00,2.56,3.91,1.95
2.6500,0.07,0.11,-1.00,2.75,3.85,1.95
2.6660,0.07,0.11,-0.99,2.93,3.54,1.71
2.6680,0.07,0.11,-0.99,2.99,3.60,1.89
2.6970,0.07,0.11,-1.00,2.81,3.85,2.01
2.7110,0.07,0.12,-1.00,2.75,3.91,2.44
2.7270,0.07,0.12,-0.99,2.87,3.97,4.39
2.7420,0.07,0.12,-0.99,2.56,3.23,5.13
2.7570,0.08,0.11,-0.99,2.87,3.11,4.58
2.7720,0.08,0.12,-0.99,2.50,3.42,4.39
2.7830,0.08,0.11,-0.99,2.69,3.36,4.88
2.7990,0.08,0.11,-0.99,2.56,3.48,4.27
2.8170,0.08,0.12,-0.99,3.05,3.85,2.81
2.8320,0.08,0.12,-0.99,2.81,3.48,2.87
2.8470,0.08,0.11,-0.99,2.50,3.66,3.85
2.8620,0.08,0.11,-0.99,2.75,3.42,4.21
2.8770,0.07,0.11,-1.00,2.75,3.36,4.21
2.8830,0.07,0.10,-0.99,2.62,3.48,3.85
2.9070,0.07,0.11,-1.00,2.69,3.97,2.75
2.9220,0.07,0.11,-1.00,2.69,3.78,2.20
2.9320,0.07,0.11,-1.00,2.81,3.97,2.14
2.9490,0.08,0.12,-0.99,2.87,3.66,2.50
2.9660,0.08,0.12,-0.99,2.81,3.54,3.36
2.9810,0.08,0.12,-0.99,2.75,3.48,3.66
2.9840,0.08,0.11,-1.00,2.87,3.72,2.93
3.0120,0.08,0.12,-0.99,2.93,3.78,2.62
3.0270,0.08,0.12,-0.99,2.81,3.66,2.50
3.0330,0.08,0.12,-0.99,2.75,3.60,2.99
3.0560,0.08,0.12,-0.99,2.62,3.42,3.48
3.0720,0.08,0.11,-0.99,2.69,3.60,3.42
3.0840,0.07,0.11,-0.99,2.69,3.42,3.36
3.0990,0.07,0.11,-0.99,2.75,3.23,3.60
3.1160,0.07,0.11,-0.99,2.69,3.36,3.54
3.1320,0.07,0.11,-1.00,2.87,3.97,2.99
3.1480,0.07,0.11,-1.00,2.87,3.36,2.81
3.1630,0.08,0.11,-0.99,2.93,3.66,2.75
3.1780,0.07,0.11,-0.99,2.99,3.48,2.87
3.1930,0.07,0.11,-1.00,2.93,3.36,2.44
3.2080,0.08,0.12,-0.99,2.87,3.85,1.89
3.2220,0.08,0.12,-0.99,2.87,3.91,2.08
3.2380,0.08,0.12,-0.99,3.17,3.72,2.01
3.2490,0.08,0.12,-0.99,2.93,3.78,1.95
3.2660,0.08,0.12,-0.99,2.81,3.72,2.01
3.2830,0.08,0.12,-0.99,2.99,3.85,1.95
3.2840,0.08,0.12,-0.99,2.87,3.85,2.20
3.3000,0.08,0.12,-0.99,2.93,3.66,2.38
3.3280,0.08,0.12,-0.99,3.23,3.42,2.50
3.3330,0.08,0.12,-0.99,2.81,3.91,2.75
3.3500,0.07,0.11,-1.00,2.93,3.85,2.93
3.3690,0.07,0.10,-0.99,2.93,3.54,2.69
3.3830,0.07,0.11,-1.00,3.17,3.72,2.14
3.3990,0.08,0.12,-0.99,3.11,3.42,2.26
3.4160,0.08,0.12,-0.99,3.05,3.42,2.56
3.4330,0.07,0.11,-0.99,2.99,3.42,3.11
3.4480,0.07,0.11,-1.00,2.44,3.60,3.97
3.4630,0.08,0.12,-0.99,2.93,3.23,4.39
3.4770,0.08,0.11,-0.99,2.75,3.54,4.70
3.4930,0.08,0.11,-0.99,2.81,3.72,2.99
3.5080,0.08,0.11,-1.00,3.17,3.72,2.38
3.5220,0.08,0.12,-0.99,2.87,3.72,2.20
3.5330,0.07,0.12,-0.99,3.11,3.85,2.44
3.5490,0.07,0.12,-0.99,2.75,3.85,2.93
3.5660,0.08,0.12,-0.99,2.62,3.78,3.17
3.5830,0.08,0.12,-1.00,2.75,3.91,3.54
3.5970,0.07,0.11,-1.00,2.87,3.48,2.99
3.6130,0.07,0.11,-0.99,2.99,3.85,2.62
3.6280,0.07,0.11,-0.99,2.81,3.54,2.93
3.6460,0.07,0.11,-1.00,2.87,3.66,3.60
3.6500,0.07,0.11,-1.00,2.62,3.66,3.97
3.6750,0.07,0.11,-0.99,2.50,3.60,4.09
3.6900,0.08,0.11,-0.99,2.81,3.72,3.42
3.7050,0.08,0.11,-0.99,2.87,3.78,2.87
3.7160,0.08,0.12,-0.99,2.93,3.78,3.11
3.7340,0.08,0.12,-0.99,2.81,3.60,3.17
3.7490,0.08,0.12,-0.99,2.93,3.72,2.93
3.7650,0.08,0.12,-0.99,2.87,3.54,3.11
3.7690,0.08,0.12,-0.99,2.75,3.60,3.85
3.7950,0.07,0.11,-1.00,2.75,3.36,4.09
3.8100,0.07,0.11,-0.99,2.69,3.54,4.33
3.8250,0.07,0.11,-1.00,2.69,3.54,3.48
3.8330,0.07,0.10,-1.00,2.75,3.48,3.05
3.8540,0.07,0.11,-1.00,2.81,3.85,2.56
3.8690,0.07,0.11,-0.99,2.81,4.09,2.87
3.8840,0.07,0.11,-1.00,2.99,3.48,3.78
3.9000,0.07,0.11,-0.99,2.75,3.48,3.97
3.9000,0.08,0.12,-0.99,2.75,3.60,3.05
3.9300,0.08,0.13,-0.99,2.93,3.72,2.56
3.9440,0.08,0.11,-0.99,2.81,3.66,3.36
3.9600,0.08,0.12,-0.99,2.62,3.66,3.78
3.9750,0.08,0.12,-0.99,2.56,3.60,3.78
3.9890,0.08,0.12,-0.99,2.81,3.60,4.27
3.9990,0.08,0.11,-1.00,2.81,3.54,4.46
4.0160,0.08,0.11,-0.99,2.75,3.48,3.72
4.0330,0.08,0.11,-0.99,2.93,3.66,2.69
4.0490,0.07,0.12,-0.99,2.75,3.66,3.11
4.0650,0.07,0.12,-0.99,2.75,3.72,3.54
4.0810,0.07,0.11,-0.99,2.69,3.91,4.09
4.0840,0.07,0.11,-1.00,2.69,3.42,4.39
4.1110,0.08,0.11,-0.99,2.62,3.36,5.00
4.1170,0.07,0.10,-1.00,2.75,3.30,4.58
4.1340,0.07,0.10,-1.00,2.87,3.54,3.48
4.1500,0.08,0.11,-1.00,2.99,3.66,2.99
4.1700,0.08,0.12,-0.99,2.75,3.97,2.44
4.1830,0.08,0.13,-0.99,2.69,4.15,2.62
4.1990,0.08,0.12,-0.99,2.69,3.30,3.23
4.2160,0.07,0.12,-0.99,2.62,3.42,3.60
4.2170,0.08,0.12,-0.99,2.69,3.30,4.46
4.2460,0.08,0.12,-0.99,2.69,3.60,4.33
4.2610,0.08,0.12,-0.99,2.62,3.66,3.91
4.2700,0.08,0.11,-1.00,2.56,3.30,4.33
4.2910,0.07,0.11,-1.00,2.56,3.48,4.64
4.3060,0.07,0.11,-0.99,2.44,3.30,5.43
4.3210,0.07,0.10,-1.00,2.81,3.30,4.82
4.3330,0.07,0.10,-1.00,2.56,3.36,3.54
4.3490,0.08,0.11,-0.99,2.69,3.66,2.69
4.3660,0.08,0.12,-0.99,2.75,3.66,2.93
4.3810,0.07,0.12,-0.99,2.81,3.42,3.66
4.3970,0.08,0.12,-0.99,2.75,3.66,4.52
4.4130,0.08,0.12,-0.99,2.56,3.48,4.52
4.4290,0.08,0.12,-0.99,2.99,3.54,4.82
4.4440,0.08,0.12,-0.99,2.56,3.05,4.94
4.4580,0.08,0.12,-0.99,2.62,3.42,4.76
4.4750,0.08,0.11,-0.99,2.69,3.42,4.70
4.4900,0.08,0.11,-1.00,2.56,3.66,4.64
4.5050,0.07,0.10,-1.00,2.87,3.36,4.33
4.5170,0.07,0.11,-0.99,2.87,3.48,4.15
4.5350,0.07,0.11,-0.99,2.81,3.60,4.21
4.5490,0.08,0.12,-0.99,2.87,3.36,4.33
4.5650,0.08,0.12,-0.99,2.93,3.60,4.21
4.5800,0.08,0.11,-0.99,2.93,3.66,4.33
4.5840,0.08,0.11,-1.00,2.93,3.54,4.09
4.6100,0.08,0.12,-0.99,2.81,3.42,3.85
4.6240,0.08,0.13,-0.99,2.69,3.85,3.97
4.6330,0.08,0.13,-1.00,2.62,3.66,4.39
4.6500,0.08,0.12,-0.99,2.56,3.17,5.92
4.6680,0.08,0.11,-0.99,2.56,3.30,6.23
4.6840,0.08,0.10,-0.99,2.44,3.42,5.68
4.6990,0.08,0.10,-1.00,2.87,3.66,5.13
4.7150,0.08,0.12,-1.00,2.81,3.54,4.21
4.7300,0.07,0.12,-0.99,2.69,3.48,5.07
4.7450,0.07,0.11,-0.99,2.81,3.60,5.00
4.7590,0.07,0.10,-1.00,2.62,3.30,4.33
4.7710,0.07,0.10,-1.00,2.99,3.66,3.30
4.7840,0.07,0.12,-0.99,2.93,3.91,3.11
4.8010,0.08,0.12,-0.99,2.93,3.60,3.42
4.8160,0.08,0.13,-0.99,2.75,3.42,4.15
4.8330,0.08,0.13,-0.99,2.50,3.36,5.00
4.8500,0.08,0.11,-1.00,2.69,3.36,5.00
4.8510,0.08,0.10,-1.00,2.87,3.30,4.33
4.8800,0.07,0.11,-0.99,2.69,3.48,4.03
4.8950,0.08,0.12,-0.99,2.62,3.60,3.97
4.9110,0.08,0.13,-0.99,2.69,3.60,4.46
4.9260,0.08,0.12,-0.99,2.62,3.54,5.49
4.9420,0.08,0.12,-0.99,2.75,3.17,5.80
4.9570,0.08,0.11,-0.99,2.87,3.42,4.94
4.9710,0.07,0.10,-1.00,2.93,3.30,4.58
4.9820,0.07,0.11,-1.00,2.62,3.23,4.33
4.9990,0.08,0.11,-0.99,2.69,3.36,4.82
5.0170,0.08,0.12,-0.99,2.56,3.17,5.55
5.0170,0.08,0.11,-1.00,2.50,3.36,5.25
5.0470,0.08,0.11,-0.99,2.69,3.30,4.52
5.0620,0.08,0.12,-0.99,2.62,3.23,4.58
5.0760,0.08,0.12,-0.99,2.75,3.66,4.76
5.0920,0.08,0.11,-0.99,2.75,3.60,4.64
5.1070,0.08,0.12,-0.99,2.75,3.42,4.52
5.1210,0.08,0.13,-0.99,2.56,3.17,5.68
5.1320,0.08,0.13,-0.99,2.62,2.93,6.96
5.1500,0.08,0.12,-0.99,2.62,3.11,6.84
5.1670,0.08,0.11,-0.99,2.62,3.17,5.98
5.1710,0.07,0.10,-1.00,2.44,3.54,5.13
5.1840,0.08,0.10,-1.00,2.62,3.23,4.70
5.2120,0.08,0.12,-0.99,2.50,3.54,4.76
5.2270,0.08,0.12,-0.99,2.69,3.23,5.43
5.2430,0.08,0.11,-0.99,2.62,2.99,5.19
5.2500,0.08,0.10,-1.00,2.62,3.36,5.00
5.2720,0.07,0.10,-1.00,2.62,3.30,4.76
5.2830,0.07,0.11,-0.99,2.75,3.36,4.15
5.3000,0.08,0.12,-0.99,2.75,3.60,4.33
5.3160,0.08,0.12,-0.99,2.75,3.30,4.39
5.3330,0.08,0.13,-0.99,2.62,3.36,4.70
5.3470,0.08,0.12,-0.99,2.69,3.48,5.43
5.3620,0.08,0.11,-0.99,2.62,3.36,5.25
5.3780,0.08,0.11,-0.99,2.87,3.23,4.76
5.3930,0.08,0.11,-0.99,2.81,3.30,4.58
5.4070,0.07,0.11,-0.99,2.81,3.66,4.46
5.4230,0.08,0.11,-0.99,2.75,3.60,4.76
5.4330,0.08,0.10,-0.99,2.50,3.66,4.52
5.4500,0.07,0.11,-0.99,2.69,3.66,4.27
5.4670,0.08,0.12,-0.99,2.50,3.54,4.33
5.4720,0.08,0.12,-1.00,2.75,3.36,5.00
5.4980,0.08,0.12,-0.99,2.50,3.42,5.13
5.5130,0.08,0.12,-0.99,2.69,3.17,5.37
5.5280,0.08,0.12,-0.99,2.69,3.30,5.00
5.5430,0.08,0.12,-0.99,2.69,3.60,5.31
5.5580,0.08,0.12,-0.99,2.69,3.11,5.62
5.5730,0.08,0.12,-0.99,2.56,3.66,5.00
5.5830,0.08,0.12,-0.99,2.69,3.30,5.13
5.6000,0.08,0.13,-0.99,2.75,3.42,5.68
5.6170,0.08,0.13,-0.99,2.50,2.99,6.53
5.6330,0.08,0.11,-1.00,2.62,3.11,7.14
5.6340,0.08,0.09,-1.00,2.56,3.23,6.04
5.6630,0.08,0.10,-0.99,2.81,3.60,5.07
5.6770,0.08,0.11,-0.99,2.69,3.48,4.88
5.6930,0.07,0.11,-1.00,2.62,3.42,4.64
5.7070,0.07,0.11,-1.00,2.69,3.54,4.64
5.7230,0.07,0.10,-1.00,2.56,3.36,4.21
5.7330,0.08,0.11,-1.00,2.75,3.66,3.78
5.7490,0.07,0.13,-0.99,2.75,3.42,3.91
5.7660,0.08,0.14,-0.99,2.50,3.23,5.62
5.7820,0.08,0.13,-0.99,2.56,3.11,6.41
5.7980,0.08,0.13,-0.99,2.69,3.23,7.08
5.8120,0.08,0.10,-1.00,2.50,2.93,6.29
5.8280,0.07,0.10,-1.00,2.56,3.30,5.00
5.8420,0.07,0.11,-0.99,2.69,3.72,4.76
5.8580,0.07,0.11,-0.99,2.75,3.42,4.46
5.8730,0.07,0.12,-0.99,2.69,3.66,4.39
5.8830,0.08,0.12,-0.99,2.56,3.23,5.86
5.9000,0.08,0.12,-0.99,2.50,3.11,5.86
5.9170,0.08,0.11,-0.99,2.56,3.30,5.37
5.9330,0.08,0.11,-0.99,2.87,3.17,5.19
5.9480,0.08,0.11,-0.99,2.69,3.36,4.82
5.9620,0.07,0.11,-0.99,2.69,3.23,4.52
5.9780,0.08,0.11,-0.99,2.75,3.60,4.58
5.9930,0.08,0.12,-0.99,2.81,3.48,4.39
6.0080,0.08,0.13,-0.99,2.75,3.48,4.39
6.0230,0.08,0.13,-0.99,2.56,3.42,5.31
6.0380,0.08,0.12,-0.99,2.69,3.17,6.35
6.0490,0.08,0.11,-0.99,2.62,2.99,6.35
6.0670,0.08,0.11,-1.00,2.50,3.36,5.86
6.0830,0.08,0.11,-1.00,2.56,3.23,5.74
6.0980,0.08,0.12,-0.99,2.69,3.11,5.25
6.1130,0.08,0.11,-0.99,2.75,3.11,5.49
6.1170,0.07,0.11,-0.99,2.75,3.11,5.00
6.1450,0.08,0.11,-0.99,2.69,3.05,5.49
6.1600,0.08,0.11,-1.00,2.56,3.60,4.64
6.1750,0.08,0.11,-0.99,2.62,3.91,3.85
6.1900,0.08,0.12,-0.99,2.81,3.66,2.99
6.2000,0.08,0.12,-0.99,2.69,3.54,3.23
6.2170,0.08,0.13,-0.99,2.75,3.36,3.78
6.2320,0.08,0.13,-0.99,2.75,3.11,4.15
6.2500,0.08,0.11,-0.99,2.87,3.23,4.39
6.2650,0.08,0.11,-0.99,2.81,3.36,4.27
6.2800,0.08,0.11,-0.99,2.75,3.48,4.21
6.2950,0.07,0.11,-0.99,2.81,3.36,4.52
6.3100,0.08,0.11,-0.99,2.62,3.60,4.52
6.3250,0.08,0.12,-0.99,2.75,3.30,5.07
6.3400,0.08,0.12,-1.00,2.93,3.23,5.62
6.3550,0.08,0.12,-0.99,2.69,3.54,5.25
6.3670,0.08,0.12,-0.99,2.81,3.05,5.43
6.3830,0.08,0.11,-0.99,2.69,3.66,5.19
6.4000,0.08,0.12,-0.99,2.81,3.17,5.31
6.4000,0.08,0.11,-0.99,2.69,3.17,5.62
6.4290,0.08,0.12,-0.99,2.81,3.17,5.49
6.4440,0.08,0.12,-0.99,2.81,3.17,5.62
6.4590,0.08,0.12,-0.99,2.56,3.17,5.98
6.4750,0.08,0.10,-1.00,2.50,3.23,5.25
6.4900,0.08,0.12,-0.99,2.69,3.42,4.39
6.5040,0.08,0.12,-0.99,2.75,3.36,5.13
6.5170,0.08,0.13,-0.99,2.62,2.81,5.98
6.5330,0.08,0.13,-0.99,2.38,2.81,6.96
6.5500,0.08,0.11,-0.99,2.50,3.23,6.53
6.5650,0.08,0.11,-0.99,2.75,3.11,5.55
6.5800,0.08,0.12,-0.99,2.87,3.11,5.19
6.5950,0.08,0.10,-1.00,2.87,3.30,5.62
6.6100,0.07,0.10,-1.00,2.50,3.54,4.21
6.6250,0.08,0.11,-1.00,2.99,3.78,3.66
6.6400,0.08,0.11,-0.99,3.11,3.36,3.30
6.6500,0.08,0.12,-0.99,2.75,3.48,3.48
6.6650,0.08,0.13,-0.99,2.87,3.42,4.39
6.6830,0.08,0.12,-0.99,2.32,3.23,5.07
6.6990,0.08,0.11,-0.99,2.69,3.54,4.27
6.7160,0.08,0.12,-0.99,2.75,3.72,3.48
6.7170,0.08,0.12,-0.99,2.93,3.72,3.78
6.7460,0.08,0.11,-0.99,2.62,3.36,4.21
6.7610,0.08,0.11,-0.99,2.62,3.66,4.33
6.7760,0.08,0.10,-0.99,2.69,3.66,3.54
6.7910,0.08,0.10,-0.99,2.69,3.60,3.17
6.8010,0.08,0.12,-0.99,2.81,3.60,3.36
6.8160,0.08,0.12,-0.99,2.87,3.78,3.42
6.8330,0.08,0.12,-0.99,2.75,3.60,3.85
6.8500,0.08,0.12,-0.99,2.81,3.42,4.03
6.8650,0.08,0.12,-0.99,2.81,3.54,3.97
6.8720,0.08,0.13,-0.99,2.69,2.93,4.88
6.8830,0.08,0.13,-0.99,2.81,3.17,5.31
6.9100,0.08,0.13,-0.99,2.81,3.54,5.43
6.9170,0.08,0.12,-0.99,2.87,2.81,6.47
6.9410,0.08,0.11,-0.99,2.69,2.99,6.41
6.9560,0.08,0.10,-1.00,2.56,3.05,5.86
6.9710,0.08,0.10,-1.00,2.75,3.17,5.31
6.9820,0.08,0.11,-0.99,2.87,3.60,4.27
7.0000,0.08,0.12,-0.99,2.81,3.42,4.27
7.0160,0.08,0.11,-0.99,2.81,3.17,4.09
7.0170,0.08,0.12,-0.99,2.93,3.78,4.39
7.0460,0.08,0.12,-0.99,2.44,3.17,5.43
7.0500,0.08,0.12,-0.99,2.50,2.93,6.35
7.0760,0.08,0.11,-0.99,2.62,2.99,6.35
7.0910,0.08,0.10,-0.99,2.93,3.05,4.88
7.1060,0.08,0.11,-0.99,2.81,3.48,3.91
7.1160,0.08,0.12,-0.99,2.99,3.91,3.66
7.1330,0.08,0.13,-0.99,2.69,3.23,4.88
7.1500,0.08,0.12,-0.99,2.62,3.30,5.19
7.1660,0.08,0.12,-0.99,2.81,3.66,5.25
7.1810,0.08,0.12,-0.99,2.87,3.42,5.74
7.1960,0.08,0.12,-0.99,2.75,3.23,6.04
7.2110,0.08,0.11,-0.99,2.62,3.36,6.10
7.2170,0.08,0.09,-1.00,2.69,3.11,5.19
7.2410,0.07,0.10,-1.00,2.87,3.72,3.36
7.2550,0.08,0.12,-0.99,3.11,3.78,2.99
7.2660,0.08,0.13,-0.99,2.87,3.48,3.78
7.2830,0.08,0.13,-0.99,2.75,3.36,4.76
7.2990,0.08,0.12,-0.99,2.87,3.54,5.92
7.3160,0.08,0.11,-1.00,2.81,3.66,5.19
7.3310,0.08,0.11,-0.99,2.69,3.23,5.00
7.3340,0.08,0.12,-0.99,2.87,3.30,5.31
7.3610,0.08,0.13,-0.99,2.87,3.11,5.86
7.3750,0.08,0.12,-0.99,2.81,3.23,6.47
7.3910,0.08,0.11,-0.99,2.69,3.23,6.84
7.4050,0.08,0.10,-1.00,2.62,3.36,5.68
7.4160,0.08,0.09,-1.00,2.81,3.17,5.07
7.4330,0.08,0.11,-0.99,2.75,3.66,3.36
7.4500,0.08,0.12,-0.99,2.75,3.66,3.85
7.4500,0.08,0.11,-1.00,3.11,3.48,4.09
7.4810,0.08,0.11,-1.00,2.87,3.42,3.30
7.4830,0.08,0.12,-0.99,2.87,3.78,3.17
7.5010,0.08,0.13,-0.99,2.87,3.72,3.66
7.5260,0.08,0.12,-0.99,2.75,3.60,4.46
7.5400,0.08,0.11,-0.99,2.81,3.66,4.52
7.5550,0.08,0.10,-1.00,2.87,3.54,4.39
7.5660,0.08,0.11,-0.99,2.81,3.48,3.85
7.5820,0.08,0.12,-0.99,2.75,3.78,3.72
7.5990,0.08,0.13,-0.99,2.87,3.42,4.09
7.6150,0.08,0.14,-0.99,2.81,3.66,5.37
7.6170,0.08,0.13,-0.99,2.75,3.23,6.35
7.6460,0.08,0.11,-0.99,2.69,3.11,7.57
7.6610,0.08,0.09,-1.00,2.50,2.75,6.16
7.6750,0.08,0.09,-1.00,2.93,3.23,3.97
7.6830,0.08,0.10,-1.00,2.93,3.72,2.75
7.7060,0.08,0.12,-0.99,3.11,3.78,2.87
7.7170,0.08,0.13,-0.99,2.93,3.48,4.15
7.7330,0.08,0.14,-0.99,2.69,3.48,6.04
7.7500,0.08,0.13,-0.99,2.62,3.30,7.51
7.7660,0.08,0.11,-0.99,2.69,3.30,7.32
7.7800,0.08,0.10,-1.00,2.75,3.30,5.62
7.7830,0.08,0.10,-1.00,2.87,3.54,4.27
7.8110,0.08,0.11,-0.99,2.99,3.48,3.66
7.8250,0.08,0.12,-0.99,2.99,3.66,4.09
7.8410,0.08,0.12,-0.99,2.81,3.91,4.76
7.8560,0.08,0.12,-0.99,2.56,3.48,5.62
7.8670,0.08,0.11,-0.99,2.62,3.11,5.37
7.8830,0.08,0.12,-0.99,2.69,3.42,5.37
7.9010,0.08,0.12,-0.99,2.87,3.48,5.55
7.9010,0.08,0.11,-1.00,2.75,3.30,5.37
7.9300,0.08,0.11,-0.99,2.50,3.60,5.37
7.9460,0.08,0.12,-0.99,2.93,3.36,5.62
7.9600,0.08,0.11,-0.99,2.81,3.42,5.55
7.9750,0.08,0.11,-1.00,2.81,3.36,5.31
7.9840,0.08,0.12,-0.99,2.75,3.17,5.62
8.0050,0.08,0.12,-0.99,2.69,2.99,5.86
8.0160,0.08,0.10,-1.00,2.75,3.42,5.13
8.0330,0.08,0.10,-1.00,2.93,3.72,3.54
8.0500,0.08,0.12,-0.99,2.99,3.91,3.05
8.0660,0.08,0.11,-0.99,2.93,3.72,3.60
8.0800,0.08,0.10,-0.99,2.93,3.85,3.05
8.0830,0.08,0.11,-0.99,3.11,4.03,2.14
8.1110,0.08,0.12,-0.99,3.11,3.97,2.14
8.1260,0.08,0.11,-0.99,3.23,3.66,1.95
8.1410,0.08,0.11,-0.99,2.99,3.78,2.14
8.1550,0.08,0.11,-0.99,2.81,3.85,2.01
8.1680,0.08,0.11,-0.99,3.05,3.72,2.08
8.1830,0.08,0.11,-0.99,2.99,3.85,2.08
8.1990,0.08,0.12,-0.99,2.87,4.03,2.08
8.2160,0.08,0.12,-0.99,2.99,3.72,2.08
8.2310,0.08,0.12,-0.99,3.23,3.85,1.95
8.2450,0.08,0.12,-0.99,3.23,4.21,2.20
8.2610,0.08,0.12,-0.99,3.23,4.03,2.14
8.2750,0.08,0.12,-1.00,3.23,3.85,2.14
8.2840,0.08,0.12,-0.99,3.11,3.66,1.95
8.3050,0.08,0.12,-0.99,3.11,3.48,2.26
8.3160,0.08,0.12,-0.99,3.11,3.91,2.08
8.3330,0.08,0.12,-0.99,2.87,3.60,2.20
8.3490,0.08,0.12,-0.99,2.99,3.66,2.14
8.3660,0.08,0.12,-0.98,2.93,3.72,2.14
8.3810,0.08,0.11,-0.99,2.93,4.15,2.20
8.3960,0.08,0.12,-0.99,2.62,4.15,2.20
8.4000,0.07,0.13,-1.01,3.48,3.78,2.08
8.4260,0.08,0.11,-0.99,2.50,3.72,1.95
8.4410,0.08,0.11,-0.99,3.05,3.72,2.08
8.4560,0.08,0.11,-0.99,3.11,4.15,2.14
8.4660,0.08,0.11,-0.99,3.11,3.97,2.26
8.4830,0.08,0.11,-0.99,3.11,3.85,2.08
8.5000,0.08,0.12,-0.99,2.87,3.60,2.01
8.5160,0.08,0.11,-0.99,3.11,3.78,2.01
8.5170,0.08,0.12,-0.99,2.81,3.78,2.20
8.5460,0.08,0.12,-0.99,3.17,4.09,2.08
8.5600,0.08,0.12,-0.99,3.11,3.91,1.77
8.5750,0.08,0.12,-0.99,3.05,3.72,1.71
8.5900,0.08,0.12,-0.99,2.99,3.72,1.71
8.6060,0.08,0.12,-0.99,3.05,3.66,2.14
8.6160,0.08,0.12,-0.99,3.17,3.78,1.95
8.6330,0.08,0.12,-0.99,2.87,3.85,1.95
8.6500,0.08,0.12,-0.99,2.81,3.91,1.95
8.6660,0.08,0.11,-0.99,2.87,3.97,2.08
8.6810,0.08,0.11,-0.99,2.93,3.78,2.08
8.6960,0.08,0.11,-0.99,2.87,3.91,2.20
8.7010,0.08,0.11,-0.99,3.11,4.03,2.01
8.7160,0.08,0.12,-0.99,3.11,3.91,2.01
8.7420,0.08,0.11,-0.99,2.93,4.03,2.01
8.7560,0.08,0.11,-0.99,2.99,3.72,1.95
8.7720,0.08,0.12,-0.99,3.11,3.91,1.95
8.7840,0.08,0.12,-0.99,3.05,3.78,2.14
8.8000,0.08,0.12,-0.99,2.99,3.66,2.01
8.8160,0.08,0.12,-0.99,2.93,3.72,2.14
8.8320,0.08,0.12,-0.99,3.11,4.15,2.08
8.8460,0.08,0.12,-0.99,2.93,4.09,1.95
8.8610,0.08,0.12,-0.99,3.17,3.66,2.08
8.8770,0.08,0.12,-0.99,3.30,3.66,1.95
8.8840,0.08,0.12,-0.99,3.11,3.91,2.14
8.9060,0.08,0.12,-0.99,2.75,3.85,2.14
8.9160,0.08,0.11,-0.99,2.99,3.72,2.08
8.9340,0.08,0.12,-0.99,3.05,3.97,2.14
8.9500,0.08,0.11,-0.99,2.81,3.78,2.08
8.9660,0.08,0.12,-0.99,3.11,3.85,1.95
8.9810,0.08,0.12,-0.99,3.30,3.78,2.01
8.9970,0.08,0.11,-0.99,2.99,3.91,2.14
9.0120,0.08,0.12,-0.99,2.93,4.09,2.14
9.0260,0.08,0.12,-0.99,3.17,3.91,2.08
9.0340,0.08,0.12,-0.99,3.11,3.85,2.01
9.0560,0.08,0.12,-0.99,3.23,3.91,2.01
9.0670,0.08,0.12,-0.99,3.17,3.42,1.89
9.0840,0.09,0.11,-1.00,3.23,3.54,2.08
9.1000,0.10,0.11,-0.99,2.81,3.36,3.97
9.1160,0.08,0.12,-0.99,2.56,3.60,2.32
9.1320,0.07,0.13,-0.99,2.93,3.85,2.08
9.1470,0.07,0.12,-0.99,2.62,3.66,2.44
9.1620,0.08,0.11,-0.99,2.81,3.97,2.44
9.1760,0.08,0.11,-1.00,3.17,3.78,1.83
9.1830,0.09,0.11,-0.99,3.30,4.15,1.34
9.2060,0.08,0.12,-0.99,3.11,3.97,0.98
9.2160,0.06,0.12,-0.99,2.99,3.78,0.85
9.2330,0.08,0.12,-0.99,2.75,3.78,1.10
9.2500,0.08,0.12,-0.99,3.11,3.78,1.22
9.2660,0.08,0.12,-0.99,3.36,4.15,1.10
9.2810,0.08,0.12,-0.99,3.11,3.66,0.85
9.2830,0.08,0.12,-0.99,3.17,3.72,1.04
9.3110,0.07,0.12,-0.99,2.81,3.78,1.77
9.3170,0.07,0.12,-0.99,3.05,3.66,2.14
9.3330,0.07,0.11,-0.99,3.11,3.97,1.89
9.3510,0.08,0.11,-0.99,3.05,3.91,1.53
9.3670,0.08,0.11,-0.99,3.05,3.85,1.28
9.3830,0.08,0.11,-0.99,3.17,4.03,0.67
9.4000,0.07,0.11,-0.99,3.11,3.97,0.37
9.4160,0.08,0.11,-0.99,3.05,4.21,0.98
9.4310,0.08,0.12,-0.99,2.99,4.09,1.10
9.4470,0.08,0.12,-0.99,2.99,4.03,1.46
9.4610,0.08,0.11,-0.99,2.87,3.91,1.71
9.4770,0.08,0.12,-0.99,3.11,3.91,1.83
9.4830,0.08,0.12,-0.99,3.05,3.85,1.77
9.5070,0.08,0.12,-0.99,2.99,3.85,1.77
9.5230,0.09,0.12,-0.99,2.99,3.78,1.71
9.5330,0.08,0.12,-0.99,3.05,4.15,1.83
9.5500,0.08,0.12,-0.99,2.93,3.60,1.89
9.5660,0.07,0.12,-0.99,2.93,3.72,2.01
9.5820,0.08,0.12,-0.99,2.93,3.60,1.83
9.5970,0.08,0.12,-0.99,3.17,3.60,1.89
9.6130,0.09,0.11,-0.99,3.11,4.15,1.65
9.6280,0.07,0.11,-1.00,3.05,4.03,1.16
9.6430,0.08,0.11,-0.99,3.23,3.91,0.73
9.6500,0.07,0.11,-0.99,3.11,4.03,0.73
9.6730,0.08,0.11,-0.99,3.05,4.15,0.61
9.6840,0.09,0.11,-0.99,3.05,4.03,0.61
9.7000,0.08,0.12,-0.99,2.93,4.09,0.79
9.7160,0.08,0.12,-0.99,2.93,3.97,1.22
9.7330,0.07,0.12,-0.99,2.99,3.66,1.46
9.7480,0.08,0.12,-0.99,2.93,3.97,1.59
9.7630,0.08,0.12,-0.99,2.69,3.85,1.65
9.7760,0.07,0.12,-0.99,2.81,4.03,1.83
9.7830,0.07,0.12,-0.99,2.87,3.85,1.83
9.8000,0.07,0.11,-0.99,3.17,3.66,1.89
9.8170,0.08,0.12,-0.99,2.87,4.09,1.95
9.8340,0.08,0.12,-0.99,2.99,3.91,1.83
9.8490,0.08,0.12,-0.99,2.99,3.91,1.77
9.8660,0.08,0.11,-0.99,2.99,3.97,1.65
9.8840,0.08,0.11,-0.99,2.87,3.91,1.28
9.8840,0.08,0.11,-0.99,2.99,3.85,1.34
9.9010,0.08,0.12,-0.99,3.11,3.91,1.46
9.9290,0.07,0.12,-0.99,2.87,3.91,1.89
9.9430,0.08,0.12,-0.99,2.93,3.97,2.01
9.9590,0.08,0.12,-0.99,2.81,3.78,2.20
9.9730,0.08,0.12,-0.99,2.75,3.97,2.26
9.9890,0.08,0.12,-0.99,2.81,3.85,2.32
10.0010,0.08,0.12,-0.99,3.05,3.66,2.26
10.0160,0.08,0.11,-0.99,3.17,4.09,2.38
10.0330,0.09,0.12,-0.99,3.23,3.72,1.77
10.0490,0.09,0.12,-0.99,3.11,3.97,1.34
10.0630,0.08,0.12,-0.99,3.11,3.97,1.28
10.0780,0.08,0.11,-0.99,2.93,4.15,1.53
10.0830,0.08,0.12,-0.99,3.17,3.91,1.46
10.1000,0.07,0.11,-0.99,3.17,3.97,1.40
10.1170,0.08,0.11,-0.99,3.23,3.97,1.53
10.1390,0.08,0.11,-0.99,3.05,4.21,1.53
10.1500,0.08,0.12,-0.99,2.93,3.85,1.77
10.1670,0.08,0.12,-0.99,3.11,3.78,1.95
10.1830,0.08,0.11,-0.99,3.05,4.39,1.95
10.1980,0.09,0.11,-0.99,2.99,4.09,1.53
10.2140,0.08,0.11,-0.99,3.05,3.91,1.16
10.2290,0.08,0.11,-0.99,3.05,3.85,0.67
10.2440,0.08,0.11,-0.99,3.17,4.09,0.61
10.2580,0.07,0.12,-0.99,3.17,4.15,0.73
10.2730,0.07,0.12,-0.99,3.05,4.21,1.22
10.2840,0.08,0.12,-0.99,3.30,4.09,1.34
10.2990,0.08,0.12,-0.99,3.11,3.85,1.46
10.3160,0.08,0.12,-0.99,2.99,3.66,1.83
10.3320,0.08,0.12,-0.99,3.05,4.15,1.83
10.3490,0.07,0.12,-0.99,3.05,3.60,1.89
10.3630,0.08,0.12,-0.99,2.81,3.78,1.89
10.3780,0.08,0.12,-0.99,2.99,3.91,1.95
10.3840,0.08,0.11,-0.99,2.87,3.91,1.77
10.3990,0.08,0.11,-0.99,3.11,4.15,1.59
10.4230,0.08,0.12,-0.99,3.05,4.09,1.46
10.4390,0.08,0.11,-0.99,2.99,4.09,1.28
10.4490,0.08,0.11,-0.99,2.75,3.85,1.28
10.4660,0.08,0.12,-0.99,3.11,4.03,1.28
10.4830,0.08,0.12,-0.99,2.93,4.09,1.65
10.4990,0.08,0.12,-0.99,2.93,3.91,1.83
10.5000,0.08,0.12,-0.99,2.93,3.97,1.53
10.5170,0.08,0.12,-0.99,2.81,4.09,1.40
10.5440,0.08,0.12,-0.99,2.99,4.09,1.22
10.5590,0.08,0.12,-0.99,3.05,3.72,1.10
10.5730,0.08,0.11,-0.99,2.99,3.91,1.22
10.5890,0.08,0.11,-0.99,3.17,3.72,0.98
10.6000,0.08,0.11,-0.99,3.17,4.09,1.10
10.6160,0.08,0.12,-0.99,2.99,3.97,1.16
10.6330,0.07,0.12,-0.99,3.23,4.15,1.10
10.6490,0.08,0.12,-0.99,2.99,4.21,1.59
10.6500,0.08,0.12,-0.99,3.17,4.03,1.59
10.6790,0.08,0.12,-0.99,2.93,3.97,1.83
10.6940,0.08,0.12,-0.99,2.75,4.09,1.89
10.7010,0.07,0.12,-0.99,2.81,3.85,1.59
10.7160,0.08,0.12,-0.99,2.99,3.91,1.46
10.7390,0.08,0.12,-0.99,3.05,3.78,1.40
10.7510,0.08,0.12,-0.99,3.23,3.91,1.59
10.7680,0.08,0.12,-0.99,2.99,3.85,1.65
10.7840,0.08,0.11,-0.99,2.99,3.97,1.65
10.7990,0.08,0.12,-0.99,3.11,3.48,1.71
10.8130,0.08,0.11,-0.99,3.17,3.42,1.53
10.8170,0.08,0.12,-0.99,2.99,3.91,1.46
10.8440,0.08,0.12,-0.99,2.99,3.91,1.34
10.8580,0.07,0.11,-1.00,2.87,3.91,1.04
10.8740,0.08,0.12,-0.99,3.05,3.97,1.22
10.8830,0.07,0.12,-0.99,2.93,3.85,1.59
10.8990,0.08,0.12,-0.99,2.87,3.66,1.59
10.9160,0.09,0.12,-0.99,3.05,3.72,1.95
10.9340,0.08,0.12,-0.99,2.99,3.85,1.95
10.9340,0.08,0.12,-0.99,2.87,3.66,2.08
10.9640,0.08,0.12,-0.99,2.99,3.85,1.89
10.9790,0.08,0.11,-0.99,2.93,3.42,1.89
10.9930,0.08,0.11,-0.99,3.17,3.66,1.53
11.0090,0.08,0.12,-0.99,3.11,3.85,1.28
11.0170,0.08,0.12,-0.99,2.81,4.21,1.22
11.0380,0.08,0.12,-0.99,2.87,4.09,1.28
11.0500,0.08,0.12,-0.99,2.87,4.15,1.71
11.0660,0.08,0.12,-0.99,2.81,3.78,1.95
11.0840,0.08,0.12,-0.99,3.05,3.72,2.20
11.0840,0.08,0.12,-0.99,2.87,3.78,1.95
11.1140,0.08,0.12,-0.99,2.93,3.72,1.77
11.1170,0.08,0.12,-0.99,2.93,3.78,1.77
11.1430,0.08,0.11,-0.99,2.81,3.91,1.65
11.1500,0.07,0.11,-0.99,2.99,3.97,1.65
11.1670,0.08,0.11,-0.99,3.05,3.78,1.53
11.1890,0.08,0.12,-0.99,3.17,3.78,1.46
11.2010,0.08,0.12,-0.99,2.99,4.09,1.40
11.2160,0.08,0.12,-0.99,2.81,4.03,1.34
11.2330,0.08,0.11,-0.99,2.81,3.85,1.46
11.2490,0.08,0.12,-0.99,2.81,3.85,1.53
11.2500,0.08,0.12,-0.99,3.05,3.66,1.65
11.2790,0.09,0.12,-0.99,3.11,4.03,1.77
11.2840,0.08,0.12,-0.99,2.81,3.72,1.95
11.3080,0.08,0.12,-0.99,2.69,3.48,2.01
11.3160,0.08,0.12,-0.99,2.56,3.60,1.89
11.3390,0.08,0.11,-0.99,2.93,3.72,1.95
11.3500,0.08,0.11,-0.99,3.17,3.91,1.89
11.3670,0.08,0.11,-0.99,3.17,3.85,1.95
11.3830,0.08,0.11,-0.99,3.23,3.97,1.83
11.3830,0.08,0.11,-0.99,3.05,3.78,1.65
11.4000,0.08,0.12,-0.99,2.93,3.97,1.46
11.4280,0.07,0.11,-0.99,3.11,3.97,1.40
11.4330,0.07,0.11,-0.99,3.17,3.66,1.71
11.4500,0.08,0.11,-0.99,3.23,3.66,1.71
11.4670,0.08,0.11,-0.99,3.11,4.09,1.77
11.4890,0.08,0.12,-0.99,2.99,4.09,2.01
11.5010,0.08,0.12,-0.99,2.87,3.91,1.89
11.5170,0.08,0.12,-0.99,2.87,3.97,1.89
11.5330,0.08,0.12,-0.99,2.81,3.85,1.89
11.5330,0.08,0.11,-0.99,3.11,3.66,1.65
11.5640,0.08,0.11,-0.99,3.17,3.85,1.46
11.5780,0.08,0.11,-0.99,3.11,4.15,1.46
11.5830,0.08,0.11,-0.99,2.87,4.09,1.40
11.6080,0.08,0.12,-0.99,3.11,4.09,1.40
11.6170,0.08,0.12,-0.99,3.17,3.91,1.40
11.6380,0.09,0.12,-0.99,3.11,3.85,1.65
11.6500,0.07,0.12,-0.99,2.93,3.85,1.59
11.6680,0.08,0.11,-0.99,3.05,3.72,1.71
11.6840,0.08,0.11,-0.99,2.99,3.91,1.83
11.6840,0.08,0.12,-0.99,3.05,3.60,1.77
11.7000,0.08,0.12,-0.99,3.17,3.85,1.77
11.7170,0.08,0.12,-0.99,2.99,4.03,1.71
11.7340,0.09,0.11,-0.99,3.17,3.78,1.53
11.7500,0.08,0.11,-0.99,3.30,3.91,1.28
11.7670,0.08,0.12,-0.99,2.93,4.09,0.92
11.7890,0.08,0.12,-0.99,3.05,3.91,0.92
11.8010,0.07,0.12,-0.99,3.11,4.03,1.10
11.8160,0.07,0.12,-0.99,2.81,4.15,1.34
11.8330,0.08,0.12,-0.99,2.99,3.66,1.65
11.8490,0.08,0.11,-0.99,2.99,4.09,1.71
11.8630,0.08,0.12,-0.99,3.11,4.09,1.71
11.8780,0.08,0.12,-0.99,3.11,4.03,1.83
11.8940,0.08,0.12,-0.99,2.87,3.97,1.95
11.9010,0.08,0.12,-0.99,2.81,3.78,1.95
11.9230,0.08,0.12,-0.99,2.99,3.85,1.77
11.9340,0.09,0.12,-0.99,2.75,3.72,1.71
11.9510,0.09,0.12,-0.99,2.87,4.15,1.46
11.9680,0.09,0.11,-0.99,3.11,3.72,1.71
11.9830,0.07,0.12,-1.00,3.05,3.66,1.71
11.9830,0.09,0.11,-0.99,2.81,3.91,1.65
12.0000,0.08,0.12,-0.99,2.81,4.15,1.53
12.0170,0.07,0.12,-0.99,2.87,3.91,1.46
12.0340,0.07,0.12,-1.00,2.99,3.78,1.83
12.0510,0.08,0.12,-0.99,3.05,3.85,1.83
12.0740,0.08,0.12,-0.99,2.87,4.09,1.95
12.0880,0.08,0.12,-0.99,2.87,3.97,1.89
12.1000,0.08,0.12,-0.99,2.93,4.09,1.59
12.1170,0.08,0.11,-0.99,2.87,3.97,1.95
12.1330,0.08,0.11,-0.99,3.11,3.91,2.01
12.1480,0.09,0.11,-0.99,3.05,3.72,1.89
12.1630,0.09,0.11,-0.99,2.75,4.03,1.77
12.1790,0.07,0.12,-1.00,2.99,3.85,1.77
12.1840,0.08,0.12,-0.99,2.87,4.21,1.95
12.2080,0.08,0.12,-0.99,2.81,4.27,1.77
12.2170,0.07,0.11,-0.99,3.11,3.78,1.83
12.2380,0.08,0.12,-0.99,3.05,3.60,1.77
12.2490,0.08,0.12,-0.99,2.93,3.97,1.46
12.2660,0.08,0.12,-0.99,2.81,4.03,1.77
12.2830,0.08,0.12,-0.99,2.62,3.97,1.83
12.2830,0.08,0.12,-0.99,2.81,3.91,1.95
12.3140,0.08,0.12,-0.99,2.99,4.09,2.32
12.3280,0.09,0.12,-0.99,3.05,3.66,2.01
12.3430,0.09,0.11,-0.99,2.99,4.03,1.83
12.3580,0.07,0.11,-1.00,3.05,4.03,1.95
12.3740,0.08,0.12,-0.99,2.62,4.03,2.14
12.3830,0.07,0.11,-1.00,2.93,3.72,2.01
12.4000,0.07,0.11,-0.99,2.93,4.03,1.95
12.4170,0.08,0.11,-0.99,3.30,4.03,1.71
12.4330,0.08,0.11,-0.99,3.05,4.15,1.65
12.4330,0.08,0.11,-0.99,3.17,3.97,1.65
12.4500,0.08,0.11,-0.99,2.99,3.78,1.77
12.4770,0.08,0.12,-0.99,2.93,4.21,1.77
12.4830,0.08,0.11,-0.99,2.99,4.03,1.83
12.5090,0.08,0.11,-0.99,3.30,3.97,1.83
12.5170,0.08,0.12,-0.99,2.81,4.09,1.59
12.5330,0.08,0.12,-0.99,3.17,3.78,1.40
12.5500,0.09,0.11,-0.99,3.23,3.78,1.22
12.5680,0.07,0.11,-0.99,3.42,3.97,1.16
12.5830,0.08,0.12,-0.99,3.05,4.21,1.16
12.5980,0.08,0.11,-0.99,3.17,3.91,1.40
12.6140,0.08,0.12,-0.99,3.17,4.09,1.40
12.6170,0.08,0.12,-0.99,3.17,3.97,1.34
12.6440,0.08,0.12,-0.99,2.99,3.48,1.34
12.6590,0.07,0.11,-0.99,3.05,3.85,1.46
12.6670,0.08,0.11,-1.00,3.05,3.85,1.59
12.6840,0.08,0.11,-0.99,3.11,4.21,1.53
12.6990,0.09,0.11,-0.99,3.17,4.03,1.40
12.7170,0.08,0.11,-0.99,2.99,4.09,1.22
12.7320,0.08,0.12,-0.99,2.93,3.97,1.04
12.7480,0.11,0.10,-0.99,3.17,4.09,1.28
12.7630,0.09,0.10,-0.99,3.23,4.27,1.53
12.7780,0.07,0.12,-0.99,3.23,3.60,1.71
12.7940,0.08,0.12,-0.99,2.99,3.91,1.40
12.8090,0.08,0.12,-0.99,2.99,3.78,1.34
12.8170,0.08,0.12,-0.99,2.99,4.15,1.40
12.8390,0.08,0.12,-0.99,2.93,3.78,1.46
12.8500,0.07,0.11,-0.99,2.87,4.03,1.95
12.8670,0.08,0.12,-0.99,3.11,4.03,1.89
12.8830,0.08,0.11,-0.99,2.99,3.85,2.01
12.8990,0.08,0.12,-0.99,2.99,4.09,1.83
12.9140,0.08,0.12,-0.99,2.81,4.09,1.83
12.9170,0.09,0.12,-0.99,3.17,3.72,1.65
12.9440,0.08,0.11,-0.99,3.05,3.97,1.22
12.9510,0.08,0.11,-0.99,3.48,4.46,1.16
12.9680,0.08,0.11,-0.99,3.48,4.03,1.10
12.9830,0.08,0.11,-0.99,3.60,3.97,0.49
13.0010,0.08,0.12,-0.99,3.36,3.97,0.31
13.0170,0.07,0.12,-0.99,3.05,4.15,0.37
13.0340,0.08,0.12,-0.99,2.93,4.33,0.73
13.0340,0.08,0.12,-0.99,2.87,4.21,0.79
13.0640,0.07,0.11,-0.99,2.99,3.85,1.22
13.0790,0.08,0.11,-0.99,3.05,3.97,1.28
13.0930,0.08,0.11,-0.99,3.05,4.27,1.28
13.1080,0.08,0.11,-0.99,2.99,3.85,1.22
13.1230,0.08,0.11,-0.99,3.05,4.03,1.40
13.1330,0.08,0.12,-0.99,2.93,3.91,1.10
13.1500,0.08,0.12,-0.99,2.75,3.78,1.28
13.1670,0.08,0.12,-0.99,2.99,3.91,1.16
13.1830,0.08,0.12,-0.99,3.11,3.91,1.16
13.1990,0.07,0.11,-1.00,3.11,4.03,1.28
13.2140,0.08,0.11,-0.99,3.17,3.97,1.46
13.2280,0.08,0.11,-0.99,3.30,3.97,1.65
13.2440,0.09,0.11,-0.99,3.23,3.85,1.46
13.2590,0.08,0.12,-0.99,3.17,3.97,1.34
13.2670,0.08,0.12,-0.99,2.93,4.09,1.10
13.2830,0.08,0.12,-0.99,3.23,3.85,0.98
13.3000,0.09,0.11,-0.99,3.17,3.97,1.22
13.3170,0.12,0.10,-0.99,3.23,3.91,1.10
13.3330,0.05,0.12,-1.00,3.42,4.09,1.04
13.3330,0.07,0.13,-0.99,3.05,3.78,0.85
13.3500,0.07,0.12,-0.99,2.87,4.21,1.16
13.3780,0.07,0.12,-0.99,2.75,3.66,1.34
13.3940,0.08,0.12,-0.99,2.87,3.66,1.40
13.4000,0.08,0.12,-0.99,2.93,3.85,1.40
13.4170,0.08,0.12,-0.99,2.93,4.03,1.34
13.4330,0.08,0.11,-0.99,2.93,3.97,1.40
13.4500,0.08,0.11,-0.99,2.99,3.85,1.40
13.4670,0.08,0.12,-0.99,2.87,3.85,1.53
13.4830,0.08,0.12,-0.99,2.99,3.85,1.34
13.4990,0.09,0.12,-0.99,3.17,3.85,1.22
13.5000,0.08,0.11,-0.99,3.17,3.72,0.85
13.5170,0.07,0.11,-0.99,2.99,3.85,0.92
13.5330,0.07,0.11,-0.99,3.36,3.91,1.10
13.5500,0.08,0.11,-1.00,3.23,3.85,1.10
13.5730,0.09,0.11,-0.99,3.05,4.15,0.55
13.5840,0.08,0.12,-0.99,3.05,4.15,0.43
13.5990,0.08,0.12,-0.99,2.81,4.27,0.49
13.6170,0.08,0.11,-0.99,3.05,4.03,0.79
13.6330,0.08,0.12,-0.99,3.11,3.97,0.61
13.6330,0.08,0.12,-0.99,3.05,3.85,0.43
13.6500,0.08,0.12,-0.99,3.11,3.97,0.43
13.6790,0.07,0.12,-0.99,3.11,4.27,0.61
13.6930,0.08,0.12,-0.99,3.05,4.09,1.04
13.7090,0.08,0.11,-0.99,3.23,4.15,0.85
13.7230,0.08,0.11,-0.99,3.17,4.03,0.24
13.7380,0.08,0.12,-0.99,2.99,4.09,0.06
13.7490,0.08,0.12,-0.99,2.81,4.21,0.55
13.7660,0.07,0.12,-0.99,2.99,3.48,1.10
13.7830,0.08,0.11,-0.99,2.87,4.09,1.40
13.7990,0.08,0.11,-0.99,3.11,4.03,1.28
13.8130,0.08,0.11,-0.99,3.05,3.66,1.34
13.8290,0.08,0.12,-0.99,2.75,4.09,1.28
13.8430,0.09,0.12,-0.99,3.05,3.91,0.98
13.8590,0.08,0.12,-0.99,3.11,4.03,0.67
13.8730,0.08,0.11,-0.99,2.87,4.03,0.79
13.8840,0.08,0.11,-0.99,3.11,4.27,1.10
13.8990,0.09,0.12,-0.99,2.99,3.85,1.22
13.9160,0.08,0.12,-0.99,2.99,3.78,0.92
13.9330,0.08,0.12,-0.99,3.17,3.78,0.67
13.9480,0.08,0.12,-0.99,2.75,3.97,0.73
13.9640,0.08,0.12,-0.99,2.93,3.97,0.43
13.9780,0.08,0.11,-0.99,2.99,4.03,0.18
13.9930,0.08,0.11,-0.99,2.99,4.21,0.49
14.0090,0.08,0.11,-0.99,3.17,3.91,0.67
14.0230,0.07,0.12,-0.99,3.11,4.09,0.79
14.0390,0.07,0.12,-0.99,3.05,4.03,1.10
14.0500,0.08,0.12,-0.99,3.11,3.85,1.22
14.0660,0.08,0.12,-0.99,3.17,3.85,1.34
14.0830,0.09,0.11,-0.99,3.36,4.15,1.28
14.0980,0.08,0.12,-0.99,2.93,3.72,1.10
14.1130,0.09,0.12,-0.99,2.99,3.97,1.10
14.1290,0.08,0.11,-0.99,3.11,3.97,0.43
14.1430,0.08,0.11,-0.99,3.11,3.78,0.18
14.1580,0.09,0.12,-0.99,2.99,4.39,0.00
14.1730,0.08,0.12,-0.99,3.17,4.33,-0.31
14.1880,0.07,0.12,-0.99,2.87,3.72,0.61
14.1990,0.07,0.11,-0.99,2.87,3.85,1.10
14.2170,0.08,0.11,-0.99,2.87,3.85,1.16
14.2330,0.08,0.12,-0.99,3.17,4.03,0.98
14.2480,0.08,0.12,-0.99,2.87,4.03,0.92
14.2500,0.08,0.12,-0.99,2.93,3.97,0.73
14.2780,0.07,0.12,-0.99,3.05,4.15,0.85
14.2840,0.08,0.12,-0.99,3.11,3.85,0.85
14.3090,0.07,0.12,-0.99,2.93,3.97,0.92
14.3230,0.08,0.11,-0.99,2.99,3.91,1.22
14.3390,0.07,0.11,-0.99,2.99,4.03,1.59
14.3500,0.07,0.11,-0.99,2.93,3.91,1.65
14.3660,0.08,0.11,-0.99,3.05,3.85,1.95
14.3830,0.08,0.11,-0.99,2.99,3.78,2.08
14.3980,0.08,0.11,-0.99,2.93,4.03,1.71
14.4140,0.08,0.11,-0.99,2.81,3.78,1.83
14.4280,0.08,0.11,-0.99,2.99,3.78,1.83
14.4340,0.08,0.11,-0.99,2.81,4.03,2.01
14.4580,0.08,0.12,-0.99,3.05,4.03,2.14
14.4730,0.08,0.11,-0.99,2.81,4.21,2.14
14.4880,0.08,0.12,-0.99,2.81,4.21,2.08
14.4990,0.08,0.12,-0.99,3.05,3.91,2.01
14.5160,0.08,0.12,-0.99,2.81,3.85,2.01
14.5330,0.08,0.12,-0.99,2.81,3.66,1.89
14.5490,0.08,0.12,-1.00,2.87,3.78,2.01
14.5630,0.08,0.12,-0.99,3.11,3.91,2.01
14.5780,0.08,0.11,-0.99,2.99,3.72,2.08
14.5930,0.08,0.11,-0.99,2.93,3.72,1.89
14.6090,0.08,0.11,-0.99,3.05,3.60,2.14
14.6240,0.08,0.11,-0.99,2.87,3.66,2.01
14.6380,0.08,0.11,-0.99,2.93,3.91,1.95
14.6490,0.08,0.12,-0.99,2.87,3.72,2.01
14.6660,0.08,0.12,-1.00,3.23,3.78,2.08
14.6840,0.08,0.12,-1.00,2.93,3.72,2.08
14.6840,0.08,0.12,-0.99,2.81,3.78,2.14
14.7130,0.08,0.12,-0.98,2.99,3.97,1.95
14.7280,0.08,0.12,-1.00,2.99,3.91,2.14
14.7440,0.08,0.12,-1.00,2.93,3.85,2.08
14.7580,0.08,0.12,-0.99,2.93,3.72,2.14
14.7730,0.08,0.11,-0.99,2.93,3.72,2.20
14.7880,0.08,0.11,-1.00,2.99,3.85,2.01
14.7990,0.08,0.11,-1.00,2.93,3.85,2.01
14.8160,0.07,0.11,-1.00,2.75,3.78,1.95
14.8330,0.08,0.11,-0.99,2.93,3.85,2.01
14.8480,0.08,0.11,-0.99,2.87,3.54,2.01
14.8640,0.08,0.11,-1.00,2.93,3.97,2.01
14.8780,0.08,0.11,-0.99,3.05,3.66,2.01
14.8840,0.08,0.12,-0.99,2.99,4.03,2.08
14.9080,0.08,0.12,-0.99,2.93,3.72,1.95
14.9240,0.08,0.12,-0.99,2.99,4.03,2.20
14.9380,0.08,0.12,-0.99,2.75,3.97,2.20
14.9490,0.08,0.12,-0.99,2.81,4.21,2.26
14.9670,0.08,0.12,-0.99,2.99,3.48,1.89
14.9840,0.08,0.12,-0.99,2.99,3.60,2.08
14.9980,0.08,0.12,-1.00,3.05,4.09,2.20
15.0130,0.08,0.12,-1.00,2.99,3.91,2.01
15.0290,0.08,0.11,-0.99,2.87,3.72,2.01
15.0440,0.08,0.11,-0.99,2.87,3.78,2.08
15.0580,0.08,0.11,-0.99,2.87,3.85,2.08
15.0740,0.08,0.11,-1.00,2.75,4.03,2.08
15.0890,0.08,0.11,-0.99,2.99,3.72,2.08
15.1000,0.08,0.11,-0.99,2.93,4.03,2.14
15.1160,0.08,0.12,-0.99,3.05,4.27,2.20
15.1330,0.08,0.12,-0.99,2.69,3.91,1.95
15.1480,0.08,0.12,-0.99,2.87,3.97,1.95
15.1640,0.08,0.12,-0.99,3.05,3.72,1.83
15.1780,0.08,0.12,-0.99,3.11,4.09,2.14
15.1840,0.08,0.12,-0.99,2.87,4.15,2.01
15.2080,0.08,0.12,-0.99,2.87,4.09,2.14
15.2170,0.08,0.12,-0.99,3.05,3.91,2.14
15.2380,0.08,0.11,-0.99,2.93,3.72,2.08
15.2490,0.08,0.11,-0.99,3.11,3.85,2.14
15.2670,0.08,0.11,-0.99,2.81,3.85,2.01
15.2840,0.08,0.11,-1.00,2.93,4.15,2.08
15.2840,0.08,0.11,-0.99,2.99,3.66,2.01
15.3130,0.08,0.11,-0.99,2.93,4.15,2.14
15.3280,0.08,0.11,-0.99,3.17,3.91,2.20
15.3430,0.08,0.11,-0.99,3.05,3.85,2.08
15.3510,0.08,0.12,-0.99,2.99,3.66,2.01
15.3670,0.08,0.12,-0.99,2.87,4.15,2.14
15.3830,0.08,0.12,-0.99,2.99,4.09,2.08
15.3990,0.08,0.12,-0.99,3.11,3.78,2.20
15.4170,0.08,0.12,-0.99,3.11,3.97,2.08
15.4330,0.08,0.12,-0.99,2.99,3.91,2.08
15.4480,0.08,0.12,-0.99,2.75,3.91,2.14
15.4630,0.08,0.12,-0.99,2.87,3.85,2.08
15.4790,0.08,0.11,-0.99,2.87,3.85,2.14
15.4940,0.08,0.11,-1.00,2.69,3.97,2.20
15.5090,0.08,0.11,-1.00,2.93,3.78,2.14
15.5230,0.08,0.11,-0.99,2.93,3.66,2.08
15.5380,0.08,0.11,-0.99,2.81,3.91,2.01
15.5500,0.08,0.11,-0.99,2.99,3.97,2.08
15.5670,0.08,0.11,-0.99,2.81,3.60,2.01
15.5830,0.08,0.12,-0.99,2.99,4.09,2.14
15.5990,0.08,0.12,-0.99,2.99,4.03,2.01
15.6010,0.08,0.12,-0.99,3.05,3.97,1.95
15.6280,0.08,0.12,-0.99,2.87,4.03,1.95
15.6440,0.08,0.12,-0.99,2.87,3.91,2.01
15.6580,0.08,0.12,-0.99,2.81,4.15,2.01
15.6670,0.08,0.12,-0.99,2.75,3.85,2.26
15.6830,0.08,0.12,-0.99,2.93,3.72,2.01
15.6990,0.08,0.11,-0.99,2.93,3.85,2.01
15.7170,0.08,0.11,-0.99,2.93,3.72,2.08
15.7330,0.08,0.11,-0.99,2.87,4.15,2.08
15.7490,0.08,0.11,-0.99,2.87,4.09,2.14
15.7510,0.08,0.11,-0.99,2.81,3.85,2.20
15.7780,0.08,0.11,-0.99,2.99,3.91,2.01
15.7940,0.08,0.12,-1.00,3.05,3.72,2.14
15.8090,0.08,0.12,-0.99,2.93,3.78,2.01
15.8230,0.08,0.12,-0.99,2.93,3.91,2.01
15.8340,0.08,0.12,-0.99,3.11,4.15,2.14
15.8500,0.08,0.12,-0.99,2.93,3.91,1.95
15.8680,0.08,0.12,-0.99,2.87,3.72,2.14
15.8840,0.08,0.11,-0.99,3.05,3.78,1.83
15.8840,0.08,0.11,-0.99,3.05,4.03,2.14
15.9000,0.08,0.11,-0.99,2.99,3.97,2.08
15.9280,0.07,0.11,-1.00,3.05,4.21,2.08
15.9440,0.08,0.11,-1.00,2.87,3.97,2.14
15.9500,0.08,0.11,-0.99,3.11,3.78,2.08
15.9730,0.08,0.11,-1.00,3.11,4.03,2.08
15.9840,0.08,0.12,-0.99,2.93,3.78,2.14
16.0000,0.08,0.12,-0.99,2.93,3.91,2.14
16.0170,0.08,0.12,-1.00,2.99,3.85,2.14
16.0340,0.08,0.12,-1.00,2.75,4.03,2.01
16.0340,0.08,0.12,-0.99,2.69,3.72,2.14
16.0630,0.08,0.12,-0.99,2.87,3.78,2.14
16.0790,0.08,0.12,-0.99,2.81,4.03,2.14
16.0830,0.08,0.11,-1.00,2.62,4.03,2.14
16.1090,0.08,0.11,-0.99,2.75,3.78,2.01
16.1170,0.08,0.11,-0.99,2.81,3.85,2.14
16.1330,0.07,0.11,-1.00,2.99,4.09,2.32
16.1490,0.11,0.09,-0.98,3.05,3.78,2.69
16.1680,0.08,0.11,-0.99,2.99,3.48,2.08
16.1830,0.08,0.11,-0.99,2.87,4.03,2.01
16.1990,0.08,0.11,-0.99,2.75,3.97,2.08
16.2010,0.08,0.11,-1.00,2.81,3.66,2.08
16.2280,0.08,0.12,-1.00,2.99,3.97,2.08
16.2340,0.08,0.12,-0.99,3.11,4.03,2.14
16.2500,0.08,0.12,-0.99,3.11,3.78,1.95
16.2670,0.08,0.12,-0.99,2.99,3.97,2.26
16.2850,0.08,0.12,-0.99,3.23,4.03,2.08
16.3000,0.08,0.12,-0.99,2.93,4.15,2.14
16.3160,0.08,0.12,-0.99,3.05,3.85,2.08
16.3330,0.08,0.12,-0.99,2.93,3.97,2.01
16.3490,0.08,0.11,-0.99,2.99,3.78,2.14
16.3640,0.08,0.11,-1.00,2.99,4.03,2.01
16.3790,0.08,0.11,-0.99,3.11,3.72,2.01
16.3940,0.08,0.11,-0.99,3.05,3.78,2.14
16.4090,0.08,0.11,-0.99,2.99,4.15,2.20
16.4240,0.08,0.11,-0.99,3.05,3.66,2.20
16.4390,0.08,0.11,-0.99,3.05,3.85,2.14
16.4550,0.08,0.11,-0.99,3.17,3.97,2.14
16.4680,0.08,0.11,-0.99,3.23,3.78,2.08
16.4840,0.08,0.11,-0.99,3.05,3.78,2.01
16.5000,0.08,0.09,-1.00,3.05,4.64,-1.77
16.5160,0.08,0.11,-1.00,3.36,5.13,-3.78
16.5300,0.08,0.11,-0.99,3.36,4.27,-0.85
16.5330,0.08,0.11,-0.99,3.36,4.09,-0.61
16.5500,0.08,0.13,-0.99,3.42,4.03,-0.12
16.5660,0.08,0.13,-0.99,3.30,4.21,0.55
16.5840,0.08,0.12,-0.99,3.17,4.33,0.79
16.6000,0.08,0.11,-0.99,3.23,4.46,0.49
16.6160,0.08,0.10,-1.00,3.36,3.97,-0.06
16.6330,0.08,0.11,-0.99,3.30,4.27,-0.85
16.6500,0.08,0.12,-1.00,3.23,4.21,-0.18
16.6650,0.08,0.11,-1.00,3.23,4.09,0.00
16.6800,0.08,0.11,-0.98,3.30,4.21,-0.49
16.6960,0.08,0.12,-0.99,3.05,4.15,-0.43
16.7000,0.08,0.13,-1.00,3.36,3.85,0.18
16.7160,0.08,0.12,-1.00,3.30,4.03,0.06
16.7330,0.08,0.12,-0.98,3.30,4.15,0.43
16.7500,0.08,0.12,-0.99,3.17,4.21,0.43
16.7670,0.08,0.12,-1.00,3.23,4.52,0.98
16.7840,0.08,0.12,-1.00,2.93,3.97,1.40
16.8000,0.08,0.11,-0.99,2.93,3.54,1.34
16.8160,0.08,0.11,-0.99,2.87,3.97,1.46
16.8320,0.08,0.11,-1.00,3.05,4.21,0.98
16.8340,0.08,0.11,-1.00,2.93,4.21,0.79
16.8610,0.08,0.12,-0.99,2.93,4.21,1.28
16.8760,0.08,0.12,-0.99,3.17,3.72,1.22
16.8910,0.08,0.11,-0.99,3.05,4.15,1.46
16.9000,0.08,0.12,-0.99,2.99,4.27,1.22
16.9170,0.08,0.11,-0.99,3.23,4.03,1.28
16.9330,0.08,0.12,-0.99,3.17,3.85,1.10
16.9510,0.08,0.13,-0.99,2.99,4.03,1.53
16.9660,0.08,0.12,-0.99,2.87,4.09,1.46
16.9810,0.08,0.11,-1.00,2.87,4.03,1.59
16.9970,0.08,0.11,-1.00,2.93,4.03,1.22
17.0110,0.08,0.11,-0.99,2.99,4.15,0.98
17.0260,0.08,0.11,-0.99,3.11,4.15,0.79
17.0410,0.08,0.11,-0.99,3.05,4.21,0.67
17.0500,0.08,0.10,-1.00,3.17,4.39,-0.06
17.0670,0.07,0.10,-1.00,3.30,4.15,-0.92
17.0830,0.07,0.11,-1.00,3.30,4.27,-1.71
17.1000,0.08,0.12,-0.99,3.23,3.97,-0.73
17.1170,0.08,0.12,-0.99,2.99,4.15,-0.12
17.1170,0.08,0.11,-0.99,3.48,4.58,-0.24
17.1330,0.08,0.11,-0.99,3.11,4.39,-0.06
17.1500,0.08,0.11,-0.99,3.42,4.09,-0.92
17.1670,0.08,0.11,-0.99,3.48,4.21,-0.73
17.1910,0.07,0.13,-0.99,3.23,4.39,-1.16
17.2010,0.08,0.13,-0.99,3.11,4.21,-0.79
17.2170,0.08,0.13,-0.99,2.99,4.33,-0.43
17.2330,0.08,0.11,-0.99,3.05,4.03,-0.06
17.2490,0.08,0.11,-0.99,2.93,4.21,0.06
17.2660,0.08,0.11,-0.99,3.23,4.15,-0.43
17.2820,0.08,0.11,-0.99,3.30,4.27,-0.61
17.2970,0.08,0.11,-0.99,3.11,4.39,-0.06
17.3000,0.08,0.11,-0.99,3.30,3.97,0.43
17.3280,0.08,0.11,-1.00,2.99,4.21,0.49
17.3340,0.08,0.11,-0.99,2.99,4.33,0.00
17.3580,0.08,0.12,-0.99,2.99,4.21,0.12
17.3670,0.08,0.11,-0.99,2.99,3.78,0.43
17.3840,0.08,0.13,-0.99,3.11,4.03,-0.18
17.4010,0.08,0.12,-0.99,2.99,3.97,0.85
17.4170,0.08,0.12,-0.99,3.05,4.03,0.85
17.4330,0.08,0.12,-0.99,2.93,4.21,0.85
17.4340,0.08,0.12,-0.99,2.93,4.21,0.61
17.4620,0.08,0.11,-1.00,3.11,4.03,1.28
17.4770,0.08,0.11,-0.99,2.99,3.97,0.98
17.4920,0.08,0.11,-0.99,2.81,4.27,1.28
17.5080,0.08,0.11,-0.99,2.75,3.85,1.28
17.5230,0.08,0.11,-0.99,2.87,4.15,1.65
17.5330,0.08,0.11,-1.00,3.05,4.15,1.71
17.5490,0.08,0.11,-1.00,2.93,3.85,1.10
17.5670,0.08,0.11,-1.00,3.05,4.09,0.49
17.5830,0.08,0.12,-0.99,3.17,3.97,0.18
17.5980,0.08,0.12,-0.99,3.05,4.09,0.73
17.6130,0.08,0.12,-0.99,2.75,3.91,1.65
17.6280,0.08,0.12,-0.99,3.11,3.60,1.71
17.6440,0.08,0.12,-0.99,3.11,3.85,1.71
17.6580,0.08,0.12,-0.99,2.87,3.91,1.53
17.6740,0.08,0.11,-0.99,3.30,3.85,1.59
17.6840,0.08,0.11,-1.00,3.05,3.97,0.85
17.7010,0.08,0.12,-0.99,3.30,4.03,0.37
17.7170,0.08,0.11,-0.99,3.05,4.09,0.37
17.7330,0.08,0.11,-0.99,3.17,4.03,0.55
17.7330,0.08,0.10,-0.99,3.17,3.97,0.49
17.7500,0.08,0.11,-0.99,3.05,4.03,0.12
17.7790,0.08,0.11,-0.99,3.17,4.09,-0.37
17.7940,0.07,0.10,-1.00,3.17,4.03,-0.67
17.8000,0.08,0.11,-1.00,3.42,4.27,-1.10
17.8170,0.08,0.11,-0.99,3.42,4.15,-1.28
17.8340,0.08,0.12,-0.99,3.17,4.33,-0.79
17.8500,0.08,0.12,-0.99,3.23,4.09,-0.49
17.8660,0.08,0.12,-0.99,3.11,4.27,0.06
17.8820,0.08,0.12,-0.99,3.11,4.39,-0.31
17.8980,0.08,0.13,-0.99,3.17,4.33,0.24
17.9000,0.08,0.13,-0.99,3.17,4.09,1.10
17.9290,0.08,0.12,-0.99,3.23,3.91,1.40
17.9440,0.08,0.11,-0.99,3.11,4.15,1.34
17.9590,0.08,0.10,-1.00,3.17,3.78,1.16
17.9670,0.08,0.11,-1.00,3.05,4.21,0.31
17.9840,0.08,0.11,-0.99,3.11,4.21,0.43
18.0000,0.08,0.12,-0.99,3.11,4.09,0.92
18.0160,0.08,0.11,-0.99,2.93,3.91,0.79
18.0330,0.08,0.11,-0.99,3.23,3.91,0.18
18.0500,0.08,0.11,-0.99,3.11,4.27,-0.24
18.0500,0.08,0.12,-0.99,3.11,4.21,-0.31
18.0790,0.08,0.13,-0.99,3.23,4.09,0.06
18.0840,0.08,0.12,-0.99,2.93,4.33,0.67
18.1090,0.08,0.11,-0.99,3.11,4.33,0.55
18.1160,0.08,0.11,-0.99,3.23,4.39,-0.06
18.1330,0.08,0.12,-0.99,2.99,4.09,0.18
18.1500,0.08,0.12,-0.99,3.05,4.09,0.73
18.1670,0.08,0.12,-0.99,3.23,3.91,1.53
18.1850,0.08,0.11,-0.99,3.05,4.21,1.53
18.2000,0.08,0.11,-1.00,3.42,4.09,0.98
18.2160,0.08,0.11,-0.99,2.99,3.97,0.92
18.2300,0.08,0.12,-0.99,3.05,4.21,0.67
18.2460,0.08,0.11,-0.99,2.93,4.03,1.46
18.2610,0.08,0.11,-0.99,3.05,4.15,0.92
18.2670,0.08,0.11,-0.99,3.42,4.03,0.73
18.2850,0.08,0.12,-1.00,3.36,4.09,0.49
18.3050,0.08,0.12,-0.99,3.36,4.15,0.79
18.3160,0.08,0.12,-0.99,3.17,4.09,0.67
18.3330,0.08,0.12,-0.99,3.11,4.39,0.85
18.3500,0.08,0.12,-0.99,2.99,4.15,0.92
18.3660,0.08,0.11,-0.99,2.99,3.91,0.92
18.3800,0.08,0.11,-0.99,3.17,4.09,0.61
18.3950,0.08,0.12,-0.99,2.99,4.03,0.92
18.4100,0.08,0.11,-0.99,3.05,4.21,1.34
18.4250,0.08,0.11,-1.00,2.99,4.09,1.22
18.4330,0.08,0.10,-1.00,3.11,4.15,0.61
18.4550,0.08,0.11,-0.99,3.17,4.27,-0.43
18.4660,0.08,0.12,-0.99,3.05,4.46,-0.12
18.4850,0.08,0.12,-0.99,2.93,3.91,0.49
18.4990,0.08,0.13,-0.99,3.05,4.03,0.73
18.5150,0.08,0.12,-0.99,3.11,4.03,0.98
18.5310,0.08,0.11,-0.99,3.17,3.97,0.85
18.5460,0.08,0.11,-0.99,2.99,4.15,0.24
18.5500,0.08,0.11,-0.99,3.05,4.39,0.18
18.5760,0.08,0.12,-0.99,3.05,4.15,-0.06
18.5850,0.08,0.12,-0.99,2.93,4.46,0.18
18.6000,0.08,0.12,-0.99,3.17,4.15,0.37
18.6170,0.08,0.12,-0.99,3.11,3.97,0.85
18.6330,0.08,0.12,-0.99,3.05,3.85,0.98
18.6500,0.08,0.11,-0.99,3.05,4.03,1.34
18.6650,0.08,0.11,-0.99,3.05,3.97,1.22
18.6800,0.08,0.10,-1.00,3.17,3.97,0.92
18.6950,0.08,0.10,-0.99,3.17,4.03,-0.37
18.7110,0.08,0.12,-0.99,3.23,4.52,-0.18
18.7250,0.08,0.12,-0.99,3.23,4.21,0.37
18.7400,0.08,0.12,-0.99,3.17,4.21,0.31
18.7550,0.08,0.12,-0.99,3.11,4.15,0.67
18.7660,0.08,0.11,-0.99,2.99,4.03,0.67
18.7850,0.08,0.12,-0.99,3.05,4.09,0.24
18.8010,0.08,0.11,-0.99,3.17,4.39,0.00
18.8150,0.08,0.11,-1.00,2.93,4.03,0.18
18.8310,0.08,0.11,-0.99,3.30,4.21,-0.73
18.8450,0.08,0.12,-0.99,3.36,4.33,-0.85
18.8620,0.08,0.12,-0.99,3.17,4.39,-0.31
18.8670,0.08,0.11,-0.99,3.17,4.33,-0.18
18.8920,0.08,0.11,-1.00,3.11,4.39,-0.49
18.9070,0.08,0.11,-0.99,3.42,4.15,-1.10
18.9170,0.08,0.12,-0.99,3.48,4.33,-0.73
18.9330,0.08,0.12,-0.99,3.17,4.39,0.12
18.9490,0.08,0.12,-0.99,3.30,4.33,0.49
18.9660,0.08,0.11,-0.99,3.23,3.97,0.85
18.9810,0.08,0.10,-1.00,3.17,4.21,0.18
18.9980,0.08,0.11,-1.00,3.30,4.64,-0.18
19.0000,0.08,0.12,-0.99,3.11,4.21,0.00
19.0280,0.08,0.13,-0.99,2.93,4.03,0.37
19.0420,0.08,0.12,-0.99,3.05,3.91,1.04
19.0580,0.08,0.11,-0.99,3.17,4.09,0.92
19.0670,0.08,0.10,-0.99,2.99,4.15,0.18
19.0850,0.08,0.11,-0.99,3.42,4.64,-0.98
19.1010,0.08,0.11,-0.99,3.23,4.46,-0.98
19.1170,0.08,0.12,-0.99,3.17,4.46,-1.46
19.1340,0.08,0.12,-0.99,3.05,4.33,-0.92
19.1490,0.08,0.12,-0.99,3.23,4.15,0.37
19.1650,0.08,0.12,-0.99,3.11,4.52,0.73
19.1800,0.08,0.11,-0.99,2.75,4.03,0.61
19.1940,0.08,0.11,-0.99,3.17,4.09,0.37
19.2090,0.08,0.11,-0.99,3.30,4.15,0.73
19.2170,0.08,0.11,-0.99,3.17,3.91,0.43
19.2340,0.08,0.11,-1.00,3.23,4.39,-0.18
19.2500,0.08,0.12,-0.99,3.05,4.27,-0.49
19.2670,0.08,0.11,-0.99,3.05,3.91,-0.06
19.2850,0.08,0.12,-0.99,3.11,4.58,-0.37
19.2990,0.08,0.12,-0.99,3.17,4.39,-0.55
19.3140,0.08,0.12,-0.99,3.05,3.97,0.31
19.3290,0.08,0.12,-0.99,3.30,4.09,1.10
19.3440,0.08,0.11,-0.99,3.05,4.15,1.16
19.3590,0.08,0.11,-0.99,3.17,4.03,0.85
19.3670,0.08,0.11,-1.00,3.05,3.72,0.43
19.3900,0.08,0.11,-0.99,3.17,3.97,0.31
19.4010,0.08,0.11,-0.99,3.17,4.03,0.31
19.4170,0.08,0.10,-1.00,3.17,4.33,-0.79
19.4330,0.08,0.11,-0.99,3.36,4.52,-1.16
19.4490,0.08,0.11,-0.99,3.30,4.03,-1.28
19.4660,0.08,0.12,-0.99,3.23,4.46,-1.34
19.4810,0.08,0.12,-0.99,3.30,4.15,-0.67
19.4950,0.08,0.12,-0.99,3.36,4.21,-0.55
19.5100,0.08,0.11,-0.99,3.30,4.09,-1.10
19.5260,0.08,0.11,-1.00,3.48,4.52,-2.32
19.5330,0.08,0.11,-0.99,2.99,4.70,-2.32
19.5510,0.08,0.12,-0.99,3.23,4.39,-1.04
19.5670,0.08,0.12,-0.99,3.05,4.58,-0.43
19.5850,0.08,0.12,-0.99,2.99,4.27,0.18
19.6000,0.08,0.11,-0.99,3.05,4.15,0.18
19.6150,0.08,0.11,-0.99,3.23,4.09,-0.31
19.6300,0.08,0.10,-0.99,3.23,4.27,-1.28
19.6450,0.08,0.10,-1.00,3.42,4.21,-2.01
19.6600,0.08,0.12,-0.99,3.23,4.46,-1.46
19.6660,0.08,0.12,-0.99,3.05,4.09,0.12
19.6900,0.08,0.12,-0.99,2.87,4.21,0.06
19.7000,0.08,0.12,-0.99,2.81,4.03,0.43
19.7180,0.08,0.12,-0.99,3.17,3.97,0.31
19.7330,0.08,0.11,-0.99,3.17,4.33,0.18
19.7500,0.08,0.11,-0.99,3.17,4.21,-0.49
19.7650,0.08,0.11,-0.99,3.11,4.09,-0.61
19.7800,0.08,0.12,-0.99,2.99,4.15,-0.06
19.7960,0.08,0.12,-0.99,3.17,3.91,-0.18
19.8100,0.08,0.12,-0.99,3.17,4.09,0.18
19.8250,0.08,0.11,-1.00,3.05,4.15,-0.12
19.8330,0.08,0.12,-0.99,3.05,4.09,-0.37
19.8500,0.08,0.13,-0.99,3.11,4.09,0.06
19.8670,0.08,0.12,-0.99,3.05,3.91,1.16
19.8830,0.07,0.10,-1.00,2.99,3.91,1.04
19.9010,0.07,0.10,-1.00,3.11,3.97,-0.12
19.9150,0.07,0.10,-1.00,3.36,4.39,-0.92
19.9310,0.08,0.11,-1.00,3.36,4.21,-1.22
19.9340,0.08,0.12,-0.99,3.05,3.97,-0.12
19.9600,0.08,0.13,-0.99,3.17,4.15,0.12
19.9760,0.08,0.12,-0.99,3.17,4.03,0.12
19.9920,0.08,0.11,-0.99,2.99,4.15,-0.18
20.0000,0.08,0.11,-0.99,2.99,4.21,-0.37
20.0170,0.08,0.10,-1.00,3.23,4.21,-1.10
20.0330,0.07,0.11,-1.00,3.30,4.27,-1.59
20.0510,0.08,0.11,-0.99,3.23,4.39,-1.16
20.0660,0.08,0.12,-0.99,3.36,4.21,-0.85
20.0820,0.08,0.13,-0.99,3.17,4.21,-0.31
20.0960,0.08,0.11,-0.99,3.11,3.72,0.37
20.1110,0.08,0.10,-1.00,3.11,4.27,-0.67
20.1270,0.08,0.11,-0.99,3.36,4.09,-1.16
20.1410,0.08,0.12,-0.99,3.17,4.33,-1.16
20.1570,0.08,0.13,-0.99,3.05,4.27,-0.73
20.1670,0.08,0.12,-0.99,3.11,4.03,0.18
20.1860,0.08,0.10,-0.99,3.05,4.15,0.55
20.2000,0.08,0.10,-1.00,3.30,3.91,-0.55
20.2170,0.08,0.11,-0.99,3.42,3.91,-0.85
20.2320,0.08,0.12,-0.99,3.23,4.21,-0.31
20.2470,0.08,0.12,-0.99,2.99,4.33,-0.18
20.2630,0.08,0.11,-0.99,3.23,3.91,-0.31
20.2770,0.08,0.11,-0.99,3.05,4.39,-1.04
20.2860,0.08,0.11,-0.99,3.17,4.27,-1.28
20.3070,0.08,0.11,-0.99,3.23,4.46,-1.04
20.3220,0.08,0.12,-0.99,3.23,4.21,-0.55
20.3340,0.08,0.11,-0.99,3.11,4.09,-0.06
20.3500,0.08,0.11,-0.99,3.23,4.09,-0.24
20.3660,0.08,0.10,-0.99,3.23,4.21,-0.79
20.3820,0.08,0.11,-0.99,3.30,4.27,-1.16
20.3980,0.08,0.11,-1.00,3.17,4.46,-1.10
20.4120,0.08,0.11,-0.99,3.54,4.27,-1.71
20.4280,0.08,0.13,-0.99,3.05,4.46,-1.22
20.4420,0.08,0.12,-0.99,3.42,4.27,-0.92
20.4510,0.08,0.11,-0.99,3.11,4.03,-0.67
20.4670,0.08,0.12,-0.99,3.17,4.03,0.31
20.4860,0.08,0.11,-0.99,3.17,4.03,0.85
20.5000,0.08,0.11,-1.00,3.11,4.03,0.73
20.5170,0.08,0.11,-1.00,3.05,4.33,-0.79
20.5330,0.07,0.11,-0.99,3.17,4.15,-1.53
20.5480,0.08,0.12,-0.99,3.17,4.15,-0.18
20.5630,0.08,0.11,-0.99,3.23,4.03,-0.43
20.5780,0.08,0.13,-0.99,3.17,4.15,-0.24
20.5940,0.08,0.12,-0.99,3.17,3.85,0.31
20.6080,0.08,0.12,-0.99,2.93,4.27,0.79
20.6160,0.07,0.10,-1.00,3.05,4.09,0.85
20.6330,0.07,0.10,-0.99,3.05,3.85,0.24
20.6500,0.08,0.11,-0.99,3.23,4.21,-0.73
20.6680,0.08,0.11,-0.99,3.42,4.46,-1.04
20.6830,0.08,0.12,-0.99,3.30,4.21,-0.85
20.6990,0.08,0.12,-0.99,3.23,4.21,-0.61
20.7130,0.08,0.12,-0.99,3.36,4.33,-0.49
20.7280,0.08,0.11,-0.99,3.11,4.15,-0.12
20.7440,0.08,0.12,-0.99,3.05,4.46,-0.24
20.7580,0.08,0.13,-0.99,2.99,3.72,0.24
20.7670,0.08,0.13,-0.99,2.99,3.85,1.34
20.7860,0.08,0.11,-0.99,2.93,3.97,1.34
20.8010,0.08,0.10,-1.00,2.87,4.15,0.37
20.8170,0.08,0.10,-1.00,2.99,4.27,-1.28
20.8330,0.08,0.12,-0.99,3.42,4.46,-1.89
20.8480,0.08,0.12,-0.99,3.42,4.33,-1.40
20.8640,0.08,0.12,-0.99,3.17,4.15,-0.61
20.8790,0.08,0.11,-0.99,3.30,3.97,-0.12
20.8930,0.07,0.10,-1.00,3.11,4.21,-1.40
20.9080,0.07,0.10,-1.00,3.42,4.46,-2.99
20.9170,0.07,0.11,-1.00,3.54,4.58,-3.30
20.9330,0.08,0.12,-0.99,3.42,4.21,-2.69
20.9500,0.08,0.13,-0.99,3.42,4.58,-1.89
20.9660,0.08,0.13,-0.99,3.17,4.21,-0.67
20.9830,0.08,0.13,-0.99,3.05,3.97,0.24
20.9990,0.08,0.11,-0.99,2.93,4.03,1.28
21.0130,0.08,0.10,-1.00,3.17,3.85,0.49
21.0290,0.08,0.10,-0.99,3.11,4.39,-0.61
21.0430,0.08,0.11,-0.99,3.23,4.33,-0.92
21.0580,0.08,0.11,-1.00,3.23,4.39,-1.22
21.0740,0.07,0.12,-0.99,3.48,4.52,-1.59
21.0860,0.08,0.12,-0.99,3.30,4.39,-0.85
21.0990,0.08,0.12,-0.99,3.30,4.03,-0.43
21.1160,0.08,0.12,-0.99,3.30,3.72,-0.31
21.1330,0.08,0.12,-0.99,3.30,4.03,-0.12
21.1480,0.08,0.11,-0.99,3.05,4.21,0.37
21.1630,0.07,0.11,-0.99,3.17,4.21,0.12
21.1780,0.07,0.10,-1.00,3.17,4.15,-0.24
21.1940,0.07,0.11,-1.00,3.36,4.09,-0.37
21.2090,0.08,0.12,-0.99,3.17,4.27,-0.31
21.2250,0.08,0.13,-0.99,3.05,4.03,0.85
21.2330,0.08,0.12,-0.99,2.93,4.03,0.98
21.2500,0.08,0.11,-0.99,2.93,3.97,0.98
21.2670,0.08,0.10,-1.00,3.17,4.33,0.18
21.2840,0.07,0.10,-1.00,3.17,4.27,-0.24
21.3000,0.08,0.10,-1.00,3.05,4.15,-0.67
21.3160,0.07,0.12,-0.99,3.17,4.46,-0.85
21.3170,0.08,0.14,-0.99,3.17,4.27,0.18
21.3450,0.08,0.13,-0.99,3.11,4.33,1.28
21.3600,0.08,0.12,-0.99,3.05,3.85,1.40
21.3750,0.08,0.10,-1.00,3.11,4.03,1.04
21.3920,0.07,0.10,-1.00,3.11,4.15,-0.55
21.4060,0.08,0.11,-1.00,3.36,4.39,-1.28
21.4170,0.08,0.12,-0.99,3.17,4.15,-0.24
21.4340,0.08,0.13,-0.99,3.36,4.03,0.31
21.4510,0.07,0.12,-0.99,2.99,4.21,0.49
21.4660,0.08,0.11,-0.99,3.17,4.03,0.31
21.4820,0.08,0.11,-0.99,3.42,3.97,0.18
21.4960,0.08,0.10,-0.99,3.23,4.27,0.24
21.5110,0.11,0.07,-1.00,3.60,4.52,0.06
21.5270,0.06,0.11,-1.00,3.23,4.33,-1.04
21.5420,0.06,0.16,-0.99,3.11,4.21,-2.32
21.5570,0.07,0.14,-0.99,3.11,4.15,-0.92
21.5660,0.08,0.13,-0.99,3.17,4.21,0.98
21.5870,0.08,0.11,-0.99,2.93,3.78,1.04
21.6010,0.08,0.10,-0.99,3.05,4.15,0.92
21.6170,0.08,0.11,-0.99,3.23,4.39,-0.43
21.6330,0.07,0.11,-1.00,3.60,4.39,-1.34
21.6480,0.07,0.11,-0.99,3.23,4.46,-1.28
21.6640,0.08,0.12,-0.99,3.23,4.46,-0.85
21.6790,0.08,0.12,-0.99,3.17,4.27,0.06
21.6940,0.08,0.11,-0.99,3.11,4.15,0.24
21.7080,0.08,0.10,-1.00,3.23,4.27,-0.24
21.7160,0.07,0.10,-1.00,3.23,4.15,-1.10
21.7330,0.07,0.10,-1.00,3.42,4.70,-2.75
21.7500,0.07,0.12,-0.99,3.30,4.52,-2.32
21.7660,0.08,0.13,-0.99,3.42,4.46,-1.95
21.7830,0.08,0.12,-0.99,3.48,4.21,-1.04
21.7980,0.08,0.12,-0.99,3.54,4.15,-0.85
21.8140,0.08,0.12,-0.99,3.48,4.03,-1.34
21.8280,0.07,0.12,-0.99,3.11,4.46,-0.24
21.8430,0.07,0.11,-1.00,3.42,4.21,-0.18
21.8580,0.08,0.11,-0.99,3.11,4.15,-0.73
21.8670,0.08,0.11,-0.99,3.42,4.39,-1.71
21.8870,0.08,0.11,-0.99,3.42,4.27,-1.77
21.9010,0.08,0.12,-0.99,2.99,4.15,-1.53
21.9170,0.08,0.12,-0.99,2.93,4.15,-0.61
21.9330,0.08,0.12,-0.99,2.99,4.27,-0.24
21.9500,0.07,0.11,-0.99,3.30,4.27,-0.61
21.9650,0.07,0.10,-1.00,3.54,4.52,-2.08
21.9810,0.07,0.10,-1.00,3.60,4.76,-4.09
21.9950,0.07,0.12,-0.99,3.36,4.88,-4.33
22.0100,0.08,0.13,-0.99,3.17,4.46,-2.26
22.0250,0.08,0.14,-0.99,3.30,4.21,-0.85
22.0330,0.08,0.12,-0.99,2.99,3.97,0.98
22.0550,0.08,0.11,-0.99,3.11,4.03,1.04
22.0660,0.07,0.11,-1.00,3.05,4.27,0.12
22.0840,0.07,0.10,-0.99,3.17,4.33,-0.12
22.1000,0.07,0.11,-0.99,3.42,4.52,-0.73
22.1160,0.07,0.11,-1.00,3.30,4.21,-0.85
22.1300,0.08,0.12,-0.99,3.11,4.52,-0.61
22.1450,0.08,0.12,-0.99,3.30,4.09,-0.37
22.1510,0.08,0.12,-0.99,3.23,4.15,0.00
22.1680,0.08,0.12,-0.99,2.99,4.21,0.55
22.1900,0.08,0.11,-0.99,3.23,4.15,0.06
22.2000,0.08,0.11,-0.99,3.17,4.21,-0.61
22.2160,0.07,0.11,-0.99,3.23,4.39,-0.61
22.2330,0.07,0.11,-0.99,3.17,4.09,-0.37
22.2500,0.07,0.12,-0.99,3.05,4.27,-0.18
22.2660,0.07,0.12,-0.99,3.23,4.21,0.43
22.2800,0.08,0.12,-0.99,3.17,4.15,0.73
22.2950,0.07,0.11,-0.99,2.93,4.33,0.67
22.3100,0.07,0.11,-0.99,3.30,3.97,0.06
22.3250,0.07,0.11,-1.00,3.36,4.21,-0.67
22.3340,0.07,0.11,-1.00,3.23,4.82,-1.34
22.3500,0.07,0.11,-0.99,3.05,4.52,-1.28
22.3660,0.08,0.11,-0.99,3.17,4.33,-1.59
22.3840,0.08,0.13,-0.99,3.30,4.39,-1.22
22.4000,0.08,0.12,-0.99,3.17,4.03,0.55
22.4150,0.08,0.11,-1.00,3.17,3.97,0.73
22.4300,0.08,0.11,-0.99,3.23,4.03,0.49
22.4450,0.08,0.10,-1.00,3.17,4.27,-0.92
22.4600,0.07,0.11,-0.99,3.23,3.97,-1.53
22.4750,0.07,0.12,-1.00,3.42,4.52,-1.28
22.4870,0.07,0.12,-0.99,3.11,4.46,-1.16
22.5060,0.08,0.12,-0.99,3.30,4.27,-1.16
22.5170,0.08,0.12,-0.99,2.99,4.15,-0.73
22.5340,0.08,0.12,-1.00,2.75,4.09,0.00
22.5510,0.07,0.12,-0.99,3.11,4.21,0.55
22.5660,0.07,0.11,-0.99,3.17,4.09,0.49
22.5810,0.07,0.11,-0.99,3.30,4.09,0.18
22.5960,0.07,0.11,-1.00,3.17,4.09,-0.06
22.6130,0.08,0.11,-1.00,3.30,4.09,-0.61
22.6280,0.08,0.12,-0.99,3.17,4.15,-1.16
22.6340,0.08,0.12,-0.99,3.11,4.33,-0.49
22.6590,0.08,0.12,-0.99,3.30,4.09,0.31
22.6670,0.08,0.11,-0.99,3.11,4.09,0.73
22.6870,0.08,0.11,-0.99,3.11,4.09,0.31
22.6990,0.08,0.11,-0.99,3.23,4.09,-0.79
22.7170,0.07,0.12,-0.99,3.36,4.09,-1.53
22.7330,0.07,0.11,-0.99,3.17,4.33,-1.04
22.7480,0.07,0.11,-1.00,2.93,4.15,-0.43
22.7630,0.07,0.11,-1.00,3.23,4.15,-0.85
22.7780,0.07,0.11,-0.99,3.30,4.21,-1.65
22.7940,0.07,0.11,-0.99,3.54,4.21,-2.01
22.8080,0.08,0.12,-0.99,3.36,4.21,-1.59
22.8170,0.08,0.11,-1.00,3.36,4.52,-1.89
22.8330,0.07,0.11,-0.99,3.60,4.70,-2.87
22.8510,0.07,0.12,-0.99,3.54,4.52,-3.11
22.8670,0.07,0.12,-0.99,3.66,4.70,-2.38
22.8830,0.08,0.12,-0.99,3.11,4.46,-1.46
22.8980,0.08,0.11,-0.99,3.17,4.46,-1.10
22.9140,0.08,0.11,-0.99,3.42,4.27,-1.59
22.9170,0.08,0.10,-1.00,3.36,4.39,-2.62
22.9450,0.07,0.11,-0.99,3.42,4.46,-2.93
22.9590,0.07,0.13,-0.99,3.05,4.15,-2.01
22.9750,0.07,0.11,-0.99,3.11,4.52,-1.04
22.9880,0.07,0.11,-0.99,3.30,4.27,-1.46
23.0000,0.07,0.11,-0.99,3.30,4.46,-1.65
23.0170,0.07,0.11,-0.99,3.42,4.27,-2.14
23.0340,0.07,0.11,-0.99,3.48,4.46,-2.75
23.0490,0.07,0.13,-0.99,3.11,4.27,-2.38
23.0640,0.07,0.12,-0.99,3.05,4.15,0.12
23.0790,0.07,0.12,-0.99,3.05,4.09,0.43
23.0940,0.08,0.12,-0.99,3.05,4.03,0.85
23.1090,0.08,0.11,-1.00,3.05,4.03,0.98
23.1170,0.08,0.10,-1.00,3.11,4.21,-0.73
23.1330,0.07,0.11,-0.99,3.54,4.46,-2.87
23.1510,0.07,0.11,-0.99,3.48,4.52,-2.87
23.1660,0.07,0.13,-0.99,3.17,4.33,-2.26
23.1830,0.07,0.13,-0.99,2.93,4.27,-0.85
23.1990,0.08,0.12,-0.99,2.99,3.85,0.24
23.2140,0.08,0.12,-0.99,2.87,4.27,1.22
23.2290,0.08,0.11,-0.99,2.81,4.09,1.34
23.2440,0.07,0.10,-1.00,3.17,4.03,1.65
23.2600,0.07,0.10,-1.00,3.30,4.15,0.61
23.2740,0.07,0.11,-0.99,3.30,4.52,-1.46
23.2880,0.07,0.11,-0.99,3.17,4.39,-1.40
23.3000,0.07,0.12,-1.00,3.11,4.27,-0.92
23.3180,0.08,0.12,-0.99,3.30,4.03,-0.12
23.3340,0.07,0.12,-0.99,3.23,4.39,-0.18
23.3490,0.07,0.11,-0.99,3.17,3.85,0.06
23.3640,0.07,0.12,-1.00,2.93,4.27,-0.12
23.3790,0.07,0.11,-1.00,3.17,4.27,-0.37
23.3940,0.08,0.12,-0.99,3.23,4.03,-0.98
23.4090,0.08,0.11,-0.99,3.17,4.21,-1.59
23.4240,0.08,0.12,-0.99,3.23,4.52,-2.38
23.4340,0.08,0.11,-0.99,3.17,4.46,-1.77
23.4500,0.07,0.12,-1.00,3.11,4.33,-1.10
23.4670,0.07,0.12,-0.99,3.17,3.91,0.06
23.4840,0.07,0.11,-0.99,3.23,4.09,1.10
23.4990,0.07,0.11,-0.99,3.17,3.66,1.16
23.5140,0.07,0.11,-0.99,2.93,4.09,1.22
23.5290,0.07,0.11,-1.00,3.05,4.03,1.16
23.5440,0.07,0.11,-0.99,2.93,4.03,1.04
23.5590,0.07,0.12,-0.99,2.87,4.21,0.79
23.5670,0.08,0.13,-0.99,2.93,4.03,0.92
23.5880,0.08,0.12,-0.99,3.05,3.60,1.71
23.6000,0.08,0.11,-0.99,2.99,3.72,1.46
23.6180,0.08,0.11,-0.99,3.17,4.27,0.92
23.6330,0.07,0.11,-0.99,3.17,3.85,0.67
23.6490,0.07,0.12,-1.00,3.05,3.78,0.85
23.6640,0.07,0.12,-0.99,2.93,3.72,1.22
23.6790,0.07,0.12,-0.99,2.99,3.85,1.77
23.6940,0.07,0.11,-0.99,2.75,3.72,2.01
23.7090,0.07,0.11,-1.00,2.75,3.78,1.95
23.7170,0.07,0.11,-1.00,3.05,3.72,2.08
23.7340,0.07,0.11,-0.99,2.99,3.97,2.08
23.7500,0.07,0.11,-1.00,2.93,3.54,2.08
23.7660,0.07,0.11,-0.99,2.81,3.60,2.14
23.7830,0.08,0.12,-0.99,3.11,3.48,2.01
23.7990,0.08,0.12,-0.99,2.87,3.72,2.14
23.8140,0.08,0.12,-0.99,3.11,3.72,2.01
23.8290,0.08,0.12,-0.99,3.17,4.15,1.95
23.8440,0.08,0.12,-0.99,2.99,3.78,2.08
23.8590,0.07,0.12,-0.99,2.69,3.78,2.08
23.8740,0.07,0.11,-0.99,2.32,3.91,2.08
23.8880,0.06,0.13,-0.99,2.08,3.66,3.05
23.9000,0.07,0.11,-0.99,1.95,2.99,8.73
23.9170,0.08,0.10,-1.00,2.01,3.05,9.28
23.9340,0.08,0.12,-1.01,3.42,3.85,4.64
23.9490,0.07,0.10,-0.99,2.87,3.78,1.95
23.9640,0.07,0.11,-1.00,3.11,3.78,2.20
23.9790,0.07,0.11,-0.99,3.11,3.78,2.08
23.9940,0.07,0.11,-0.99,3.17,4.09,1.95
24.0090,0.08,0.11,-0.99,2.99,3.72,2.01
24.0160,0.07,0.12,-0.99,2.87,3.91,2.08
24.0330,0.08,0.12,-0.99,2.81,3.85,2.14
24.0500,0.08,0.12,-0.99,2.93,3.78,2.08
24.0660,0.08,0.12,-0.99,2.69,3.66,2.08
24.0830,0.08,0.12,-1.00,2.87,3.91,2.26
24.0990,0.07,0.11,-0.99,2.62,3.78,2.08
24.1140,0.07,0.11,-0.99,2.87,3.91,2.08
24.1290,0.07,0.11,-0.99,2.75,3.85,2.14
24.1440,0.07,0.11,-0.99,2.87,3.72,2.20
24.1590,0.03,0.11,-1.00,2.75,3.72,3.54
24.1740,0.06,0.10,-1.00,2.38,2.87,8.12
24.1880,0.06,0.10,-0.99,2.20,2.56,9.70
24.2000,0.08,0.11,-0.99,2.44,2.99,9.58
24.2170,0.09,0.11,-0.99,2.69,2.87,7.26
24.2340,0.08,0.11,-0.99,2.75,3.54,4.58
24.2490,0.07,0.11,-0.99,2.87,3.78,3.85
24.2640,0.08,0.11,-0.99,2.62,3.78,4.15
24.2790,0.07,0.11,-0.99,2.93,3.60,3.91
24.2940,0.08,0.11,-0.99,2.87,3.54,3.91
24.3090,0.08,0.12,-0.99,2.75,3.60,4.09
24.3240,0.07,0.11,-0.99,2.75,3.42,4.27
24.3330,0.07,0.11,-1.00,2.69,3.42,4.64
24.3500,0.08,0.11,-0.99,2.69,3.54,5.13
24.3660,0.08,0.11,-0.99,2.81,3.66,4.58
24.3830,0.08,0.11,-0.99,2.69,3.54,3.66
24.3990,0.07,0.11,-0.99,2.87,3.23,3.23
24.4140,0.07,0.11,-0.99,2.93,3.85,3.42
24.4290,0.07,0.11,-0.99,2.99,3.66,3.23
24.4440,0.07,0.11,-0.99,3.11,3.72,3.36
24.4590,0.07,0.11,-0.99,2.81,3.60,3.54
24.4740,0.08,0.12,-0.99,2.81,3.48,3.36
24.4880,0.08,0.12,-0.99,3.05,3.60,2.62
24.5000,0.08,0.11,-0.99,2.99,3.72,2.14
24.5170,0.08,0.12,-0.99,2.87,3.78,2.20
24.5340,0.08,0.12,-0.99,2.75,3.91,2.26
24.5480,0.08,0.11,-0.99,2.50,3.48,2.32
24.5640,0.07,0.11,-0.99,2.81,3.60,2.26
24.5790,0.07,0.11,-0.99,2.69,3.78,2.38
24.5940,0.07,0.11,-0.99,2.99,3.72,3.05
24.6090,0.08,0.11,-0.99,2.99,3.48,2.93
24.6170,0.07,0.11,-0.99,2.93,3.66,2.56
24.6340,0.07,0.11,-0.99,2.93,3.66,2.50
24.6510,0.07,0.11,-0.99,2.99,3.66,2.38
24.6660,0.07,0.11,-1.00,2.93,3.48,2.56
24.6840,0.07,0.11,-0.99,2.75,3.54,3.05
24.6990,0.07,0.12,-0.99,2.81,3.72,3.54
24.7140,0.07,0.11,-0.99,2.69,3.54,3.78
24.7290,0.08,0.11,-1.00,2.93,3.42,4.15
24.7440,0.08,0.11,-0.99,2.81,3.30,3.72
24.7590,0.08,0.11,-0.99,2.75,3.54,3.85
24.7660,0.07,0.11,-0.99,2.87,3.78,3.66
24.7890,0.08,0.11,-0.99,2.93,3.48,3.54
24.8000,0.07,0.11,-0.99,2.81,3.42,3.36
24.8180,0.08,0.11,-0.99,2.93,3.42,3.36
24.8330,0.07,0.11,-1.00,2.93,3.72,3.11
24.8490,0.07,0.11,-0.99,2.69,3.78,3.66
24.8640,0.08,0.11,-1.00,2.69,3.30,4.27
24.8660,0.08,0.11,-0.99,3.05,3.42,4.27
24.8930,0.07,0.11,-0.99,2.87,3.60,4.09
24.9090,0.08,0.11,-0.99,2.93,3.36,4.09
24.9160,0.08,0.11,-0.99,3.05,3.42,3.66
24.9340,0.07,0.11,-0.99,2.93,3.85,2.93
24.9490,0.07,0.11,-0.99,2.81,3.85,2.87
24.9670,0.06,0.11,-0.99,2.99,3.97,3.11
24.9840,0.08,0.11,-0.99,2.87,3.60,3.60
24.9890,0.08,0.11,-0.99,2.75,3.66,3.48
25.0010,0.09,0.11,-0.99,2.81,3.60,2.99
25.0290,0.08,0.11,-0.99,2.81,3.54,2.69
25.0440,0.07,0.11,-0.99,2.99,3.85,2.62
25.0590,0.07,0.11,-0.99,2.81,3.78,2.50
25.0670,0.08,0.11,-0.99,2.81,3.85,2.56
25.0890,0.08,0.11,-0.99,2.93,3.91,2.32
25.1000,0.07,0.11,-0.99,2.87,3.85,2.32
25.1160,0.07,0.11,-0.99,2.81,3.48,2.50
25.1330,0.07,0.11,-0.99,2.87,4.03,2.75
25.1490,0.06,0.11,-0.99,2.87,3.66,3.17
25.1640,0.07,0.11,-0.99,2.93,3.78,3.60
25.1790,0.08,0.12,-0.99,2.99,3.54,3.78
25.1940,0.08,0.11,-0.99,3.05,3.60,2.87
25.2090,0.08,0.12,-0.99,3.11,3.85,2.26
25.2170,0.08,0.12,-0.99,3.05,3.91,1.77
25.2340,0.08,0.12,-0.99,2.81,3.91,1.77
25.2500,0.07,0.11,-0.99,2.75,3.91,2.14
25.2680,0.07,0.11,-1.00,2.87,3.85,2.14
25.2830,0.07,0.11,-1.00,2.93,3.78,2.26
25.2980,0.07,0.11,-1.00,2.81,3.66,2.32
25.3140,0.08,0.12,-0.99,2.75,3.91,2.56
25.3290,0.08,0.11,-0.99,2.75,3.72,2.50
25.3430,0.07,0.11,-0.99,2.93,3.78,2.38
25.3590,0.07,0.11,-1.00,3.05,3.85,2.50
25.3740,0.06,0.11,-0.99,2.99,3.72,2.56
25.3890,0.07,0.11,-0.99,3.17,3.85,2.69
25.4000,0.08,0.12,-0.99,2.81,3.91,2.62
25.4170,0.08,0.12,-0.99,2.69,3.66,2.50
25.4330,0.07,0.12,-1.00,2.69,3.91,2.56
25.4490,0.07,0.11,-0.99,2.81,3.66,2.50
25.4650,0.08,0.11,-0.99,2.99,4.03,2.75
25.4810,0.08,0.11,-0.99,2.87,3.97,2.14
25.4890,0.08,0.11,-0.99,2.93,4.03,2.08
25.5110,0.07,0.11,-0.99,2.87,3.60,2.14
25.5170,0.07,0.11,-0.99,2.87,3.60,2.01
25.5410,0.06,0.11,-0.99,2.81,3.85,2.14
25.5510,0.06,0.11,-1.00,2.81,3.60,2.56
25.5660,0.07,0.11,-1.00,2.93,3.78,2.93
25.5840,0.08,0.11,-0.99,2.75,3.72,2.69
25.6000,0.08,0.11,-0.99,2.75,3.85,2.69
25.6160,0.08,0.11,-0.99,2.87,3.78,2.50
25.6170,0.08,0.12,-0.99,2.69,3.72,2.20
25.6460,0.07,0.11,-0.99,2.81,3.72,2.08
25.6610,0.07,0.11,-0.99,2.81,3.78,2.26
25.6760,0.07,0.12,-0.99,2.93,3.72,2.01
25.6910,0.07,0.11,-0.99,2.87,3.91,2.26
25.7010,0.06,0.12,-1.00,2.69,3.72,2.32
25.7160,0.07,0.11,-0.99,2.62,3.85,2.62
25.7330,0.07,0.11,-0.99,2.81,3.60,2.50
25.7510,0.08,0.11,-0.99,3.11,3.72,2.62
25.7650,0.07,0.11,-1.00,2.87,4.27,2.69
25.7810,0.07,0.11,-0.99,2.99,3.78,2.38
25.7890,0.07,0.11,-0.99,2.75,3.72,2.38
25.7990,0.07,0.11,-0.99,2.62,3.72,2.38
25.8150,0.07,0.12,-0.99,2.75,3.54,2.69
25.8390,0.07,0.11,-0.99,2.99,3.60,2.69
25.8540,0.08,0.11,-0.99,3.17,3.66,2.26
25.8710,0.08,0.11,-0.99,2.99,3.91,1.95
25.8860,0.09,0.11,-0.99,2.81,3.78,1.53
25.9010,0.08,0.12,-0.99,2.87,3.91,1.83
25.9160,0.08,0.11,-0.99,2.69,3.91,2.08
25.9220,0.07,0.11,-0.99,2.81,4.15,2.32
25.9460,0.07,0.11,-0.99,2.81,3.91,2.26
25.9550,0.07,0.11,-0.99,2.99,3.66,2.32
25.9730,0.07,0.11,-0.99,3.05,4.03,2.26
25.9900,0.07,0.11,-0.99,2.75,3.91,2.38
26.0060,0.07,0.11,-1.00,2.93,3.60,2.32
26.0210,0.07,0.11,-1.00,2.81,3.78,2.62
26.0220,0.07,0.11,-0.99,2.75,3.48,2.99
26.0380,0.08,0.11,-0.99,2.99,3.54,2.93
26.0550,0.07,0.11,-0.99,2.75,3.72,2.93
26.0720,0.08,0.11,-0.99,2.75,3.54,2.81
26.0950,0.08,0.11,-0.99,2.75,3.78,2.69
26.1060,0.07,0.11,-0.99,2.62,4.09,2.32
26.1220,0.07,0.11,-0.99,2.69,3.66,2.26
26.1400,0.07,0.12,-0.99,2.81,3.85,2.50
26.1550,0.07,0.11,-0.99,2.87,3.91,2.44
26.1700,0.08,0.11,-0.99,2.75,3.72,2.56
26.1860,0.08,0.11,-0.99,2.69,3.85,2.69
26.1900,0.08,0.11,-0.99,2.93,3.60,2.62
26.2160,0.07,0.11,-0.99,2.99,3.72,2.56
26.2210,0.07,0.11,-0.99,2.87,3.72,2.50
26.2460,0.08,0.11,-0.99,2.75,3.42,2.56
26.2550,0.07,0.11,-0.99,2.99,3.42,2.81
26.2720,0.07,0.11,-0.99,2.87,3.36,2.93
26.2900,0.07,0.12,-1.00,2.93,3.36,2.99
26.3050,0.08,0.11,-0.99,2.56,3.60,3.17
26.3210,0.08,0.11,-0.99,2.93,3.60,2.87
26.3360,0.08,0.11,-0.99,3.05,3.85,2.56
26.3380,0.08,0.11,-0.99,3.05,3.60,2.26
26.3550,0.08,0.11,-0.99,2.93,3.60,2.38
26.3810,0.08,0.11,-0.99,2.81,3.60,2.32
26.3900,0.07,0.12,-0.99,2.81,3.85,2.56
26.4070,0.08,0.11,-0.99,2.99,3.85,2.99
26.4220,0.07,0.11,-0.99,2.99,3.54,2.87
26.4400,0.07,0.11,-0.99,2.99,3.72,2.81
26.4550,0.07,0.11,-0.99,2.81,3.48,2.50
26.4710,0.07,0.11,-0.99,2.81,3.72,2.75
26.4720,0.06,0.12,-0.99,3.05,3.66,2.93
26.4910,0.07,0.11,-0.99,2.93,3.60,3.05
26.5160,0.08,0.11,-0.99,2.99,3.72,2.99
26.5310,0.08,0.11,-0.99,2.87,3.78,2.38
26.5460,0.08,0.11,-0.99,2.87,3.85,2.62
26.5540,0.08,0.11,-0.99,3.05,3.72,2.50
26.5710,0.08,0.11,-0.99,2.99,3.42,2.38
26.5910,0.08,0.11,-0.99,2.99,3.85,2.44
26.6050,0.07,0.11,-0.99,2.75,3.48,2.14
26.6220,0.07,0.11,-0.99,2.93,3.72,2.01
26.6370,0.08,0.11,-0.99,2.87,3.91,1.95
26.6380,0.07,0.11,-0.99,2.99,3.66,1.83
26.6670,0.07,0.11,-0.99,2.99,4.15,1.59
26.6820,0.08,0.11,-0.99,3.05,3.66,1.46
26.6960,0.08,0.11,-0.99,3.17,4.03,1.46
26.7050,0.07,0.11,-0.99,2.93,4.03,1.65
26.7220,0.08,0.11,-0.99,2.93,3.97,1.46
26.7390,0.08,0.11,-0.99,2.69,3.97,1.53
26.7550,0.08,0.11,-0.99,2.75,3.54,1.59
26.7710,0.08,0.11,-0.99,3.05,4.09,1.65
26.7870,0.08,0.11,-0.99,2.81,3.85,1.71
26.8020,0.07,0.11,-0.99,2.87,3.85,1.59
26.8170,0.07,0.11,-0.99,2.81,4.09,1.59
26.8220,0.08,0.11,-0.99,2.87,3.78,1.89
26.8390,0.08,0.11,-0.99,3.05,3.60,1.65
26.8560,0.08,0.11,-0.99,3.11,3.97,1.83
26.8720,0.08,0.11,-0.99,3.05,3.85,1.83
26.8920,0.07,0.11,-0.99,2.99,3.85,2.01
26.9060,0.07,0.11,-0.99,2.93,4.09,2.14
26.9220,0.07,0.11,-0.99,3.17,3.85,2.08
26.9370,0.07,0.11,-0.99,3.05,3.91,2.08
26.9530,0.07,0.11,-0.99,3.05,3.72,2.26
26.9680,0.07,0.11,-0.99,2.81,3.78,2.08
26.9820,0.07,0.11,-1.00,3.05,3.42,2.26
26.9920,0.07,0.11,-0.99,2.99,3.72,2.20
27.0130,0.07,0.11,-0.99,2.99,3.91,2.26
27.0210,0.08,0.12,-0.99,2.75,3.78,2.14
27.0390,0.07,0.12,-0.99,2.81,3.85,2.44
27.0560,0.07,0.11,-0.99,2.75,3.66,2.87
27.0710,0.07,0.11,-0.99,2.99,3.78,2.87
27.0880,0.08,0.11,-0.99,2.93,3.72,2.56
27.1020,0.08,0.11,-0.99,2.87,3.60,2.56
27.1050,0.08,0.11,-0.99,2.81,3.78,2.50
27.1210,0.07,0.11,-0.99,2.93,3.60,2.44
27.1480,0.07,0.11,-0.99,3.05,3.91,2.69
27.1550,0.08,0.11,-0.99,2.99,3.78,2.56
27.1720,0.08,0.11,-0.99,2.75,3.91,2.38
27.1920,0.08,0.11,-0.99,2.87,3.97,2.20
27.2060,0.07,0.11,-0.99,2.93,3.66,2.20
27.2210,0.08,0.11,-0.99,2.93,3.85,2.14
27.2380,0.07,0.11,-0.99,2.99,3.72,1.89
27.2520,0.07,0.11,-0.99,2.99,3.42,2.01
27.2550,0.07,0.11,-0.99,2.93,3.78,2.08
27.2710,0.08,0.11,-0.99,2.81,4.03,2.01
27.2920,0.08,0.11,-0.99,2.93,3.60,2.08
27.3130,0.07,0.11,-0.99,2.99,3.72,1.95
27.3210,0.07,0.11,-0.99,2.81,3.60,1.95
27.3380,0.07,0.11,-0.99,2.93,3.78,2.08
27.3550,0.08,0.11,-0.99,3.05,3.78,2.14
27.3720,0.08,0.11,-0.99,2.87,3.91,2.08
27.3870,0.07,0.11,-0.99,2.93,3.66,1.95
27.3920,0.07,0.11,-0.99,2.87,3.72,2.08
27.4180,0.07,0.11,-0.99,2.99,3.91,2.08
27.4330,0.07,0.11,-0.99,3.11,3.78,2.14
27.4470,0.08,0.11,-0.99,3.11,3.97,2.08
27.4630,0.08,0.12,-0.99,2.93,3.60,2.08
27.4710,0.08,0.12,-0.99,2.87,3.42,2.08
27.4920,0.08,0.11,-0.99,2.75,3.97,2.08
27.5050,0.07,0.11,-0.99,2.69,3.54,2.08
27.5220,0.07,0.11,-0.99,3.05,3.72,2.32
27.5370,0.07,0.11,-0.99,2.81,3.97,2.14
27.5390,0.08,0.11,-0.99,2.99,3.72,2.14
27.5680,0.08,0.11,-1.00,2.93,3.78,2.14
27.5830,0.07,0.11,-0.99,2.81,4.03,2.26
27.5930,0.07,0.11,-0.99,2.99,3.48,2.38
27.6050,0.07,0.11,-1.00,2.93,3.97,2.50
27.6220,0.07,0.11,-1.00,2.87,3.66,2.38
27.6390,0.08,0.11,-0.99,3.23,3.36,2.38
27.6550,0.08,0.11,-0.99,2.87,4.09,2.50
27.6720,0.07,0.11,-0.99,2.75,3.72,2.32
27.6870,0.07,0.11,-0.99,2.87,3.60,2.50
27.7030,0.07,0.11,-0.99,2.99,3.66,2.50
27.7040,0.07,0.11,-0.99,2.99,3.91,2.50
27.7210,0.07,0.12,-0.99,2.99,3.85,2.69
27.7380,0.09,0.11,-0.99,2.93,3.60,2.50
27.7630,0.08,0.11,-0.99,3.05,3.72,2.56
27.7710,0.08,0.11,-0.99,2.93,3.78,2.44
27.7930,0.08,0.11,-0.99,2.87,3.85,2.38
27.8050,0.07,0.11,-0.99,2.99,3.91,2.32
27.8220,0.08,0.11,-0.99,2.93,4.03,2.20
27.8370,0.07,0.11,-0.99,2.99,3.60,2.20
27.8530,0.08,0.11,-0.99,3.05,3.91,2.20
27.8680,0.07,0.11,-0.99,2.87,3.91,2.26
27.8820,0.07,0.11,-0.99,2.99,3.85,2.20
27.8970,0.07,0.11,-0.99,3.05,3.97,2.32
27.9130,0.07,0.12,-1.00,2.99,4.09,2.20
27.9270,0.08,0.11,-0.99,2.99,3.72,1.95
27.9390,0.08,0.11,-0.99,2.81,3.78,2.01
27.9550,0.08,0.11,-0.99,2.93,3.66,2.14
27.9710,0.08,0.11,-0.99,2.87,3.72,2.14
27.9880,0.08,0.11,-0.99,2.93,3.72,2.20
28.0040,0.07,0.11,-0.99,2.93,3.78,2.20
28.0190,0.08,0.11,-0.99,2.81,3.97,1.95
28.0330,0.07,0.11,-0.99,2.81,3.72,2.14
28.0390,0.07,0.11,-0.99,2.87,3.85,2.08
28.0640,0.07,0.11,-0.99,2.81,3.60,2.32
28.0710,0.08,0.11,-0.99,2.81,3.78,2.50
28.0930,0.07,0.11,-0.99,2.81,3.91,2.32
28.1050,0.08,0.11,-0.99,3.05,3.85,2.26
28.1220,0.07,0.11,-0.99,2.93,3.72,2.20
28.1380,0.07,0.11,-0.99,2.87,3.60,2.56
28.1540,0.07,0.11,-0.99,2.93,3.78,2.62
28.1680,0.08,0.11,-0.99,2.93,3.78,2.62
28.1720,0.08,0.11,-0.99,2.87,3.85,2.69
28.1930,0.08,0.11,-0.99,2.99,3.54,2.56
28.2140,0.07,0.11,-0.99,3.11,3.78,2.44
28.2290,0.07,0.11,-0.99,3.11,4.03,2.32
28.2380,0.07,0.11,-0.99,2.87,3.85,2.20
28.2550,0.07,0.11,-0.99,3.11,3.91,2.26
28.2730,0.07,0.11,-0.99,2.99,3.78,2.14
28.2880,0.07,0.11,-0.99,2.87,3.72,2.14
28.2930,0.07,0.11,-0.99,2.93,4.15,2.08
28.3190,0.08,0.11,-0.99,2.99,3.85,1.95
28.3220,0.08,0.11,-0.99,2.99,3.72,1.71
28.3480,0.08,0.11,-0.99,3.17,3.54,1.83
28.3640,0.07,0.11,-0.99,3.05,4.09,1.77
28.3720,0.08,0.11,-0.99,3.11,3.97,1.77
28.3940,0.07,0.11,-1.00,2.99,4.09,1.83
28.4060,0.06,0.11,-1.00,2.99,3.91,1.53
28.4220,0.07,0.11,-0.99,3.11,4.15,1.28
28.4390,0.09,0.11,-0.99,2.93,4.09,1.10
28.4400,0.08,0.11,-0.99,2.99,4.09,1.22
28.4560,0.08,0.11,-0.99,3.17,3.91,1.46
28.4840,0.08,0.11,-0.99,3.23,4.09,1.28
28.4990,0.07,0.11,-0.99,3.11,3.85,1.34
28.5050,0.08,0.11,-0.99,3.11,4.03,1.22
28.5220,0.08,0.11,-0.99,3.05,3.78,1.34
28.5380,0.07,0.11,-0.99,2.87,3.85,1.53
28.5560,0.07,0.11,-0.99,3.05,3.85,1.59
28.5720,0.08,0.11,-0.99,2.87,4.03,1.46
28.5880,0.07,0.11,-0.99,2.93,3.97,1.40
28.5940,0.08,0.11,-0.99,3.05,3.97,1.34
28.6050,0.07,0.11,-0.99,2.99,3.85,1.53
28.6230,0.07,0.11,-0.99,3.23,3.85,1.40
28.6380,0.07,0.11,-0.99,2.93,4.03,1.40
28.6550,0.08,0.11,-0.99,2.99,3.78,1.28
28.6730,0.08,0.11,-0.99,3.23,3.78,1.34
28.6940,0.07,0.11,-0.99,3.30,3.97,1.04
28.7070,0.08,0.11,-0.99,2.99,3.97,0.92
28.7220,0.08,0.11,-0.99,2.99,4.15,1.16
28.7390,0.07,0.11,-0.99,2.99,3.85,1.22
28.7540,0.07,0.11,-0.99,3.23,3.91,0.98
28.7550,0.08,0.11,-0.99,2.93,4.27,1.04
28.7840,0.07,0.11,-0.99,3.11,4.15,0.92
28.7940,0.08,0.11,-0.99,2.81,4.27,0.73
28.8060,0.07,0.11,-0.99,2.87,4.15,1.04
28.8290,0.07,0.11,-0.99,2.93,3.60,1.16
28.8390,0.07,0.11,-0.99,2.93,3.91,1.28
28.8540,0.07,0.11,-0.99,2.93,3.97,1.46
28.8720,0.07,0.11,-1.00,2.93,3.97,1.59
28.8880,0.08,0.11,-0.99,2.93,3.66,1.59
28.9040,0.08,0.11,-0.99,2.81,3.91,1.77
28.9190,0.07,0.11,-0.99,2.93,4.03,1.71
28.9220,0.08,0.11,-0.99,2.93,3.54,2.01
28.9490,0.07,0.11,-0.99,2.93,3.72,2.01
28.9550,0.08,0.11,-0.99,2.87,3.72,2.14
28.9790,0.07,0.11,-0.99,2.75,3.72,2.26
28.9890,0.08,0.11,-0.99,2.87,3.72,2.26
29.0050,0.08,0.11,-0.99,2.87,3.54,2.26
29.0230,0.08,0.11,-0.99,2.75,3.97,2.44
29.0390,0.08,0.11,-0.99,2.93,4.03,2.38
29.0390,0.07,0.11,-0.99,2.93,3.91,2.26
29.0680,0.08,0.11,-0.99,2.87,3.78,2.44
29.0720,0.07,0.11,-0.99,2.87,3.72,2.38
29.0940,0.08,0.11,-0.99,2.81,3.60,2.62
29.1060,0.07,0.11,-0.99,2.87,3.66,2.26
29.1290,0.07,0.11,-0.99,2.87,3.42,2.56
29.1390,0.07,0.11,-0.99,3.05,3.66,2.62
29.1560,0.07,0.11,-0.99,2.99,3.66,2.75
29.1720,0.07,0.11,-0.99,2.99,3.72,2.99
29.1890,0.08,0.11,-0.99,2.99,3.72,2.69
29.1940,0.08,0.11,-0.99,2.99,3.54,2.50
29.2190,0.07,0.11,-0.99,3.11,3.66,2.50
29.2230,0.08,0.11,-0.99,2.99,4.15,2.26
29.2380,0.07,0.11,-1.00,2.93,3.60,2.08
29.2560,0.07,0.11,-0.99,2.99,3.78,2.20
29.2720,0.07,0.11,-0.99,2.81,3.78,2.14
29.2890,0.08,0.11,-0.99,2.93,3.78,2.14
29.3060,0.07,0.11,-0.99,3.11,3.60,1.77
29.3210,0.08,0.11,-0.99,2.87,4.03,2.08
29.3390,0.08,0.11,-0.99,2.75,3.91,2.14
29.3390,0.07,0.11,-0.99,2.93,3.48,2.08
29.3690,0.08,0.11,-1.00,3.23,3.78,2.26
29.3720,0.07,0.11,-0.99,2.81,3.91,2.08
29.3990,0.07,0.11,-0.99,2.93,3.72,2.38
29.4050,0.07,0.11,-1.00,3.11,3.72,2.14
29.4220,0.07,0.11,-0.99,3.11,3.72,2.14
29.4390,0.07,0.11,-0.99,2.99,4.03,2.32
29.4540,0.08,0.11,-0.99,2.93,3.78,1.95
29.4710,0.08,0.11,-0.99,3.23,3.66,1.89
29.4880,0.08,0.11,-0.99,3.11,3.78,1.83
29.5030,0.08,0.11,-0.99,2.87,3.72,1.83
29.5050,0.08,0.11,-0.99,2.81,4.03,1.89
29.5340,0.08,0.11,-0.99,2.81,3.78,1.89
29.5380,0.07,0.11,-0.99,2.81,4.03,2.20
29.5640,0.07,0.11,-0.99,2.93,3.91,2.01
29.5720,0.08,0.11,-0.99,3.23,3.85,1.95
29.5890,0.07,0.11,-0.99,2.87,3.60,1.95
29.6050,0.08,0.11,-0.99,2.87,3.66,2.08
29.6230,0.07,0.11,-0.99,2.87,3.66,1.89
29.6380,0.07,0.11,-0.99,2.81,3.78,2.01
29.6540,0.07,0.11,-0.99,2.87,3.85,2.20
29.6550,0.07,0.11,-0.99,3.11,3.78,2.08
29.6840,0.08,0.11,-0.99,3.17,3.78,2.14
29.6960,0.08,0.11,-0.99,2.93,3.97,2.01
29.7050,0.07,0.11,-0.99,2.87,3.60,2.14
29.7290,0.07,0.11,-0.99,2.93,3.78,2.14
29.7440,0.07,0.11,-0.99,3.11,3.66,2.08
29.7550,0.08,0.11,-0.99,2.87,3.66,1.95
29.7730,0.06,0.11,-1.00,2.99,3.85,2.14
29.7880,0.08,0.11,-0.99,2.93,3.91,2.14
29.8040,0.08,0.11,-0.99,2.93,4.03,2.14
29.8190,0.08,0.11,-0.99,2.93,4.27,2.08
29.8220,0.08,0.11,-0.99,2.99,4.21,2.01
29.8400,0.08,0.11,-0.99,3.17,3.72,1.89
29.8550,0.07,0.11,-0.99,3.11,3.91,1.71
29.8790,0.09,0.11,-0.99,2.81,3.60,1.46
29.8940,0.08,0.11,-0.99,2.81,3.85,1.59
29.9060,0.08,0.11,-0.99,2.87,3.85,1.77
29.9240,0.07,0.11,-0.99,3.11,3.85,1.77
29.9390,0.08,0.11,-0.99,3.17,3.78,1.83
29.9390,0.08,0.11,-0.99,3.05,3.72,1.71
29.9550,0.08,0.11,-0.99,3.05,3.97,1.89
29.9720,0.08,0.11,-0.99,2.93,3.60,1.77
29.9950,0.07,0.11,-0.99,2.62,3.78,1.83
30.0050,0.06,0.11,-0.99,2.93,3.72,1.95
30.0290,0.06,0.11,-1.00,3.23,3.66,1.83
30.0380,0.07,0.11,-0.99,3.11,3.72,2.01
30.0550,0.08,0.11,-0.99,3.11,3.66,2.01
30.0730,0.08,0.12,-0.99,2.69,3.91,2.32
30.0880,0.08,0.11,-0.99,2.75,3.91,2.08
30.1030,0.07,0.11,-0.99,2.87,3.78,2.01
30.1050,0.07,0.11,-0.99,2.87,3.60,2.14
30.1340,0.08,0.11,-0.99,2.93,4.03,2.08
30.1490,0.08,0.11,-0.99,2.93,3.66,2.14
30.1550,0.08,0.11,-0.99,2.69,3.78,2.08
30.1790,0.07,0.11,-0.99,2.69,3.91,2.14
30.1890,0.07,0.11,-0.99,2.99,3.60,2.14
30.2060,0.07,0.11,-0.99,3.17,3.91,2.01
30.2220,0.08,0.11,-0.99,3.11,3.97,2.20
30.2380,0.08,0.11,-0.99,2.99,3.91,1.95
30.2550,0.08,0.11,-0.99,2.93,3.66,2.08
30.2560,0.07,0.11,-0.99,3.05,3.54,2.08
30.2720,0.07,0.11,-1.00,2.87,3.66,1.89
30.2960,0.07,0.12,-1.00,2.99,3.54,1.77
30.3060,0.08,0.11,-0.99,3.05,3.85,1.95
30.3210,0.08,0.11,-0.99,3.30,3.54,1.89
30.3390,0.08,0.11,-0.99,3.17,3.72,1.95
30.3550,0.08,0.11,-0.99,2.81,3.91,2.14
30.3710,0.07,0.11,-0.99,2.93,3.97,1.89
30.3890,0.07,0.11,-0.99,2.93,3.78,2.14
30.4050,0.07,0.11,-0.99,3.11,4.03,2.01
30.4220,0.08,0.10,-0.97,2.93,3.66,2.01
30.4220,0.07,0.11,-0.99,2.50,3.97,2.01
30.4520,0.07,0.11,-0.99,2.38,3.72,2.08
30.4560,0.08,0.11,-0.99,2.38,3.72,2.01
30.4720,0.08,0.08,-0.97,2.75,3.85,1.77
30.4960,0.07,0.11,-1.00,2.62,3.78,2.01
30.5060,0.07,0.11,-0.99,3.11,3.78,2.01
30.5210,0.08,0.11,-0.99,3.17,3.91,1.95
30.5400,0.08,0.11,-1.00,2.69,3.91,2.01
30.5560,0.08,0.11,-0.99,2.87,3.91,2.20
30.5710,0.07,0.11,-0.99,2.62,4.33,2.14
30.5870,0.07,0.11,-0.99,2.81,3.66,2.08
30.6020,0.07,0.11,-0.99,2.99,3.78,1.95
30.6170,0.07,0.11,-0.99,2.99,3.85,1.95
30.6220,0.07,0.11,-0.99,3.05,3.78,2.08
30.6390,0.07,0.11,-0.99,2.69,3.72,2.01
30.6570,0.07,0.11,-0.99,2.75,4.03,2.08
30.6730,0.07,0.11,-0.99,2.81,3.66,2.08
30.6890,0.07,0.11,-0.99,2.93,3.66,2.08
30.7060,0.07,0.11,-0.99,2.87,3.97,2.01
30.7220,0.07,0.11,-0.99,2.99,3.78,2.14
30.7360,0.07,0.11,-0.99,3.23,3.91,1.95
30.7510,0.07,0.11,-0.99,2.99,3.91,2.14
30.7660,0.07,0.11,-0.99,2.87,3.97,2.14
30.7820,0.07,0.11,-0.99,2.99,3.97,2.01
30.7970,0.07,0.11,-0.99,2.81,3.72,2.08
30.8060,0.08,0.11,-0.99,3.11,3.72,2.14
30.8230,0.07,0.11,-0.99,2.93,3.85,2.01
30.8390,0.07,0.11,-0.99,2.99,3.91,2.14
30.8570,0.07,0.11,-0.99,2.93,3.72,2.08
30.8720,0.07,0.11,-0.99,2.99,3.66,2.01
30.8730,0.07,0.11,-0.99,2.56,3.72,2.20
30.8970,0.07,0.11,-0.99,2.75,3.48,2.14
30.9160,0.05,0.14,-0.99,2.99,3.78,2.69
30.9230,0.08,0.11,-0.99,2.14,2.32,10.25
30.9480,0.07,0.11,-0.99,2.26,2.56,10.01
30.9550,0.07,0.11,-1.00,2.62,3.05,8.97
30.9720,0.06,0.12,-0.99,2.50,2.69,9.46
30.9910,0.10,0.11,-0.99,2.93,2.44,11.78
31.0060,0.07,0.11,-0.99,2.32,2.69,11.23
31.0240,0.08,0.11,-1.00,2.20,2.69,10.86
31.0390,0.07,0.11,-0.99,2.20,2.81,9.77
31.0390,0.07,0.11,-1.00,2.50,2.87,7.87
31.0690,0.07,0.11,-0.99,2.38,3.17,6.96
31.0720,0.07,0.11,-0.99,2.44,3.36,5.43
31.0990,0.07,0.11,-0.99,2.87,3.60,4.39
31.1140,0.07,0.11,-0.99,2.93,3.60,3.23
31.1230,0.07,0.11,-0.99,2.87,3.85,3.17
31.1400,0.07,0.11,-0.99,2.81,3.48,3.48
31.1570,0.07,0.11,-0.99,2.81,3.42,3.78
31.1730,0.07,0.11,-0.99,2.87,3.78,3.72
31.1890,0.07,0.11,-0.99,2.81,3.66,3.17
31.2050,0.08,0.11,-0.99,2.99,3.42,2.93
31.2060,0.07,0.12,-1.00,2.87,3.60,2.75
31.2230,0.07,0.11,-0.99,2.99,3.85,2.62
31.2400,0.07,0.11,-0.99,2.75,3.97,2.50
31.2560,0.08,0.11,-0.99,2.81,3.66,2.44
31.2740,0.08,0.11,-0.99,2.93,3.48,2.62
31.2880,0.07,0.11,-0.99,2.99,3.54,3.30
31.3070,0.07,0.11,-0.99,2.75,3.72,3.60
31.3220,0.07,0.12,-0.99,2.69,3.72,4.33
31.3400,0.07,0.12,-0.99,2.75,3.23,4.94
31.3550,0.08,0.11,-0.99,2.50,3.17,5.86
31.3690,0.08,0.11,-0.99,2.56,3.17,5.74
31.3730,0.08,0.11,-0.99,2.75,3.36,5.13
31.3970,0.07,0.11,-0.99,2.69,3.66,3.60
31.4150,0.07,0.11,-0.99,2.87,3.60,2.99
31.4290,0.07,0.11,-0.99,2.81,3.60,2.56
31.4390,0.08,0.11,-0.99,2.87,3.85,2.50
31.4560,0.08,0.11,-0.99,2.93,3.54,2.32
31.4740,0.08,0.11,-0.99,2.75,3.97,2.50
31.4900,0.07,0.11,-0.99,2.87,3.72,2.62
31.5080,0.07,0.11,-0.99,2.75,3.78,2.62
31.5220,0.07,0.11,-0.99,2.81,3.60,2.87
31.5370,0.07,0.11,-1.00,3.05,3.97,2.99
31.5530,0.08,0.11,-0.99,2.87,3.78,3.17
31.5680,0.08,0.11,-0.99,2.75,3.48,3.30
31.5720,0.08,0.11,-0.99,2.75,3.60,3.36
31.5970,0.08,0.11,-0.99,2.81,3.36,3.42
31.6060,0.07,0.11,-0.99,2.62,3.36,2.99
31.6230,0.08,0.12,-0.99,2.75,3.48,3.17
31.6390,0.07,0.12,-0.99,2.99,3.36,3.85
31.6560,0.07,0.11,-0.99,2.87,3.42,3.85
31.6730,0.07,0.11,-0.99,2.99,3.97,3.85
31.6870,0.08,0.11,-0.99,2.69,3.54,3.66
31.6960,0.08,0.11,-1.00,2.99,3.60,3.72
31.7070,0.08,0.11,-0.99,2.81,3.72,3.66
31.7230,0.07,0.11,-0.99,2.75,3.85,3.17
31.7480,0.07,0.11,-0.99,2.87,3.54,3.30
31.7550,0.08,0.11,-0.99,2.75,3.78,3.30
31.7740,0.08,0.11,-0.99,3.05,3.66,2.81
31.7890,0.08,0.11,-0.99,3.11,3.72,2.75
31.8050,0.08,0.11,-0.99,3.05,3.54,2.62
31.8220,0.07,0.11,-0.99,2.87,3.85,2.69
31.8380,0.07,0.11,-0.99,3.11,3.54,2.50
31.8400,0.08,0.11,-0.99,2.87,4.09,2.56
31.8550,0.07,0.11,-0.99,3.17,3.85,2.38
31.8820,0.08,0.11,-0.99,2.81,3.66,2.32
31.8970,0.07,0.11,-0.99,2.87,3.91,2.26
31.9130,0.07,0.11,-0.99,3.05,3.78,2.14
31.9230,0.07,0.11,-0.99,2.87,3.72,2.20
31.9390,0.07,0.11,-0.99,2.99,3.54,2.01
31.9560,0.08,0.11,-0.99,3.11,3.72,2.20
31.9730,0.08,0.11,-0.99,3.05,3.78,2.08
31.9730,0.08,0.11,-0.99,2.93,3.91,2.08
32.0030,0.08,0.11,-0.99,2.81,3.85,2.14
32.0060,0.07,0.11,-0.99,2.93,3.66,1.95
32.0330,0.07,0.11,-0.99,2.81,3.97,2.14
32.0390,0.07,0.11,-0.99,2.81,3.78,2.26
32.0630,0.08,0.11,-0.99,3.05,3.78,2.01
32.0730,0.08,0.11,-0.99,2.93,3.60,2.14
32.0890,0.08,0.11,-0.99,2.99,3.78,2.20
32.1080,0.07,0.11,-0.99,2.81,3.97,2.26
32.1220,0.07,0.11,-0.99,2.81,3.91,2.26
32.1380,0.07,0.11,-1.00,2.99,3.91,2.08
32.1390,0.07,0.11,-0.99,3.05,3.72,2.26
32.1560,0.08,0.11,-0.99,2.87,3.97,2.14
32.1820,0.08,0.12,-1.00,2.69,4.03,2.32
32.1970,0.07,0.12,-0.99,2.87,3.91,2.20
32.2050,0.07,0.12,-0.99,2.93,3.72,2.14
32.2220,0.08,0.11,-0.99,3.17,3.60,2.20
32.2390,0.08,0.11,-0.99,2.99,3.91,2.20
32.2570,0.08,0.11,-0.99,2.81,3.85,2.14
32.2720,0.08,0.11,-1.00,2.99,3.97,2.14
32.2870,0.07,0.11,-0.99,3.11,3.85,2.32
32.3030,0.07,0.11,-0.99,3.05,3.85,2.32
32.3060,0.07,0.11,-1.00,2.75,3.66,2.38
32.3320,0.07,0.11,-1.00,2.99,3.30,2.62
32.3390,0.08,0.11,-0.99,2.87,3.72,2.87
32.3560,0.08,0.11,-0.99,2.87,3.60,2.99
32.3730,0.07,0.11,-0.99,2.87,3.54,3.11
32.3890,0.07,0.12,-0.99,2.99,3.54,2.56
32.4060,0.07,0.11,-0.99,2.75,3.85,2.44
32.4240,0.08,0.12,-0.99,2.99,3.72,2.32
32.4390,0.08,0.11,-0.99,2.93,3.60,2.32
32.4390,0.08,0.11,-0.99,3.17,3.78,2.26
32.4560,0.08,0.12,-0.99,2.87,3.48,2.20
32.4720,0.07,0.12,-0.99,2.81,3.66,2.26
32.4990,0.07,0.11,-0.99,3.05,3.54,2.38
32.5060,0.07,0.11,-0.99,2.81,3.85,2.32
32.5220,0.08,0.11,-0.99,2.75,3.60,2.44
32.5400,0.07,0.11,-0.99,2.93,3.72,2.50
32.5560,0.07,0.11,-0.99,2.87,3.97,2.44
32.5730,0.07,0.11,-1.00,2.75,3.66,2.38
32.5880,0.07,0.11,-1.00,2.99,3.66,2.44
32.6040,0.07,0.11,-0.99,2.87,3.60,2.38
32.6180,0.08,0.11,-0.99,2.99,3.60,2.32
32.6340,0.08,0.11,-0.99,2.87,3.66,2.14
32.6390,0.08,0.11,-0.99,2.99,3.97,2.14
32.6560,0.08,0.11,-0.99,2.93,3.91,2.08
32.6730,0.08,0.12,-0.99,3.05,3.85,2.01
32.6890,0.07,0.12,-0.99,2.87,3.78,2.14
32.7060,0.08,0.11,-0.99,2.81,3.97,2.14
32.7230,0.08,0.11,-0.99,3.05,4.09,2.14
32.7380,0.07,0.11,-1.00,3.17,3.97,2.14
32.7400,0.08,0.11,-0.99,3.11,3.78,2.08
32.7690,0.07,0.11,-0.99,3.11,3.91,2.14
32.7720,0.07,0.11,-0.99,2.93,3.91,2.14
32.7980,0.07,0.11,-0.99,3.17,3.54,2.14
32.8060,0.08,0.11,-0.99,3.11,3.85,2.08
32.8230,0.08,0.11,-0.99,2.99,3.78,2.08
32.8380,0.08,0.11,-0.99,2.93,3.60,2.20
32.8560,0.08,0.12,-1.00,2.93,3.48,2.20
32.8720,0.08,0.12,-0.99,2.87,3.97,2.14
32.8890,0.08,0.12,-0.99,3.05,3.97,2.14
32.9030,0.08,0.11,-0.99,2.99,3.91,2.20
32.9050,0.08,0.11,-0.99,3.11,3.91,2.01
32.9340,0.08,0.11,-0.99,2.75,3.60,2.08
32.9390,0.07,0.11,-0.99,2.87,3.72,2.14
32.9560,0.07,0.11,-1.00,2.81,3.78,2.14
32.9720,0.07,0.11,-1.00,3.11,3.72,2.26
32.9890,0.07,0.11,-0.99,2.99,3.60,2.20
33.0060,0.08,0.11,-0.99,2.87,3.60,2.50
33.0230,0.07,0.11,-0.99,2.93,3.97,2.44
33.0390,0.07,0.11,-1.00,2.75,4.21,2.32
33.0550,0.08,0.11,-0.99,2.81,3.78,2.38
33.0560,0.08,0.11,-0.99,2.81,4.03,2.44
33.0730,0.08,0.11,-0.99,2.99,3.78,2.50
33.1000,0.08,0.12,-0.99,2.99,3.66,2.44
33.1060,0.08,0.12,-0.99,2.75,3.54,2.38
33.1230,0.08,0.12,-0.99,2.87,3.60,2.81
33.1390,0.08,0.11,-0.99,2.81,3.66,2.75
33.1570,0.08,0.11,-0.99,2.93,3.72,2.81
33.1730,0.08,0.11,-0.99,3.05,3.78,2.56
33.1900,0.07,0.11,-0.99,3.17,3.85,2.62
33.1990,0.07,0.11,-0.99,2.93,4.03,2.50
33.2190,0.07,0.11,-0.99,2.99,4.09,2.38
33.2340,0.07,0.11,-1.00,2.87,3.85,2.38
33.2500,0.07,0.11,-0.99,2.81,4.09,2.20
33.2560,0.07,0.11,-1.00,2.99,3.66,2.20
33.2730,0.08,0.11,-0.99,2.99,3.66,2.08
33.2890,0.08,0.11,-0.99,2.93,3.78,2.20
33.3050,0.07,0.11,-0.99,2.99,3.66,2.14
33.3240,0.08,0.12,-0.99,2.99,3.85,2.26
33.3400,0.08,0.11,-0.99,2.75,4.21,2.08
33.3400,0.08,0.12,-0.99,2.99,4.09,2.14
33.3570,0.08,0.11,-0.99,3.11,3.48,2.08
33.3840,0.08,0.11,-0.99,2.99,3.72,2.20
33.4000,0.07,0.11,-0.99,2.93,3.72,2.14
33.4060,0.08,0.11,-0.99,2.99,3.85,2.08
33.4230,0.07,0.11,-0.99,2.93,3.85,2.01
33.4400,0.07,0.11,-0.99,2.81,3.85,2.01
33.4560,0.07,0.11,-1.00,2.69,3.91,2.14
33.4740,0.07,0.11,-0.99,2.93,3.97,2.01
33.4890,0.07,0.11,-0.99,2.81,3.72,2.01
33.5050,0.07,0.11,-0.99,2.81,3.91,2.08
33.5070,0.08,0.11,-1.00,2.99,3.97,2.01
33.5350,0.08,0.11,-0.99,2.99,3.72,1.95
33.5390,0.08,0.12,-0.99,2.93,3.85,2.20
33.5650,0.08,0.12,-0.99,2.81,3.91,2.14
33.5720,0.08,0.12,-0.99,2.75,3.78,1.89
33.5900,0.08,0.12,-0.99,2.69,4.03,2.01
33.6050,0.08,0.12,-0.99,2.99,3.66,1.95
33.6230,0.08,0.11,-0.99,2.87,3.91,2.14
33.6390,0.07,0.11,-0.99,2.99,3.72,2.08
33.6550,0.07,0.11,-1.00,2.93,3.66,2.14
33.6690,0.07,0.11,-1.00,3.05,3.48,2.20
33.6840,0.07,0.11,-0.99,2.87,3.85,2.20
33.6990,0.08,0.11,-0.99,2.87,4.03,2.26
33.7150,0.07,0.11,-1.00,2.99,3.54,2.26
33.7230,0.08,0.11,-0.99,2.93,3.72,2.14
33.7410,0.08,0.12,-0.99,3.05,3.78,2.20
33.7560,0.08,0.12,-0.99,2.87,4.03,2.26
33.7740,0.08,0.12,-0.99,3.05,3.72,2.26
33.7890,0.08,0.12,-1.00,2.99,3.78,2.08
33.8060,0.08,0.12,-1.00,2.81,3.91,2.14
33.8200,0.08,0.12,-0.99,2.81,3.97,2.20
33.8360,0.08,0.12,-0.99,2.93,4.03,2.26
33.8500,0.08,0.11,-0.99,2.75,4.03,1.95
33.8660,0.07,0.11,-0.99,2.75,4.03,2.20
33.8720,0.07,0.11,-0.99,2.75,3.60,2.32
33.8900,0.07,0.11,-0.99,3.05,3.85,2.32
33.9050,0.07,0.11,-0.99,2.75,3.72,2.93
33.9230,0.07,0.11,-0.99,2.75,3.72,3.85
33.9410,0.07,0.11,-0.99,2.99,3.60,4.39
33.9550,0.07,0.11,-0.99,2.81,3.72,4.39
33.9710,0.07,0.11,-0.99,2.81,3.97,3.66
33.9730,0.08,0.12,-0.99,2.81,3.36,2.44
34.0010,0.08,0.12,-0.99,2.93,4.03,2.20
34.0160,0.08,0.12,-0.99,2.81,3.42,2.01
34.0230,0.08,0.12,-0.99,2.87,3.60,1.95
34.0450,0.08,0.12,-0.99,2.75,3.97,1.95
34.0560,0.07,0.11,-0.99,2.99,3.85,2.08
34.0730,0.08,0.11,-0.99,2.87,3.85,2.01
34.0910,0.07,0.11,-0.99,2.81,4.09,2.20
34.1050,0.07,0.11,-1.00,2.87,3.72,2.20
34.1060,0.07,0.11,-1.00,2.87,3.97,2.32
34.1360,0.07,0.11,-0.99,2.99,3.42,2.26
34.1400,0.07,0.11,-0.99,3.17,3.91,2.20
34.1650,0.07,0.11,-1.00,2.99,3.66,2.26
34.1730,0.08,0.11,-0.99,2.75,4.03,2.14
34.1900,0.08,0.12,-0.99,3.05,3.97,2.32
34.2060,0.08,0.12,-0.99,2.93,4.09,2.14
34.2230,0.08,0.12,-0.99,2.87,4.03,2.08
34.2410,0.08,0.12,-0.99,2.99,3.85,2.01
34.2560,0.08,0.12,-0.99,2.99,3.66,2.08
34.2560,0.08,0.12,-0.99,2.87,3.85,2.08
34.2860,0.08,0.12,-0.99,2.81,3.78,2.14
34.3000,0.08,0.11,-0.99,2.69,3.97,2.14
34.3150,0.08,0.11,-0.99,2.81,3.54,2.08
34.3220,0.07,0.11,-0.99,2.93,3.60,1.95
34.3400,0.07,0.11,-1.00,2.75,3.60,2.14
34.3560,0.07,0.11,-0.99,2.99,3.78,2.08
34.3740,0.07,0.11,-1.00,2.93,3.85,2.08
34.3890,0.07,0.11,-0.99,2.93,3.97,2.20
34.4060,0.08,0.11,-0.99,3.05,3.72,2.20
34.4210,0.08,0.11,-0.99,2.99,3.72,2.08
34.4230,0.08,0.11,-0.99,2.99,3.72,2.14
34.4510,0.08,0.12,-0.99,2.81,3.72,2.01
34.4560,0.08,0.12,-0.99,3.05,3.66,2.08
34.4800,0.08,0.12,-0.99,3.05,3.66,2.08
34.4960,0.08,0.12,-0.99,2.99,3.97,2.01
34.5070,0.08,0.12,-0.99,2.93,3.91,2.01
34.5220,0.08,0.11,-0.99,3.17,3.54,1.95
34.5400,0.07,0.11,-0.99,2.81,3.78,2.14
34.5560,0.07,0.11,-1.00,3.05,3.60,2.20
34.5700,0.07,0.11,-1.00,3.11,3.66,2.01
34.5850,0.07,0.11,-1.00,2.81,4.03,2.20
34.6000,0.07,0.11,-0.99,2.93,3.60,2.14
34.6060,0.07,0.11,-0.99,2.81,3.91,2.20
34.6230,0.08,0.11,-0.99,2.81,3.78,2.26
34.6410,0.07,0.11,-0.99,2.93,3.85,2.26
34.6560,0.08,0.12,-0.99,2.93,3.78,2.14
34.6730,0.08,0.12,-0.99,3.11,3.72,2.08
34.6900,0.08,0.12,-0.99,2.81,4.03,2.14
34.7050,0.08,0.12,-0.99,2.93,3.85,2.14
34.7060,0.08,0.12,-0.99,2.99,3.78,2.08
34.7350,0.08,0.12,-0.99,2.93,3.97,2.20
34.7400,0.08,0.12,-0.99,2.87,3.97,2.14
34.7650,0.07,0.11,-0.99,3.05,3.97,2.08
34.7720,0.07,0.11,-0.99,2.81,4.39,2.20
34.7890,0.07,0.11,-1.00,2.81,3.66,1.89
34.8060,0.07,0.11,-1.00,3.05,3.85,2.14
34.8230,0.07,0.11,-0.99,2.75,3.91,2.08
34.8400,0.07,0.11,-1.00,2.99,3.72,2.01
34.8550,0.07,0.11,-1.00,2.99,3.72,2.14
34.8560,0.07,0.11,-1.00,3.23,3.91,2.14
34.8720,0.08,0.11,-0.99,2.81,4.09,2.08
34.9000,0.08,0.12,-0.99,2.93,3.66,2.14
34.9060,0.08,0.12,-0.99,2.87,3.78,1.95
34.9310,0.08,0.12,-0.99,2.99,3.72,2.14
34.9390,0.08,0.12,-0.99,3.11,3.42,2.20
34.9560,0.08,0.12,-0.99,3.05,3.42,2.01
34.9720,0.08,0.12,-0.99,2.99,4.21,2.20
34.9900,0.08,0.12,-0.99,2.75,3.97,2.01
35.0000,0.08,0.11,-0.99,2.93,3.85,2.08
35.0200,0.08,0.11,-0.99,2.75,3.85,2.01
35.0350,0.07,0.11,-0.99,2.81,3.85,2.14
35.0500,0.07,0.11,-0.99,2.75,3.91,2.08
35.0570,0.07,0.11,-1.00,2.93,3.54,2.01
35.0810,0.07,0.11,-1.00,3.05,3.78,2.08
35.0890,0.08,0.11,-0.99,2.87,3.91,2.14
35.1070,0.08,0.11,-0.99,2.87,4.15,2.20
35.1230,0.08,0.11,-0.99,2.93,3.91,2.14
35.1400,0.08,0.12,-0.99,2.93,3.97,2.01
35.1550,0.08,0.12,-0.99,3.05,3.66,2.01
35.1560,0.08,0.12,-0.99,2.99,3.85,2.14
35.1720,0.08,0.12,-0.99,2.87,3.60,2.08
35.2010,0.08,0.12,-0.99,2.75,4.15,2.08
35.2070,0.08,0.11,-0.99,2.81,3.78,2.14
35.2300,0.07,0.11,-0.99,2.87,3.72,2.01
35.2400,0.07,0.11,-0.99,2.87,3.91,2.08
35.2550,0.07,0.11,-0.99,2.93,3.85,1.95
35.2730,0.07,0.11,-1.00,2.87,3.72,2.08
35.2900,0.07,0.11,-1.00,2.99,3.48,1.95
35.3060,0.07,0.11,-0.99,2.81,3.85,2.08
35.3200,0.07,0.11,-0.99,2.93,3.78,2.08
35.3230,0.07,0.11,-1.00,2.99,3.78,1.95
35.3510,0.08,0.11,-0.99,3.05,3.85,2.08
35.3660,0.08,0.11,-0.99,2.81,3.78,1.95
35.3730,0.08,0.12,-0.99,2.93,3.85,1.95
35.3900,0.08,0.12,-0.99,2.87,3.60,2.08
35.4060,0.08,0.12,-0.99,2.99,3.72,2.08
35.4230,0.08,0.12,-0.99,2.87,3.72,2.20
35.4400,0.08,0.12,-0.99,3.05,3.91,2.08
35.4550,0.08,0.11,-0.99,2.87,3.78,2.01
35.4560,0.08,0.11,-0.99,2.99,3.72,2.14
35.4860,0.08,0.11,-0.99,2.75,4.03,2.14
35.5010,0.07,0.11,-0.99,2.93,4.09,1.95
35.5150,0.07,0.11,-0.99,3.05,3.85,2.01
35.5220,0.07,0.11,-0.99,3.17,3.85,2.14
35.5390,0.07,0.11,-1.00,3.17,4.15,2.08
35.5560,0.07,0.11,-0.99,2.93,3.85,2.01
35.5730,0.07,0.11,-0.99,2.99,3.54,2.01
35.5900,0.07,0.11,-1.00,2.81,3.85,2.14
35.6050,0.08,0.11,-1.00,3.17,3.85,1.95
35.6060,0.08,0.12,-0.99,3.11,3.78,2.01
35.6350,0.08,0.12,-0.99,3.11,3.85,2.01
35.6390,0.08,0.12,-0.99,2.93,3.97,2.08
35.6570,0.08,0.12,-1.00,2.99,3.85,2.08
35.6730,0.08,0.12,-0.99,2.87,3.36,2.01
35.6900,0.08,0.12,-0.99,2.93,4.09,2.01
35.7060,0.08,0.11,-0.99,2.99,3.66,2.08
35.7230,0.07,0.11,-1.00,2.87,3.91,2.01
35.7410,0.07,0.11,-1.00,2.81,4.15,2.08
35.7560,0.07,0.11,-0.99,2.99,4.09,2.08
35.7560,0.07,0.11,-0.99,2.81,3.91,2.14
35.7860,0.07,0.11,-0.99,2.93,3.85,1.95
35.8000,0.07,0.11,-1.00,2.93,4.03,2.01
35.8060,0.07,0.11,-1.00,2.93,3.85,2.01
35.8300,0.07,0.11,-0.99,2.93,3.97,2.14
35.8400,0.08,0.11,-0.99,2.93,3.97,2.01
35.8570,0.08,0.12,-1.00,2.81,3.60,1.95
35.8730,0.08,0.12,-0.99,2.99,3.97,2.08
35.8890,0.08,0.12,-0.99,3.11,4.03,2.14
35.9060,0.08,0.12,-0.99,2.93,3.78,1.95
35.9060,0.08,0.12,-0.99,2.87,3.54,2.08
35.9230,0.08,0.12,-0.99,2.81,3.66,2.14
35.9400,0.08,0.11,-0.99,2.81,3.91,2.08
35.9570,0.08,0.11,-0.99,2.62,3.97,2.20
35.9810,0.07,0.11,-0.99,3.05,3.91,2.08
35.9960,0.07,0.11,-0.99,2.81,3.66,1.95
36.0060,0.07,0.11,-1.00,2.93,3.97,2.01
36.0230,0.07,0.11,-0.99,2.81,3.78,2.08
36.0400,0.07,0.11,-0.99,2.75,3.54,2.01
36.0560,0.07,0.11,-0.99,2.69,3.97,2.08
36.0570,0.07,0.11,-0.99,2.93,3.72,2.08
36.0860,0.07,0.11,-0.99,2.93,3.72,2.14
36.1010,0.08,0.11,-0.99,2.99,3.48,2.20
36.1160,0.08,0.12,-0.99,3.05,3.85,2.08
36.1230,0.08,0.12,-0.99,2.99,3.66,2.08
36.1400,0.08,0.11,-0.99,2.81,3.91,1.95
36.1570,0.08,0.12,-0.99,2.81,3.97,2.08
36.1720,0.08,0.11,-0.99,2.99,3.85,2.01
36.1900,0.07,0.11,-0.99,2.87,3.60,2.01
36.2050,0.07,0.11,-0.99,3.05,3.54,1.95
36.2060,0.07,0.11,-0.99,2.99,3.97,2.14
36.2360,0.07,0.11,-0.99,2.87,3.48,2.01
36.2400,0.07,0.11,-0.99,2.99,3.78,2.01
36.2660,0.07,0.11,-0.99,3.05,3.85,2.01
36.2800,0.08,0.11,-0.99,3.17,3.97,2.08
36.2890,0.07,0.11,-0.99,2.87,3.78,1.65
36.3050,0.07,0.09,-1.00,3.11,3.97,-0.37
36.3230,0.07,0.09,-1.00,3.17,4.21,-0.79
36.3390,0.08,0.13,-0.99,3.05,3.66,2.01
36.3560,0.08,0.13,-0.99,2.87,3.60,3.05
36.3700,0.08,0.13,-0.99,2.93,3.66,3.23
36.3720,0.08,0.12,-0.99,2.99,3.42,2.50
36.4010,0.08,0.12,-0.99,2.75,3.66,1.89
36.4070,0.08,0.12,-0.99,2.87,4.15,2.01
36.4310,0.08,0.12,-0.99,2.99,3.54,2.08
36.4390,0.08,0.10,-1.00,3.11,3.85,1.28
36.4580,0.07,0.11,-0.99,3.17,3.91,0.55
36.4740,0.07,0.12,-0.99,3.05,3.78,1.71
36.4890,0.07,0.12,-0.99,2.81,3.48,2.87
36.5060,0.08,0.12,-0.99,2.81,3.42,2.81
36.5070,0.08,0.12,-0.99,2.87,3.91,2.81
36.5350,0.08,0.12,-0.99,2.75,3.66,2.26
36.5500,0.08,0.11,-0.99,2.69,3.66,2.01
36.5570,0.08,0.11,-0.99,2.93,3.78,2.14
36.5810,0.07,0.11,-0.99,2.93,3.72,2.08
36.5890,0.08,0.11,-0.99,3.05,3.72,2.01
36.6060,0.07,0.10,-1.00,3.17,3.97,2.08
36.6230,0.08,0.09,-1.00,3.11,4.21,-0.92
36.6410,0.08,0.10,-1.00,3.36,4.21,-2.62
36.6560,0.08,0.11,-0.99,3.54,3.72,-2.38
36.6710,0.08,0.13,-0.99,3.48,4.27,-1.22
36.6730,0.07,0.13,-0.99,2.93,3.85,1.04
36.7000,0.07,0.13,-0.99,2.99,3.97,2.01
36.7060,0.07,0.12,-0.99,2.87,4.21,2.38
36.7300,0.08,0.11,-0.99,2.99,3.91,2.14
36.7390,0.08,0.11,-0.99,3.05,4.09,1.95
36.7560,0.08,0.11,-0.99,3.11,3.91,2.32
36.7730,0.08,0.11,-1.00,3.17,3.97,1.95
36.7900,0.08,0.10,-1.00,3.17,3.72,1.59
36.8060,0.07,0.12,-0.99,2.93,4.09,1.22
36.8210,0.07,0.12,-0.99,2.93,4.03,1.22
36.8350,0.07,0.12,-1.00,3.11,4.03,1.40
36.8400,0.07,0.12,-0.99,3.11,3.91,1.46
36.8560,0.08,0.11,-0.99,3.11,4.21,1.28
36.8730,0.08,0.11,-0.99,3.11,4.33,-0.18
36.8900,0.07,0.13,-0.99,3.36,4.15,-0.67
36.9060,0.07,0.13,-0.99,2.87,3.60,1.77
36.9230,0.07,0.12,-0.99,2.75,3.72,2.08
36.9400,0.08,0.11,-0.99,2.69,3.85,2.01
36.9560,0.08,0.11,-0.99,2.69,3.78,2.08
36.9710,0.08,0.11,-0.99,2.99,3.66,2.01
36.9730,0.08,0.11,-0.99,3.11,3.97,2.08
36.9900,0.09,0.10,-0.99,2.93,3.97,2.01
37.0160,0.07,0.12,-0.99,2.93,3.72,2.01
37.0230,0.07,0.12,-0.99,2.87,3.78,2.20
37.0410,0.08,0.12,-0.99,2.87,3.60,2.20
37.0570,0.08,0.11,-0.99,2.93,3.66,2.32
37.0730,0.08,0.11,-0.99,2.81,3.60,2.26
37.0900,0.08,0.11,-0.99,2.69,3.85,2.44
37.1060,0.08,0.11,-0.99,2.75,3.72,2.99
37.1060,0.07,0.12,-0.99,2.81,3.72,3.05
37.1230,0.08,0.12,-0.99,2.75,3.60,3.30
37.1500,0.07,0.12,-0.99,2.87,3.54,3.72
37.1560,0.07,0.12,-0.99,2.87,3.60,4.21
37.1730,0.07,0.12,-0.99,2.62,3.60,4.64
37.1900,0.08,0.12,-0.99,2.62,3.54,5.19
37.2060,0.07,0.11,-0.99,2.69,3.48,5.31
37.2230,0.07,0.11,-1.00,2.62,3.54,4.76
37.2410,0.07,0.10,-1.00,2.75,3.72,3.72
37.2570,0.07,0.11,-0.99,3.05,3.72,2.44
37.2570,0.08,0.11,-1.00,3.17,3.85,2.08
37.2730,0.07,0.11,-0.99,3.05,3.91,2.14
37.3010,0.08,0.11,-0.99,3.11,3.78,2.01
37.3160,0.08,0.11,-0.99,2.93,3.78,1.95
37.3230,0.08,0.11,-0.99,3.11,3.54,1.95
37.3400,0.08,0.11,-0.99,3.23,3.72,1.95
37.3580,0.07,0.11,-0.99,3.23,3.60,2.01
37.3730,0.07,0.11,-0.99,3.36,3.60,1.89
37.3910,0.08,0.11,-0.99,2.81,3.78,1.95
37.4060,0.08,0.11,-0.99,2.93,3.97,2.20
37.4220,0.07,0.11,-0.99,2.87,4.15,2.14
37.4230,0.08,0.11,-0.99,2.93,3.97,2.08
37.4390,0.08,0.11,-0.99,3.05,3.72,1.95
37.4560,0.07,0.11,-0.99,2.87,3.97,2.08
37.4730,0.08,0.11,-0.99,2.87,4.27,2.14
37.4900,0.08,0.11,-0.99,2.99,3.72,2.14
37.5070,0.08,0.11,-0.99,2.87,3.91,2.01
37.5220,0.08,0.11,-1.00,2.93,3.85,1.83
37.5390,0.07,0.11,-0.99,3.11,3.78,1.83
37.5560,0.07,0.11,-0.99,2.99,3.91,1.95
37.5730,0.07,0.11,-0.99,3.05,3.91,1.77
37.5880,0.08,0.11,-0.99,2.99,3.97,1.65
37.6020,0.07,0.11,-0.99,3.11,3.91,1.83
37.6170,0.07,0.11,-0.99,2.93,3.60,1.53
37.6230,0.07,0.11,-1.00,3.11,3.91,1.40
37.6480,0.08,0.12,-0.99,3.17,3.97,0.61
37.6630,0.08,0.12,-0.99,2.87,4.21,1.46
37.6730,0.08,0.12,-0.99,3.05,4.03,1.89
37.6900,0.08,0.11,-0.99,2.93,3.78,1.83
37.7050,0.08,0.11,-0.99,2.87,4.03,1.89
37.7220,0.08,0.11,-0.99,2.81,3.91,2.01
37.7230,0.08,0.11,-0.99,2.99,4.03,2.01
37.7520,0.08,0.11,-0.99,2.87,3.85,2.01
37.7570,0.08,0.11,-0.99,2.75,3.85,1.89
37.7830,0.07,0.11,-0.99,2.99,3.91,2.01
37.7970,0.08,0.11,-0.99,2.93,3.66,2.08
37.8070,0.08,0.11,-0.99,2.99,3.91,1.95
37.8220,0.08,0.11,-0.99,2.93,3.78,2.01
37.8390,0.07,0.11,-0.99,2.93,3.72,2.08
37.8560,0.08,0.11,-0.99,2.87,3.85,2.08
37.8730,0.07,0.11,-0.99,2.75,3.85,2.08
37.8730,0.08,0.11,-0.99,2.93,3.60,2.08
37.8900,0.08,0.11,-0.99,2.87,3.66,1.95
37.9170,0.08,0.11,-0.99,2.75,3.85,2.01
37.9330,0.08,0.12,-1.00,2.99,3.85,2.08
37.9400,0.08,0.11,-0.99,2.99,3.78,2.01
37.9580,0.07,0.11,-0.99,2.87,3.91,2.08
37.9720,0.08,0.11,-0.99,2.93,3.97,2.14
37.9890,0.08,0.11,-0.99,2.87,3.60,1.95
38.0060,0.07,0.11,-0.99,2.69,4.15,2.14
38.0230,0.07,0.11,-0.99,2.75,3.78,1.95
38.0380,0.07,0.11,-0.99,2.87,4.03,2.08
38.0530,0.07,0.11,-1.00,2.99,3.91,2.14
38.0570,0.07,0.11,-0.99,2.99,3.78,2.14
38.0840,0.04,0.10,-1.00,2.56,4.15,2.20
38.0990,0.09,0.12,-0.99,2.75,4.15,2.81
38.1060,0.08,0.11,-1.00,2.81,4.15,1.04
38.1220,0.07,0.11,-1.00,2.81,4.03,0.24
38.1390,0.08,0.11,-1.00,3.17,4.64,-2.01
38.1560,0.08,0.12,-0.99,3.17,4.27,-1.89
38.1730,0.08,0.12,-0.99,3.05,3.97,0.73
38.1890,0.07,0.12,-0.99,2.81,3.48,2.01
38.2040,0.07,0.11,-1.00,2.56,3.85,2.14
38.2070,0.07,0.11,-0.99,2.75,4.03,2.14
38.2340,0.08,0.11,-0.99,2.93,3.66,2.08
38.2480,0.08,0.11,-0.99,2.93,4.09,2.20
38.2640,0.08,0.11,-0.99,2.93,3.78,2.14
38.2730,0.08,0.11,-0.99,2.81,3.85,2.14
38.2900,0.08,0.11,-0.99,3.11,3.66,2.01
38.3060,0.07,0.11,-0.99,2.81,4.09,2.08
38.3230,0.07,0.11,-0.99,2.87,4.03,2.14
38.3380,0.07,0.11,-0.99,2.87,3.78,2.14
38.3400,0.07,0.11,-0.99,2.93,3.66,2.01
38.3680,0.08,0.11,-0.99,2.81,3.66,2.14
38.3730,0.07,0.11,-0.99,2.87,3.97,2.08
38.3990,0.07,0.11,-0.99,2.87,4.03,2.14
38.4060,0.07,0.11,-0.99,2.93,4.03,2.08
38.4230,0.07,0.11,-0.99,2.81,3.85,2.20
38.4400,0.08,0.11,-0.99,3.05,3.78,2.20
38.4560,0.08,0.11,-0.99,2.81,3.42,2.01
38.4740,0.08,0.11,-0.99,2.81,3.78,1.95
38.4880,0.08,0.12,-0.99,2.81,3.54,2.08
38.5030,0.08,0.13,-0.99,2.93,3.91,3.36
38.5060,0.08,0.11,-0.99,2.69,3.36,5.98
38.5230,0.07,0.10,-0.99,2.75,3.66,4.21
38.5400,0.07,0.11,-0.99,2.75,4.03,3.36
38.5570,0.07,0.11,-0.99,2.87,3.60,2.62
38.5730,0.08,0.11,-0.99,2.99,3.60,3.23
38.5900,0.08,0.11,-0.99,2.87,3.85,4.09
38.6070,0.07,0.11,-0.99,2.87,3.78,4.03
38.6240,0.07,0.11,-1.00,2.62,3.66,3.36
38.6380,0.07,0.12,-0.99,2.87,3.85,2.87
38.6390,0.07,0.12,-0.99,2.81,3.60,3.54
38.6690,0.08,0.12,-0.99,2.87,3.42,3.78
38.6730,0.08,0.11,-0.99,2.93,3.42,3.66
38.6900,0.08,0.11,-0.99,2.81,4.15,2.26
38.7130,0.08,0.11,-0.99,3.23,3.91,2.08
38.7220,0.08,0.11,-0.99,2.87,3.97,2.14
38.7400,0.08,0.11,-0.99,2.81,3.85,1.89
38.7560,0.07,0.11,-0.99,2.62,4.15,1.83
38.7730,0.07,0.11,-0.99,2.81,3.97,2.14
38.7880,0.07,0.11,-0.99,2.87,3.97,2.01
38.7900,0.07,0.11,-0.99,2.87,3.91,2.26
38.8190,0.07,0.11,-0.99,2.87,3.91,2.32
38.8240,0.07,0.11,-0.99,2.93,3.72,2.75
38.8480,0.08,0.11,-0.99,2.99,3.60,2.99
38.8560,0.08,0.12,-0.99,3.11,3.54,3.30
38.8730,0.08,0.11,-0.99,2.75,3.54,3.54
38.8900,0.08,0.11,-0.99,2.75,3.72,3.17
38.9060,0.07,0.11,-0.99,3.05,3.91,2.26
38.9240,0.08,0.12,-0.99,2.75,3.97,2.14
38.9390,0.08,0.12,-0.99,2.93,3.72,2.08
38.9540,0.08,0.11,-0.99,2.81,4.09,2.14
38.9690,0.08,0.12,-0.99,2.93,3.91,1.95
38.9720,0.08,0.11,-0.99,2.81,3.78,1.89
39.0000,0.08,0.12,-0.99,2.81,4.15,2.14
39.0060,0.08,0.13,-0.99,2.81,3.54,3.05
39.0230,0.07,0.12,-0.99,2.93,3.30,4.03
39.0400,0.07,0.11,-1.00,2.69,3.78,3.91
39.0550,0.07,0.10,-1.00,2.75,3.78,2.93
39.0730,0.07,0.11,-0.99,2.93,3.91,2.14
39.0890,0.07,0.11,-0.99,3.05,3.66,1.89
39.1040,0.07,0.11,-0.99,3.11,3.72,1.77
39.1200,0.07,0.11,-0.99,3.17,3.54,2.01
39.1230,0.08,0.12,-0.99,2.99,3.91,2.01
39.1390,0.08,0.12,-0.99,2.69,3.60,1.89
39.1560,0.08,0.12,-0.99,2.87,3.72,1.71
39.1740,0.08,0.12,-0.99,2.99,3.72,1.40
39.1890,0.07,0.11,-0.99,2.69,3.85,1.16
39.2080,0.07,0.11,-1.00,2.99,3.66,1.59
39.2240,0.07,0.11,-0.99,2.87,3.72,1.89
39.2390,0.07,0.11,-0.99,3.11,4.03,1.89
39.2550,0.07,0.11,-0.99,3.05,3.66,1.95
39.2700,0.07,0.11,-1.00,2.93,3.72,1.89
39.2740,0.07,0.11,-0.99,2.99,3.85,1.95
39.2890,0.07,0.11,-0.99,2.93,3.91,1.95
39.3140,0.08,0.11,-0.99,2.75,3.91,2.01
39.3300,0.08,0.11,-0.99,2.81,3.97,2.14
39.3400,0.07,0.12,-0.99,2.87,3.85,1.89
39.3560,0.07,0.12,-0.99,2.87,3.66,2.08
39.3740,0.08,0.12,-0.99,3.05,3.66,2.08
39.3900,0.08,0.11,-0.99,3.11,3.78,2.08
39.3900,0.08,0.11,-0.99,3.05,3.85,1.95
39.4190,0.07,0.11,-1.00,2.93,3.60,2.01
39.4340,0.07,0.11,-0.99,2.99,3.91,2.08
39.4500,0.07,0.11,-0.99,2.75,4.09,2.14
39.4570,0.08,0.11,-0.99,2.81,3.91,2.01
39.4750,0.08,0.11,-0.99,2.93,3.78,2.20
39.4900,0.08,0.11,-0.99,3.17,3.66,2.01
39.5070,0.08,0.12,-0.99,3.17,3.60,2.44
39.5230,0.07,0.11,-0.99,3.05,3.48,2.75
39.5390,0.07,0.11,-0.99,2.99,3.72,2.38
39.5390,0.08,0.12,-0.99,2.87,3.42,2.69
39.5560,0.08,0.12,-0.99,2.75,3.30,3.30
39.5850,0.08,0.12,-0.99,2.87,3.42,3.60
39.5900,0.08,0.11,-0.99,2.81,3.54,3.72
39.6140,0.07,0.10,-1.00,2.93,3.60,2.26
39.6230,0.08,0.12,-1.00,2.81,3.66,1.95
39.6400,0.08,0.12,-0.99,3.17,3.48,1.95
39.6570,0.07,0.12,-0.99,2.87,3.66,2.20
39.6730,0.08,0.12,-0.99,2.69,3.54,2.99
39.6900,0.08,0.11,-0.97,2.93,3.54,3.60
39.6900,0.07,0.10,-1.01,3.11,3.05,2.93
39.7200,0.07,0.10,-1.00,2.87,3.91,2.08
39.7230,0.07,0.11,-0.99,2.87,3.91,2.01
39.7500,0.07,0.11,-0.99,3.17,4.03,2.01
39.7560,0.08,0.12,-1.00,3.17,3.85,2.08
39.7730,0.08,0.11,-0.98,3.05,3.60,2.14
39.7910,0.08,0.11,-0.99,2.93,3.54,2.01
39.8060,0.08,0.11,-0.98,2.81,3.85,2.20
39.8230,0.08,0.12,-1.00,2.87,3.97,2.08
39.8400,0.07,0.11,-0.99,3.11,3.72,2.08
39.8540,0.08,0.11,-0.99,3.23,3.91,2.01
39.8690,0.08,0.11,-0.98,3.11,3.78,1.95
39.8730,0.08,0.11,-1.00,2.69,3.97,2.14
39.8990,0.07,0.11,-0.99,2.93,3.91,2.08
39.9140,0.07,0.12,-0.99,2.99,3.78,2.20
39.9230,0.07,0.12,-0.99,2.99,3.54,2.69
39.9400,0.08,0.11,-0.99,2.93,3.66,2.87
39.9560,0.08,0.11,-0.99,3.11,3.85,2.08
39.9730,0.07,0.11,-1.00,2.99,3.91,1.95
39.9900,0.07,0.11,-0.99,2.93,3.72,2.08
40.0050,0.07,0.11,-0.99,3.11,3.54,2.08
40.0060,0.08,0.12,-0.99,3.05,3.60,2.01
40.0350,0.08,0.11,-0.99,2.99,3.66,1.95
40.0390,0.08,0.12,-0.99,2.87,3.85,1.95
40.0650,0.08,0.11,-0.99,2.93,3.42,1.95
40.0730,0.08,0.11,-0.99,2.87,3.72,1.95
40.0910,0.08,0.11,-0.99,2.99,3.97,1.83
40.1060,0.08,0.11,-1.00,3.05,3.78,2.08
40.1230,0.07,0.11,-0.99,3.11,3.66,1.95
40.1400,0.07,0.11,-0.99,2.93,3.54,2.01
40.1550,0.08,0.11,-0.99,2.99,3.91,2.08
40.1560,0.08,0.11,-1.00,2.75,3.60,2.20
40.1850,0.07,0.11,-0.99,2.99,3.85,2.01
40.2000,0.07,0.11,-0.99,2.99,3.78,2.08
40.2070,0.07,0.11,-0.99,3.05,3.60,2.08
40.2240,0.07,0.11,-0.99,3.05,3.66,2.08
40.2390,0.08,0.11,-0.99,3.42,3.66,2.01
40.2560,0.08,0.11,-0.99,3.17,3.91,1.95
40.2740,0.08,0.11,-0.99,3.17,3.66,2.08
40.2890,0.08,0.12,-0.99,3.23,3.85,1.95
40.3060,0.07,0.11,-0.99,3.05,3.66,1.95
40.3060,0.08,0.11,-0.99,2.99,3.97,2.01
40.3360,0.08,0.11,-0.99,2.93,3.91,1.95
40.3400,0.07,0.11,-0.99,2.99,3.54,1.95
40.3670,0.07,0.11,-0.99,3.05,3.78,2.08
40.3730,0.07,0.11,-0.99,3.05,3.78,2.01
40.3900,0.07,0.11,-0.99,2.99,3.66,2.08
40.4060,0.07,0.11,-0.99,2.99,3.85,2.08
40.4230,0.07,0.11,-1.00,2.87,3.72,1.95
40.4390,0.07,0.11,-0.99,3.11,4.09,1.95
40.4570,0.08,0.12,-1.00,3.11,3.78,2.01
40.4720,0.08,0.12,-0.99,3.05,3.78,2.01
40.4870,0.08,0.12,-0.99,3.05,3.78,1.95
40.5020,0.08,0.12,-0.99,2.75,3.72,2.08
40.5160,0.08,0.12,-0.99,2.93,3.85,2.01
40.5310,0.08,0.12,-0.99,2.99,3.66,1.95
40.5470,0.08,0.11,-0.99,3.11,3.97,2.01
40.5560,0.08,0.11,-0.99,2.99,3.91,2.01
40.5740,0.07,0.11,-0.99,3.05,3.72,2.01
40.5890,0.07,0.11,-0.99,2.93,4.09,2.20
40.6070,0.07,0.11,-0.99,3.11,3.66,2.08
40.6210,0.07,0.11,-1.00,2.93,3.66,1.95
40.6360,0.07,0.11,-0.99,2.93,3.78,2.01
40.6400,0.07,0.11,-1.00,2.99,3.85,1.95
40.6670,0.08,0.11,-0.99,3.23,3.66,2.26
40.6820,0.08,0.11,-0.99,3.23,4.03,1.95
40.6900,0.08,0.11,-1.00,2.99,3.78,2.01
40.7070,0.08,0.12,-0.99,3.05,3.72,2.01
40.7230,0.08,0.12,-0.99,2.99,4.15,1.95
40.7420,0.08,0.12,-0.99,2.75,3.97,2.08
40.7570,0.08,0.12,-0.99,2.99,3.97,2.08
40.7570,0.08,0.12,-0.99,2.99,3.85,2.14
40.7860,0.08,0.11,-0.99,2.99,3.78,2.08
40.8030,0.08,0.11,-0.99,2.99,3.72,2.01
40.8170,0.07,0.11,-0.99,2.93,3.85,2.08
40.8330,0.07,0.11,-0.99,3.05,3.78,2.01
40.8470,0.07,0.11,-0.99,3.11,3.97,1.95
40.8560,0.07,0.11,-0.99,2.93,3.91,1.95
40.8740,0.07,0.11,-0.99,2.87,3.85,2.01
40.8890,0.07,0.11,-0.99,2.87,3.85,1.83
40.9070,0.08,0.12,-1.00,2.93,3.97,1.77
40.9220,0.08,0.12,-0.99,2.87,3.91,1.77
40.9230,0.08,0.11,-0.99,2.75,4.09,1.71
40.9390,0.08,0.11,-0.99,2.75,3.91,1.71
40.9670,0.07,0.11,-1.00,2.87,4.03,1.83
40.9820,0.07,0.11,-0.99,2.99,4.21,1.71
40.9890,0.07,0.11,-0.99,2.93,3.78,1.65
41.0070,0.07,0.11,-0.99,3.05,3.85,1.40
41.0220,0.07,0.11,-1.00,2.87,3.97,1.53
41.0400,0.08,0.11,-0.99,2.62,4.15,1.83
41.0560,0.08,0.11,-0.99,2.99,4.09,1.59
41.0730,0.08,0.11,-0.99,2.87,3.91,1.59
41.0880,0.07,0.11,-0.99,2.87,3.97,1.83
41.1020,0.08,0.12,-1.00,2.99,3.91,1.59
41.1080,0.08,0.12,-0.99,2.93,3.72,1.65
41.1220,0.08,0.12,-0.99,3.11,3.85,1.65
41.1480,0.08,0.12,-0.99,3.17,3.85,1.83
41.1570,0.08,0.12,-0.99,2.99,3.91,1.77
41.1740,0.07,0.12,-0.99,2.81,3.91,1.83
41.1890,0.07,0.12,-0.99,2.99,4.03,1.89
41.2080,0.07,0.11,-0.99,2.87,3.91,2.08
41.2220,0.07,0.11,-0.99,2.75,3.91,1.95
41.2230,0.07,0.11,-0.99,2.81,3.97,2.01
41.2530,0.07,0.11,-1.00,2.99,3.48,2.01
41.2570,0.07,0.11,-1.00,3.23,3.72,2.01
41.2830,0.07,0.11,-0.99,2.99,3.66,2.14
41.2970,0.07,0.11,-0.99,2.81,3.78,1.95
41.3080,0.08,0.11,-0.99,3.11,3.60,2.08
41.3240,0.08,0.11,-0.99,3.05,3.54,1.95
41.3410,0.08,0.12,-0.99,3.05,3.72,2.08
41.3560,0.08,0.12,-0.99,3.05,3.60,1.95
41.3720,0.08,0.12,-0.99,2.93,3.72,2.01
41.3870,0.08,0.12,-0.99,3.11,4.03,2.01
41.3890,0.08,0.12,-0.99,2.99,4.03,2.01
41.4170,0.08,0.11,-0.99,3.05,3.72,2.08
41.4230,0.07,0.11,-0.99,3.11,3.78,2.14
41.4470,0.07,0.11,-0.99,2.75,3.78,1.95
41.4560,0.07,0.11,-0.99,2.93,3.85,1.95
41.4740,0.07,0.11,-0.99,3.17,3.91,2.01
41.4900,0.07,0.11,-0.99,2.87,3.91,2.14
41.5060,0.08,0.11,-0.99,2.62,3.85,2.01
41.5230,0.07,0.11,-1.00,2.75,3.91,2.20
41.5370,0.07,0.11,-1.00,2.87,3.78,1.95
41.5520,0.07,0.11,-0.99,2.93,3.85,2.14
41.5570,0.07,0.11,-0.99,2.87,3.78,1.95
41.5830,0.08,0.12,-0.99,3.11,3.85,2.14
41.5900,0.08,0.12,-0.99,3.11,3.78,2.08
41.6080,0.08,0.12,-0.99,2.87,3.30,1.95
41.6230,0.08,0.12,-0.99,2.87,3.60,2.01
41.6400,0.07,0.12,-0.99,2.87,3.91,2.01
41.6560,0.07,0.11,-0.99,3.11,3.85,2.01
41.6740,0.08,0.11,-0.99,2.93,3.91,2.01
41.6880,0.07,0.11,-0.99,3.11,3.72,1.83
41.7050,0.08,0.11,-0.99,3.05,3.91,2.01
41.7080,0.07,0.11,-0.99,3.05,3.66,2.01
41.7230,0.07,0.11,-0.99,2.87,3.66,2.08
41.7490,0.07,0.11,-1.00,2.93,3.78,2.14
41.7570,0.08,0.11,-0.99,3.05,3.91,2.08
41.7740,0.08,0.11,-0.99,2.99,3.78,2.01
41.7900,0.08,0.11,-0.99,2.81,3.91,2.08
41.8090,0.08,0.11,-0.99,3.11,3.85,2.20
41.8230,0.08,0.12,-0.99,2.93,3.97,2.01
41.8390,0.08,0.12,-0.99,2.93,3.91,2.01
41.8390,0.08,0.12,-0.99,2.87,3.91,2.08
41.8690,0.08,0.11,-0.99,2.87,3.97,2.26
41.8720,0.08,0.11,-0.99,2.81,4.09,2.08
41.8890,0.08,0.11,-0.99,2.81,3.97,2.01
41.9080,0.07,0.11,-0.99,2.99,3.97,2.01
41.9240,0.07,0.11,-0.99,2.87,3.60,2.01
41.9400,0.07,0.11,-0.99,3.11,4.03,1.95
41.9560,0.07,0.11,-0.99,2.99,4.03,2.08
41.9740,0.08,0.11,-0.99,2.93,3.72,2.01
41.9890,0.07,0.11,-0.99,3.23,3.72,1.95
42.0040,0.08,0.11,-0.99,2.87,4.03,2.08
42.0080,0.08,0.12,-0.99,3.05,3.91,1.95
42.0350,0.08,0.12,-0.99,2.93,3.66,2.01
42.0400,0.08,0.12,-0.99,2.93,3.97,1.95
42.0650,0.08,0.11,-0.99,3.05,4.15,2.01
42.0740,0.08,0.11,-0.99,2.99,3.97,2.01
42.0910,0.08,0.11,-0.99,3.11,3.54,1.95
42.1090,0.08,0.11,-0.99,2.93,3.78,1.95
42.1230,0.07,0.11,-0.99,2.87,3.85,1.95
42.1390,0.07,0.11,-0.99,2.93,3.72,2.20
42.1550,0.07,0.11,-0.99,3.05,3.91,2.08
42.1570,0.08,0.11,-0.99,2.87,3.91,2.08
42.1740,0.07,0.11,-0.99,2.93,4.03,2.01
42.1900,0.07,0.11,-0.99,2.93,3.85,2.08
42.2150,0.07,0.11,-0.99,3.05,3.97,2.01
42.2230,0.08,0.11,-0.99,3.05,3.85,2.01
42.2390,0.08,0.11,-0.99,2.99,3.85,1.95
42.2580,0.08,0.11,-0.99,3.05,3.97,2.08
42.2730,0.08,0.12,-0.99,3.11,3.66,2.08
42.2900,0.08,0.12,-0.99,2.93,3.78,2.14
42.3040,0.08,0.11,-0.99,3.11,3.91,1.95
42.3080,0.08,0.11,-0.99,2.99,3.78,1.95
42.3220,0.08,0.11,-0.99,2.87,4.09,1.95
42.3500,0.08,0.11,-0.99,2.69,3.91,1.95
42.3560,0.07,0.11,-0.99,2.87,3.97,2.08
42.3730,0.07,0.11,-1.00,2.93,3.85,2.01
42.3910,0.07,0.11,-0.99,2.99,3.97,1.95
42.4080,0.08,0.11,-0.99,2.81,3.97,1.95
42.4230,0.08,0.11,-0.99,2.87,3.60,2.14
42.4390,0.08,0.11,-0.99,2.93,3.72,2.14
42.4550,0.08,0.11,-0.99,3.05,3.91,2.14
42.4570,0.07,0.11,-0.99,2.81,4.15,2.08
42.4840,0.07,0.11,-0.99,2.87,3.72,2.14
42.5000,0.07,0.11,-0.99,2.99,3.78,2.01
42.5150,0.08,0.11,-0.99,2.87,3.97,2.14
42.5230,0.08,0.11,-0.99,3.05,4.15,2.01
42.5410,0.08,0.11,-0.99,2.81,3.97,2.01
42.5560,0.08,0.11,-0.99,2.87,3.85,2.14
42.5750,0.07,0.11,-0.99,2.99,3.66,1.83
42.5890,0.07,0.11,-0.99,2.81,3.97,2.08
42.5900,0.08,0.11,-0.99,2.81,4.03,2.20
42.6080,0.08,0.11,-0.99,3.05,4.21,2.01
42.6240,0.08,0.11,-0.99,3.05,3.97,2.08
42.6490,0.07,0.11,-0.99,2.99,3.85,1.95
42.6560,0.07,0.11,-0.99,2.81,3.91,2.01
42.6740,0.07,0.11,-0.99,2.81,4.09,2.08
42.6910,0.07,0.11,-0.99,2.81,3.78,1.95
42.7090,0.08,0.11,-0.99,2.81,3.72,2.20
42.7240,0.08,0.12,-0.99,2.99,3.54,3.05
42.7390,0.08,0.11,-0.99,2.99,3.48,4.33
42.7390,0.08,0.11,-0.99,2.81,3.48,3.72
42.7570,0.08,0.12,-0.99,2.81,3.66,3.85
42.7850,0.07,0.11,-0.99,2.87,3.85,3.36
42.7900,0.07,0.11,-0.99,2.69,3.36,3.48
42.8150,0.07,0.11,-1.00,2.75,3.42,3.17
42.8230,0.07,0.11,-0.99,2.93,3.91,2.44
42.8400,0.08,0.11,-0.99,3.17,3.60,2.69
42.8570,0.07,0.11,-0.99,2.87,3.60,2.32
42.8730,0.08,0.12,-0.99,2.99,3.85,2.20
42.8900,0.08,0.12,-0.99,3.11,3.42,2.44
42.9040,0.08,0.12,-0.99,2.87,3.54,2.93
42.9090,0.07,0.11,-0.99,2.93,3.85,3.54
42.9230,0.07,0.11,-0.99,2.87,3.78,3.48
42.9400,0.08,0.12,-1.00,2.81,3.78,3.30
42.9640,0.07,0.11,-1.00,2.99,3.78,3.05
42.9800,0.08,0.11,-0.99,2.81,3.60,2.69
42.9900,0.07,0.11,-0.99,2.87,3.36,2.75
43.0090,0.07,0.11,-1.00,2.87,3.54,2.44
43.0230,0.07,0.11,-0.99,2.87,3.72,2.38
43.0390,0.08,0.12,-0.99,2.93,4.21,2.44
43.0550,0.08,0.12,-0.99,2.99,3.78,2.56
43.0570,0.08,0.12,-0.99,2.99,3.78,3.17
43.0720,0.08,0.12,-0.99,2.69,3.42,4.46
43.1000,0.08,0.12,-0.99,2.69,3.23,4.82
43.1090,0.08,0.12,-0.99,2.44,3.54,5.00
43.1240,0.07,0.11,-1.00,2.62,3.60,4.52
43.1400,0.07,0.11,-0.99,2.87,3.78,3.42
43.1560,0.07,0.11,-0.99,2.81,4.03,2.50
43.1740,0.07,0.12,-0.99,2.81,3.60,2.87
43.1900,0.08,0.11,-0.99,2.81,3.72,2.99
43.2060,0.08,0.11,-0.99,2.69,3.97,2.75
43.2220,0.08,0.12,-0.99,3.05,3.54,2.75
43.2230,0.08,0.12,-0.99,3.11,3.78,3.17
43.2520,0.08,0.12,-0.99,2.87,3.42,3.91
43.2570,0.07,0.11,-1.00,2.87,3.66,3.91
43.2730,0.07,0.11,-0.99,2.62,3.60,3.66
43.2910,0.07,0.11,-0.99,2.99,3.60,2.99
43.3090,0.07,0.11,-0.99,3.05,3.54,2.44
43.3230,0.07,0.10,-1.00,3.17,3.85,1.95
43.3410,0.08,0.11,-0.99,3.42,3.66,2.01
43.3560,0.08,0.11,-0.99,3.11,3.97,2.01
43.3720,0.08,0.11,-0.99,2.93,3.54,2.08
43.3870,0.08,0.12,-0.99,3.11,3.60,2.08
43.3900,0.08,0.12,-0.99,3.11,3.60,2.01
43.4180,0.08,0.11,-0.99,3.11,3.97,2.01
43.4230,0.08,0.11,-0.99,3.05,4.09,1.95
43.4390,0.08,0.11,-0.99,3.05,3.66,2.01
43.4560,0.08,0.11,-0.99,3.17,3.66,1.95
43.4730,0.07,0.11,-0.99,3.11,3.78,2.01
43.4900,0.08,0.11,-0.99,3.05,3.78,1.83
43.5070,0.09,0.10,-0.99,3.54,4.15,0.37
43.5230,0.07,0.11,-0.99,3.36,4.03,-1.53
43.5380,0.07,0.12,-1.01,3.78,4.09,-0.49
43.5400,0.08,0.11,-0.99,3.05,3.85,0.73
43.5690,0.07,0.11,-0.99,3.11,4.21,-0.18
43.5730,0.06,0.12,-1.00,3.54,3.78,0.92
43.5990,0.07,0.12,-1.01,2.93,3.85,1.59
43.6090,0.08,0.12,-0.98,2.99,3.66,1.65
43.6240,0.09,0.12,-0.98,2.93,4.09,2.08
43.6400,0.08,0.12,-0.99,3.17,3.91,2.01
43.6570,0.08,0.12,-1.00,3.05,3.78,1.95
43.6730,0.07,0.12,-0.99,3.05,3.72,1.95
43.6890,0.07,0.11,-0.99,2.75,3.72,2.08
43.7030,0.08,0.11,-1.00,3.05,4.09,2.14
43.7180,0.08,0.11,-1.00,2.75,3.78,2.01
43.7330,0.08,0.11,-0.98,2.93,3.54,2.62
43.7400,0.08,0.11,-0.99,2.81,3.42,3.78
43.7580,0.07,0.11,-1.00,2.87,3.23,3.72
43.7730,0.08,0.11,-0.99,2.69,3.72,3.11
43.7900,0.07,0.11,-0.99,2.87,3.91,2.69
43.8060,0.07,0.11,-1.00,2.99,3.48,2.08
43.8230,0.08,0.11,-0.99,3.17,3.54,1.89
43.8380,0.08,0.12,-0.99,2.99,3.78,1.83
43.8400,0.08,0.12,-0.99,2.93,3.72,2.01
43.8680,0.08,0.12,-0.99,2.87,3.91,2.01
43.8730,0.08,0.12,-0.99,2.75,3.72,2.32
43.8980,0.08,0.12,-0.99,2.99,3.36,2.99
43.9140,0.07,0.11,-0.99,3.05,3.60,3.17
43.9230,0.07,0.11,-1.00,2.93,3.54,2.75
43.9400,0.08,0.12,-1.00,2.93,3.78,2.93
43.9560,0.08,0.12,-0.99,2.81,3.48,3.36
43.9730,0.08,0.12,-0.99,2.62,3.42,4.21
43.9880,0.07,0.11,-1.00,2.75,3.11,4.94
43.9900,0.07,0.10,-1.00,2.69,3.54,3.97
44.0180,0.07,0.10,-1.00,3.11,3.60,3.30
44.0230,0.07,0.11,-0.99,2.93,3.54,2.44
44.0480,0.07,0.11,-0.99,3.17,3.78,2.26
44.0570,0.08,0.12,-0.99,3.11,3.91,2.08
44.0740,0.08,0.12,-0.99,3.05,3.54,2.26
44.0910,0.08,0.12,-0.99,3.17,3.97,2.38
44.1070,0.08,0.12,-0.99,2.87,3.97,2.44
44.1240,0.08,0.12,-0.99,3.05,3.85,2.99
44.1240,0.08,0.12,-0.99,2.81,3.48,3.54
44.1410,0.08,0.11,-0.99,2.87,3.78,3.23
44.1680,0.07,0.11,-0.99,2.87,4.03,3.05
44.1830,0.08,0.11,-0.99,2.99,3.85,2.69
44.1990,0.07,0.11,-0.99,3.11,3.48,2.62
44.2100,0.07,0.11,-0.99,3.17,3.54,2.38
44.2250,0.08,0.11,-1.00,3.05,3.42,2.32
44.2390,0.07,0.11,-0.99,3.17,3.78,2.20
44.2570,0.07,0.11,-0.99,3.11,3.97,2.20
44.2730,0.08,0.12,-0.99,3.05,3.54,2.50
44.2880,0.08,0.12,-0.99,3.11,3.72,2.69
44.3030,0.08,0.12,-0.99,3.23,3.48,2.56
44.3180,0.08,0.12,-0.99,3.05,3.30,2.75
44.3340,0.08,0.12,-0.99,2.87,3.54,3.17
44.3400,0.07,0.12,-0.99,2.93,3.72,3.05
44.3580,0.08,0.12,-0.99,2.87,3.60,3.05
44.3730,0.08,0.12,-0.99,2.81,3.60,3.23
44.3900,0.08,0.12,-0.99,2.81,3.66,3.54
44.4060,0.08,0.12,-0.99,2.62,3.36,4.46
44.4230,0.08,0.11,-0.99,2.93,3.54,4.39
44.4380,0.07,0.10,-0.99,2.81,3.66,3.97
44.4530,0.07,0.11,-0.99,2.81,3.60,3.66
44.4570,0.07,0.11,-1.00,2.75,3.48,3.42
44.4740,0.07,0.11,-0.99,2.81,3.42,3.23
44.4980,0.07,0.11,-0.99,2.75,3.60,3.11
44.5100,0.07,0.10,-1.00,2.99,3.72,2.87
44.5240,0.08,0.11,-0.99,2.93,3.60,2.20
44.5400,0.08,0.12,-0.99,3.11,3.78,2.14
44.5580,0.08,0.12,-0.99,2.99,3.48,2.26
44.5730,0.08,0.13,-0.99,3.05,3.42,2.87
44.5730,0.08,0.12,-0.99,2.56,3.42,4.64
44.6030,0.08,0.12,-0.99,2.87,3.42,4.88
44.6100,0.08,0.11,-0.99,2.87,3.30,4.33
44.6230,0.07,0.11,-0.99,2.62,3.60,3.85
44.6490,0.08,0.12,-0.99,2.75,3.17,4.09
44.6560,0.07,0.11,-0.99,2.75,3.05,5.00
44.6730,0.07,0.10,-1.00,2.81,3.11,5.31
44.6900,0.07,0.11,-0.99,2.69,3.48,3.72
44.7070,0.08,0.12,-0.99,2.69,3.54,4.03
44.7230,0.08,0.12,-0.99,2.69,3.66,4.46
44.7380,0.08,0.12,-0.99,2.62,3.48,4.64
44.7530,0.07,0.10,-1.00,2.75,3.11,4.15
44.7570,0.07,0.10,-1.00,2.99,3.23,2.99
44.7830,0.07,0.11,-0.99,2.93,3.97,2.75
44.7900,0.08,0.12,-0.99,2.99,3.72,2.56
44.8110,0.07,0.11,-0.99,2.87,3.78,2.56
44.8230,0.08,0.11,-0.99,2.93,3.72,2.32
44.8410,0.08,0.12,-0.99,2.99,3.85,2.08
44.8570,0.08,0.12,-0.99,2.81,3.85,2.08
44.8730,0.08,0.11,-0.99,2.87,3.85,2.08
44.8730,0.08,0.11,-0.99,2.99,3.91,2.08
44.8900,0.08,0.11,-0.99,2.81,3.66,2.14
44.9110,0.08,0.12,-0.99,2.99,3.78,2.20
44.9230,0.07,0.11,-0.99,2.81,3.91,2.20
44.9400,0.07,0.11,-1.00,2.87,3.78,2.32
44.9580,0.07,0.11,-0.99,2.99,3.78,1.95
44.9740,0.08,0.11,-0.99,3.23,3.85,2.08
44.9890,0.08,0.11,-0.99,3.17,3.85,2.08
45.0080,0.08,0.12,-0.99,3.05,3.66,2.01
45.0240,0.08,0.12,-0.99,2.81,3.85,2.14
45.0390,0.08,0.12,-0.99,2.87,3.72,2.20
45.0400,0.08,0.11,-0.99,2.99,3.60,2.75
45.0690,0.07,0.11,-0.99,3.11,3.66,2.87
45.0850,0.08,0.12,-0.99,2.99,3.97,2.69
45.0900,0.08,0.12,-1.00,2.75,3.60,3.30
45.1110,0.07,0.12,-0.99,2.69,3.54,3.66
45.1230,0.07,0.11,-1.00,2.99,3.48,3.97
45.1400,0.08,0.12,-0.99,2.75,3.42,3.97
45.1560,0.08,0.11,-0.99,2.99,3.54,4.21
45.1740,0.08,0.11,-0.99,2.87,3.48,4.33
45.1890,0.07,0.11,-0.99,2.99,3.66,4.15
45.1900,0.08,0.11,-0.99,3.05,3.54,3.85
45.2110,0.08,0.12,-0.99,2.81,3.66,3.66
45.2340,0.08,0.12,-0.99,2.93,3.54,4.03
45.2400,0.08,0.12,-0.99,2.81,3.48,4.94
45.2640,0.08,0.11,-0.99,2.87,3.11,5.13
45.2730,0.08,0.13,-0.99,2.87,3.30,5.37
45.2910,0.08,0.11,-0.99,2.44,3.48,5.37
45.3070,0.07,0.10,-1.00,2.81,3.48,4.09
45.3240,0.07,0.10,-1.00,2.87,3.66,3.42
45.3390,0.07,0.10,-1.00,3.17,3.54,2.56
45.3540,0.07,0.11,-1.00,3.11,3.54,2.38
45.3570,0.08,0.12,-0.99,3.05,3.66,2.38
45.3740,0.07,0.11,-0.99,2.81,3.42,2.75
45.3990,0.07,0.11,-1.00,3.17,3.23,2.50
45.4140,0.07,0.11,-0.99,3.17,3.30,2.26
45.4230,0.08,0.11,-0.99,2.93,3.66,2.26
45.4410,0.08,0.12,-0.99,2.75,3.54,2.20
45.4570,0.08,0.12,-0.99,3.05,3.66,2.32
45.4740,0.08,0.12,-0.99,2.93,3.60,2.38
45.4900,0.08,0.12,-0.99,2.99,3.60,2.62
45.5050,0.07,0.11,-1.00,3.11,3.60,2.62
45.5220,0.08,0.11,-0.99,2.99,3.72,2.38
45.5360,0.08,0.11,-0.99,2.87,3.60,2.75
45.5400,0.08,0.11,-0.99,2.93,3.66,2.62
45.5570,0.08,0.11,-0.99,3.05,3.72,2.75
45.5810,0.08,0.12,-0.99,2.81,3.85,2.69
45.5900,0.07,0.11,-0.99,2.99,3.85,2.75
45.6060,0.07,0.11,-1.00,2.75,4.03,2.56
45.6240,0.07,0.11,-0.99,2.87,3.66,2.20
45.6410,0.08,0.12,-0.99,3.05,4.03,2.08
45.6570,0.08,0.12,-0.99,2.81,3.48,2.20
45.6570,0.08,0.12,-0.99,2.81,3.78,2.32
45.6860,0.08,0.12,-0.99,2.87,3.54,2.44
45.7010,0.08,0.12,-0.99,3.11,3.54,2.93
45.7160,0.08,0.12,-0.99,2.93,3.66,3.17
45.7230,0.08,0.12,-0.99,2.87,3.60,4.27
45.7410,0.08,0.11,-0.99,2.81,3.11,4.15
45.7560,0.08,0.11,-0.99,2.93,3.54,3.78
45.7740,0.08,0.11,-0.99,3.11,3.54,3.60
45.7900,0.08,0.11,-0.99,2.93,3.60,3.78
45.8060,0.07,0.11,-1.00,3.17,3.36,3.72
45.8120,0.08,0.11,-0.99,2.93,3.48,3.23
45.8230,0.08,0.12,-0.99,3.05,3.85,2.99
45.8510,0.07,0.11,-0.99,2.93,3.60,3.23
45.8570,0.07,0.11,-1.00,3.17,3.78,3.05
45.8820,0.08,0.12,-0.99,2.87,3.85,2.93
45.8900,0.08,0.12,-0.99,2.99,3.91,3.30
45.9060,0.08,0.11,-0.99,2.81,3.48,3.72
45.9240,0.08,0.12,-0.99,2.99,3.54,3.36
45.9400,0.07,0.11,-0.99,2.81,3.36,3.17
45.9560,0.07,0.11,-0.99,2.81,3.66,3.30
45.9710,0.07,0.10,-1.00,2.99,3.66,2.93
45.9740,0.07,0.11,-0.99,2.93,3.60,2.93
46.0010,0.08,0.11,-0.99,2.81,3.60,3.17
46.0130,0.07,0.11,-1.00,2.99,3.85,3.42
46.0230,0.08,0.11,-0.99,3.05,4.21,2.87
46.0410,0.08,0.12,-0.99,2.87,3.60,2.87
46.0560,0.08,0.12,-0.99,2.93,3.54,2.99
46.0730,0.08,0.12,-0.99,2.99,3.91,2.87
46.0910,0.08,0.12,-0.99,2.99,3.42,3.11
46.1060,0.08,0.12,-0.99,2.75,3.30,3.72
46.1130,0.07,0.11,-0.99,2.69,3.54,4.15
46.1230,0.07,0.11,-1.00,2.93,3.54,3.97
46.1520,0.08,0.11,-0.99,2.81,3.66,3.23
46.1570,0.08,0.12,-0.99,3.11,3.97,3.30
46.1740,0.08,0.12,-0.99,2.75,3.48,4.15
46.1900,0.07,0.11,-0.99,2.69,3.23,4.58
46.2070,0.07,0.11,-1.00,2.93,3.23,4.70
46.2230,0.07,0.11,-1.00,2.69,3.42,3.85
46.2410,0.07,0.11,-0.99,2.81,3.66,3.78
46.2570,0.07,0.11,-0.99,2.87,3.72,3.17
46.2730,0.08,0.11,-0.99,2.75,3.42,3.23
46.2890,0.07,0.11,-0.99,2.81,3.54,3.23
46.3040,0.07,0.11,-0.99,3.11,3.30,3.17
46.3190,0.08,0.12,-0.99,2.75,3.42,3.48
46.3230,0.08,0.12,-0.99,2.93,3.54,3.97
46.3400,0.08,0.11,-0.99,2.81,3.54,3.91
