Timestamp, AccX, AccY, AccZ, GyroX, GyroY, GyroZ
0.0100,0.10,0.09,-1.00,2.99,3.05,6.84
0.0140,0.08,0.12,-1.00,3.05,3.05,2.08
0.0320,0.08,0.11,-0.99,2.99,3.48,2.01
0.0480,0.08,0.12,-0.99,3.30,3.42,2.14
0.0650,0.08,0.12,-0.99,3.36,3.78,2.08
0.0820,0.08,0.12,-0.99,3.48,3.30,2.01
0.0980,0.08,0.12,-0.99,3.42,3.78,2.20
0.1130,0.08,0.12,-0.99,3.30,3.60,2.08
0.1150,0.09,0.12,-0.99,3.17,3.30,2.08
0.1440,0.08,0.12,-0.99,3.23,3.42,2.14
0.1590,0.08,0.12,-0.99,3.17,3.23,2.20
0.1740,0.08,0.12,-0.99,3.11,3.11,2.08
0.1890,0.08,0.12,-0.99,2.99,3.42,2.01
0.2030,0.08,0.12,-0.99,3.11,3.91,1.95
0.2190,0.08,0.12,-0.99,3.17,3.42,2.14
0.2310,0.09,0.13,-1.00,3.23,3.23,1.95
0.2470,0.09,0.11,-0.99,2.26,2.99,2.01
0.2650,0.17,0.24,-0.97,3.17,3.48,1.53
0.2800,0.22,0.24,-0.96,4.15,5.55,-9.77
0.2950,0.12,0.13,-0.99,5.25,6.29,-15.99
0.3010,0.09,0.08,-1.00,4.52,5.13,-9.89
0.3250,0.07,0.09,-1.00,4.39,4.39,-5.13
0.3400,0.05,0.09,-1.00,4.21,4.52,-5.25
0.3550,0.01,0.06,-1.01,4.27,4.88,-4.52
0.3700,0.03,0.09,-1.00,3.60,4.09,-2.62
0.3810,0.05,0.09,-1.00,3.78,4.15,-3.48
0.4010,0.06,0.10,-1.00,3.72,4.39,-2.87
0.4150,0.08,0.11,-0.99,3.23,3.85,-0.12
0.4310,0.06,0.12,-1.00,3.30,3.72,2.32
0.4480,0.04,0.08,-1.00,2.93,3.36,3.48
0.4650,0.06,0.09,-1.00,2.87,3.05,3.11
0.4800,0.08,0.11,-0.99,2.93,3.54,2.08
0.4970,0.08,0.12,-0.99,2.99,3.42,2.14
0.5130,0.08,0.12,-0.99,3.17,3.23,2.38
0.5290,0.06,0.12,-1.00,3.42,3.36,2.81
0.5430,0.08,0.11,-0.99,3.30,3.42,2.62
0.5580,0.08,0.11,-0.99,3.23,3.54,1.53
0.5740,0.10,0.11,-0.99,3.30,3.54,0.85
0.5890,0.08,0.12,-1.00,3.17,3.72,1.22
0.6040,0.08,0.11,-0.99,3.23,3.91,1.53
0.6190,0.08,0.11,-0.99,3.17,3.54,1.34
0.6310,0.09,0.11,-0.99,3.23,3.54,1.28
0.6470,0.09,0.12,-0.99,3.17,3.66,1.71
0.6640,0.09,0.12,-0.99,3.17,3.48,1.89
0.6810,0.08,0.11,-0.99,3.05,3.78,2.08
0.6970,0.08,0.12,-0.99,3.05,3.42,1.89
0.7130,0.09,0.12,-0.99,3.17,3.54,1.95
0.7280,0.08,0.12,-0.99,3.23,3.48,2.01
0.7440,0.08,0.12,-0.99,3.30,3.48,2.14
0.7590,0.09,0.12,-0.99,3.36,3.48,1.95
0.7740,0.08,0.12,-0.99,3.48,3.48,2.20
0.7810,0.08,0.12,-0.99,2.99,3.72,2.14
0.8010,0.08,0.12,-0.99,3.30,3.48,2.08
0.8160,0.08,0.11,-0.99,3.17,3.60,2.20
0.8320,0.07,0.09,-1.00,2.99,3.72,2.01
0.8500,0.07,0.11,-0.99,3.05,3.30,2.87
0.8660,0.09,0.11,-0.99,3.05,3.60,3.05
0.8820,0.08,0.11,-1.00,3.05,3.54,2.81
0.8990,0.09,0.12,-0.99,3.11,3.23,2.50
0.9140,0.09,0.12,-0.99,3.05,3.72,1.53
0.9300,0.09,0.13,-0.99,3.23,3.72,1.46
0.9450,0.09,0.13,-0.99,3.17,3.42,1.71
0.9610,0.08,0.12,-0.99,3.17,3.54,1.95
0.9760,0.08,0.11,-0.99,3.23,3.36,1.95
0.9910,0.07,0.10,-1.00,3.05,3.66,2.32
1.0060,0.08,0.10,-1.00,3.05,3.48,3.05
1.0210,0.08,0.11,-1.00,2.99,3.36,3.30
1.0320,0.07,0.10,-1.00,2.99,3.11,2.62
1.0490,0.08,0.11,-0.99,3.23,3.30,2.50
1.0660,0.08,0.11,-1.00,3.11,3.23,3.11
1.0830,0.08,0.11,-0.99,2.99,3.17,3.30
1.0980,0.08,0.12,-0.99,3.05,3.30,3.54
1.1020,0.10,0.13,-0.99,3.05,3.30,2.38
1.1300,0.09,0.13,-0.99,3.17,3.72,1.46
1.1470,0.08,0.11,-0.99,3.36,3.30,1.40
1.1620,0.07,0.10,-1.00,3.17,3.72,0.92
1.1770,0.08,0.11,-0.99,3.36,3.78,-0.31
1.1830,0.08,0.11,-0.99,3.23,3.66,0.12
1.2020,0.09,0.13,-0.99,3.36,3.91,-0.37
1.2200,0.09,0.11,-0.99,3.48,3.60,0.24
1.2380,0.07,0.11,-1.00,3.11,3.78,0.73
1.2540,0.08,0.11,-0.99,3.05,3.23,2.01
1.2700,0.09,0.12,-0.99,2.99,3.30,2.87
1.2860,0.10,0.12,-0.99,2.99,3.72,2.44
1.2880,0.09,0.12,-0.99,3.11,3.17,2.81
1.3180,0.09,0.13,-0.99,3.11,3.17,2.50
1.3340,0.08,0.12,-0.99,3.11,3.42,2.01
1.3500,0.08,0.11,-0.99,2.99,3.60,2.32
1.3660,0.08,0.11,-1.00,2.99,3.48,2.81
1.3710,0.08,0.11,-0.99,3.05,3.42,3.11
1.3870,0.08,0.12,-0.99,3.23,3.30,3.54
1.4080,0.08,0.11,-0.99,3.11,3.30,3.23
1.4250,0.09,0.12,-0.99,2.87,3.42,2.93
1.4430,0.09,0.12,-0.99,3.17,3.23,2.75
1.4580,0.08,0.11,-0.99,3.17,3.11,2.62
1.4740,0.08,0.11,-1.00,3.11,3.36,2.50
1.4900,0.08,0.12,-0.99,3.11,3.23,1.95
1.5060,0.09,0.12,-0.99,3.05,3.36,1.89
1.5220,0.08,0.11,-0.99,2.99,3.48,1.77
1.5370,0.09,0.12,-0.99,3.11,3.54,2.08
1.5530,0.08,0.11,-0.99,3.17,3.30,1.95
1.5680,0.08,0.12,-0.99,3.23,3.54,1.89
1.5850,0.09,0.12,-0.99,3.36,3.30,1.71
1.6010,0.08,0.11,-0.99,3.30,3.66,1.89
1.6160,0.09,0.12,-0.99,3.23,3.36,2.20
1.6310,0.09,0.13,-0.99,3.23,3.48,2.44
1.6420,0.09,0.12,-0.99,3.30,3.48,2.14
1.6580,0.09,0.12,-0.99,3.36,3.60,1.71
1.6750,0.09,0.13,-0.99,3.11,3.48,1.77
1.6910,0.09,0.12,-0.99,2.99,3.48,1.83
1.7070,0.08,0.12,-0.99,3.05,3.48,1.89
1.7230,0.08,0.12,-0.99,3.42,3.42,2.20
1.7390,0.08,0.11,-0.99,3.05,3.42,2.01
1.7550,0.08,0.12,-0.99,3.42,3.42,2.14
1.7710,0.08,0.12,-0.99,2.81,3.60,2.26
1.7870,0.08,0.12,-0.99,2.99,3.60,2.08
1.8020,0.08,0.12,-0.99,3.30,3.54,2.08
1.8180,0.08,0.12,-0.99,2.81,3.54,2.08
1.8260,0.08,0.12,-0.99,2.75,3.48,2.01
1.8420,0.08,0.12,-0.99,2.81,3.54,2.08
1.8610,0.09,0.11,-0.99,2.62,3.48,2.01
1.8780,0.09,0.12,-0.99,3.05,3.54,2.08
1.8940,0.08,0.11,-0.99,2.81,3.54,2.20
1.9090,0.07,0.10,-1.00,2.69,3.48,2.14
1.9240,0.07,0.10,-1.00,2.87,3.54,2.44
1.9390,0.09,0.13,-0.99,3.11,3.42,2.56
1.9550,0.09,0.12,-0.99,3.05,3.36,2.38
1.9700,0.08,0.12,-0.99,3.11,3.36,2.38
1.9860,0.09,0.12,-0.99,2.87,3.23,2.56
1.9930,0.09,0.12,-0.99,3.30,3.30,2.50
2.0170,0.08,0.12,-0.99,3.17,3.23,2.26
2.0270,0.08,0.12,-0.99,2.99,3.30,2.44
2.0450,0.08,0.11,-0.99,3.11,3.60,2.44
2.0610,0.09,0.12,-0.99,3.11,3.42,2.20
2.0770,0.07,0.11,-1.00,3.17,3.42,2.14
2.0930,0.07,0.11,-1.00,2.87,3.66,3.23
2.1090,0.08,0.11,-0.99,2.99,3.23,3.78
2.1250,0.10,0.12,-0.99,2.87,3.05,3.48
2.1410,0.08,0.11,-0.99,3.30,3.36,2.93
2.1560,0.08,0.11,-0.99,3.23,3.36,2.69
2.1720,0.08,0.12,-0.99,3.36,3.11,2.62
2.1880,0.08,0.12,-0.99,2.99,3.11,2.93
2.2040,0.09,0.12,-0.99,2.93,3.36,2.32
2.2200,0.11,0.12,-0.99,3.23,3.42,1.59
2.2350,0.11,0.12,-0.99,2.99,3.36,1.95
2.2450,0.09,0.12,-1.00,3.11,3.30,2.26
2.2610,0.08,0.12,-0.99,3.11,3.48,2.14
2.2770,0.10,0.15,-0.99,2.87,2.93,6.53
2.2940,0.07,0.07,-1.01,2.87,2.56,6.53
2.3100,0.08,0.10,-1.00,3.23,2.93,3.60
2.3260,0.08,0.12,-0.99,3.17,3.11,2.20
2.3420,0.08,0.12,-0.99,3.17,3.42,2.01
2.3440,0.08,0.12,-0.99,3.05,4.03,2.08
2.3600,0.08,0.12,-0.99,3.05,3.78,2.01
2.3880,0.08,0.11,-0.99,2.93,3.66,2.26
2.3990,0.08,0.12,-0.99,3.30,3.17,2.08
2.4150,0.08,0.12,-0.99,3.17,3.17,2.08
2.4310,0.08,0.12,-0.99,2.99,3.60,2.08
2.4480,0.08,0.12,-0.99,3.30,3.66,2.14
2.4650,0.08,0.12,-0.99,3.11,3.42,2.08
2.4810,0.08,0.12,-0.99,2.99,3.78,2.14
2.4970,0.08,0.12,-0.99,2.93,3.66,2.01
2.5120,0.09,0.12,-0.99,3.05,3.48,2.01
2.5270,0.08,0.12,-0.99,2.93,3.78,2.38
2.5420,0.08,0.12,-0.99,2.99,3.54,2.08
2.5580,0.08,0.12,-0.99,3.11,3.66,2.20
2.5720,0.08,0.11,-0.99,3.17,3.66,2.01
2.5870,0.08,0.12,-0.99,2.81,3.42,2.14
2.5980,0.08,0.12,-0.99,2.87,3.48,2.14
2.6150,0.08,0.12,-0.99,3.17,3.42,2.01
2.6320,0.08,0.12,-0.99,3.30,3.30,2.20
2.6490,0.08,0.12,-0.99,2.99,3.48,1.95
2.6650,0.03,0.11,-1.00,2.93,3.48,2.38
2.6820,0.03,0.12,-1.00,2.99,3.11,5.62
2.6970,0.12,0.12,-0.99,2.99,2.44,5.74
2.7130,0.07,0.12,-1.00,2.93,3.36,3.78
2.7300,0.08,0.11,-1.00,3.05,2.87,4.88
2.7450,0.08,0.11,-1.00,3.05,3.05,4.88
2.7610,0.09,0.11,-0.99,3.11,2.99,4.58
2.7760,0.08,0.12,-0.99,2.87,3.11,3.72
2.7930,0.09,0.12,-0.99,2.99,3.05,3.11
2.8040,0.10,0.12,-0.99,3.11,3.30,2.87
2.8160,0.09,0.12,-0.99,3.42,3.60,2.44
2.8360,0.09,0.12,-0.99,3.30,3.30,2.26
2.8530,0.09,0.12,-0.99,3.17,3.30,2.08
2.8700,0.08,0.12,-0.99,3.23,3.36,2.01
2.8870,0.08,0.12,-0.99,3.11,3.48,1.77
2.9030,0.08,0.12,-0.99,3.11,3.48,1.71
2.9040,0.09,0.12,-0.99,3.30,3.60,1.83
2.9360,0.08,0.11,-0.99,3.30,3.42,1.71
2.9520,0.08,0.12,-0.99,3.17,3.48,1.59
2.9540,0.08,0.12,-0.99,2.93,3.48,1.34
2.9840,0.08,0.12,-0.99,3.11,3.36,1.28
2.9990,0.08,0.12,-0.99,2.99,3.42,1.10
3.0150,0.09,0.12,-0.99,3.36,3.72,1.28
3.0310,0.09,0.11,-0.99,3.42,3.91,1.53
3.0460,0.08,0.12,-0.99,3.11,3.48,1.77
3.0610,0.09,0.12,-0.99,3.23,3.66,1.59
3.0760,0.09,0.12,-0.99,3.17,3.36,1.46
3.0870,0.08,0.12,-0.99,3.36,3.23,1.89
3.1040,0.08,0.12,-0.99,3.11,3.42,1.89
3.1200,0.09,0.12,-0.99,3.42,3.36,1.83
3.1370,0.08,0.12,-1.00,3.30,3.42,2.20
3.1530,0.07,0.12,-0.99,3.23,3.11,2.01
3.1700,0.06,0.12,-1.00,3.17,3.36,2.20
3.1850,0.09,0.12,-0.99,3.30,3.23,2.26
3.1870,0.10,0.11,-0.99,3.23,3.05,2.08
3.2160,0.09,0.12,-0.99,3.05,3.60,2.32
3.2200,0.07,0.12,-1.00,3.42,3.17,2.26
3.2360,0.07,0.12,-1.00,2.99,3.66,2.75
3.2570,0.07,0.11,-1.00,2.99,3.23,2.69
3.2730,0.07,0.11,-0.99,3.17,3.42,2.08
3.2900,0.08,0.11,-1.00,3.42,3.72,0.61
3.3060,0.08,0.12,-0.99,3.30,4.09,-0.73
3.3220,0.07,0.12,-0.99,3.30,4.21,-0.73
3.3390,0.10,0.12,-0.99,3.48,4.21,-1.16
3.3550,0.09,0.12,-0.99,3.42,4.03,-0.61
3.3710,0.08,0.11,-0.99,3.17,4.09,-0.55
3.3870,0.11,0.12,-0.99,3.72,4.03,-0.31
3.4020,0.09,0.12,-0.99,3.42,3.66,0.61
3.4070,0.09,0.12,-0.99,3.11,3.48,1.34
3.4230,0.08,0.12,-0.99,2.81,4.03,1.83
3.4470,0.10,0.12,-0.99,2.93,3.66,1.71
3.4630,0.09,0.12,-0.99,2.99,3.60,1.95
3.4780,0.08,0.12,-0.99,3.30,3.54,2.08
3.4930,0.08,0.12,-0.99,2.87,3.72,2.20
3.5090,0.08,0.12,-0.99,3.05,3.36,2.56
3.5230,0.07,0.12,-1.00,2.99,3.60,2.26
3.5380,0.08,0.11,-0.99,3.05,3.66,2.08
3.5540,0.09,0.11,-0.99,3.11,3.42,2.32
3.5680,0.09,0.11,-0.99,3.05,3.48,2.56
3.5840,0.08,0.11,-0.99,3.11,3.54,2.62
3.5960,0.08,0.11,-1.00,3.17,3.54,2.50
3.6140,0.09,0.11,-0.99,3.17,3.78,2.69
3.6140,0.08,0.11,-0.99,3.05,3.48,2.50
3.6440,0.07,0.11,-1.00,3.11,3.05,2.93
3.6590,0.09,0.12,-0.99,2.87,2.99,4.33
3.6740,0.10,0.12,-0.99,2.99,2.93,3.97
3.6900,0.09,0.12,-0.99,3.11,3.42,3.36
3.7060,0.08,0.11,-0.99,3.05,3.42,2.99
3.7210,0.09,0.12,-0.99,3.05,3.42,2.93
3.7360,0.09,0.12,-0.99,3.05,3.36,2.69
3.7470,0.09,0.12,-0.99,3.05,3.17,2.20
3.7640,0.09,0.12,-0.99,3.11,3.85,1.71
3.7810,0.08,0.12,-0.99,3.11,3.85,1.71
3.7960,0.08,0.11,-0.99,2.93,3.97,2.14
3.8130,0.08,0.11,-0.99,3.17,3.72,2.62
3.8300,0.09,0.13,-0.99,3.05,3.30,2.93
3.8460,0.09,0.13,-0.99,3.05,3.36,2.81
3.8620,0.08,0.12,-0.99,3.30,3.48,2.08
3.8770,0.08,0.11,-0.99,3.11,3.30,2.26
3.8930,0.08,0.11,-1.00,3.23,3.23,2.38
3.9080,0.08,0.12,-0.99,2.99,3.60,2.56
3.9130,0.08,0.12,-0.99,3.05,3.72,1.83
3.9390,0.08,0.12,-0.99,2.99,3.66,2.08
3.9500,0.08,0.12,-0.99,2.93,3.54,3.17
3.9660,0.08,0.12,-0.99,3.17,3.66,2.87
3.9830,0.08,0.12,-0.99,3.23,3.60,2.38
3.9990,0.08,0.12,-0.99,2.99,3.42,2.14
4.0160,0.08,0.11,-0.99,3.23,3.30,2.20
4.0320,0.08,0.12,-0.99,3.23,3.17,2.62
4.0460,0.08,0.12,-0.99,3.17,3.23,2.26
4.0620,0.08,0.12,-0.99,3.23,3.36,2.01
4.0770,0.08,0.12,-0.99,3.17,3.48,1.95
4.0920,0.08,0.12,-0.99,2.99,3.54,2.14
4.1050,0.09,0.12,-0.99,3.17,3.60,2.26
4.1150,0.09,0.12,-0.99,3.11,3.48,2.14
4.1370,0.09,0.12,-0.99,2.99,3.54,2.32
4.1530,0.09,0.12,-0.99,2.99,3.72,2.32
4.1700,0.09,0.12,-0.99,3.11,2.99,2.38
4.1860,0.08,0.12,-0.99,3.05,3.30,2.69
4.2020,0.08,0.11,-1.00,2.99,3.48,2.01
4.2050,0.08,0.11,-0.99,3.23,3.42,1.65
4.2330,0.08,0.11,-0.99,3.11,3.60,1.77
4.2490,0.08,0.12,-0.99,3.11,3.91,1.77
4.2640,0.09,0.12,-0.99,2.93,3.85,1.40
4.2760,0.09,0.12,-0.99,3.11,3.97,1.28
4.2920,0.09,0.12,-0.99,3.17,3.42,1.10
4.3090,0.08,0.12,-0.99,3.11,3.85,0.79
4.3240,0.09,0.14,-0.99,3.17,3.85,0.43
4.3410,0.09,0.11,-0.99,3.36,4.03,-0.92
4.3570,0.09,0.13,-0.99,3.23,3.72,0.00
4.3720,0.09,0.13,-0.99,3.36,3.97,-1.10
4.3880,0.08,0.11,-0.99,3.48,3.60,-0.79
4.3930,0.07,0.10,-1.00,3.36,4.03,-0.31
4.4080,0.08,0.10,-1.00,3.23,3.66,1.16
4.4320,0.08,0.10,-1.00,3.11,3.72,2.08
4.4470,0.08,0.11,-0.99,3.11,3.60,2.14
4.4620,0.08,0.12,-1.00,3.36,3.36,1.95
4.4770,0.08,0.11,-0.99,2.99,3.42,2.08
4.4920,0.08,0.12,-0.99,3.17,3.91,2.26
4.5080,0.08,0.12,-0.99,3.05,3.60,2.69
4.5220,0.08,0.12,-0.99,3.11,3.48,2.75
4.5380,0.08,0.11,-0.99,3.23,3.54,2.93
4.5530,0.08,0.12,-0.99,3.30,3.42,2.62
4.5650,0.08,0.12,-0.99,3.05,3.42,2.56
4.5810,0.08,0.12,-0.99,2.99,3.72,2.93
4.5980,0.08,0.12,-0.99,2.99,3.60,2.87
4.6150,0.08,0.11,-0.99,2.87,3.54,2.50
4.6310,0.08,0.12,-0.99,3.23,3.66,2.32
4.6460,0.08,0.12,-0.99,3.11,3.42,2.20
4.6620,0.08,0.12,-0.99,3.17,3.54,2.32
4.6770,0.08,0.12,-0.99,3.23,3.54,2.14
4.6920,0.08,0.12,-0.99,3.11,3.72,2.08
4.7080,0.08,0.12,-0.99,2.87,3.66,2.20
4.7240,0.08,0.12,-0.99,3.23,3.36,2.20
4.7390,0.08,0.11,-0.99,3.05,3.91,2.26
4.7540,0.08,0.11,-0.99,2.93,3.78,2.08
4.7640,0.08,0.12,-0.99,3.05,3.72,2.14
4.7810,0.08,0.11,-0.99,3.17,3.60,2.08
4.7970,0.08,0.12,-0.99,2.93,3.54,2.01
4.8140,0.08,0.12,-0.99,2.93,3.60,2.14
4.8310,0.08,0.12,-0.99,3.23,3.78,2.50
4.8470,0.08,0.12,-0.99,2.87,3.72,2.26
4.8630,0.08,0.12,-0.99,2.93,3.60,2.26
4.8800,0.08,0.12,-0.99,3.05,3.54,2.32
4.8950,0.08,0.12,-0.99,2.93,3.97,2.75
4.9110,0.09,0.12,-0.99,3.23,3.72,2.69
4.9260,0.08,0.12,-0.99,3.05,3.66,2.50
4.9420,0.08,0.12,-0.99,3.11,3.30,2.32
4.9570,0.08,0.11,-0.99,3.11,3.36,2.32
4.9720,0.08,0.11,-0.99,3.17,3.54,2.20
4.9870,0.09,0.12,-0.99,3.05,3.72,2.01
5.0020,0.09,0.12,-0.99,2.93,3.54,2.14
5.0140,0.08,0.11,-0.99,3.11,3.42,1.89
5.0300,0.08,0.12,-0.99,3.36,3.36,2.01
5.0470,0.08,0.12,-0.99,3.30,3.48,2.01
5.0630,0.08,0.12,-0.99,3.23,3.23,1.95
5.0780,0.08,0.12,-0.99,3.17,3.48,2.14
5.0800,0.08,0.12,-0.99,3.30,2.99,2.99
5.1060,0.08,0.11,-0.99,2.93,3.60,3.23
5.1190,0.08,0.11,-0.99,3.05,3.72,2.75
5.1400,0.08,0.12,-0.99,2.93,3.42,2.50
5.1520,0.08,0.12,-0.99,2.99,3.36,2.32
5.1680,0.09,0.12,-0.99,2.99,3.36,2.50
5.1840,0.08,0.11,-0.99,2.99,3.05,2.81
5.2010,0.08,0.11,-1.00,2.93,3.60,3.11
5.2070,0.08,0.11,-0.99,2.93,3.42,2.75
5.2250,0.08,0.12,-0.99,2.93,3.36,2.81
5.2460,0.09,0.13,-0.99,3.23,3.36,3.05
5.2570,0.09,0.12,-0.99,2.99,3.23,2.75
5.2730,0.08,0.11,-0.99,3.23,2.93,2.32
5.2920,0.08,0.12,-0.99,3.05,3.42,2.14
5.3070,0.08,0.12,-0.99,2.93,3.36,1.89
5.3220,0.09,0.12,-0.99,3.17,3.54,1.83
5.3380,0.08,0.12,-0.99,2.99,3.23,2.14
5.3530,0.08,0.11,-0.99,3.05,3.42,2.14
5.3680,0.08,0.11,-1.00,3.11,3.60,2.50
5.3790,0.08,0.11,-0.99,3.11,3.05,2.56
5.3950,0.08,0.12,-0.99,2.99,3.48,2.14
5.4130,0.09,0.12,-0.99,3.30,3.60,1.89
5.4290,0.09,0.12,-0.99,3.17,3.54,1.77
5.4440,0.08,0.12,-0.99,2.99,3.48,1.89
5.4600,0.08,0.11,-0.99,3.11,3.72,2.26
5.4760,0.08,0.12,-1.00,2.99,3.42,2.26
5.4910,0.08,0.12,-0.99,3.11,3.05,1.89
5.5060,0.08,0.12,-0.99,3.17,3.23,2.44
5.5220,0.08,0.11,-0.99,3.36,3.42,2.62
5.5370,0.08,0.11,-1.00,2.99,3.42,2.75
5.5510,0.08,0.12,-0.99,3.30,3.54,2.32
5.5630,0.09,0.12,-0.99,3.11,3.54,2.20
5.5790,0.09,0.13,-0.99,2.99,3.54,1.95
5.5960,0.08,0.11,-1.00,3.05,3.30,2.14
5.6130,0.08,0.12,-0.99,3.05,3.05,2.93
5.6290,0.08,0.13,-0.99,3.17,2.99,2.26
5.6450,0.08,0.11,-1.00,3.17,3.60,2.50
5.6600,0.08,0.10,-1.00,2.99,3.60,2.69
5.6760,0.08,0.11,-0.99,3.05,3.42,2.50
5.6790,0.08,0.12,-0.99,2.99,3.17,2.08
5.7060,0.09,0.13,-0.99,2.99,3.54,2.08
5.7210,0.08,0.12,-0.99,3.23,3.36,2.14
5.7320,0.08,0.12,-0.99,3.05,3.23,2.56
5.7490,0.08,0.12,-0.99,2.87,3.23,2.87
5.7660,0.08,0.12,-0.99,2.87,3.48,2.99
5.7830,0.09,0.12,-0.99,2.93,3.11,2.81
5.7990,0.08,0.11,-0.99,2.93,3.30,2.26
5.8150,0.08,0.10,-1.00,3.05,3.66,2.32
5.8320,0.08,0.11,-0.99,3.30,3.30,2.32
5.8480,0.08,0.12,-0.99,3.05,3.42,2.26
5.8640,0.08,0.12,-0.99,3.05,3.42,2.32
5.8800,0.09,0.13,-0.99,3.17,3.54,2.14
5.8950,0.09,0.13,-0.99,3.23,3.54,2.01
5.9110,0.08,0.11,-0.99,3.23,3.36,2.01
5.9260,0.08,0.11,-0.99,3.11,3.60,2.01
5.9420,0.08,0.12,-0.99,2.99,3.66,2.01
5.9570,0.09,0.13,-0.99,2.87,3.36,2.08
5.9650,0.08,0.13,-0.99,2.99,3.91,2.26
5.9830,0.08,0.12,-0.99,2.99,3.78,2.69
5.9990,0.08,0.11,-0.99,3.17,3.30,2.44
6.0160,0.09,0.10,-0.99,3.11,3.23,2.44
6.0330,0.08,0.11,-0.99,3.30,3.54,1.89
6.0480,0.09,0.12,-0.99,3.30,3.11,1.89
6.0630,0.08,0.12,-0.99,3.11,3.60,1.89
6.0710,0.08,0.12,-0.99,3.11,3.23,2.20
6.0940,0.09,0.11,-1.00,3.11,3.11,3.36
6.1070,0.08,0.11,-0.99,2.93,3.60,2.87
6.1190,0.08,0.11,-0.99,3.05,3.60,2.62
6.1400,0.09,0.12,-0.99,3.11,3.30,2.62
6.1550,0.09,0.13,-0.99,2.93,3.48,2.50
6.1720,0.08,0.12,-0.99,2.93,3.48,2.69
6.1880,0.08,0.11,-0.99,2.81,3.36,3.54
6.2040,0.08,0.12,-0.99,3.05,3.48,3.05
6.2190,0.08,0.11,-0.99,2.93,3.66,2.38
6.2340,0.08,0.11,-0.99,2.99,3.48,2.69
6.2510,0.08,0.10,-0.99,3.05,3.42,2.87
6.2580,0.08,0.11,-0.99,3.17,3.23,2.32
6.2740,0.08,0.11,-0.99,3.23,3.54,2.26
6.2900,0.09,0.12,-0.99,3.42,3.30,2.08
6.3100,0.08,0.12,-0.99,2.99,3.36,2.26
6.3260,0.08,0.12,-0.99,3.30,3.48,2.26
6.3420,0.08,0.12,-0.99,3.05,3.54,2.75
6.3580,0.09,0.14,-0.99,3.05,3.54,2.56
6.3740,0.08,0.10,-1.00,3.36,3.42,1.59
6.3900,0.08,0.12,-0.99,2.99,3.36,2.20
6.4050,0.08,0.13,-0.99,2.99,3.48,1.89
6.4120,0.08,0.11,-0.99,3.17,3.60,2.44
6.4280,0.09,0.11,-0.99,3.23,3.05,3.60
6.4500,0.08,0.11,-0.99,3.11,3.17,2.93
6.4670,0.08,0.12,-0.99,3.42,3.23,2.50
6.4840,0.08,0.12,-0.99,3.30,3.54,2.56
6.4990,0.08,0.11,-0.99,3.30,3.05,2.14
6.5160,0.08,0.11,-0.99,2.99,3.42,2.08
6.5320,0.08,0.11,-0.99,3.23,3.42,2.08
6.5480,0.08,0.12,-0.99,3.42,3.60,2.26
6.5640,0.08,0.14,-0.99,3.05,3.48,2.38
6.5790,0.08,0.11,-0.99,3.11,3.60,2.99
6.5940,0.09,0.10,-1.00,3.11,3.42,2.87
6.6090,0.09,0.10,-1.00,3.30,3.54,2.26
6.6240,0.09,0.11,-0.99,3.05,3.60,2.14
6.6340,0.08,0.11,-0.99,2.99,3.66,2.01
6.6510,0.08,0.12,-0.99,3.17,3.48,2.14
6.6670,0.08,0.12,-0.99,3.05,3.30,2.32
6.6830,0.08,0.14,-0.99,3.05,3.36,3.05
6.7000,0.09,0.12,-0.99,3.30,3.17,3.05
6.7150,0.09,0.09,-1.00,2.99,2.93,3.30
6.7300,0.09,0.11,-1.00,3.17,3.42,2.93
6.7330,0.08,0.12,-0.99,3.05,3.54,2.44
6.7490,0.08,0.12,-0.99,2.93,3.36,2.50
6.7710,0.09,0.12,-0.99,3.17,3.17,2.44
6.7880,0.08,0.11,-1.00,3.05,3.23,1.83
6.8050,0.08,0.11,-0.99,3.17,3.66,2.14
6.8210,0.08,0.12,-0.99,3.17,3.66,2.14
6.8380,0.09,0.12,-0.99,2.99,3.72,2.14
6.8540,0.08,0.12,-0.99,3.23,3.23,1.83
6.8700,0.08,0.14,-0.99,3.30,3.42,1.59
6.8850,0.08,0.14,-0.99,3.11,3.66,2.26
6.9010,0.08,0.10,-1.00,2.99,3.36,3.11
6.9080,0.09,0.10,-1.00,2.99,2.87,3.66
6.9300,0.08,0.10,-0.99,3.05,3.72,2.26
6.9450,0.08,0.11,-0.99,3.11,3.36,2.44
6.9600,0.08,0.13,-0.99,2.93,3.66,2.69
6.9710,0.09,0.13,-0.99,3.11,3.66,2.69
6.9870,0.08,0.11,-0.99,3.11,3.17,3.30
7.0040,0.09,0.12,-0.99,3.30,3.17,3.11
7.0200,0.08,0.10,-0.99,3.17,3.54,2.81
7.0360,0.08,0.11,-1.00,3.23,3.60,2.32
7.0510,0.08,0.11,-0.99,3.11,3.66,2.14
7.0540,0.08,0.11,-0.99,3.30,3.36,1.89
7.0700,0.08,0.11,-0.99,3.36,3.48,1.95
7.0920,0.09,0.12,-0.99,2.99,3.54,1.83
7.1090,0.09,0.13,-1.00,3.05,3.66,1.46
7.1240,0.09,0.12,-0.99,2.99,3.48,2.32
7.1410,0.09,0.11,-0.99,3.23,3.36,2.32
7.1570,0.08,0.11,-0.99,3.11,3.72,2.32
7.1720,0.08,0.12,-0.99,3.11,3.42,2.38
7.1880,0.08,0.12,-0.99,3.11,3.30,2.75
7.2040,0.08,0.12,-0.99,3.17,2.99,3.60
7.2200,0.09,0.11,-0.99,3.05,3.23,4.64
7.2250,0.08,0.09,-1.00,3.17,3.42,2.87
7.2430,0.08,0.11,-1.00,3.17,3.30,2.26
7.2650,0.08,0.11,-0.99,3.05,3.66,2.20
7.2800,0.08,0.12,-0.99,3.17,3.60,2.01
7.2920,0.08,0.12,-0.99,2.87,3.66,2.08
7.3090,0.08,0.11,-1.00,3.11,3.48,1.89
7.3250,0.08,0.12,-0.99,3.23,3.42,2.01
7.3390,0.08,0.12,-0.99,2.99,3.54,2.01
7.3480,0.09,0.12,-0.99,3.17,3.48,2.08
7.3640,0.09,0.13,-0.99,3.17,3.48,1.46
7.3860,0.09,0.13,-0.99,3.05,3.30,1.10
7.4020,0.08,0.11,-0.99,3.17,3.54,1.53
7.4100,0.08,0.11,-0.99,3.11,3.23,2.38
7.4190,0.08,0.11,-0.99,3.17,3.05,2.93
7.4370,0.08,0.11,-0.99,3.11,3.48,2.56
7.4520,0.08,0.12,-0.99,3.11,3.05,2.56
7.4680,0.10,0.14,-0.99,2.93,3.42,3.54
7.4960,0.08,0.11,-1.00,3.11,3.66,1.53
7.5100,0.08,0.10,-1.00,2.81,3.42,2.87
7.5240,0.09,0.12,-0.99,2.87,3.54,2.44
7.5400,0.09,0.14,-0.99,3.11,3.48,1.16
7.5560,0.08,0.11,-0.99,3.23,3.60,1.65
7.5720,0.08,0.11,-1.00,3.05,3.42,3.05
7.5880,0.08,0.09,-1.00,3.05,3.60,2.93
7.6040,0.08,0.09,-1.00,3.17,3.23,2.44
7.6200,0.08,0.12,-0.99,3.05,2.93,2.32
7.6350,0.09,0.12,-0.99,3.17,3.36,2.26
7.6510,0.09,0.12,-0.99,3.23,3.30,2.20
7.6670,0.08,0.12,-0.99,3.23,3.42,2.50
7.6810,0.09,0.12,-0.99,2.87,3.11,3.72
7.6970,0.08,0.11,-0.99,3.05,3.11,2.62
7.7110,0.08,0.12,-0.99,2.87,3.66,2.20
7.7240,0.08,0.12,-0.99,3.11,3.48,2.08
7.7390,0.08,0.11,-1.00,3.23,3.54,1.89
7.7590,0.08,0.10,-1.00,3.36,3.36,1.77
7.7740,0.08,0.12,-0.99,3.23,3.54,1.89
7.7900,0.09,0.12,-0.99,3.11,3.42,1.65
7.7930,0.08,0.11,-0.99,3.23,3.97,1.53
7.8110,0.08,0.11,-0.99,2.99,3.85,1.71
7.8360,0.08,0.12,-0.99,3.11,3.54,1.89
7.8470,0.08,0.12,-0.99,3.05,3.48,2.14
7.8620,0.08,0.11,-0.99,3.05,3.42,2.26
7.8830,0.08,0.11,-0.99,3.17,3.42,2.20
7.8980,0.08,0.11,-0.99,3.05,3.48,1.95
7.9140,0.08,0.12,-0.99,3.11,3.36,2.14
7.9190,0.08,0.12,-0.99,3.17,3.36,2.01
7.9350,0.09,0.12,-0.99,3.30,3.36,2.14
7.9610,0.08,0.12,-0.99,2.99,3.54,2.20
7.9720,0.08,0.12,-0.99,3.17,3.42,2.50
7.9900,0.08,0.11,-0.99,3.23,3.48,2.44
8.0070,0.08,0.11,-1.00,3.23,3.05,2.32
8.0230,0.09,0.11,-0.99,2.99,3.05,2.01
8.0390,0.08,0.12,-0.99,3.30,3.23,2.08
8.0560,0.08,0.12,-0.99,3.17,3.17,2.26
8.0710,0.08,0.12,-0.99,3.23,3.36,2.08
8.0870,0.08,0.11,-0.99,3.30,3.30,1.95
8.1020,0.08,0.11,-0.99,3.11,3.54,2.20
8.1180,0.09,0.11,-0.99,3.11,3.60,2.14
8.1330,0.09,0.11,-0.99,3.17,3.78,2.14
8.1500,0.08,0.11,-0.99,3.05,3.60,2.14
8.1660,0.08,0.12,-0.99,3.11,3.48,2.01
8.1820,0.09,0.12,-0.99,2.87,3.54,1.71
8.1970,0.09,0.13,-0.99,3.05,3.78,1.28
8.2110,0.08,0.11,-0.99,3.17,3.85,2.32
8.2220,0.08,0.10,-1.00,3.17,3.42,2.56
8.2420,0.08,0.11,-0.99,3.30,3.66,2.38
8.2580,0.08,0.11,-0.99,3.11,3.48,2.20
8.2740,0.09,0.12,-0.99,3.05,3.36,2.26
8.2900,0.09,0.12,-0.99,3.05,3.30,2.26
8.3050,0.09,0.12,-0.99,3.42,3.48,2.01
8.3210,0.08,0.11,-1.00,3.17,3.60,1.89
8.3360,0.08,0.11,-0.99,3.05,3.48,2.14
8.3520,0.08,0.12,-0.99,2.99,3.36,2.44
8.3680,0.08,0.12,-0.99,2.81,3.42,2.69
8.3770,0.08,0.12,-0.99,3.23,3.36,2.62
8.3990,0.08,0.11,-0.99,3.05,3.23,2.62
8.4140,0.08,0.11,-0.99,3.11,3.36,2.62
8.4260,0.08,0.12,-0.99,2.99,3.72,2.26
8.4430,0.08,0.12,-0.99,3.17,3.91,2.38
8.4580,0.08,0.12,-0.99,2.99,3.60,2.14
8.4740,0.08,0.13,-0.99,3.30,3.30,2.08
8.4900,0.08,0.12,-0.99,2.99,3.30,2.93
8.5070,0.09,0.11,-0.99,3.11,3.42,2.99
8.5230,0.09,0.12,-0.99,3.17,3.30,2.32
8.5380,0.08,0.11,-1.00,3.05,3.60,1.89
8.5550,0.08,0.11,-0.99,3.17,3.36,2.20
8.5700,0.08,0.11,-0.99,2.99,3.72,2.50
8.5870,0.08,0.12,-0.99,3.05,3.48,2.62
8.5920,0.08,0.13,-0.99,3.11,3.54,2.93
8.6120,0.09,0.12,-0.99,3.17,3.42,2.69
8.6320,0.09,0.11,-0.99,3.17,3.54,2.50
8.6480,0.09,0.12,-0.99,3.11,3.36,2.20
8.6640,0.08,0.11,-0.99,3.05,3.72,1.46
8.6800,0.08,0.12,-0.99,3.11,3.42,1.77
8.6950,0.09,0.12,-0.99,2.81,3.23,2.44
8.7100,0.07,0.10,-1.00,2.93,3.54,2.62
8.7260,0.08,0.11,-0.99,3.11,3.36,2.56
8.7420,0.09,0.11,-0.99,3.17,3.42,2.08
8.7470,0.09,0.10,-1.00,3.36,3.36,2.08
8.7630,0.08,0.11,-0.99,3.36,2.75,2.01
8.7860,0.08,0.12,-0.99,3.23,3.05,2.08
8.8010,0.08,0.12,-0.99,3.05,3.30,2.26
8.8180,0.08,0.12,-0.99,3.23,3.30,2.14
8.8340,0.09,0.13,-0.99,2.99,3.66,2.14
8.8360,0.08,0.11,-0.99,3.23,3.42,1.65
8.8520,0.08,0.12,-0.99,3.30,3.42,1.95
8.8680,0.09,0.14,-0.99,2.93,3.42,2.56
8.8840,0.08,0.11,-0.99,3.36,3.11,2.14
8.9050,0.09,0.10,-1.00,3.17,3.54,2.38
8.9220,0.09,0.11,-0.99,2.93,3.30,2.32
8.9390,0.08,0.12,-0.99,3.05,3.48,2.26
8.9550,0.08,0.12,-0.99,2.99,3.54,2.32
8.9720,0.08,0.10,-0.99,3.11,3.30,2.38
8.9870,0.08,0.11,-0.99,3.05,3.42,2.62
9.0020,0.08,0.12,-0.99,2.99,3.42,2.32
9.0120,0.08,0.11,-0.99,3.11,3.23,2.44
9.0210,0.08,0.11,-0.99,3.23,3.36,2.08
9.0440,0.08,0.12,-0.99,3.05,3.30,2.08
9.0610,0.09,0.13,-0.99,3.11,3.60,2.01
9.0780,0.09,0.13,-0.99,3.42,3.54,1.28
9.0950,0.07,0.09,-1.00,3.30,3.60,1.59
9.1100,0.09,0.11,-0.99,3.11,3.54,2.93
9.1250,0.08,0.12,-0.99,3.36,3.23,2.62
9.1280,0.08,0.13,-0.99,2.87,3.11,3.17
9.1430,0.09,0.13,-0.99,3.36,3.17,2.75
9.1710,0.08,0.11,-1.00,3.17,3.11,2.08
9.1820,0.09,0.11,-0.99,2.75,3.60,2.75
9.1980,0.08,0.11,-0.99,2.81,3.23,2.62
9.2160,0.08,0.11,-0.99,3.05,3.11,2.38
9.2220,0.08,0.12,-0.99,3.11,3.30,2.38
9.2460,0.08,0.12,-0.99,2.93,3.42,2.50
9.2540,0.08,0.11,-0.99,3.17,3.36,2.62
9.2700,0.09,0.11,-0.99,3.17,3.23,2.26
9.2930,0.08,0.12,-0.99,2.93,3.42,2.14
9.3070,0.09,0.13,-0.99,3.11,3.48,2.38
9.3240,0.08,0.13,-0.99,3.17,3.05,2.75
9.3400,0.08,0.11,-1.00,2.99,3.60,3.11
9.3570,0.08,0.10,-1.00,2.99,3.60,2.93
9.3730,0.09,0.11,-0.99,3.05,3.48,2.56
9.3880,0.08,0.12,-0.99,3.05,3.30,2.14
9.4040,0.08,0.12,-0.99,2.75,3.36,2.93
9.4130,0.09,0.12,-0.99,3.17,3.66,2.99
9.4340,0.09,0.09,-1.00,3.17,3.48,2.69
9.4420,0.08,0.12,-0.99,3.05,3.05,2.14
9.4580,0.08,0.12,-0.99,2.81,3.60,2.14
9.4770,0.08,0.12,-0.99,2.93,3.36,2.14
9.4930,0.09,0.12,-0.99,2.99,3.54,2.08
9.5100,0.09,0.12,-0.99,3.17,3.48,2.14
9.5250,0.08,0.12,-0.99,3.11,3.30,2.08
9.5400,0.08,0.12,-0.99,2.93,3.54,2.08
9.5560,0.08,0.12,-0.99,2.93,3.36,2.32
9.5720,0.08,0.12,-0.99,3.11,3.42,2.20
9.5880,0.08,0.12,-0.99,3.11,3.23,2.01
9.5950,0.08,0.11,-1.00,3.23,3.48,1.95
9.6130,0.08,0.12,-0.99,3.23,3.42,2.01
9.6330,0.08,0.12,-0.99,2.93,3.54,2.14
9.6500,0.09,0.12,-0.99,3.30,3.42,1.95
9.6660,0.09,0.12,-0.99,3.23,3.42,2.01
9.6830,0.09,0.12,-0.99,3.17,3.23,1.71
9.6990,0.08,0.11,-0.99,3.17,3.48,1.83
9.7150,0.08,0.11,-0.99,3.11,3.48,1.83
9.7300,0.08,0.11,-0.99,3.11,3.42,2.01
9.7330,0.09,0.12,-0.99,3.05,3.11,2.01
9.7490,0.08,0.12,-0.99,3.05,3.23,2.08
9.7780,0.08,0.12,-0.99,2.99,3.54,1.89
9.7890,0.08,0.12,-0.99,3.17,3.30,2.01
9.8050,0.09,0.13,-0.99,2.99,3.36,2.08
9.8220,0.09,0.13,-0.99,3.23,3.11,2.20
9.8380,0.08,0.11,-0.99,3.23,3.36,1.83
9.8540,0.08,0.10,-1.00,3.17,3.66,2.62
9.8710,0.08,0.11,-0.99,3.17,3.30,2.69
9.8870,0.09,0.12,-0.99,2.93,3.60,2.26
9.9020,0.08,0.12,-0.99,3.05,3.54,2.01
9.9140,0.08,0.12,-0.99,2.93,3.05,1.89
9.9220,0.08,0.12,-1.00,3.11,3.48,1.95
9.9440,0.08,0.11,-0.99,2.93,3.48,2.20
9.9610,0.08,0.11,-0.99,2.99,3.48,2.20
9.9780,0.08,0.12,-0.99,3.05,3.23,2.08
9.9930,0.09,0.12,-0.99,2.93,3.30,2.01
10.0100,0.08,0.11,-0.99,3.05,3.36,1.77
10.0250,0.08,0.11,-0.99,2.99,3.23,1.71
10.0400,0.08,0.11,-0.99,3.11,3.36,2.01
10.0560,0.08,0.12,-0.99,3.11,3.66,2.01
10.0710,0.08,0.12,-1.00,3.23,3.54,2.26
10.0780,0.08,0.11,-0.99,2.93,3.66,2.01
10.0930,0.08,0.11,-0.99,3.05,3.36,2.14
10.1160,0.08,0.11,-0.99,3.23,3.54,2.08
10.1320,0.08,0.12,-0.99,3.30,3.42,2.08
10.1490,0.09,0.12,-0.99,3.30,3.48,1.95
10.1660,0.08,0.12,-0.99,3.11,3.36,1.53
10.1810,0.09,0.13,-0.99,3.23,3.60,1.59
10.1960,0.06,0.10,-1.00,3.54,3.48,1.34
10.2110,0.08,0.10,-1.00,2.81,3.17,3.78
10.2260,0.08,0.11,-1.00,3.11,3.42,2.69
10.2410,0.08,0.11,-0.99,3.23,3.30,2.01
10.2490,0.08,0.12,-0.99,3.30,3.48,2.08
10.2650,0.08,0.12,-0.99,3.05,3.17,1.89
10.2860,0.08,0.12,-0.99,2.99,3.72,2.08
10.3010,0.08,0.12,-1.00,3.17,3.30,1.95
10.3160,0.09,0.12,-0.99,3.11,3.66,1.77
10.3310,0.09,0.13,-0.99,3.11,3.36,1.59
10.3410,0.08,0.11,-1.00,3.30,3.23,1.40
10.3570,0.08,0.10,-1.00,3.05,3.05,1.89
10.3730,0.08,0.12,-0.99,3.05,3.42,2.14
10.3900,0.08,0.12,-0.99,2.87,3.17,2.20
10.4060,0.08,0.12,-0.99,3.30,3.42,2.14
10.4210,0.08,0.12,-0.99,3.05,3.42,2.26
10.4380,0.09,0.13,-0.99,3.11,3.36,2.26
10.4530,0.09,0.13,-0.99,3.17,3.60,2.01
10.4680,0.08,0.11,-1.00,3.42,3.23,2.14
10.4840,0.09,0.12,-0.99,2.93,3.05,2.01
10.5020,0.09,0.13,-0.99,2.87,3.48,2.38
10.5170,0.07,0.11,-1.00,2.87,3.11,2.87
10.5320,0.09,0.11,-0.99,2.81,3.30,4.15
10.5470,0.08,0.09,-1.00,3.11,3.17,2.56
10.5570,0.09,0.11,-1.00,3.05,3.54,2.26
10.5740,0.08,0.12,-0.99,2.99,3.48,2.08
10.5900,0.08,0.12,-0.99,3.11,3.60,2.08
10.6070,0.08,0.12,-0.99,2.99,3.30,1.89
10.6220,0.09,0.12,-0.99,2.99,3.30,1.89
10.6390,0.08,0.11,-0.99,2.87,3.54,1.83
10.6550,0.08,0.11,-0.99,3.11,3.36,2.01
10.6700,0.08,0.12,-0.99,3.17,3.60,2.08
10.6860,0.08,0.12,-0.99,3.05,3.36,1.95
10.7020,0.08,0.12,-0.99,2.93,3.60,2.14
10.7140,0.08,0.12,-0.99,3.11,3.30,2.26
10.7330,0.09,0.12,-0.99,3.05,3.66,2.26
10.7490,0.08,0.12,-0.99,3.05,3.54,2.38
10.7640,0.09,0.14,-0.99,2.87,3.72,2.38
10.7730,0.07,0.08,-1.00,2.99,3.60,2.08
10.7910,0.09,0.11,-0.99,2.99,3.30,2.75
10.8070,0.08,0.12,-0.99,3.05,3.42,2.14
10.8240,0.08,0.12,-0.99,3.11,3.23,2.26
10.8400,0.08,0.11,-0.99,3.11,3.30,2.38
10.8560,0.08,0.12,-0.99,3.11,3.48,2.50
10.8710,0.08,0.12,-0.99,3.11,3.48,2.75
10.8740,0.09,0.14,-0.99,3.05,3.11,2.44
10.8900,0.08,0.12,-0.99,3.42,3.60,1.16
10.9140,0.08,0.09,-1.00,3.42,3.17,1.40
10.9290,0.09,0.10,-0.99,2.93,3.48,3.23
10.9450,0.08,0.11,-0.99,2.87,3.36,1.95
10.9620,0.08,0.11,-0.99,3.05,3.36,1.95
10.9770,0.08,0.11,-1.00,3.36,3.60,1.95
10.9920,0.09,0.11,-0.99,3.23,3.48,2.01
10.9990,0.08,0.12,-0.99,3.11,3.60,2.08
11.0150,0.08,0.12,-0.99,3.11,3.36,1.89
11.0370,0.08,0.11,-0.99,3.05,3.42,2.01
11.0530,0.08,0.11,-0.99,3.11,3.48,2.14
11.0700,0.08,0.11,-0.99,3.17,3.36,2.14
11.0860,0.08,0.11,-0.99,3.30,3.11,2.20
11.1010,0.08,0.11,-0.99,3.23,3.36,2.20
11.1180,0.08,0.12,-0.99,3.05,3.48,2.26
11.1200,0.08,0.12,-0.99,3.17,3.48,2.69
11.1360,0.09,0.12,-0.99,3.05,3.48,2.69
11.1640,0.09,0.11,-1.00,3.30,3.42,2.44
11.1750,0.08,0.11,-0.99,3.05,3.66,2.99
11.1930,0.09,0.11,-0.99,3.30,3.30,2.87
11.2080,0.09,0.11,-0.99,2.81,3.72,2.50
11.2240,0.08,0.12,-0.99,2.93,3.30,2.26
11.2400,0.08,0.12,-0.99,3.11,3.60,2.32
11.2560,0.09,0.11,-0.99,3.17,3.11,2.56
11.2710,0.09,0.11,-0.99,3.30,3.05,2.44
11.2860,0.09,0.11,-0.99,3.48,3.11,2.26
11.3020,0.08,0.13,-0.99,2.87,3.78,2.75
11.3180,0.08,0.13,-0.99,3.23,3.11,3.48
11.3330,0.09,0.12,-0.99,3.11,3.17,2.69
11.3480,0.09,0.09,-1.00,3.30,3.66,1.22
11.3580,0.09,0.10,-1.00,3.11,3.42,1.89
11.3750,0.08,0.12,-0.99,3.23,3.54,2.38
11.3920,0.08,0.13,-0.99,3.11,3.23,2.32
11.4080,0.09,0.12,-0.99,2.87,3.78,2.87
11.4240,0.09,0.10,-1.00,3.23,3.23,2.62
11.4400,0.09,0.11,-0.99,3.17,3.48,2.26
11.4560,0.08,0.11,-0.99,3.11,3.17,2.08
11.4710,0.08,0.12,-0.99,3.17,2.99,2.01
11.4860,0.08,0.12,-0.99,3.17,3.17,1.95
11.5020,0.08,0.12,-0.99,3.36,3.36,2.08
11.5170,0.08,0.12,-0.99,3.36,3.17,2.08
11.5250,0.08,0.12,-0.99,3.30,2.99,2.08
11.5400,0.08,0.12,-0.99,3.54,3.05,2.08
11.5610,0.08,0.12,-0.99,3.36,3.23,2.14
11.5770,0.08,0.11,-0.99,3.11,3.54,2.08
11.5920,0.08,0.12,-0.99,3.11,3.42,2.14
11.6080,0.08,0.12,-0.99,3.23,3.60,2.08
11.6230,0.08,0.12,-0.99,3.30,3.48,2.14
11.6380,0.08,0.11,-0.99,2.99,3.36,2.01
11.6540,0.08,0.12,-0.99,2.93,3.42,2.01
11.6700,0.08,0.12,-0.99,3.17,3.42,2.14
11.6850,0.08,0.12,-1.00,3.11,3.17,2.20
11.6940,0.08,0.12,-0.99,3.05,3.11,2.20
11.7150,0.08,0.12,-0.99,3.30,3.17,2.20
11.7310,0.08,0.12,-0.99,3.05,3.78,2.08
11.7470,0.08,0.12,-0.99,2.75,3.78,2.26
11.7610,0.09,0.14,-0.99,2.99,3.66,2.20
11.7660,0.08,0.12,-1.00,3.36,3.17,2.08
11.7930,0.09,0.11,-0.99,3.11,3.30,3.11
11.8080,0.08,0.10,-1.00,3.23,3.54,2.20
11.8170,0.09,0.12,-0.99,2.99,3.30,1.89
11.8340,0.09,0.13,-0.99,3.11,3.48,1.95
11.8500,0.08,0.11,-0.99,3.17,3.54,2.38
11.8670,0.08,0.10,-1.00,3.11,3.42,2.38
11.8840,0.08,0.11,-0.99,3.11,3.36,2.14
11.9000,0.08,0.12,-0.99,3.17,3.36,2.08
11.9160,0.08,0.12,-0.99,3.11,3.23,2.26
11.9320,0.08,0.12,-0.99,3.05,3.54,2.14
11.9480,0.08,0.12,-0.99,3.11,3.66,2.01
11.9630,0.08,0.12,-0.99,3.30,3.30,2.14
11.9670,0.08,0.12,-0.99,3.05,3.23,2.08
11.9830,0.08,0.12,-0.99,3.05,3.42,2.08
12.0040,0.09,0.12,-0.99,2.75,3.42,2.14
12.0210,0.09,0.12,-0.99,2.87,3.48,1.89
12.0380,0.09,0.11,-0.99,3.05,3.48,2.26
12.0540,0.08,0.11,-0.99,3.23,3.42,2.01
12.0700,0.08,0.11,-0.99,3.30,3.60,2.08
12.0870,0.08,0.12,-0.99,2.99,3.85,2.01
12.1030,0.09,0.12,-0.99,3.11,3.48,2.20
12.1190,0.08,0.11,-0.99,3.23,3.17,2.32
12.1220,0.08,0.12,-0.99,3.05,3.23,2.08
12.1370,0.08,0.12,-0.99,2.99,3.48,2.01
12.1620,0.08,0.12,-0.99,3.11,3.54,2.01
12.1780,0.08,0.12,-0.99,3.17,3.72,2.01
12.1950,0.08,0.12,-0.99,3.05,3.72,2.08
12.2100,0.08,0.12,-0.99,2.75,3.54,2.01
12.2270,0.08,0.12,-0.99,3.11,3.42,2.08
12.2420,0.08,0.12,-0.99,3.17,3.05,2.14
12.2570,0.08,0.12,-0.99,2.93,3.54,2.20
12.2610,0.08,0.12,-0.99,2.93,3.42,2.08
12.2770,0.08,0.12,-0.99,3.17,3.60,2.08
12.3000,0.08,0.12,-0.99,3.42,3.17,2.14
12.3170,0.08,0.12,-0.99,3.11,3.48,2.01
12.3330,0.08,0.12,-0.99,2.99,3.36,2.01
12.3500,0.08,0.12,-0.99,2.99,3.54,2.14
12.3660,0.08,0.12,-0.99,3.05,3.72,2.14
12.3820,0.08,0.12,-0.99,3.11,3.23,2.08
12.3990,0.09,0.12,-0.99,3.11,3.48,2.14
12.4150,0.08,0.12,-0.99,3.11,3.42,2.01
12.4170,0.08,0.12,-0.99,3.17,3.30,2.01
12.4320,0.08,0.12,-0.99,3.17,3.66,2.01
12.4550,0.08,0.12,-0.99,2.99,3.72,2.08
12.4730,0.09,0.11,-0.99,3.23,3.78,2.14
12.4890,0.09,0.11,-0.99,3.36,3.48,1.16
12.5050,0.10,0.11,-0.99,3.42,3.72,-0.43
12.5220,0.07,0.13,-0.99,3.72,4.21,-1.83
12.5390,0.08,0.12,-0.99,3.54,3.66,0.79
12.5540,0.08,0.12,-0.99,3.54,3.42,0.98
12.5700,0.08,0.12,-1.00,3.42,3.54,1.83
12.5870,0.08,0.12,-0.99,3.17,3.48,2.01
12.6020,0.08,0.12,-0.99,3.11,3.72,2.01
12.6180,0.08,0.12,-0.99,3.11,3.42,2.01
12.6220,0.08,0.12,-0.99,2.87,3.60,2.08
12.6510,0.08,0.12,-0.99,2.99,3.23,2.01
12.6570,0.08,0.12,-0.99,3.11,3.30,1.95
12.6730,0.08,0.12,-0.99,3.05,3.66,2.14
12.6930,0.08,0.12,-0.99,3.05,3.60,2.14
12.7090,0.08,0.12,-0.99,3.30,3.42,2.26
12.7260,0.08,0.12,-0.99,3.17,3.30,2.08
12.7430,0.08,0.12,-0.99,3.11,3.23,2.08
12.7590,0.08,0.12,-0.99,3.11,3.42,2.08
12.7740,0.08,0.12,-0.99,2.93,3.66,2.08
12.7900,0.08,0.12,-0.99,2.99,3.60,2.08
12.8060,0.08,0.12,-1.00,3.05,3.66,2.08
12.8170,0.08,0.12,-0.99,2.99,3.66,1.95
12.8250,0.08,0.12,-1.00,2.87,3.23,2.01
12.8490,0.08,0.12,-1.00,3.17,3.17,2.08
12.8660,0.09,0.12,-0.99,2.99,3.11,2.08
12.8820,0.09,0.12,-0.99,2.93,3.11,2.01
12.8980,0.08,0.12,-0.99,3.05,3.36,2.08
12.9140,0.08,0.12,-0.99,2.99,3.23,1.95
12.9300,0.08,0.12,-0.99,2.93,3.11,2.08
12.9460,0.08,0.12,-0.99,3.05,3.05,2.14
12.9620,0.08,0.11,-0.99,3.17,3.48,2.14
12.9770,0.08,0.11,-0.99,3.17,3.36,2.08
12.9820,0.08,0.11,-0.99,2.99,3.42,2.08
12.9980,0.08,0.11,-0.99,3.05,3.30,2.20
13.0220,0.08,0.12,-0.99,3.05,3.54,2.32
13.0380,0.08,0.11,-0.99,3.17,3.36,2.08
13.0540,0.08,0.12,-0.99,3.05,3.66,2.20
13.0700,0.08,0.12,-0.99,2.99,3.66,2.14
13.0720,0.09,0.12,-0.99,3.23,3.42,2.14
13.1030,0.09,0.12,-0.99,3.05,3.30,2.01
13.1180,0.08,0.12,-0.99,3.11,3.54,2.08
13.1210,0.08,0.11,-0.99,3.48,3.23,2.14
13.1360,0.09,0.12,-0.99,3.17,3.97,2.01
13.1600,0.08,0.11,-1.00,3.36,3.78,1.89
13.1770,0.08,0.11,-0.99,3.36,3.42,2.20
13.1920,0.08,0.12,-0.99,3.23,3.36,2.20
13.2070,0.08,0.12,-0.99,3.23,3.72,2.08
13.2220,0.08,0.12,-0.99,3.30,3.72,2.20
13.2370,0.09,0.12,-0.99,3.17,3.66,2.26
13.2520,0.09,0.12,-0.99,3.23,3.54,2.08
13.2670,0.08,0.12,-0.99,3.42,3.36,2.20
13.2820,0.08,0.12,-0.99,3.30,3.54,1.89
13.2930,0.08,0.12,-0.99,3.23,3.72,2.20
13.3100,0.09,0.12,-0.99,3.17,3.30,2.08
13.3270,0.09,0.12,-0.99,3.05,3.78,2.08
13.3420,0.08,0.12,-1.00,3.05,3.36,2.14
13.3570,0.08,0.12,-1.00,3.17,3.60,2.14
13.3730,0.08,0.12,-0.99,2.99,3.54,2.20
13.3880,0.08,0.12,-0.99,3.17,3.36,2.08
13.3940,0.09,0.12,-0.99,3.30,3.72,2.08
13.4180,0.08,0.12,-0.99,3.17,3.60,2.14
13.4290,0.08,0.12,-0.99,3.05,3.66,2.08
13.4460,0.08,0.12,-1.00,3.23,3.60,2.08
13.4630,0.08,0.12,-0.99,3.23,3.78,2.14
13.4800,0.08,0.12,-0.99,3.36,3.11,2.14
13.4960,0.08,0.12,-1.00,3.05,3.54,2.14
13.5110,0.08,0.12,-0.99,3.17,3.54,2.01
13.5270,0.08,0.12,-0.99,2.93,3.54,2.01
13.5430,0.08,0.12,-0.99,3.05,3.78,2.20
13.5580,0.08,0.12,-0.99,3.11,3.60,2.08
13.5720,0.08,0.12,-1.00,3.05,3.48,1.95
13.5880,0.08,0.12,-0.99,2.81,3.60,2.01
13.6040,0.09,0.12,-0.99,2.99,3.54,1.89
13.6180,0.09,0.12,-0.99,2.81,3.72,2.14
13.6300,0.08,0.12,-0.99,2.99,3.60,2.20
13.6460,0.08,0.12,-0.99,2.93,3.66,2.08
13.6630,0.08,0.12,-0.99,3.17,3.60,1.95
13.6800,0.08,0.11,-0.99,3.05,3.42,2.14
13.6960,0.08,0.11,-0.99,3.17,3.42,2.14
13.7110,0.09,0.12,-0.99,2.99,3.48,2.20
13.7260,0.08,0.12,-0.99,3.23,3.60,2.26
13.7420,0.08,0.12,-0.99,3.17,3.60,2.08
13.7570,0.08,0.12,-0.99,3.11,3.42,1.95
13.7710,0.08,0.12,-0.99,3.11,3.54,2.26
13.7860,0.08,0.12,-0.99,3.05,3.60,2.14
13.8020,0.09,0.12,-0.99,3.11,3.60,2.14
13.8130,0.08,0.12,-0.99,2.93,3.42,1.95
13.8300,0.08,0.12,-0.99,2.99,3.60,2.14
13.8460,0.08,0.12,-0.99,3.36,3.05,1.95
13.8620,0.08,0.12,-0.99,2.93,3.48,2.14
13.8780,0.08,0.12,-0.99,3.05,3.54,2.01
13.8940,0.08,0.12,-0.99,2.99,3.23,2.08
13.9090,0.08,0.12,-0.99,3.23,3.42,2.14
13.9240,0.08,0.12,-0.99,3.23,3.54,2.14
13.9410,0.08,0.12,-0.99,3.36,3.36,2.08
13.9560,0.09,0.12,-0.99,3.30,3.42,2.08
13.9630,0.09,0.12,-0.99,3.30,3.54,2.14
13.9790,0.08,0.12,-0.99,3.17,3.66,2.01
14.0010,0.08,0.12,-0.99,3.11,3.42,2.20
14.0190,0.08,0.12,-0.99,3.30,3.42,2.08
14.0190,0.08,0.12,-0.99,3.05,3.48,2.08
14.0500,0.08,0.12,-0.99,3.17,3.60,2.08
14.0520,0.08,0.12,-0.99,3.05,3.66,2.08
14.0670,0.08,0.12,-0.99,3.23,3.23,2.08
14.0860,0.09,0.12,-0.99,2.93,3.48,2.08
14.1020,0.08,0.12,-0.99,2.99,3.54,2.01
14.1190,0.08,0.12,-0.99,3.05,3.30,2.01
14.1440,0.08,0.12,-0.99,2.93,3.30,2.14
14.1550,0.08,0.12,-0.99,3.11,3.05,1.95
14.1720,0.08,0.12,-0.99,2.99,3.36,2.01
14.1890,0.08,0.12,-0.99,2.87,3.72,2.01
14.2060,0.08,0.12,-0.99,3.11,3.42,2.08
14.2220,0.08,0.12,-0.99,2.93,3.23,1.89
14.2230,0.09,0.12,-0.99,3.05,3.30,2.08
14.2540,0.08,0.12,-0.99,2.93,3.42,2.14
14.2710,0.08,0.12,-0.99,2.99,3.48,2.01
14.2870,0.08,0.12,-0.99,3.17,3.54,2.14
14.3020,0.08,0.12,-0.99,3.05,3.23,2.01
14.3180,0.08,0.12,-0.99,3.11,3.05,2.08
14.3340,0.08,0.12,-0.99,2.93,3.42,1.95
14.3380,0.09,0.12,-0.99,2.87,3.48,2.08
14.3540,0.08,0.12,-0.99,3.05,3.30,2.20
14.3770,0.08,0.11,-0.99,3.05,3.72,2.01
14.3940,0.08,0.12,-0.99,2.99,3.66,2.14
14.4110,0.08,0.12,-0.99,3.05,3.54,1.89
14.4270,0.09,0.12,-0.99,3.11,3.23,2.01
14.4440,0.08,0.12,-0.99,3.11,3.36,2.01
14.4590,0.08,0.12,-0.99,3.36,3.23,2.01
14.4740,0.08,0.12,-0.99,2.99,3.42,2.14
14.4910,0.09,0.12,-0.99,3.05,3.60,2.14
14.4940,0.08,0.12,-0.99,2.93,3.36,2.32
14.5190,0.08,0.12,-0.99,3.05,3.66,2.20
14.5380,0.08,0.11,-0.99,2.99,3.36,1.89
14.5480,0.08,0.11,-0.99,3.17,3.72,2.14
14.5630,0.08,0.12,-0.99,3.11,3.30,2.20
14.5840,0.08,0.12,-0.99,2.99,3.54,2.14
14.5870,0.08,0.12,-0.99,2.93,3.66,2.01
14.6160,0.08,0.12,-0.99,2.99,3.42,2.20
14.6320,0.08,0.12,-0.99,2.87,3.91,2.14
14.6480,0.09,0.12,-0.99,2.93,3.42,2.14
14.6640,0.08,0.12,-0.99,3.30,3.05,1.95
14.6800,0.08,0.12,-0.99,2.99,3.42,1.95
14.6870,0.08,0.12,-0.99,3.17,3.48,2.14
14.7120,0.08,0.12,-0.99,3.05,3.72,2.01
14.7200,0.08,0.12,-0.99,3.05,3.17,1.95
14.7430,0.08,0.12,-0.99,3.17,3.36,2.20
14.7530,0.08,0.12,-0.99,3.05,3.36,2.01
14.7690,0.08,0.12,-0.99,3.11,3.66,2.08
14.7890,0.08,0.12,-0.99,3.17,3.36,2.01
14.8040,0.08,0.12,-0.99,2.93,3.42,2.08
14.8180,0.08,0.12,-0.99,3.23,3.23,1.89
14.8350,0.08,0.12,-0.99,3.11,3.91,2.08
14.8510,0.08,0.12,-0.99,2.93,3.36,2.08
14.8680,0.08,0.12,-0.99,2.93,3.60,2.01
14.8840,0.08,0.12,-1.00,3.05,3.30,2.14
14.8930,0.08,0.12,-1.00,2.93,3.72,1.95
14.9080,0.08,0.12,-0.99,3.11,3.30,2.14
14.9310,0.08,0.11,-0.99,2.99,3.48,2.08
14.9470,0.08,0.12,-0.99,3.05,3.30,2.08
14.9620,0.09,0.12,-0.99,3.05,3.60,2.26
14.9640,0.08,0.12,-0.99,3.11,3.60,2.01
14.9810,0.08,0.12,-0.99,2.99,3.66,2.20
15.0020,0.08,0.12,-0.99,2.99,3.66,2.26
15.0200,0.08,0.12,-0.99,3.17,3.48,2.01
15.0350,0.08,0.12,-0.99,2.99,3.23,2.08
15.0530,0.08,0.12,-0.99,2.99,3.60,2.14
15.0680,0.08,0.12,-0.99,3.05,3.66,2.14
15.0840,0.08,0.12,-0.99,2.93,3.30,2.08
15.1000,0.08,0.12,-0.99,3.17,3.30,2.01
15.1160,0.08,0.12,-0.99,3.17,3.66,1.95
15.1330,0.08,0.12,-0.99,2.93,3.60,2.01
15.1480,0.08,0.12,-0.99,3.11,3.23,1.95
15.1520,0.08,0.12,-0.99,3.11,3.48,2.08
15.1670,0.08,0.12,-1.00,3.23,3.30,2.01
15.1910,0.08,0.12,-0.99,3.05,3.42,2.01
15.2070,0.08,0.12,-0.99,3.17,3.66,2.20
15.2220,0.08,0.12,-0.99,2.81,3.54,1.95
15.2380,0.08,0.12,-0.99,2.99,3.54,2.14
15.2540,0.08,0.12,-0.99,3.11,3.42,2.14
15.2710,0.09,0.12,-0.99,3.17,3.36,2.01
15.2740,0.08,0.12,-0.99,3.17,3.66,2.20
15.2900,0.08,0.12,-0.99,3.17,3.36,2.08
15.3120,0.08,0.12,-0.99,3.05,3.42,2.14
15.3290,0.08,0.12,-0.99,2.99,3.48,2.08
15.3450,0.08,0.12,-0.99,2.81,3.60,2.26
15.3620,0.09,0.12,-0.99,3.05,3.54,2.14
15.3770,0.08,0.12,-0.99,2.93,3.48,2.14
15.3940,0.08,0.12,-0.99,2.87,3.72,2.01
15.4090,0.08,0.12,-0.99,2.99,3.30,2.01
15.4240,0.08,0.12,-0.99,2.99,3.66,2.01
15.4400,0.08,0.12,-0.99,3.23,3.30,2.14
15.4560,0.08,0.12,-0.99,3.05,3.30,2.14
15.4720,0.08,0.12,-0.99,3.05,3.36,2.01
15.4790,0.08,0.12,-0.99,3.05,3.17,2.01
15.4950,0.08,0.12,-0.99,3.17,3.23,2.08
15.5170,0.08,0.12,-0.99,2.99,3.23,2.14
15.5200,0.08,0.12,-0.99,3.11,3.23,1.89
15.5340,0.08,0.12,-0.99,3.11,3.48,2.08
15.5510,0.08,0.12,-0.99,2.93,3.23,2.01
15.5670,0.08,0.12,-0.99,2.93,3.60,2.08
15.5890,0.08,0.12,-0.99,3.11,3.36,2.08
15.6060,0.09,0.12,-0.99,2.93,3.60,2.08
15.6220,0.08,0.12,-0.99,3.05,3.54,2.14
15.6390,0.08,0.12,-0.99,3.05,3.60,2.14
15.6550,0.08,0.12,-0.99,3.05,3.30,2.20
15.6710,0.08,0.12,-0.99,3.17,3.30,2.01
15.6860,0.08,0.12,-0.99,3.23,3.42,2.20
15.7010,0.08,0.12,-0.99,3.17,3.42,2.14
15.7060,0.08,0.12,-0.99,3.23,3.66,2.20
15.7210,0.08,0.12,-0.99,3.17,3.54,2.14
15.7450,0.08,0.12,-0.99,3.23,3.66,2.20
15.7600,0.08,0.12,-0.99,3.11,3.30,2.08
15.7770,0.08,0.12,-0.99,2.99,3.60,2.26
15.7940,0.08,0.12,-0.99,3.11,3.66,1.95
15.8090,0.08,0.11,-1.01,2.93,3.54,2.08
15.8240,0.09,0.12,-1.02,3.72,3.91,2.14
15.8400,0.08,0.12,-1.02,3.36,3.30,2.14
15.8560,0.08,0.11,-0.96,2.81,3.23,2.08
15.8720,0.08,0.12,-0.99,2.81,3.17,2.08
15.8870,0.08,0.11,-0.99,2.93,3.42,2.01
15.8940,0.09,0.12,-0.98,3.30,3.11,2.08
15.9100,0.09,0.12,-0.99,3.17,3.42,2.26
15.9320,0.08,0.12,-0.99,2.99,3.66,2.14
15.9470,0.08,0.12,-1.00,3.05,3.78,1.95
15.9630,0.08,0.11,-0.99,3.05,2.99,2.08
15.9810,0.09,0.12,-0.99,3.05,3.42,2.14
15.9980,0.09,0.12,-0.99,3.42,3.60,-0.43
16.0130,0.08,0.10,-1.00,3.30,3.97,-0.31
16.0210,0.08,0.13,-0.99,3.17,3.30,1.16
16.0300,0.06,0.14,-0.99,3.42,3.66,-0.06
16.0590,0.08,0.15,-0.99,3.23,3.48,1.89
16.0710,0.10,0.12,-0.99,3.17,3.36,1.77
16.0860,0.09,0.11,-0.99,3.11,3.72,1.71
16.1050,0.09,0.10,-1.00,3.17,3.85,1.59
16.1200,0.08,0.10,-1.00,2.99,3.78,1.59
16.1360,0.08,0.12,-1.00,2.99,3.66,1.77
16.1530,0.09,0.12,-0.99,3.05,3.23,1.77
16.1680,0.08,0.13,-0.99,3.11,3.60,1.34
16.1840,0.08,0.12,-0.99,3.36,3.60,2.14
16.1990,0.09,0.12,-0.99,3.17,3.23,3.11
16.2140,0.09,0.12,-0.99,3.11,3.85,1.40
16.2290,0.09,0.12,-0.99,3.23,3.85,0.67
16.2390,0.09,0.12,-0.99,3.23,3.78,1.04
16.2550,0.09,0.11,-0.99,3.17,3.66,1.40
16.2720,0.08,0.11,-0.99,3.05,3.66,1.59
16.2880,0.08,0.11,-1.00,3.30,3.66,1.53
16.3040,0.08,0.12,-1.00,3.11,3.54,1.89
16.3200,0.08,0.12,-0.99,3.23,3.72,2.62
16.3360,0.09,0.12,-0.99,3.36,3.30,2.44
16.3510,0.09,0.12,-1.00,3.36,3.30,2.26
16.3660,0.09,0.12,-0.99,3.36,3.36,1.65
16.3730,0.09,0.13,-0.99,3.05,3.97,1.34
16.3970,0.08,0.12,-0.99,3.05,3.78,1.59
16.4120,0.08,0.12,-0.99,3.11,3.91,1.46
16.4220,0.08,0.10,-1.00,3.30,3.48,1.16
16.4380,0.09,0.11,-0.99,3.30,3.54,0.85
16.4550,0.09,0.11,-0.99,3.05,3.48,1.16
16.4720,0.08,0.12,-0.99,2.99,3.48,1.53
16.4880,0.08,0.12,-1.00,2.81,3.48,2.14
16.5040,0.08,0.13,-0.99,2.75,3.42,3.36
16.5200,0.09,0.12,-0.99,2.93,3.42,3.11
16.5360,0.09,0.12,-0.99,3.23,3.36,1.40
16.5510,0.09,0.13,-0.99,3.05,3.72,0.92
16.5570,0.08,0.12,-0.99,3.23,3.60,-0.43
16.5720,0.08,0.11,-0.99,3.30,3.78,-0.55
16.5980,0.08,0.09,-1.00,3.36,4.03,-0.24
16.6100,0.08,0.10,-1.00,3.30,3.72,0.43
16.6260,0.08,0.11,-1.00,3.05,3.54,1.65
16.6420,0.08,0.12,-0.99,3.17,3.48,1.83
16.6580,0.09,0.12,-0.99,3.23,3.60,1.65
16.6740,0.09,0.13,-0.99,3.05,3.66,1.53
16.6890,0.09,0.12,-0.99,3.23,3.66,1.77
16.7040,0.08,0.12,-0.99,3.05,3.60,2.26
16.7190,0.08,0.12,-0.99,2.99,3.48,2.62
16.7340,0.09,0.13,-0.99,2.75,3.78,2.56
16.7500,0.08,0.11,-0.99,2.99,3.54,2.01
16.7600,0.08,0.11,-0.99,3.05,3.54,2.26
16.7750,0.08,0.12,-0.99,3.11,3.17,2.38
16.7940,0.08,0.12,-0.99,2.93,3.48,2.93
16.8110,0.08,0.12,-0.99,2.87,3.54,2.81
16.8210,0.08,0.12,-0.99,2.99,3.48,2.50
16.8300,0.08,0.11,-0.99,2.87,3.60,2.81
16.8510,0.08,0.11,-0.99,2.93,3.05,2.75
16.8670,0.09,0.10,-1.00,3.17,3.23,2.62
16.8850,0.08,0.12,-0.99,3.17,3.23,2.20
16.9000,0.08,0.12,-0.99,3.48,3.23,1.83
16.9180,0.08,0.11,-0.99,3.30,3.48,1.95
16.9340,0.08,0.12,-0.99,3.11,3.17,2.69
16.9510,0.08,0.12,-0.99,3.17,3.54,3.23
16.9660,0.08,0.12,-0.99,3.11,3.48,3.54
16.9670,0.09,0.11,-0.99,2.75,3.48,2.99
16.9850,0.09,0.12,-0.99,3.17,3.36,1.95
17.0010,0.08,0.11,-0.99,3.23,3.66,1.40
17.0210,0.08,0.12,-0.99,3.23,3.30,1.22
17.0340,0.08,0.11,-0.99,3.17,3.85,0.92
17.0500,0.09,0.10,-1.00,3.11,4.03,1.22
17.0650,0.08,0.11,-0.99,3.11,3.48,2.01
17.0880,0.08,0.12,-0.99,3.05,3.48,2.14
17.1030,0.08,0.13,-0.99,3.17,3.66,2.26
17.1190,0.08,0.13,-0.99,2.99,3.78,2.01
17.1340,0.08,0.12,-0.99,2.93,3.72,1.46
17.1490,0.08,0.13,-0.99,3.11,3.36,2.50
17.1650,0.09,0.12,-0.99,2.99,3.23,4.03
17.1720,0.09,0.11,-0.99,2.99,2.93,4.15
17.1960,0.09,0.10,-1.00,3.30,3.60,2.20
17.2060,0.09,0.10,-1.00,3.11,3.48,1.95
17.2210,0.09,0.11,-0.99,3.11,3.78,1.83
17.2430,0.08,0.11,-0.99,3.30,3.17,1.59
17.2580,0.08,0.11,-0.99,3.17,3.66,1.65
17.2730,0.08,0.12,-0.99,3.17,3.60,1.65
17.2890,0.09,0.12,-0.99,2.99,3.78,1.71
17.3030,0.08,0.11,-0.99,3.11,3.54,1.59
17.3110,0.08,0.11,-0.99,3.23,3.60,1.77
17.3330,0.08,0.12,-0.99,3.11,3.48,1.95
17.3450,0.08,0.13,-0.99,3.11,3.72,1.83
17.3610,0.08,0.13,-0.99,3.11,3.72,1.46
17.3790,0.09,0.12,-0.99,3.05,3.42,1.71
17.3940,0.09,0.11,-0.99,3.05,3.30,2.08
17.4110,0.08,0.11,-0.99,3.36,3.48,2.20
17.4270,0.08,0.11,-0.99,3.05,3.66,2.69
17.4420,0.08,0.11,-0.99,3.11,3.42,2.62
17.4570,0.09,0.12,-0.99,3.05,3.78,2.32
17.4720,0.08,0.12,-0.99,3.05,3.60,2.93
17.4790,0.09,0.12,-0.99,3.23,2.87,3.36
17.4940,0.08,0.12,-0.99,3.30,3.30,2.69
17.5150,0.09,0.12,-0.99,3.30,3.11,2.26
17.5320,0.09,0.11,-1.00,3.17,3.54,2.93
17.5480,0.08,0.12,-0.99,3.17,3.54,2.38
17.5640,0.08,0.12,-0.99,3.30,3.36,1.95
17.5790,0.08,0.11,-1.00,3.23,3.11,2.50
17.5950,0.09,0.12,-0.99,3.30,3.17,3.17
17.6110,0.08,0.11,-0.99,3.30,3.54,1.95
17.6260,0.08,0.11,-1.00,3.11,3.60,1.83
17.6410,0.09,0.12,-0.99,2.99,3.42,1.77
17.6560,0.09,0.13,-0.99,2.99,3.66,1.65
17.6660,0.09,0.13,-0.99,3.30,3.66,1.22
17.6820,0.07,0.11,-1.00,3.11,3.54,2.32
17.7010,0.09,0.10,-1.00,2.93,3.48,3.30
17.7160,0.08,0.11,-0.99,3.17,3.42,2.14
17.7310,0.08,0.12,-0.99,3.23,3.36,2.08
17.7460,0.08,0.12,-0.99,3.05,3.54,2.14
17.7560,0.09,0.13,-0.99,3.17,3.85,1.89
17.7740,0.09,0.13,-0.99,3.17,3.48,1.77
17.7900,0.08,0.12,-0.99,3.17,3.48,2.08
17.8060,0.08,0.10,-1.00,2.99,3.23,2.81
17.8220,0.08,0.10,-1.00,2.93,3.78,2.26
17.8370,0.09,0.12,-0.99,3.11,3.54,2.26
17.8520,0.08,0.11,-0.99,3.23,3.54,2.14
17.8690,0.08,0.12,-0.99,3.11,3.17,2.08
17.8860,0.08,0.12,-0.99,3.23,3.11,2.20
17.9010,0.08,0.12,-0.99,3.11,3.42,2.38
17.9170,0.08,0.12,-0.99,3.11,3.66,2.44
17.9330,0.08,0.12,-0.99,3.17,3.42,2.44
17.9480,0.09,0.13,-0.99,2.99,3.54,2.62
17.9580,0.09,0.12,-0.99,3.23,3.54,1.95
17.9790,0.08,0.11,-1.00,3.17,3.54,1.77
17.9900,0.08,0.11,-0.99,3.17,3.23,2.62
18.0070,0.09,0.12,-0.99,3.17,3.36,2.69
18.0230,0.08,0.11,-0.99,3.23,3.36,1.89
18.0390,0.08,0.11,-0.99,2.99,3.30,2.38
18.0550,0.08,0.12,-0.99,3.05,3.36,2.38
18.0710,0.08,0.12,-0.99,3.30,3.11,2.38
18.0860,0.08,0.11,-0.99,3.36,3.42,2.87
18.1010,0.09,0.11,-1.00,3.05,3.17,3.05
18.1070,0.08,0.11,-0.99,3.23,3.42,2.44
18.1230,0.08,0.12,-0.99,3.11,3.23,2.08
18.1390,0.08,0.12,-0.99,2.99,3.17,1.95
18.1610,0.08,0.12,-0.99,2.99,3.23,2.01
18.1770,0.09,0.12,-0.99,2.81,3.54,2.08
18.1920,0.08,0.12,-0.99,3.11,3.54,1.77
18.2070,0.08,0.11,-0.99,3.05,3.48,1.83
18.2210,0.08,0.11,-0.99,3.11,3.48,2.62
18.2370,0.09,0.11,-0.99,3.17,3.17,2.38
18.2520,0.08,0.11,-0.99,3.23,3.48,1.77
18.2620,0.09,0.12,-0.99,3.17,3.66,2.01
18.2770,0.08,0.12,-0.99,3.30,3.17,1.89
18.2960,0.08,0.13,-0.99,3.11,3.42,2.20
18.3110,0.08,0.13,-0.99,3.05,3.17,2.62
18.3270,0.09,0.10,-1.00,3.30,3.30,2.87
18.3420,0.08,0.11,-0.99,3.17,3.30,2.14
18.3570,0.08,0.12,-0.99,2.87,3.78,1.95
18.3660,0.08,0.12,-0.99,3.05,3.30,2.14
18.3820,0.08,0.12,-0.99,3.23,3.30,2.01
18.4010,0.08,0.12,-0.99,3.11,3.17,2.01
18.4170,0.08,0.12,-0.99,3.11,3.36,1.89
18.4220,0.08,0.12,-0.99,3.17,3.60,1.71
18.4380,0.09,0.12,-0.99,3.23,3.72,1.59
18.4540,0.08,0.12,-0.99,3.17,3.66,1.53
18.4770,0.09,0.12,-0.99,3.11,3.78,1.59
18.4910,0.09,0.13,-0.99,3.23,3.72,1.34
18.5070,0.09,0.12,-0.99,3.30,3.48,1.40
18.5230,0.07,0.10,-1.00,3.36,3.78,1.46
18.5260,0.08,0.12,-0.99,3.17,3.42,2.01
18.5420,0.08,0.12,-0.99,3.23,3.17,2.14
18.5640,0.09,0.12,-0.99,3.11,3.66,2.01
18.5810,0.09,0.12,-0.99,3.11,3.66,1.65
18.5970,0.09,0.12,-0.99,3.05,3.78,1.65
18.6130,0.09,0.12,-0.99,2.99,3.54,1.16
18.6290,0.08,0.11,-0.99,3.11,3.60,0.98
18.6450,0.08,0.11,-0.99,3.17,3.60,1.53
18.6600,0.09,0.12,-0.99,3.23,3.48,1.89
18.6760,0.08,0.11,-0.99,3.23,3.91,1.77
18.6810,0.08,0.11,-0.99,3.05,3.78,1.89
18.6960,0.08,0.12,-0.99,3.05,3.30,2.08
18.7180,0.09,0.13,-0.99,3.17,3.23,1.89
18.7350,0.08,0.11,-1.00,3.23,3.66,1.71
18.7360,0.08,0.11,-0.99,3.30,3.30,1.83
18.7670,0.09,0.12,-0.99,3.23,3.66,1.83
18.7820,0.09,0.13,-0.99,3.36,3.30,1.28
18.7980,0.08,0.10,-1.00,3.23,3.78,1.22
18.8020,0.08,0.10,-1.00,3.17,3.48,1.83
18.8220,0.09,0.12,-0.99,3.36,3.30,1.77
18.8440,0.09,0.12,-0.99,3.11,3.54,1.59
18.8560,0.09,0.12,-0.99,3.30,3.42,1.04
18.8730,0.08,0.11,-0.99,3.30,3.48,1.10
18.8890,0.08,0.12,-0.99,3.05,3.54,1.89
18.9050,0.08,0.12,-0.99,3.17,3.42,2.01
18.9200,0.08,0.12,-0.99,2.93,3.48,2.08
18.9370,0.08,0.12,-0.99,2.87,3.66,2.20
18.9520,0.08,0.12,-1.00,2.87,3.30,2.01
18.9680,0.08,0.12,-0.99,2.87,3.30,2.14
18.9830,0.09,0.12,-0.99,3.11,3.60,2.38
18.9990,0.08,0.11,-0.99,3.11,3.54,2.44
19.0130,0.08,0.11,-1.00,2.99,3.42,2.93
19.0280,0.08,0.11,-0.99,3.23,3.23,2.20
19.0400,0.08,0.12,-0.99,3.11,3.30,2.32
19.0550,0.08,0.12,-0.99,2.99,3.72,1.95
19.0760,0.09,0.12,-0.99,3.30,3.48,2.01
19.0780,0.08,0.12,-0.99,3.30,3.42,1.65
19.1060,0.08,0.11,-0.99,3.11,3.54,1.89
19.1230,0.08,0.12,-0.99,3.05,3.78,2.08
19.1390,0.09,0.12,-0.99,3.11,3.54,1.89
19.1530,0.09,0.12,-0.99,3.11,3.54,2.01
19.1680,0.08,0.11,-0.99,3.17,3.42,2.32
19.1830,0.08,0.11,-1.00,3.30,3.36,2.20
19.1950,0.08,0.12,-0.99,2.99,3.66,2.32
19.2110,0.08,0.12,-0.99,2.99,3.60,2.20
19.2280,0.09,0.12,-0.99,2.93,3.66,2.08
19.2440,0.08,0.12,-0.99,3.05,3.42,2.08
19.2610,0.08,0.11,-0.99,3.23,3.30,2.01
19.2760,0.09,0.12,-0.99,3.17,3.60,2.01
19.2900,0.09,0.12,-0.99,2.99,3.48,2.08
19.3050,0.08,0.12,-0.99,3.17,3.42,2.01
19.3200,0.08,0.11,-0.99,3.05,3.30,2.01
19.3370,0.08,0.11,-0.99,3.05,3.48,2.01
19.3450,0.08,0.11,-0.99,2.99,3.60,1.83
19.3600,0.08,0.11,-0.99,3.17,3.05,1.46
19.3820,0.08,0.12,-0.99,3.30,3.36,1.04
19.3990,0.08,0.12,-0.99,3.36,3.36,0.85
19.4140,0.09,0.12,-0.99,3.36,3.36,1.10
19.4290,0.08,0.12,-0.99,3.42,3.42,1.10
19.4450,0.08,0.10,-1.00,3.17,3.78,1.59
19.4490,0.08,0.12,-0.99,3.11,3.36,2.08
19.4650,0.08,0.12,-0.99,3.05,3.42,2.14
19.4890,0.08,0.12,-0.99,3.05,3.42,2.01
19.5060,0.08,0.12,-0.99,3.05,3.60,2.20
19.5210,0.08,0.13,-0.99,2.69,3.66,2.81
19.5370,0.08,0.14,-0.99,2.99,3.54,2.50
19.5390,0.08,0.12,-0.99,3.05,3.42,2.62
19.5670,0.09,0.10,-1.00,3.17,2.81,3.23
19.5830,0.09,0.09,-1.00,3.17,3.54,2.99
19.5880,0.08,0.10,-1.00,3.23,3.36,2.14
19.6040,0.08,0.11,-0.99,3.23,3.42,2.14
19.6280,0.08,0.12,-0.99,3.42,3.30,2.14
19.6440,0.08,0.12,-0.99,3.36,3.72,2.01
19.6590,0.08,0.12,-0.99,3.17,3.30,2.14
19.6760,0.08,0.12,-0.99,3.30,3.42,2.32
19.6910,0.08,0.12,-0.99,2.99,3.42,2.62
19.7060,0.08,0.12,-0.99,2.93,3.23,3.60
19.7210,0.09,0.12,-0.99,2.81,2.81,4.33
19.7370,0.08,0.11,-1.00,3.23,3.30,2.32
19.7530,0.08,0.12,-0.99,3.05,3.97,2.14
19.7670,0.08,0.11,-0.99,2.99,3.48,2.01
19.7820,0.09,0.11,-0.99,3.30,3.23,2.14
19.7970,0.08,0.11,-0.99,2.87,3.36,2.08
19.8100,0.08,0.11,-0.99,3.11,3.60,2.01
19.8270,0.08,0.11,-0.99,3.11,3.72,1.95
19.8430,0.08,0.12,-0.99,3.30,3.48,1.71
19.8590,0.08,0.12,-0.99,3.36,3.23,1.59
19.8750,0.08,0.12,-0.99,2.99,3.72,1.83
19.8900,0.08,0.12,-0.99,3.11,3.60,2.08
19.9060,0.08,0.12,-0.99,2.99,3.42,2.14
19.9210,0.09,0.12,-0.99,3.17,3.54,1.89
19.9380,0.08,0.12,-0.99,3.17,3.60,1.89
19.9540,0.09,0.12,-0.99,3.17,3.66,1.83
19.9690,0.09,0.12,-0.99,3.11,3.60,1.59
19.9840,0.09,0.12,-0.99,3.17,3.60,1.34
19.9990,0.09,0.13,-0.99,3.30,3.91,1.04
20.0100,0.08,0.12,-0.99,3.11,3.60,0.73
20.0270,0.07,0.10,-0.99,3.05,3.78,2.38
20.0430,0.09,0.10,-0.99,2.81,3.48,3.78
20.0600,0.08,0.10,-1.00,3.17,3.48,1.71
20.0750,0.08,0.11,-0.99,3.05,3.54,1.89
20.0900,0.08,0.12,-0.99,3.05,3.48,1.89
20.1060,0.08,0.12,-0.99,3.23,3.60,2.01
20.1100,0.08,0.12,-0.99,2.99,3.48,1.83
20.1260,0.09,0.12,-0.99,3.05,3.60,1.71
20.1490,0.09,0.13,-0.99,3.30,3.54,1.89
20.1650,0.08,0.12,-0.99,3.17,3.36,2.08
20.1820,0.09,0.12,-0.99,2.87,3.36,3.11
20.1980,0.09,0.12,-0.99,3.05,2.99,2.56
20.2140,0.09,0.12,-0.99,3.11,3.60,2.50
20.2310,0.08,0.11,-0.99,2.93,3.60,2.75
20.2470,0.08,0.10,-1.00,3.05,3.23,3.23
20.2630,0.08,0.10,-1.00,2.99,3.36,3.54
20.2780,0.08,0.11,-0.99,3.05,3.30,2.56
20.2940,0.08,0.12,-0.99,3.17,3.48,2.14
20.3100,0.08,0.12,-0.99,3.11,3.54,2.20
20.3250,0.09,0.12,-0.99,3.11,3.60,1.95
20.3390,0.09,0.12,-0.99,2.99,3.85,2.14
20.3540,0.08,0.12,-0.99,2.99,3.42,2.26
20.3660,0.08,0.12,-0.99,2.69,3.85,2.93
20.3820,0.08,0.11,-0.99,3.23,3.48,1.65
20.3990,0.08,0.11,-1.00,3.17,3.54,1.71
20.4160,0.08,0.11,-1.00,3.17,3.42,1.53
20.4320,0.08,0.11,-0.99,3.11,3.54,1.71
20.4480,0.08,0.12,-0.99,3.11,3.85,1.95
20.4630,0.08,0.13,-0.99,3.11,3.54,1.59
20.4650,0.08,0.12,-0.99,3.11,3.66,2.50
20.4810,0.09,0.11,-0.99,3.17,3.36,2.93
20.5060,0.08,0.10,-1.00,3.30,3.17,3.36
20.5230,0.09,0.11,-0.99,3.17,3.30,2.99
20.5380,0.08,0.12,-0.99,3.05,3.72,2.20
20.5550,0.08,0.12,-0.99,3.11,3.30,2.20
20.5700,0.08,0.12,-0.99,2.99,3.72,2.38
20.5870,0.08,0.13,-0.99,2.93,3.72,3.54
20.6030,0.09,0.13,-0.99,2.93,3.23,5.13
20.6180,0.09,0.13,-0.99,2.93,3.85,2.69
20.6330,0.08,0.11,-1.00,2.75,3.66,2.38
20.6480,0.08,0.11,-0.99,2.81,3.11,3.91
20.6630,0.09,0.12,-0.99,2.99,3.48,3.78
20.6730,0.08,0.11,-1.00,3.17,3.72,2.01
20.6890,0.08,0.11,-0.99,3.11,3.48,2.93
20.7060,0.09,0.10,-0.99,2.99,3.23,2.38
20.7230,0.09,0.11,-0.99,3.05,3.66,2.14
20.7380,0.08,0.12,-0.99,2.99,3.42,1.95
20.7530,0.08,0.12,-0.99,3.05,3.30,2.01
20.7700,0.08,0.12,-0.99,2.87,3.48,2.32
20.7850,0.09,0.13,-0.99,3.05,3.48,2.20
20.8000,0.08,0.12,-0.99,2.93,3.85,2.20
20.8150,0.08,0.11,-0.99,2.87,3.36,2.50
20.8310,0.08,0.12,-0.99,2.99,3.36,2.75
20.8450,0.09,0.12,-0.99,3.30,3.60,2.50
20.8560,0.08,0.11,-0.99,3.42,3.48,2.20
20.8730,0.08,0.11,-0.99,3.11,3.30,2.32
20.8890,0.08,0.11,-0.99,2.87,3.36,2.69
20.9050,0.09,0.12,-0.99,3.30,3.60,2.69
20.9220,0.09,0.13,-0.99,3.17,3.23,2.14
20.9370,0.08,0.12,-1.00,3.17,3.36,2.62
20.9530,0.08,0.11,-0.99,2.99,3.48,2.93
20.9680,0.08,0.13,-0.99,2.81,3.60,2.93
20.9840,0.09,0.13,-0.99,2.93,3.48,3.23
21.0000,0.08,0.10,-1.00,3.05,3.36,3.11
21.0060,0.08,0.10,-1.00,2.99,3.60,3.05
21.0240,0.08,0.11,-0.99,3.11,3.17,2.69
21.0450,0.08,0.11,-0.99,3.17,3.66,2.14
21.0610,0.08,0.12,-0.99,3.11,3.78,2.26
21.0770,0.09,0.12,-0.99,3.30,3.36,2.08
21.0950,0.08,0.11,-1.00,3.54,3.60,1.40
21.1110,0.08,0.11,-0.99,3.11,3.54,1.77
21.1260,0.09,0.13,-0.99,2.99,3.60,1.89
21.1420,0.09,0.13,-0.99,3.11,3.72,2.01
21.1570,0.09,0.12,-0.99,3.05,3.30,2.38
21.1730,0.08,0.10,-1.00,3.23,3.48,2.32
21.1890,0.08,0.11,-1.00,2.99,3.11,2.38
21.2050,0.08,0.12,-0.99,2.87,3.60,2.44
21.2110,0.08,0.12,-0.99,3.23,3.23,2.50
21.2270,0.08,0.11,-0.99,3.11,3.23,2.75
21.2490,0.08,0.10,-1.00,2.99,3.36,2.32
21.2660,0.08,0.11,-0.99,3.05,3.48,2.32
21.2820,0.09,0.12,-0.99,2.81,3.36,2.20
21.2980,0.09,0.13,-0.99,2.93,3.66,2.14
21.3150,0.08,0.11,-1.00,3.17,3.05,2.44
21.3310,0.08,0.10,-1.00,3.11,3.05,2.75
21.3460,0.08,0.12,-0.99,3.05,3.23,2.32
21.3480,0.08,0.12,-0.99,2.99,3.23,2.44
21.3770,0.09,0.14,-0.99,2.81,3.11,3.60
21.3930,0.09,0.14,-0.99,2.87,3.36,3.30
21.4070,0.08,0.12,-0.99,2.93,3.48,3.30
21.4190,0.08,0.11,-1.00,3.05,2.87,3.78
21.4370,0.09,0.11,-0.99,2.93,3.23,3.11
21.4530,0.08,0.11,-0.99,2.93,3.11,2.32
21.4690,0.08,0.12,-0.99,2.87,3.30,3.54
21.4850,0.09,0.11,-0.99,2.87,3.30,2.44
21.5010,0.08,0.10,-1.00,3.11,3.17,2.69
21.5170,0.08,0.11,-1.00,3.05,3.60,2.50
21.5250,0.08,0.12,-1.00,2.69,3.48,2.50
21.5350,0.08,0.11,-0.99,2.32,3.23,2.50
21.5630,0.08,0.12,-0.99,3.66,3.36,2.50
21.5750,0.09,0.12,-1.00,3.78,3.23,2.26
21.5920,0.09,0.12,-0.99,3.30,3.54,2.08
21.6080,0.08,0.12,-0.99,2.99,3.54,2.38
21.6230,0.08,0.12,-0.99,3.05,3.48,2.99
21.6390,0.08,0.14,-0.99,3.30,3.11,3.17
21.6460,0.08,0.10,-1.00,2.93,3.48,3.23
21.6620,0.09,0.11,-0.99,2.81,3.42,3.72
21.6840,0.09,0.12,-0.99,3.05,3.30,2.99
21.6960,0.08,0.11,-0.99,3.17,3.60,2.08
21.7120,0.09,0.10,-1.00,3.11,3.30,3.30
21.7280,0.09,0.11,-0.99,3.11,3.36,2.26
21.7470,0.08,0.12,-0.99,3.30,3.48,2.32
21.7500,0.08,0.12,-0.99,3.23,3.30,2.20
21.7780,0.08,0.12,-0.99,2.99,3.66,2.56
21.7930,0.08,0.12,-0.99,2.93,3.48,3.23
21.8070,0.09,0.12,-0.99,2.81,3.36,3.42
21.8220,0.09,0.13,-0.99,3.11,3.23,2.26
21.8320,0.09,0.12,-0.99,3.05,3.36,1.46
21.8500,0.08,0.11,-0.99,3.30,3.42,1.71
21.8660,0.09,0.13,-1.03,3.97,3.05,3.60
21.8830,0.09,0.11,-1.00,2.99,3.42,3.23
21.8990,0.07,0.10,-0.99,2.93,3.66,1.46
21.9010,0.08,0.12,-0.99,2.87,3.54,2.44
21.9250,0.09,0.13,-0.99,2.81,3.42,2.99
21.9340,0.09,0.12,-0.98,3.48,3.11,2.93
21.9500,0.08,0.10,-1.00,3.17,3.72,2.69
21.9790,0.08,0.12,-1.00,2.99,3.48,2.20
21.9840,0.08,0.12,-0.99,3.05,3.05,2.20
22.0000,0.09,0.12,-0.99,3.23,3.60,2.69
22.0250,0.08,0.13,-0.99,2.93,3.30,3.54
22.0340,0.09,0.12,-1.00,3.11,3.60,2.32
22.0500,0.09,0.12,-0.99,2.99,3.48,2.01
22.0720,0.08,0.11,-1.00,3.23,3.17,2.62
22.0890,0.09,0.11,-0.99,3.05,2.99,3.42
22.0900,0.08,0.13,-0.99,3.05,3.23,3.30
22.1210,0.09,0.11,-0.99,3.30,3.11,4.33
22.1370,0.09,0.11,-0.99,3.23,3.11,4.15
22.1530,0.09,0.12,-0.99,3.30,3.11,3.72
22.1690,0.08,0.11,-0.99,3.05,3.48,2.50
22.1850,0.08,0.12,-0.99,2.93,3.54,2.99
22.2000,0.08,0.13,-0.99,2.87,3.54,3.66
22.2150,0.09,0.12,-0.99,3.17,3.23,3.17
22.2260,0.09,0.11,-0.99,3.17,3.36,2.08
22.2390,0.08,0.11,-1.00,3.17,3.60,2.14
22.2610,0.08,0.11,-0.99,3.30,3.72,1.95
22.2770,0.08,0.11,-0.99,3.11,3.36,1.83
22.2930,0.08,0.12,-0.99,3.17,3.54,1.77
22.3070,0.08,0.11,-0.99,3.30,3.54,1.83
22.3230,0.09,0.11,-0.99,3.23,3.48,2.26
22.3270,0.08,0.12,-0.99,3.23,3.42,2.08
22.3430,0.08,0.12,-0.99,3.17,3.36,2.08
22.3690,0.08,0.12,-0.99,3.05,3.36,2.08
22.3810,0.09,0.12,-0.99,3.17,3.48,2.01
22.3970,0.09,0.14,-0.99,2.99,3.48,1.89
22.4140,0.08,0.12,-0.99,3.23,3.78,2.38
22.4300,0.08,0.09,-1.00,3.11,3.60,3.36
22.4470,0.08,0.11,-1.00,3.11,3.11,2.32
22.4620,0.09,0.12,-0.99,3.17,3.42,2.56
22.4790,0.09,0.12,-0.99,3.17,2.99,2.50
22.4950,0.08,0.11,-0.99,3.17,3.11,2.44
22.5090,0.08,0.11,-0.99,3.17,3.42,2.69
22.5250,0.08,0.11,-1.00,3.17,3.54,2.69
22.5400,0.08,0.11,-1.00,3.23,3.60,2.38
22.5560,0.09,0.12,-0.99,3.17,3.66,2.20
22.5710,0.09,0.13,-0.99,3.05,3.54,2.62
22.5800,0.09,0.13,-0.99,2.75,3.66,5.07
22.5960,0.09,0.12,-0.99,2.50,2.93,5.68
22.6160,0.09,0.12,-0.99,2.87,3.17,3.36
22.6310,0.08,0.10,-1.00,3.17,3.60,1.83
22.6470,0.09,0.11,-0.99,3.23,3.72,2.38
22.6630,0.08,0.11,-0.99,3.05,3.42,1.95
22.6790,0.08,0.11,-1.00,2.99,3.42,2.62
22.6930,0.08,0.11,-1.00,2.87,3.54,3.30
22.7080,0.09,0.11,-0.99,3.36,3.54,2.62
22.7230,0.08,0.12,-1.00,3.17,3.42,2.26
22.7340,0.09,0.12,-0.99,3.05,3.30,2.38
22.7510,0.09,0.12,-0.99,3.11,3.23,2.14
22.7680,0.09,0.13,-0.99,2.99,3.36,1.95
22.7840,0.08,0.13,-0.99,3.23,3.48,2.44
22.8010,0.10,0.12,-0.99,3.05,3.17,4.52
22.8160,0.07,0.09,-1.00,3.36,3.42,2.20
22.8310,0.08,0.09,-1.00,3.17,3.30,3.05
22.8340,0.09,0.12,-0.99,3.23,3.30,3.17
22.8500,0.08,0.12,-0.99,3.23,3.23,3.36
22.8710,0.09,0.12,-0.99,2.87,3.05,4.27
22.8890,0.08,0.11,-1.00,2.75,3.17,3.36
22.9060,0.08,0.11,-0.99,2.93,3.48,3.42
22.9210,0.08,0.11,-0.99,2.62,3.72,3.05
22.9360,0.08,0.11,-1.00,3.23,3.17,2.32
22.9530,0.08,0.12,-0.99,3.30,3.48,2.08
22.9680,0.09,0.12,-0.99,3.17,3.42,2.38
22.9830,0.09,0.13,-0.99,3.17,3.60,2.81
22.9980,0.09,0.12,-0.99,3.05,3.42,2.99
23.0130,0.08,0.12,-1.00,2.93,3.23,2.62
23.0270,0.09,0.12,-0.99,2.87,3.42,2.93
23.0380,0.09,0.12,-0.99,2.93,3.78,2.56
23.0590,0.08,0.12,-0.99,2.99,3.54,2.75
23.0750,0.09,0.13,-0.99,3.11,2.93,5.19
23.0890,0.09,0.12,-0.99,2.62,3.05,5.92
23.1050,0.07,0.09,-1.00,3.11,2.99,3.97
23.1200,0.07,0.10,-1.00,2.99,3.23,3.23
23.1350,0.08,0.11,-0.99,2.69,3.42,2.62
23.1500,0.09,0.12,-0.99,3.17,3.23,2.56
23.1610,0.08,0.11,-0.99,3.17,3.48,2.50
23.1780,0.08,0.12,-0.99,3.11,3.42,2.26
23.1950,0.08,0.12,-0.99,3.23,3.42,1.95
23.2110,0.09,0.12,-0.99,2.87,3.23,2.20
23.2270,0.09,0.12,-0.99,2.87,2.99,2.32
23.2440,0.09,0.12,-0.99,2.81,3.42,2.38
23.2590,0.08,0.11,-1.00,2.75,3.54,2.38
23.2740,0.08,0.11,-0.99,2.87,3.36,2.32
23.2900,0.08,0.12,-0.99,3.78,3.17,2.14
23.3050,0.09,0.12,-0.99,3.11,3.42,2.44
23.3210,0.08,0.12,-0.99,3.11,3.30,2.62
23.3360,0.09,0.13,-0.99,3.05,3.36,3.91
23.3510,0.09,0.13,-0.99,2.93,3.11,4.88
23.3660,0.08,0.12,-0.99,2.62,2.81,6.96
23.3780,0.08,0.10,-0.99,2.87,2.99,5.43
23.3950,0.08,0.10,-1.00,2.81,3.48,4.09
23.4110,0.09,0.10,-1.00,2.69,3.30,2.62
23.4280,0.08,0.11,-0.99,2.87,3.78,2.14
23.4440,0.08,0.12,-1.00,3.11,3.48,2.38
23.4610,0.09,0.12,-1.00,2.87,3.42,2.56
23.4770,0.08,0.13,-0.99,2.20,3.60,2.81
23.4930,0.08,0.12,-0.99,2.93,3.05,3.05
23.5090,0.08,0.11,-0.99,2.62,3.36,2.87
23.5230,0.08,0.11,-1.00,2.93,3.42,1.65
23.5290,0.09,0.12,-1.00,2.38,3.97,2.26
23.5450,0.08,0.12,-0.99,1.77,3.66,2.32
23.5690,0.08,0.13,-0.99,1.83,3.11,2.75
23.5840,0.09,0.13,-0.99,3.91,2.87,3.48
23.6000,0.09,0.11,-1.00,4.82,3.11,3.54
23.6170,0.09,0.12,-1.00,2.32,2.87,3.85
23.6330,0.09,0.12,-1.00,1.83,3.60,3.36
23.6490,0.08,0.11,-0.99,1.89,3.60,2.87
23.6510,0.09,0.11,-0.99,2.20,3.72,3.54
23.6810,0.10,0.11,-0.99,2.75,3.30,1.77
23.6840,0.08,0.11,-1.00,4.15,3.23,1.71
23.6990,0.08,0.13,-0.99,3.23,3.36,3.30
23.7270,0.08,0.11,-1.00,2.81,3.66,2.69
23.7370,0.09,0.11,-0.99,2.56,3.85,2.69
23.7530,0.08,0.11,-1.00,3.42,3.42,2.08
23.7740,0.08,0.12,-0.99,3.05,3.42,2.32
23.7900,0.08,0.12,-0.99,3.17,3.30,2.14
23.8060,0.08,0.13,-1.00,2.62,3.66,2.81
23.8220,0.09,0.13,-0.98,0.98,3.17,4.33
23.8360,0.09,0.12,-0.99,3.97,3.30,2.20
23.8520,0.08,0.10,-1.00,3.48,3.42,2.62
23.8680,0.07,0.10,-0.99,2.56,3.05,3.97
23.8840,0.08,0.12,-0.99,2.81,2.75,5.19
23.8990,0.10,0.11,-0.99,3.05,2.99,4.39
23.9140,0.09,0.11,-0.99,3.48,3.05,2.99
23.9280,0.08,0.10,-1.00,3.05,3.66,2.87
23.9410,0.09,0.11,-1.00,2.62,3.48,2.81
23.9580,0.08,0.12,-0.99,2.75,3.54,2.62
23.9740,0.08,0.12,-0.99,2.87,3.30,2.87
23.9900,0.08,0.13,-1.00,2.93,2.99,3.30
24.0060,0.10,0.14,-0.99,0.73,3.17,4.64
24.0220,0.09,0.13,-0.98,2.62,3.30,2.87
24.0280,0.08,0.10,-1.00,3.97,3.23,1.95
24.0400,0.08,0.09,-1.00,3.11,3.60,1.71
24.0680,0.08,0.11,-0.99,2.44,3.72,2.62
24.0790,0.09,0.11,-0.99,2.56,3.66,2.75
24.0950,0.08,0.10,-0.99,3.23,3.60,2.75
24.1120,0.08,0.10,-1.00,4.46,3.36,2.26
24.1280,0.09,0.12,-0.99,4.15,3.42,2.14
24.1450,0.09,0.12,-1.00,4.09,3.36,2.01
24.1610,0.08,0.11,-0.99,2.69,3.78,1.95
24.1770,0.08,0.11,-0.99,2.69,3.54,1.89
24.1930,0.09,0.11,-1.00,2.81,3.48,1.89
24.2080,0.09,0.12,-0.99,2.44,3.60,1.77
24.2230,0.09,0.12,-0.99,3.23,3.54,2.08
24.2390,0.08,0.12,-0.99,3.17,3.60,2.75
24.2550,0.08,0.12,-0.99,3.30,3.17,3.11
24.2710,0.09,0.11,-0.99,3.36,3.30,3.66
24.2780,0.08,0.10,-1.00,3.85,3.42,1.89
24.3010,0.08,0.10,-0.99,3.66,3.42,1.95
24.3120,0.08,0.12,-0.99,3.78,3.48,2.62
24.3290,0.10,0.16,-1.01,7.26,2.32,4.15
24.3450,0.08,0.09,-0.98,0.61,3.97,1.71
24.3620,0.07,0.08,-1.02,2.75,3.60,2.44
24.3780,0.09,0.11,-0.99,2.44,3.42,1.89
24.3940,0.09,0.12,-0.99,3.05,3.36,1.89
24.4110,0.08,0.11,-0.99,3.17,3.48,1.83
24.4270,0.07,0.09,-0.99,3.54,3.54,1.53
24.4430,0.08,0.12,-1.00,4.52,3.36,2.01
24.4570,0.08,0.12,-1.00,4.03,3.05,2.01
24.4730,0.08,0.11,-0.99,3.30,3.36,2.14
24.4890,0.08,0.11,-0.99,4.09,3.11,2.01
24.5050,0.08,0.11,-0.99,3.78,3.42,2.08
24.5210,0.09,0.12,-0.99,3.36,3.30,2.01
24.5360,0.08,0.12,-0.99,3.30,3.54,2.01
24.5450,0.09,0.12,-0.99,3.36,3.17,2.01
24.5670,0.09,0.12,-0.99,3.30,3.48,1.95
24.5790,0.09,0.11,-0.99,3.36,3.66,1.89
24.5950,0.09,0.11,-0.99,3.48,3.54,1.34
24.6120,0.08,0.12,-0.99,3.78,3.60,0.49
24.6280,0.09,0.11,-0.99,3.60,3.66,0.55
24.6450,0.09,0.12,-0.99,4.09,4.03,-1.28
24.6620,0.08,0.12,-0.99,3.66,4.03,-0.92
24.6770,0.08,0.12,-0.99,4.03,3.78,0.24
24.6940,0.09,0.11,-1.00,3.54,3.30,1.16
24.7100,0.08,0.13,-0.99,3.85,3.91,-0.49
24.7260,0.08,0.12,-0.99,3.42,3.48,0.92
24.7400,0.08,0.12,-0.99,3.23,3.48,2.20
24.7550,0.09,0.12,-0.99,2.93,3.66,2.08
24.7620,0.08,0.12,-0.99,2.81,3.60,2.14
24.7780,0.08,0.12,-0.99,2.93,3.42,2.01
24.7990,0.09,0.12,-0.99,3.05,3.60,2.14
24.8170,0.09,0.12,-0.99,2.99,3.48,2.14
24.8330,0.09,0.12,-0.99,3.36,3.48,2.08
24.8500,0.09,0.12,-0.99,3.30,3.54,2.08
24.8510,0.08,0.12,-1.00,2.99,3.42,2.14
24.8660,0.08,0.12,-0.99,3.05,3.85,2.01
24.8830,0.08,0.12,-0.99,3.05,3.66,2.20
24.9000,0.09,0.12,-0.99,2.93,3.54,2.08
24.9290,0.09,0.12,-0.99,2.99,3.48,2.14
24.9450,0.08,0.12,-0.99,3.11,3.54,2.01
24.9610,0.08,0.12,-0.99,3.11,3.36,2.14
24.9780,0.08,0.12,-0.99,2.99,3.30,2.08
24.9850,0.09,0.12,-0.99,3.23,3.36,2.08
25.0010,0.09,0.12,-0.99,3.11,3.54,2.01
25.0230,0.09,0.12,-0.99,3.05,3.72,2.26
25.0380,0.08,0.12,-0.99,3.42,3.48,2.01
25.0550,0.08,0.12,-1.00,3.11,3.23,2.01
25.0710,0.08,0.12,-0.99,2.93,3.91,2.08
25.0860,0.09,0.12,-0.99,3.05,3.48,2.14
25.0900,0.09,0.12,-0.99,3.05,3.66,2.14
25.1060,0.09,0.12,-0.99,3.11,3.72,2.08
25.1290,0.08,0.12,-0.99,3.30,3.54,2.20
25.1440,0.08,0.12,-0.99,2.99,3.36,2.20
25.1610,0.08,0.12,-0.99,3.11,3.72,2.14
25.1780,0.09,0.12,-0.99,3.17,3.72,2.08
25.1940,0.09,0.12,-0.99,3.05,3.72,2.14
25.2110,0.09,0.12,-0.99,3.05,3.30,2.01
25.2260,0.08,0.12,-0.99,3.23,3.36,2.08
25.2420,0.08,0.12,-0.99,2.99,3.66,2.14
25.2580,0.08,0.12,-0.99,3.11,3.60,2.08
25.2730,0.09,0.12,-0.99,2.99,3.42,2.20
25.2890,0.09,0.12,-0.99,3.23,3.42,2.08
25.2950,0.09,0.12,-0.99,3.17,3.17,2.01
25.3100,0.08,0.12,-0.99,3.17,3.23,1.95
25.3330,0.08,0.12,-0.99,3.23,3.60,2.01
25.3490,0.09,0.12,-0.99,3.17,3.54,2.08
25.3660,0.09,0.12,-0.99,2.99,3.48,2.08
25.3820,0.09,0.12,-0.99,3.11,3.72,2.20
25.3980,0.09,0.12,-0.99,2.99,3.78,2.01
25.4140,0.08,0.12,-0.99,3.11,3.66,2.20
25.4300,0.08,0.12,-0.99,2.93,3.54,2.08
25.4330,0.09,0.12,-0.99,3.17,3.30,2.08
25.4490,0.09,0.12,-0.99,3.30,3.54,1.95
25.4760,0.08,0.12,-0.99,3.11,3.42,2.14
25.4870,0.08,0.12,-0.99,3.17,3.66,2.08
25.5040,0.08,0.12,-0.99,3.23,3.66,2.08
25.5200,0.08,0.12,-0.99,3.11,3.42,2.14
25.5360,0.09,0.12,-0.99,3.17,3.48,2.20
25.5540,0.09,0.12,-0.99,3.05,3.48,2.26
25.5700,0.08,0.12,-0.99,2.81,3.36,2.14
25.5860,0.08,0.12,-0.99,2.99,3.66,2.08
25.6020,0.08,0.12,-0.99,3.17,3.42,2.08
25.6180,0.09,0.12,-0.99,3.11,3.36,2.20
25.6340,0.09,0.12,-0.99,2.87,3.36,2.01
25.6500,0.09,0.12,-0.99,3.17,3.30,2.08
25.6540,0.08,0.12,-0.99,3.17,3.48,2.08
25.6700,0.08,0.12,-0.99,2.81,3.78,2.14
25.6920,0.09,0.12,-0.99,3.11,3.60,2.08
25.7090,0.08,0.12,-0.99,3.36,3.54,2.01
25.7240,0.09,0.12,-0.99,3.23,3.48,2.08
25.7420,0.08,0.12,-0.99,3.23,3.36,2.26
25.7570,0.09,0.12,-0.99,3.30,3.30,2.20
25.7730,0.08,0.12,-0.99,3.23,3.60,2.26
25.7890,0.08,0.12,-0.99,3.11,3.54,2.08
25.7920,0.08,0.12,-0.99,3.23,3.42,2.08
25.8070,0.09,0.12,-0.99,2.99,3.60,2.01
25.8350,0.09,0.12,-0.99,3.30,3.30,2.14
25.8500,0.09,0.12,-0.99,3.23,2.99,1.95
25.8630,0.09,0.12,-0.99,3.05,3.48,2.08
25.8790,0.08,0.12,-0.99,3.11,3.60,2.14
25.8960,0.09,0.12,-1.00,3.17,3.42,2.20
25.9120,0.08,0.11,-0.99,2.99,3.48,2.20
25.9280,0.09,0.12,-0.99,3.48,3.36,2.08
25.9450,0.09,0.12,-0.99,3.30,3.42,2.08
25.9600,0.08,0.12,-0.99,3.42,3.23,2.01
25.9770,0.09,0.12,-0.99,3.30,3.30,2.20
25.9790,0.09,0.12,-0.99,3.23,3.30,2.01
25.9950,0.09,0.12,-0.99,3.17,3.17,2.14
26.0170,0.09,0.12,-0.99,3.17,3.30,2.14
26.0340,0.09,0.12,-0.99,3.23,3.30,1.95
26.0500,0.08,0.12,-0.99,3.11,3.78,2.01
26.0670,0.08,0.11,-0.99,2.87,4.52,1.83
26.0830,0.09,0.12,-0.99,2.87,3.72,2.08
26.0990,0.09,0.12,-0.99,3.05,3.36,2.08
26.1160,0.08,0.12,-0.99,3.17,3.66,2.14
26.1320,0.08,0.12,-0.99,3.05,3.42,2.20
26.1470,0.08,0.12,-0.99,3.30,3.66,2.08
26.1620,0.08,0.12,-0.99,3.17,3.66,2.08
26.1670,0.08,0.12,-1.00,3.17,3.60,2.20
26.1820,0.08,0.12,-0.99,3.05,3.36,2.14
26.2060,0.08,0.12,-0.99,3.23,3.66,2.20
26.2220,0.09,0.12,-0.99,3.30,3.54,2.08
26.2380,0.09,0.12,-0.99,3.23,3.17,1.95
26.2530,0.08,0.12,-0.99,3.48,2.93,2.08
26.2690,0.08,0.12,-0.99,3.17,3.60,2.08
26.2830,0.08,0.12,-0.99,3.05,3.48,2.01
26.2990,0.09,0.12,-0.99,3.11,3.42,2.08
26.3070,0.09,0.12,-0.99,3.36,3.60,2.08
26.3240,0.09,0.12,-0.99,3.11,4.03,2.20
26.3400,0.09,0.12,-0.99,3.11,3.11,2.01
26.3560,0.08,0.12,-0.99,3.17,3.42,2.08
26.3720,0.09,0.12,-0.99,3.17,3.72,2.26
26.3910,0.09,0.12,-0.99,3.17,3.17,2.14
26.4060,0.09,0.12,-0.99,2.99,3.36,2.14
26.4220,0.08,0.12,-0.99,3.30,3.42,2.01
26.4310,0.08,0.12,-0.99,3.05,3.72,2.14
26.4410,0.08,0.12,-0.99,3.05,3.60,2.01
26.4630,0.08,0.12,-0.99,3.11,3.48,2.01
26.4800,0.09,0.12,-0.99,3.11,3.60,2.26
26.4960,0.09,0.12,-0.99,3.17,4.03,2.20
26.5130,0.09,0.12,-0.99,3.05,3.60,2.20
26.5290,0.09,0.12,-0.99,3.23,3.23,2.26
26.5310,0.08,0.12,-0.99,3.23,3.54,2.14
26.5590,0.08,0.12,-0.99,3.30,3.54,2.14
26.5740,0.09,0.12,-0.99,3.48,3.54,2.20
26.5850,0.09,0.11,-0.99,3.17,3.54,2.20
26.6010,0.09,0.11,-0.99,3.05,3.48,2.14
26.6190,0.08,0.12,-0.99,3.05,3.23,2.14
26.6350,0.08,0.12,-0.99,3.17,3.30,2.08
26.6520,0.09,0.12,-0.99,3.05,3.42,2.08
26.6680,0.09,0.12,-0.99,3.05,3.54,2.20
26.6830,0.08,0.12,-0.99,3.11,3.54,2.14
26.7000,0.08,0.12,-0.99,3.23,3.60,2.14
26.7160,0.08,0.12,-0.99,2.99,3.48,2.14
26.7320,0.09,0.12,-0.99,3.11,3.72,2.14
26.7340,0.09,0.12,-0.99,3.05,3.54,2.01
26.7500,0.08,0.11,-0.99,3.23,3.48,2.14
26.7740,0.08,0.11,-0.99,3.17,3.42,2.08
26.7910,0.08,0.11,-0.99,3.05,3.72,2.01
26.8070,0.09,0.11,-0.99,3.23,2.99,2.26
26.8220,0.09,0.11,-0.99,3.05,3.36,2.08
26.8370,0.08,0.12,-0.99,3.11,3.54,2.14
26.8520,0.08,0.12,-0.99,3.23,3.42,2.14
26.8680,0.08,0.12,-0.99,3.17,3.66,2.08
26.8830,0.08,0.12,-0.99,3.30,3.30,2.08
26.8940,0.09,0.12,-0.99,3.23,3.30,2.14
26.9100,0.08,0.12,-0.99,3.11,3.36,2.14
26.9270,0.08,0.12,-0.99,3.11,3.36,2.08
26.9440,0.09,0.12,-0.99,3.17,3.17,2.01
26.9610,0.09,0.11,-0.99,3.23,3.17,2.01
26.9760,0.09,0.11,-1.00,3.23,3.17,1.95
26.9920,0.08,0.11,-0.99,3.05,3.30,2.14
27.0070,0.09,0.11,-0.99,3.42,3.36,2.14
27.0230,0.09,0.11,-0.99,3.42,3.36,2.14
27.0390,0.08,0.12,-0.99,3.30,3.60,2.08
27.0550,0.09,0.12,-0.99,3.30,3.23,2.08
27.0700,0.08,0.12,-0.99,3.23,3.54,2.14
27.0870,0.08,0.12,-1.00,3.23,3.36,2.20
27.1020,0.08,0.12,-0.99,2.99,3.66,2.14
27.1170,0.08,0.12,-0.99,3.42,3.30,2.14
27.1310,0.08,0.12,-0.99,3.23,3.42,2.26
27.1430,0.09,0.12,-0.99,3.11,3.54,2.14
27.1630,0.09,0.11,-0.99,3.11,3.60,2.01
27.1790,0.08,0.11,-1.00,2.99,3.66,2.01
27.1950,0.08,0.11,-0.99,3.17,3.66,2.26
27.2110,0.08,0.11,-0.99,3.11,3.36,2.14
27.2270,0.09,0.12,-0.99,3.11,3.17,2.14
27.2310,0.09,0.12,-0.99,3.30,3.48,2.08
27.2460,0.08,0.12,-0.99,3.30,3.48,2.20
27.2700,0.09,0.12,-0.99,3.30,3.72,2.20
27.2870,0.08,0.12,-0.99,3.30,3.48,2.20
27.3030,0.08,0.12,-0.99,3.23,3.60,2.14
27.3200,0.08,0.12,-0.99,3.11,3.36,2.14
27.3320,0.09,0.12,-0.99,3.17,3.66,2.14
27.3530,0.09,0.12,-0.99,3.05,3.60,2.14
27.3550,0.08,0.11,-0.99,3.05,2.99,2.08
27.3850,0.08,0.11,-1.00,3.36,3.54,2.20
27.3880,0.08,0.12,-0.99,3.36,3.36,2.08
27.4170,0.09,0.12,-0.99,3.17,3.17,2.14
27.4320,0.09,0.12,-1.00,3.11,3.36,2.08
27.4360,0.09,0.12,-0.99,3.05,3.17,2.01
27.4600,0.08,0.12,-0.99,3.05,3.72,2.20
27.4780,0.08,0.12,-0.99,3.36,3.48,2.14
27.4930,0.09,0.12,-0.99,3.17,3.30,2.08
27.5090,0.09,0.12,-0.99,3.23,3.48,2.20
27.5240,0.09,0.12,-0.99,3.11,3.36,2.01
27.5320,0.08,0.11,-0.99,2.87,3.42,2.08
27.5550,0.08,0.12,-1.00,3.05,3.36,2.01
27.5710,0.08,0.12,-0.99,3.23,2.93,1.95
27.5770,0.10,0.13,-0.99,3.30,3.05,2.08
27.5930,0.13,0.19,-0.98,3.91,4.46,-3.72
27.6160,0.07,0.09,-1.00,4.03,4.88,-6.04
27.6330,0.06,0.09,-1.00,3.36,4.27,-1.89
27.6490,0.10,0.13,-0.99,3.23,3.91,0.31
27.6500,0.09,0.14,-0.99,3.42,3.97,-1.46
27.6650,0.08,0.10,-0.99,3.60,3.72,-1.53
27.6840,0.07,0.09,-1.00,3.36,3.54,1.04
27.7000,0.08,0.12,-1.00,3.30,3.66,1.89
27.7160,0.10,0.12,-0.99,3.11,3.48,1.22
27.7380,0.09,0.13,-0.99,3.23,3.48,0.06
27.7540,0.08,0.11,-0.99,3.42,3.72,-0.43
27.7700,0.08,0.11,-1.00,3.36,3.42,0.67
27.7880,0.10,0.13,-0.99,2.99,3.54,0.85
27.8040,0.09,0.12,-0.99,3.23,4.03,-1.28
27.8200,0.08,0.11,-0.99,3.48,3.72,-1.40
27.8360,0.08,0.11,-0.99,3.36,3.97,0.49
27.8510,0.08,0.12,-0.99,3.42,3.48,1.04
27.8660,0.09,0.12,-0.99,3.23,3.36,1.04
27.8810,0.10,0.13,-0.99,3.42,3.60,0.61
27.8880,0.10,0.13,-0.99,3.23,3.60,-0.37
27.9040,0.09,0.12,-0.99,3.23,3.66,-0.67
27.9270,0.08,0.10,-1.00,3.36,3.72,-0.37
27.9430,0.07,0.11,-0.99,3.11,3.78,0.98
27.9590,0.07,0.11,-1.00,3.11,3.85,1.46
27.9760,0.09,0.12,-0.99,3.17,3.36,1.46
27.9920,0.08,0.11,-0.99,3.30,3.60,1.71
28.0080,0.09,0.12,-0.99,3.23,3.78,2.01
28.0230,0.09,0.12,-0.99,3.42,3.42,1.59
28.0390,0.09,0.11,-0.99,3.30,3.36,1.65
28.0540,0.09,0.11,-0.99,3.17,3.36,1.65
28.0690,0.09,0.12,-0.99,3.11,3.42,1.89
28.0830,0.08,0.12,-0.99,3.17,3.54,2.26
28.0940,0.08,0.12,-0.99,3.17,3.72,2.14
28.1100,0.09,0.12,-0.99,3.23,3.66,2.01
28.1330,0.09,0.12,-0.99,3.05,3.66,2.14
28.1430,0.09,0.11,-0.99,3.23,3.66,1.95
28.1600,0.09,0.11,-0.99,3.36,3.60,2.08
28.1770,0.09,0.11,-0.99,2.93,3.30,2.26
28.1920,0.09,0.11,-0.99,3.05,3.48,2.62
28.2090,0.07,0.12,-0.99,3.17,3.60,2.75
28.2260,0.09,0.11,-0.99,3.05,3.42,2.87
28.2420,0.08,0.11,-0.99,3.05,3.36,2.75
28.2570,0.08,0.12,-0.99,3.11,3.30,2.62
28.2730,0.08,0.12,-0.99,3.17,3.30,2.81
28.2760,0.09,0.12,-0.99,3.11,3.36,3.17
28.2920,0.09,0.12,-0.99,2.99,3.11,3.05
28.3140,0.08,0.12,-0.99,3.05,3.48,2.62
28.3330,0.08,0.12,-0.99,2.99,3.30,2.44
28.3470,0.08,0.12,-0.99,3.05,3.11,2.69
28.3650,0.09,0.12,-0.99,3.17,3.11,3.05
28.3810,0.08,0.12,-0.99,2.87,3.30,3.11
28.3960,0.08,0.12,-0.99,2.93,3.48,2.50
28.4140,0.08,0.11,-1.00,3.11,3.48,2.20
28.4280,0.09,0.11,-1.00,2.93,3.30,2.38
28.4450,0.09,0.11,-0.99,3.17,3.05,3.42
28.4470,0.08,0.12,-0.99,3.17,3.30,3.66
28.4630,0.08,0.12,-0.99,3.05,3.11,3.42
28.4920,0.08,0.12,-0.99,3.05,3.17,3.23
28.5020,0.09,0.11,-0.99,3.23,3.30,3.23
28.5180,0.09,0.12,-0.99,3.05,3.05,3.85
28.5350,0.09,0.12,-0.99,3.05,3.17,3.42
28.5520,0.09,0.12,-0.99,2.99,3.23,3.17
28.5670,0.08,0.12,-0.99,3.05,3.11,2.87
28.5840,0.08,0.12,-0.99,3.30,2.93,2.56
28.6000,0.09,0.11,-0.99,3.05,3.36,2.50
28.6160,0.09,0.12,-0.99,2.87,3.54,2.32
28.6190,0.08,0.12,-0.99,3.17,3.54,2.44
28.6470,0.08,0.12,-0.99,3.05,3.72,2.62
28.6520,0.08,0.12,-0.99,3.36,3.36,2.56
28.6680,0.09,0.12,-0.99,3.17,3.17,2.26
28.6900,0.09,0.12,-0.99,3.17,2.99,2.20
28.7070,0.08,0.12,-0.99,3.42,3.30,1.46
28.7220,0.09,0.12,-0.99,3.11,3.66,1.04
28.7390,0.09,0.12,-0.99,2.99,3.78,1.59
28.7410,0.09,0.12,-0.99,2.93,3.54,2.08
28.7690,0.07,0.12,-0.99,2.93,3.05,2.32
28.7840,0.08,0.11,-0.99,3.17,3.11,2.14
28.8010,0.09,0.12,-0.99,3.05,3.30,2.01
28.8160,0.10,0.12,-0.99,3.11,3.48,2.14
28.8310,0.09,0.12,-0.99,3.05,3.23,2.20
28.8470,0.09,0.12,-0.99,3.11,3.36,2.69
28.8580,0.08,0.11,-0.99,3.23,3.23,2.62
28.8740,0.07,0.11,-1.00,3.30,3.30,2.26
28.8900,0.08,0.12,-0.99,3.17,3.05,2.26
28.9080,0.09,0.12,-0.99,2.87,3.42,2.26
28.9220,0.08,0.11,-0.99,3.23,3.42,2.08
28.9340,0.09,0.12,-0.99,3.17,3.66,1.89
28.9470,0.08,0.12,-0.99,2.99,3.60,2.32
28.9690,0.09,0.12,-0.99,3.05,3.54,2.44
28.9850,0.08,0.11,-1.00,2.99,3.42,2.38
29.0020,0.09,0.11,-0.99,3.11,3.78,2.14
29.0170,0.09,0.11,-0.99,2.99,3.42,2.50
29.0330,0.09,0.12,-0.99,3.23,2.99,2.87
29.0360,0.08,0.12,-1.00,3.05,2.93,2.81
29.0650,0.08,0.12,-0.99,3.42,3.48,2.20
29.0800,0.08,0.11,-0.99,3.48,3.60,1.89
29.0960,0.08,0.11,-0.99,3.36,3.48,1.34
29.1010,0.09,0.12,-0.99,3.42,3.23,1.53
29.1170,0.07,0.12,-1.00,2.87,3.78,2.26
29.1380,0.08,0.12,-0.99,3.05,3.30,2.69
29.1550,0.07,0.11,-0.99,2.99,3.11,2.93
29.1700,0.08,0.11,-0.99,3.36,3.30,2.69
29.1890,0.09,0.12,-0.99,3.30,3.36,2.62
29.2040,0.08,0.12,-0.99,3.11,3.23,2.75
29.2190,0.08,0.11,-0.99,3.11,3.30,2.38
29.2360,0.08,0.12,-0.99,3.17,3.30,2.08
29.2510,0.09,0.12,-0.99,3.30,3.48,2.14
29.2660,0.09,0.12,-0.99,3.17,3.42,2.01
29.2770,0.09,0.12,-0.99,2.99,3.23,2.01
29.2920,0.08,0.12,-0.99,3.36,3.36,2.44
29.3110,0.08,0.12,-0.99,3.05,3.17,2.69
29.3170,0.08,0.12,-0.99,3.05,3.36,2.87
29.3410,0.08,0.12,-0.99,3.36,3.23,2.81
29.3500,0.09,0.11,-0.99,3.36,3.42,2.32
29.3720,0.08,0.12,-0.99,2.99,3.54,2.44
29.3830,0.08,0.12,-0.99,3.05,3.42,2.56
29.4000,0.08,0.12,-0.99,3.05,2.87,2.50
29.4160,0.09,0.11,-0.99,3.17,3.17,2.38
29.4350,0.09,0.11,-0.99,3.17,3.48,2.50
29.4500,0.09,0.12,-0.99,2.99,3.30,3.05
29.4670,0.08,0.12,-0.99,2.99,3.30,3.11
29.4820,0.07,0.13,-0.99,3.11,2.99,2.99
29.4990,0.09,0.12,-0.99,2.99,3.72,2.38
29.5150,0.09,0.12,-0.99,3.05,3.66,2.14
29.5310,0.09,0.11,-0.99,3.05,3.42,1.95
29.5460,0.09,0.11,-0.99,3.23,3.36,2.38
29.5510,0.09,0.11,-0.99,3.11,3.17,3.05
29.5660,0.07,0.12,-0.99,3.11,3.23,3.23
29.5900,0.08,0.12,-0.99,3.23,3.23,2.75
29.6060,0.09,0.11,-0.99,3.17,3.11,2.99
29.6220,0.09,0.12,-0.99,2.87,3.23,3.36
29.6370,0.10,0.11,-0.99,2.99,3.23,3.30
29.6400,0.08,0.12,-0.99,3.23,2.99,3.30
29.6560,0.08,0.11,-0.99,3.30,3.30,2.99
29.6840,0.08,0.12,-0.99,2.87,3.05,2.62
29.6950,0.07,0.13,-0.99,2.87,3.30,2.50
29.7110,0.08,0.12,-0.99,3.05,3.48,2.38
29.7310,0.09,0.12,-0.99,3.23,3.60,2.14
29.7470,0.09,0.12,-0.99,3.23,3.30,2.20
29.7630,0.09,0.12,-0.99,3.17,3.60,2.20
29.7790,0.08,0.12,-1.00,3.05,3.72,2.08
29.7950,0.09,0.12,-0.99,2.87,3.11,2.32
29.8110,0.10,0.12,-0.99,2.87,3.36,2.56
29.8270,0.10,0.13,-0.99,2.93,3.11,3.11
29.8420,0.08,0.11,-0.99,3.17,3.54,3.17
29.8570,0.08,0.11,-1.00,3.11,3.72,2.50
29.8670,0.08,0.11,-1.00,3.23,3.85,2.08
29.8830,0.08,0.12,-0.99,3.11,3.91,1.95
29.9020,0.08,0.12,-1.00,3.05,3.97,1.95
29.9190,0.09,0.11,-0.99,2.87,3.72,2.38
29.9350,0.09,0.12,-0.99,2.99,3.91,2.56
29.9520,0.09,0.12,-0.99,2.75,3.91,2.69
29.9670,0.08,0.12,-0.99,2.87,3.36,2.20
29.9820,0.08,0.12,-0.99,3.05,3.66,1.65
29.9910,0.09,0.12,-0.99,3.17,3.72,1.53
30.0070,0.10,0.12,-0.99,2.93,3.66,1.77
30.0300,0.07,0.11,-0.99,3.11,3.36,2.38
30.0460,0.08,0.12,-1.00,3.05,3.60,2.08
30.0620,0.09,0.12,-0.99,3.17,3.42,2.14
30.0780,0.08,0.12,-1.00,3.11,3.36,3.11
30.0940,0.08,0.11,-0.99,3.36,3.36,2.87
30.0970,0.07,0.12,-0.99,3.23,3.23,2.50
30.1250,0.08,0.12,-0.99,2.99,3.48,2.08
30.1400,0.10,0.12,-0.99,2.87,3.48,1.89
30.1510,0.10,0.12,-0.99,2.75,3.23,2.56
30.1680,0.09,0.12,-0.99,2.93,3.30,3.36
30.1840,0.07,0.11,-1.00,3.17,3.17,3.17
30.2010,0.08,0.12,-0.99,3.36,3.48,1.95
30.2180,0.08,0.12,-0.99,3.30,3.36,1.04
30.2340,0.09,0.12,-0.99,3.36,3.48,0.43
30.2500,0.08,0.12,-0.99,3.42,3.05,0.73
30.2670,0.08,0.12,-0.99,3.05,3.66,1.59
30.2820,0.08,0.12,-0.99,3.11,3.30,1.89
30.2980,0.08,0.12,-0.99,3.11,3.54,1.89
30.3130,0.10,0.11,-0.99,3.05,3.72,1.83
30.3290,0.09,0.12,-0.99,2.87,3.85,2.32
30.3450,0.09,0.12,-0.99,3.05,3.42,2.50
30.3610,0.08,0.12,-0.99,2.99,3.48,2.50
30.3760,0.08,0.11,-0.99,3.30,3.36,2.26
30.3900,0.09,0.12,-0.99,3.23,3.85,2.56
30.4010,0.09,0.12,-0.99,2.75,3.48,2.69
30.4180,0.09,0.11,-0.99,3.05,3.36,2.69
30.4350,0.09,0.12,-0.99,3.05,3.72,2.62
30.4510,0.09,0.12,-0.99,3.30,3.42,2.32
30.4530,0.09,0.12,-0.99,3.05,3.48,2.20
30.4680,0.08,0.12,-0.99,2.93,3.48,2.50
30.4990,0.09,0.12,-0.99,3.17,3.30,2.75
30.5140,0.08,0.12,-0.99,2.93,3.48,2.93
30.5300,0.08,0.12,-0.99,3.11,3.48,2.75
30.5350,0.09,0.12,-0.99,2.87,3.17,2.75
30.5630,0.11,0.10,-0.99,2.75,3.30,3.48
30.5690,0.08,0.12,-0.99,3.05,3.30,3.91
30.5840,0.09,0.12,-0.99,2.99,3.54,3.78
30.6000,0.09,0.11,-0.99,3.23,3.23,2.93
30.6210,0.09,0.12,-0.99,3.17,3.17,2.26
30.6380,0.08,0.12,-0.99,2.87,3.48,2.75
30.6550,0.08,0.12,-0.99,2.99,3.30,2.69
30.6710,0.08,0.12,-0.99,2.99,3.48,2.69
30.6870,0.09,0.11,-0.99,3.05,3.17,2.56
30.7020,0.09,0.12,-0.99,2.99,3.42,2.93
30.7060,0.08,0.12,-0.99,2.87,3.48,2.87
30.7350,0.08,0.12,-0.99,3.17,3.36,2.50
30.7510,0.08,0.12,-0.99,2.99,3.48,1.77
30.7670,0.09,0.12,-0.99,3.11,3.54,1.53
30.7820,0.09,0.12,-0.99,2.99,3.60,1.71
30.7980,0.08,0.12,-0.99,3.17,3.66,1.77
30.8130,0.09,0.11,-0.99,3.05,3.66,1.77
30.8280,0.09,0.12,-0.99,3.11,3.60,1.40
30.8380,0.10,0.12,-0.99,2.93,3.78,1.59
30.8550,0.08,0.12,-0.99,2.81,3.78,1.71
30.8710,0.08,0.12,-0.99,3.17,3.85,1.77
30.8880,0.08,0.12,-0.99,3.05,3.72,1.77
30.9040,0.08,0.12,-0.99,3.23,3.66,1.46
30.9200,0.08,0.12,-0.99,3.36,3.60,1.53
30.9360,0.08,0.12,-0.99,2.99,3.54,1.59
30.9520,0.09,0.12,-0.99,2.87,3.30,1.77
30.9690,0.09,0.12,-0.99,2.93,3.85,1.83
30.9850,0.09,0.12,-0.99,3.30,3.97,1.89
31.0010,0.08,0.12,-0.99,3.23,3.72,2.01
31.0170,0.09,0.12,-0.99,3.23,3.66,1.83
31.0220,0.09,0.12,-0.99,3.05,3.85,1.53
31.0370,0.09,0.12,-0.99,2.99,3.60,1.77
31.0610,0.08,0.12,-0.99,3.17,3.54,1.59
31.0780,0.08,0.12,-0.99,3.17,3.66,1.59
31.0940,0.09,0.12,-0.99,3.05,2.99,1.46
31.1100,0.10,0.12,-0.99,3.11,3.54,1.46
31.1260,0.09,0.12,-0.99,3.42,3.54,1.10
31.1420,0.08,0.12,-0.99,3.17,3.66,1.40
31.1570,0.08,0.12,-1.00,3.17,3.54,0.98
31.1720,0.09,0.12,-0.99,3.30,3.48,0.98
31.1870,0.09,0.12,-0.99,3.17,4.03,0.37
31.2030,0.08,0.12,-0.99,3.23,3.72,0.37
31.2180,0.08,0.11,-0.99,3.17,4.09,0.67
31.2330,0.08,0.11,-1.00,3.36,3.91,0.61
31.2440,0.09,0.12,-0.99,3.11,3.66,0.73
31.2610,0.09,0.12,-0.99,2.99,4.03,0.98
31.2770,0.09,0.12,-0.99,3.05,3.78,0.49
31.2940,0.09,0.12,-0.99,3.48,3.78,0.24
31.3110,0.09,0.11,-0.99,3.48,3.85,0.00
31.3280,0.09,0.12,-0.99,3.23,3.66,-0.12
31.3440,0.09,0.12,-0.99,3.17,3.60,-0.06
31.3590,0.08,0.11,-0.99,3.30,3.97,-0.12
31.3740,0.08,0.11,-1.00,3.30,3.78,0.12
31.3890,0.09,0.12,-0.99,3.23,3.36,0.18
31.4040,0.09,0.12,-0.99,3.30,4.15,-0.06
31.4190,0.08,0.11,-0.99,3.30,3.85,-0.06
31.4280,0.09,0.12,-0.99,3.30,3.66,0.31
31.4440,0.09,0.11,-0.99,3.60,3.66,0.43
31.4610,0.08,0.12,-1.00,3.60,3.54,0.73
31.4780,0.09,0.12,-0.99,3.42,3.30,0.79
31.4940,0.07,0.12,-0.99,3.23,3.54,0.85
31.5100,0.08,0.12,-0.99,3.11,3.91,1.34
31.5270,0.09,0.12,-0.99,3.17,3.91,1.77
31.5430,0.09,0.12,-0.99,3.11,3.78,1.40
31.5580,0.09,0.11,-0.99,3.42,3.78,1.22
31.5740,0.08,0.11,-0.99,3.36,3.60,1.34
31.5890,0.08,0.11,-0.99,3.11,3.54,1.53
31.6050,0.08,0.12,-0.99,3.30,3.66,1.34
31.6200,0.08,0.12,-0.99,3.17,3.36,1.46
31.6340,0.09,0.12,-0.99,3.36,3.60,1.65
31.6440,0.09,0.12,-0.99,3.30,3.30,2.26
31.6590,0.09,0.12,-0.99,3.23,3.48,2.75
31.6820,0.09,0.12,-0.99,3.30,3.60,2.38
31.6980,0.09,0.12,-0.99,3.17,3.66,2.56
31.7150,0.09,0.12,-0.99,3.11,3.36,2.62
31.7160,0.09,0.11,-0.99,3.23,3.42,3.23
31.7360,0.07,0.11,-0.99,3.30,3.17,3.17
31.7490,0.08,0.12,-0.99,3.42,3.30,2.69
31.7650,0.09,0.11,-0.99,3.36,3.42,2.38
31.7940,0.08,0.12,-0.99,3.17,3.23,2.38
31.8040,0.09,0.11,-0.99,3.11,3.17,2.50
31.8210,0.09,0.11,-0.99,2.99,3.30,2.75
31.8380,0.08,0.12,-0.99,3.11,2.93,3.23
31.8540,0.08,0.12,-0.99,2.81,3.23,3.05
31.8700,0.10,0.11,-0.99,3.11,3.42,2.75
31.8850,0.08,0.12,-0.99,3.23,3.05,2.75
31.9020,0.08,0.12,-0.99,3.42,3.36,2.08
31.9170,0.08,0.12,-0.99,3.36,3.42,1.34
31.9320,0.09,0.12,-0.99,2.99,3.30,1.65
31.9370,0.10,0.11,-0.99,2.75,3.54,2.75
31.9520,0.08,0.12,-0.99,3.05,3.30,3.66
31.9760,0.08,0.12,-0.99,3.17,3.23,3.23
31.9920,0.09,0.11,-0.99,3.17,3.48,2.93
32.0070,0.09,0.12,-0.99,3.11,2.99,2.87
32.0220,0.09,0.11,-0.99,3.23,3.48,1.95
32.0360,0.09,0.12,-0.99,3.23,3.48,1.65
32.0430,0.10,0.12,-0.99,2.93,3.30,2.56
32.0640,0.08,0.12,-0.99,3.30,3.36,2.69
32.0810,0.08,0.11,-0.99,2.93,3.78,2.62
32.0980,0.08,0.12,-0.99,3.30,3.78,2.01
32.1140,0.10,0.12,-0.99,3.11,3.60,1.77
32.1290,0.09,0.12,-0.99,2.87,3.48,2.50
32.1440,0.10,0.12,-0.99,2.87,3.30,2.75
32.1600,0.08,0.11,-0.99,2.87,3.42,2.56
32.1750,0.07,0.11,-0.99,3.11,4.03,1.04
32.1820,0.09,0.12,-0.99,3.11,3.78,1.34
32.1980,0.08,0.12,-0.99,2.93,3.54,1.46
32.2210,0.07,0.12,-0.99,2.93,3.42,1.83
32.2370,0.09,0.12,-0.99,2.99,3.72,1.77
32.2530,0.10,0.12,-0.99,3.11,3.78,1.46
32.2690,0.08,0.11,-0.99,2.99,4.09,0.12
32.2850,0.08,0.11,-0.99,3.30,3.78,0.31
32.3010,0.10,0.12,-0.99,3.48,3.54,0.79
32.3180,0.08,0.12,-0.99,3.36,3.42,1.53
32.3340,0.07,0.11,-0.99,3.17,3.60,2.01
32.3490,0.08,0.12,-0.99,3.05,3.85,2.01
32.3540,0.09,0.12,-0.99,3.36,3.72,1.83
32.3700,0.09,0.12,-0.99,3.23,3.48,1.83
32.3930,0.10,0.12,-0.99,3.54,3.48,1.65
32.4090,0.09,0.12,-0.99,3.17,3.72,1.65
32.4260,0.07,0.11,-0.99,3.17,3.78,2.01
32.4410,0.08,0.12,-0.99,3.36,3.30,2.08
32.4560,0.09,0.12,-0.99,3.11,3.72,1.83
32.4720,0.09,0.12,-0.99,3.23,3.36,1.71
32.4770,0.08,0.11,-1.00,3.36,3.36,1.28
32.4920,0.09,0.11,-0.99,3.17,3.60,1.59
32.5170,0.09,0.11,-0.99,2.93,3.66,1.77
32.5330,0.09,0.12,-0.99,3.11,3.17,2.26
32.5490,0.08,0.11,-1.00,3.11,3.42,2.01
32.5650,0.08,0.11,-0.99,3.30,3.72,1.40
32.5810,0.09,0.11,-0.99,3.30,3.54,1.04
32.5950,0.09,0.12,-0.99,3.30,4.03,1.10
32.6010,0.09,0.11,-0.99,3.05,3.72,1.65
32.6280,0.07,0.11,-1.00,3.30,3.42,2.38
32.6360,0.08,0.12,-0.99,3.36,3.60,2.20
32.6490,0.08,0.12,-0.99,3.05,3.36,2.26
32.6720,0.10,0.11,-0.99,3.05,3.60,2.26
32.6860,0.09,0.12,-0.99,2.56,3.42,3.11
32.7020,0.09,0.11,-0.99,3.05,3.23,4.58
32.7180,0.07,0.11,-0.99,2.99,3.60,3.78
32.7330,0.07,0.12,-0.99,3.11,3.85,2.44
32.7470,0.09,0.11,-0.99,3.23,3.72,2.32
32.7620,0.09,0.12,-0.99,3.11,3.48,2.26
32.7780,0.10,0.11,-0.99,3.05,3.23,2.20
32.7920,0.09,0.11,-0.99,2.99,3.85,2.62
32.8030,0.09,0.11,-0.99,3.05,3.66,2.69
32.8200,0.07,0.12,-0.99,3.42,3.42,2.50
32.8370,0.09,0.12,-0.99,3.17,3.66,2.01
32.8530,0.10,0.12,-0.99,3.05,3.48,1.89
32.8550,0.09,0.12,-0.99,2.93,3.36,2.62
32.8850,0.08,0.12,-0.99,3.11,3.48,3.36
32.9010,0.08,0.11,-0.99,3.30,3.42,2.81
32.9180,0.07,0.12,-0.99,3.17,3.54,2.26
32.9340,0.09,0.12,-0.99,3.05,3.54,1.89
32.9500,0.10,0.11,-0.99,2.99,3.78,2.20
32.9650,0.08,0.11,-0.99,3.11,3.60,2.56
32.9800,0.08,0.11,-0.99,2.99,3.48,2.87
32.9950,0.09,0.12,-0.99,2.75,3.30,3.54
33.0100,0.09,0.12,-0.99,2.87,3.36,3.60
33.0210,0.08,0.12,-0.99,2.93,3.54,2.87
33.0370,0.10,0.11,-0.99,2.99,3.72,2.08
33.0580,0.09,0.11,-0.99,3.11,3.54,2.50
33.0620,0.10,0.11,-0.98,4.64,3.85,2.44
33.0880,0.08,0.12,-0.99,2.69,3.36,2.99
33.0930,0.08,0.12,-0.99,2.69,3.23,3.54
33.1090,0.09,0.11,-0.99,3.54,3.36,3.17
33.1300,0.08,0.11,-1.00,3.05,3.30,2.20
33.1470,0.09,0.11,-0.99,3.05,3.60,1.22
33.1630,0.09,0.12,-0.99,2.87,3.36,1.40
33.1800,0.09,0.12,-0.99,2.99,3.11,2.75
33.1960,0.08,0.11,-0.99,2.87,3.30,3.11
33.2110,0.08,0.14,-1.04,3.91,3.36,3.23
33.2260,0.08,0.12,-0.99,3.17,3.66,1.71
33.2420,0.10,0.11,-0.99,3.05,3.23,2.26
33.2530,0.09,0.11,-0.99,2.93,3.17,3.54
33.2700,0.08,0.13,-1.00,3.36,3.42,2.62
33.2860,0.08,0.11,-0.99,3.23,3.42,2.20
33.3020,0.09,0.11,-0.99,3.36,3.17,1.46
33.3170,0.09,0.12,-0.99,3.36,3.72,1.28
33.3330,0.08,0.12,-0.99,2.93,3.11,2.26
33.3370,0.09,0.12,-0.99,3.11,3.30,2.62
33.3530,0.08,0.12,-0.99,2.99,3.78,2.50
33.3790,0.08,0.12,-0.99,3.36,3.97,2.08
33.3850,0.09,0.12,-0.99,3.36,3.60,1.28
33.4050,0.08,0.12,-0.99,2.87,3.60,1.46
33.4200,0.09,0.12,-0.99,3.05,3.66,1.83
33.4390,0.09,0.12,-0.99,3.23,3.17,1.71
33.4540,0.08,0.12,-0.99,3.30,3.60,1.34
33.4580,0.09,0.12,-0.99,3.11,3.48,1.71
33.4740,0.10,0.12,-0.99,3.17,3.48,1.59
33.4980,0.08,0.12,-0.99,3.11,3.78,0.98
33.5140,0.09,0.12,-0.99,3.23,3.66,0.92
33.5300,0.08,0.12,-0.99,3.17,3.54,0.67
33.5470,0.08,0.11,-0.99,3.11,3.48,0.85
33.5630,0.09,0.12,-0.99,3.23,3.72,1.16
33.5780,0.09,0.11,-0.99,3.11,3.60,0.85
33.5810,0.08,0.11,-0.99,3.30,3.72,1.34
33.5960,0.09,0.12,-0.99,3.11,3.48,1.40
33.6210,0.09,0.12,-0.99,3.05,3.66,1.71
33.6370,0.08,0.11,-0.99,2.99,3.54,1.59
33.6540,0.08,0.11,-0.99,3.11,3.78,1.89
33.6700,0.09,0.12,-0.99,3.30,3.66,1.95
33.6870,0.09,0.12,-0.99,3.23,3.36,1.95
33.7030,0.09,0.12,-0.99,3.05,3.66,2.14
33.7200,0.09,0.12,-0.99,3.17,3.72,2.20
33.7350,0.10,0.12,-0.99,2.81,3.54,2.01
33.7380,0.09,0.12,-0.99,3.05,3.23,1.89
33.7680,0.09,0.12,-0.99,3.17,3.60,1.71
33.7710,0.08,0.11,-0.99,2.81,3.85,1.65
33.8000,0.08,0.12,-0.99,3.05,3.42,2.20
33.8040,0.07,0.11,-1.00,2.81,3.72,2.32
33.8200,0.09,0.12,-0.99,3.11,3.30,2.38
33.8450,0.08,0.12,-0.99,3.11,3.60,2.20
33.8610,0.09,0.12,-0.99,3.36,3.48,1.95
33.8760,0.09,0.12,-0.99,3.17,3.54,2.08
33.8910,0.09,0.12,-0.99,2.87,3.48,2.01
33.9060,0.09,0.12,-0.99,3.11,3.54,2.20
33.9110,0.09,0.12,-0.99,3.05,3.48,2.01
33.9270,0.09,0.12,-0.99,3.23,3.23,1.95
33.9430,0.09,0.12,-0.99,2.93,3.30,2.08
33.9660,0.09,0.12,-0.99,2.93,3.54,2.08
33.9830,0.09,0.12,-0.99,3.11,3.54,2.20
33.9850,0.09,0.11,-0.99,3.42,3.48,2.08
34.0000,0.09,0.12,-0.99,3.36,3.23,2.26
34.0160,0.09,0.12,-0.99,3.42,3.54,2.08
34.0390,0.09,0.12,-0.99,3.36,3.23,2.08
34.0550,0.09,0.12,-0.99,3.05,3.17,2.08
34.0730,0.09,0.11,-0.99,3.05,3.42,2.01
34.0890,0.09,0.12,-0.99,3.17,3.36,2.08
34.0890,0.09,0.12,-0.99,3.17,3.66,2.14
34.1130,0.09,0.12,-0.99,3.05,3.23,2.01
34.1300,0.09,0.12,-0.99,3.11,3.78,2.01
34.1460,0.09,0.12,-0.99,2.99,3.42,2.01
34.1630,0.09,0.11,-0.99,3.17,3.54,2.01
34.1800,0.09,0.12,-0.99,3.42,3.36,2.08
34.1960,0.09,0.12,-1.00,3.60,3.60,2.01
34.2120,0.09,0.12,-1.00,2.99,4.09,1.89
34.2280,0.08,0.12,-1.00,2.69,3.66,1.95
34.2440,0.08,0.12,-1.00,2.87,3.42,2.20
34.2610,0.09,0.12,-0.99,2.87,3.72,2.01
34.2760,0.09,0.12,-0.99,3.11,3.23,2.01
34.2790,0.09,0.12,-0.99,2.99,3.66,2.14
34.3070,0.09,0.12,-0.99,3.05,3.48,2.20
34.3170,0.09,0.12,-0.99,2.99,3.66,2.08
34.3340,0.09,0.12,-0.99,3.11,3.36,2.08
34.3520,0.09,0.12,-0.99,2.93,3.48,2.14
34.3520,0.09,0.12,-1.00,2.93,3.72,2.01
34.3810,0.08,0.12,-0.99,3.05,3.54,2.14
34.3980,0.09,0.11,-0.99,3.17,3.30,2.01
34.4140,0.09,0.12,-0.99,2.87,3.66,2.01
34.4170,0.09,0.12,-0.99,2.93,3.54,2.14
34.4390,0.09,0.12,-0.99,3.11,3.78,2.01
34.4540,0.08,0.12,-0.99,3.11,3.36,2.08
34.4720,0.08,0.12,-0.99,3.11,3.78,2.20
34.4870,0.09,0.12,-0.99,3.05,3.30,2.01
34.5060,0.09,0.12,-0.99,3.23,3.42,2.08
34.5210,0.09,0.12,-0.99,3.05,3.42,2.08
34.5240,0.09,0.12,-0.99,3.23,3.23,2.14
34.5400,0.09,0.12,-0.99,3.17,3.48,2.38
34.5680,0.08,0.12,-0.99,3.11,3.48,2.14
34.5790,0.09,0.12,-0.99,3.30,3.60,2.14
34.5950,0.09,0.12,-0.99,3.23,3.54,1.95
34.6130,0.09,0.11,-0.99,3.17,3.42,2.14
34.6280,0.09,0.11,-0.99,3.11,3.17,1.95
34.6440,0.08,0.12,-0.99,2.99,3.60,1.95
34.6520,0.09,0.12,-1.00,3.05,3.85,2.08
34.6690,0.09,0.12,-0.99,3.23,3.60,2.01
34.6850,0.09,0.12,-0.99,3.17,3.60,2.14
34.7010,0.09,0.12,-0.99,2.93,3.60,2.08
34.7190,0.09,0.12,-0.99,3.23,3.54,2.26
34.7350,0.09,0.12,-0.99,3.23,3.30,2.14
34.7520,0.08,0.12,-0.99,3.05,3.30,2.08
34.7670,0.09,0.12,-0.99,3.05,3.60,2.01
34.7840,0.09,0.11,-0.99,2.81,3.91,2.20
34.8000,0.09,0.12,-0.99,3.05,3.54,2.08
34.8030,0.09,0.11,-0.99,3.05,3.66,2.20
34.8310,0.09,0.12,-0.99,3.54,3.66,2.14
34.8390,0.08,0.12,-0.99,3.11,3.60,2.14
34.8520,0.09,0.12,-0.99,3.05,3.54,2.14
34.8740,0.09,0.12,-0.99,2.50,3.48,2.20
34.8900,0.09,0.12,-0.99,3.05,3.48,1.95
34.9070,0.09,0.12,-0.99,3.05,3.72,2.01
34.9220,0.08,0.12,-0.99,3.54,3.48,2.38
34.9250,0.08,0.12,-0.99,3.36,3.72,2.26
34.9410,0.09,0.12,-0.99,3.23,3.60,2.14
34.9630,0.09,0.12,-0.99,2.87,3.78,2.20
34.9790,0.09,0.12,-0.99,3.05,3.78,2.14
34.9960,0.09,0.12,-0.99,3.11,3.60,2.20
35.0130,0.08,0.12,-1.00,3.17,3.54,2.08
35.0290,0.09,0.12,-0.99,2.99,3.60,2.26
35.0450,0.09,0.12,-0.99,3.48,3.05,2.08
35.0610,0.09,0.12,-0.99,3.23,3.66,2.20
35.0780,0.09,0.12,-1.00,3.23,3.36,2.20
35.0940,0.09,0.12,-0.99,2.81,3.36,2.26
35.1100,0.09,0.12,-0.99,2.93,3.66,2.14
35.1260,0.10,0.11,-0.99,3.36,3.54,2.01
35.1410,0.10,0.10,-1.00,3.30,3.23,1.65
35.1560,0.09,0.11,-1.00,3.30,3.30,1.22
35.1710,0.08,0.12,-0.99,3.17,3.85,1.04
35.1870,0.07,0.13,-0.99,2.93,3.60,2.14
35.2010,0.07,0.13,-0.99,3.05,3.60,2.44
35.2130,0.08,0.12,-0.99,2.99,3.60,2.26
35.2290,0.08,0.12,-0.99,3.23,3.85,2.01
35.2460,0.09,0.11,-0.99,2.87,3.66,2.20
35.2620,0.09,0.12,-0.99,3.23,3.78,2.08
35.2790,0.09,0.12,-0.99,2.99,3.66,2.14
35.2960,0.09,0.12,-0.99,3.30,3.30,2.08
35.3120,0.09,0.12,-0.99,2.87,3.48,2.14
35.3280,0.09,0.12,-0.99,3.23,3.54,2.20
35.3440,0.09,0.12,-0.99,3.17,3.66,2.08
35.3600,0.09,0.12,-0.99,3.30,3.48,2.01
35.3630,0.09,0.12,-0.99,3.17,3.60,2.08
35.3790,0.09,0.12,-0.99,3.17,3.54,2.08
35.4010,0.09,0.11,-0.99,3.17,3.54,2.01
35.4170,0.09,0.11,-1.00,3.05,3.30,2.62
35.4340,0.08,0.12,-0.99,3.05,3.54,3.23
35.4510,0.09,0.12,-0.99,3.30,3.60,2.50
35.4670,0.09,0.12,-0.99,3.36,3.60,2.62
35.4840,0.09,0.11,-0.99,2.93,3.30,2.56
35.4990,0.09,0.11,-0.99,2.99,3.36,3.11
35.5160,0.09,0.12,-0.99,2.93,3.42,3.97
35.5320,0.08,0.13,-0.99,2.99,3.30,3.66
35.5400,0.09,0.12,-0.99,3.17,3.30,2.62
35.5500,0.09,0.11,-0.99,3.11,3.85,2.26
35.5730,0.09,0.11,-1.00,3.11,3.23,2.32
35.5900,0.09,0.12,-0.99,2.99,3.36,2.50
35.6060,0.09,0.12,-0.99,2.87,3.23,2.99
35.6210,0.09,0.12,-0.99,3.05,3.54,2.69
35.6380,0.08,0.11,-0.99,3.17,3.66,2.20
35.6530,0.08,0.11,-0.99,2.99,3.42,2.26
35.6680,0.09,0.11,-0.99,2.87,3.54,1.89
35.6840,0.09,0.12,-0.99,3.17,3.60,2.08
35.6990,0.09,0.11,-0.99,3.11,3.48,2.32
35.7140,0.08,0.11,-1.00,2.87,3.66,2.62
35.7230,0.09,0.12,-0.99,3.11,3.36,2.32
35.7400,0.09,0.13,-0.99,2.99,3.36,1.89
35.7610,0.09,0.12,-0.99,3.11,3.85,1.83
35.7760,0.08,0.11,-0.99,3.23,3.91,1.04
35.7910,0.09,0.11,-0.99,3.30,3.66,1.40
35.7940,0.09,0.13,-0.99,3.17,3.54,1.71
35.8100,0.09,0.12,-0.99,3.11,3.60,2.32
35.8330,0.09,0.12,-0.99,3.05,3.48,2.26
35.8500,0.09,0.12,-0.99,2.93,3.54,2.20
35.8660,0.09,0.12,-0.99,3.36,3.42,1.95
35.8830,0.09,0.11,-1.00,3.17,3.60,2.32
35.9000,0.09,0.11,-0.99,3.05,3.30,2.93
35.9160,0.09,0.12,-0.99,2.93,3.42,2.99
35.9310,0.08,0.12,-0.99,3.05,3.54,2.62
35.9480,0.09,0.12,-0.99,3.05,3.72,2.32
35.9500,0.09,0.12,-0.99,3.23,3.48,2.26
35.9790,0.09,0.11,-0.99,3.05,3.48,2.26
35.9840,0.09,0.12,-0.99,2.99,3.17,2.56
35.9990,0.09,0.11,-0.99,3.17,3.23,1.89
36.0240,0.08,0.11,-0.99,3.23,3.42,1.22
36.0390,0.08,0.12,-0.99,3.23,3.60,1.22
36.0420,0.09,0.12,-0.99,3.11,3.42,1.16
36.0580,0.08,0.11,-1.00,3.23,3.54,0.98
36.0790,0.09,0.11,-0.99,2.99,3.54,1.59
36.0960,0.09,0.13,-0.99,3.11,3.42,1.77
36.1120,0.08,0.12,-0.99,3.05,3.42,1.83
36.1290,0.09,0.12,-0.99,3.30,3.54,1.95
36.1440,0.09,0.12,-0.99,3.11,3.30,1.34
36.1590,0.09,0.12,-0.99,3.23,3.66,1.65
36.1630,0.09,0.12,-0.99,3.17,3.72,1.65
36.1780,0.09,0.11,-0.99,3.05,3.42,1.34
36.2000,0.08,0.11,-0.99,3.36,3.23,1.28
36.2170,0.08,0.12,-0.99,3.11,3.60,1.59
36.2340,0.09,0.11,-0.99,3.48,3.66,1.71
36.2500,0.09,0.11,-0.99,3.36,3.66,1.22
36.2660,0.08,0.12,-0.99,3.17,3.54,1.34
36.2820,0.08,0.13,-0.99,3.11,3.78,0.98
36.2910,0.08,0.12,-0.99,3.11,3.85,0.79
36.3070,0.09,0.12,-0.99,3.11,3.48,1.46
36.3230,0.09,0.12,-0.99,3.17,3.30,1.40
36.3440,0.09,0.11,-0.99,3.30,3.60,1.46
36.3600,0.09,0.11,-0.99,3.23,3.66,1.28
36.3760,0.08,0.12,-0.99,3.30,3.54,1.34
36.3790,0.08,0.12,-0.99,3.11,3.48,1.28
36.4070,0.09,0.12,-0.99,3.42,3.23,1.28
36.4230,0.09,0.12,-0.99,3.17,3.60,1.04
36.4380,0.09,0.11,-0.99,3.05,3.66,1.16
36.4530,0.09,0.12,-0.99,3.11,3.66,1.10
36.4690,0.09,0.12,-0.99,2.99,3.85,0.98
36.4840,0.09,0.12,-0.99,3.05,3.72,0.85
36.4950,0.08,0.11,-0.99,3.23,3.78,0.98
36.5110,0.09,0.11,-0.99,3.23,3.91,1.16
36.5310,0.09,0.12,-0.99,3.42,3.60,0.85
36.5480,0.09,0.12,-0.99,3.30,3.60,0.79
36.5640,0.09,0.12,-0.99,3.30,3.72,0.98
36.5800,0.08,0.12,-0.99,3.05,3.48,1.53
36.5960,0.09,0.11,-0.99,3.30,3.78,1.65
36.6110,0.08,0.11,-0.99,3.42,3.36,1.22
36.6260,0.09,0.12,-0.99,3.30,3.48,1.34
36.6400,0.09,0.12,-0.99,3.23,2.99,1.65
36.6550,0.08,0.11,-0.99,3.17,3.17,1.34
36.6660,0.09,0.11,-0.99,2.99,3.23,1.34
36.6830,0.09,0.11,-0.99,3.23,3.48,1.28
36.7010,0.09,0.12,-0.99,2.93,3.72,1.22
36.7010,0.09,0.12,-0.99,3.17,3.48,1.40
36.7300,0.09,0.12,-0.99,3.05,3.48,1.65
36.7470,0.09,0.11,-0.99,3.17,3.66,1.59
36.7620,0.08,0.09,-1.00,3.23,3.48,0.85
36.7780,0.08,0.10,-1.00,3.23,4.09,-0.98
36.7940,0.09,0.11,-0.99,3.48,4.33,-1.71
36.8100,0.08,0.11,-0.99,3.60,4.27,-1.77
36.8260,0.09,0.13,-0.99,3.23,4.09,-0.18
36.8420,0.09,0.13,-0.99,3.30,3.78,0.67
36.8560,0.09,0.12,-0.99,3.36,3.78,1.46
36.8660,0.08,0.12,-0.99,3.17,3.60,1.59
36.8820,0.08,0.11,-1.00,2.99,3.42,1.40
36.9020,0.09,0.12,-0.99,3.17,3.78,0.73
36.9180,0.09,0.12,-0.99,3.05,3.91,0.73
36.9330,0.09,0.12,-0.99,3.11,3.85,1.53
36.9490,0.09,0.12,-0.99,3.30,3.66,2.20
36.9660,0.08,0.11,-0.99,2.99,3.78,1.77
36.9820,0.08,0.11,-0.99,3.05,3.60,1.65
36.9880,0.09,0.12,-0.99,3.05,3.66,1.59
37.0030,0.09,0.12,-0.99,2.99,3.66,2.01
37.0270,0.09,0.12,-0.99,3.17,3.48,1.89
37.0420,0.09,0.11,-0.99,3.17,3.54,1.40
37.0580,0.09,0.11,-0.99,2.99,4.09,0.98
37.0730,0.08,0.11,-0.99,3.05,3.85,0.37
37.0880,0.09,0.12,-0.99,3.36,3.48,-0.43
37.1040,0.09,0.12,-0.99,3.30,3.91,0.98
37.1200,0.08,0.11,-0.99,3.23,3.72,1.40
37.1280,0.08,0.11,-1.00,3.17,3.85,0.85
37.1440,0.09,0.11,-0.99,3.05,3.60,0.73
37.1660,0.08,0.11,-0.99,3.17,3.78,0.61
37.1810,0.08,0.10,-1.00,3.42,3.85,-0.92
37.1960,0.09,0.11,-0.99,3.42,4.33,-2.69
37.2020,0.09,0.13,-0.99,3.23,4.15,-1.22
37.2180,0.09,0.12,-0.99,3.23,3.78,0.06
37.2420,0.09,0.12,-0.99,3.11,4.09,0.49
37.2560,0.09,0.11,-0.99,3.23,3.66,0.85
37.2720,0.09,0.12,-0.99,3.11,3.85,0.73
37.2880,0.09,0.12,-0.99,3.11,3.72,1.10
37.3040,0.09,0.11,-0.99,3.17,3.72,1.16
37.3200,0.09,0.10,-1.00,3.23,3.97,0.67
37.3360,0.09,0.10,-1.00,3.23,3.66,-1.40
37.3510,0.08,0.09,-1.00,3.48,4.21,-2.62
37.3560,0.09,0.13,-0.99,3.36,4.21,-2.50
37.3720,0.09,0.14,-0.99,3.23,3.60,-0.37
37.3960,0.09,0.13,-0.99,3.36,3.97,0.37
37.4130,0.09,0.13,-0.99,3.11,3.72,1.16
37.4300,0.09,0.12,-0.99,3.17,3.60,1.53
37.4450,0.09,0.12,-0.99,3.05,3.85,1.71
37.4610,0.08,0.11,-1.00,3.11,3.72,1.40
37.4630,0.08,0.10,-0.99,3.30,3.72,0.49
37.4790,0.08,0.11,-0.99,3.11,4.03,0.18
37.5020,0.09,0.11,-0.99,3.23,3.72,0.98
37.5190,0.09,0.12,-0.99,3.05,3.85,1.16
37.5340,0.09,0.12,-0.99,3.05,3.72,0.92
37.5550,0.09,0.13,-0.99,3.11,3.36,1.22
37.5700,0.09,0.12,-0.99,3.17,3.48,1.34
37.5740,0.08,0.11,-0.99,3.23,3.72,1.59
37.6010,0.08,0.11,-1.00,3.23,3.36,1.53
37.6170,0.08,0.12,-0.99,3.11,3.60,1.34
37.6320,0.09,0.12,-0.99,3.05,3.66,1.22
37.6480,0.08,0.12,-0.99,3.11,3.42,1.22
37.6630,0.09,0.12,-0.99,3.11,3.78,1.46
37.6730,0.09,0.12,-0.99,2.99,3.91,1.28
37.6890,0.09,0.12,-0.99,3.23,3.60,1.40
37.7060,0.09,0.12,-0.99,2.99,3.54,1.71
37.7220,0.08,0.11,-0.99,2.99,3.66,1.59
37.7380,0.09,0.11,-0.99,2.93,3.85,1.53
37.7430,0.08,0.11,-1.00,3.30,3.97,1.40
37.7590,0.09,0.11,-0.99,3.23,3.97,0.18
37.7840,0.08,0.12,-0.99,3.48,3.66,-0.12
37.7990,0.09,0.13,-0.99,3.17,4.09,1.16
37.8100,0.09,0.12,-0.99,3.42,3.66,1.46
37.8270,0.08,0.11,-0.99,2.99,3.72,1.46
37.8430,0.09,0.12,-0.99,3.17,3.85,1.53
37.8600,0.09,0.12,-0.99,3.11,3.85,1.40
37.8760,0.09,0.11,-0.99,3.30,3.91,0.92
37.8920,0.09,0.11,-0.99,3.42,3.85,0.37
37.9070,0.08,0.11,-0.99,3.23,4.09,0.06
37.9220,0.09,0.12,-0.99,3.05,3.91,0.12
37.9380,0.08,0.12,-0.99,3.17,3.72,0.06
37.9440,0.09,0.12,-0.99,3.17,3.97,0.55
37.9590,0.09,0.12,-0.99,3.23,3.78,0.61
37.9830,0.09,0.12,-0.99,3.17,3.60,1.16
37.9990,0.09,0.12,-0.99,3.42,3.54,1.46
38.0140,0.09,0.11,-1.00,3.17,3.30,2.01
38.0290,0.09,0.12,-0.99,3.23,3.54,1.28
38.0430,0.09,0.12,-0.99,3.17,3.72,0.67
38.0590,0.08,0.12,-0.99,3.23,3.66,0.67
38.0660,0.09,0.12,-0.99,3.17,3.42,0.92
38.0820,0.09,0.12,-0.99,3.23,3.42,1.16
38.1060,0.09,0.11,-0.99,3.42,3.78,1.28
38.1060,0.08,0.11,-0.99,3.23,3.30,1.04
38.1370,0.08,0.12,-0.99,3.23,3.36,1.34
38.1530,0.09,0.12,-0.99,3.11,3.30,1.77
38.1690,0.09,0.11,-0.99,3.17,3.72,1.95
38.1860,0.09,0.11,-0.99,3.17,3.54,1.53
38.2030,0.08,0.12,-0.99,3.05,3.54,1.77
38.2180,0.09,0.12,-0.99,2.99,3.23,1.59
38.2340,0.09,0.11,-0.99,3.30,3.66,1.46
38.2490,0.08,0.12,-0.99,3.36,3.42,1.16
38.2650,0.09,0.12,-0.99,3.23,4.03,1.04
38.2820,0.09,0.12,-0.99,3.30,3.54,0.49
38.2970,0.09,0.13,-0.99,3.36,3.48,1.65
38.3120,0.09,0.12,-0.99,2.99,3.30,2.14
38.3220,0.09,0.11,-0.99,3.11,3.42,2.20
38.3390,0.09,0.11,-0.99,3.05,3.42,2.26
38.3550,0.09,0.11,-0.99,3.05,3.78,1.89
38.3720,0.09,0.11,-0.99,3.23,3.78,1.28
38.3870,0.09,0.11,-0.99,3.11,3.72,1.46
38.4020,0.08,0.11,-0.99,3.17,3.66,1.77
38.4050,0.09,0.11,-0.99,2.81,4.03,1.71
38.4210,0.08,0.12,-0.99,3.05,3.60,1.04
38.4450,0.09,0.12,-0.99,3.05,3.30,1.16
38.4620,0.09,0.12,-0.99,2.99,4.03,1.04
38.4790,0.09,0.12,-0.99,3.42,3.85,1.22
38.4950,0.09,0.12,-0.99,3.23,3.60,1.46
38.5120,0.09,0.11,-0.99,3.23,3.85,1.59
38.5270,0.09,0.11,-0.99,3.05,3.42,1.95
38.5430,0.09,0.11,-0.99,2.99,3.42,1.77
38.5460,0.09,0.11,-0.99,3.42,3.48,1.53
38.5610,0.08,0.12,-0.99,2.87,3.78,1.10
38.5840,0.08,0.12,-0.99,3.11,4.15,1.46
38.6010,0.09,0.12,-0.99,3.17,3.72,1.53
38.6170,0.09,0.13,-0.99,2.99,3.42,1.53
38.6340,0.09,0.12,-0.99,2.99,3.48,1.53
38.6420,0.09,0.11,-0.99,3.30,3.36,1.89
38.6580,0.09,0.11,-0.99,3.42,3.48,1.71
38.6730,0.09,0.11,-0.99,3.23,3.60,1.10
38.6890,0.08,0.11,-1.00,2.99,3.91,0.73
38.7100,0.08,0.11,-0.99,3.30,4.09,0.00
38.7250,0.08,0.12,-0.99,3.11,3.85,-0.06
38.7300,0.08,0.12,-0.99,3.17,3.97,0.73
38.7550,0.09,0.13,-0.99,3.11,4.03,1.22
38.7700,0.09,0.12,-0.99,3.11,3.54,1.65
38.7790,0.08,0.12,-0.99,2.81,3.85,1.53
38.7960,0.09,0.12,-0.99,3.23,3.60,1.40
38.8130,0.09,0.11,-0.99,3.11,3.72,1.46
38.8300,0.08,0.10,-1.00,2.99,3.91,0.92
38.8460,0.08,0.10,-0.99,3.30,4.09,0.12
38.8610,0.08,0.12,-0.99,3.23,3.78,0.06
38.8780,0.09,0.13,-0.99,3.11,4.09,0.79
38.8930,0.09,0.13,-0.99,3.23,3.97,1.34
38.9080,0.09,0.12,-0.99,3.05,3.85,1.53
38.9230,0.08,0.11,-1.00,3.05,3.72,1.46
38.9380,0.09,0.12,-0.99,2.93,3.78,1.04
38.9520,0.09,0.12,-0.99,3.11,3.66,1.10
38.9630,0.09,0.12,-0.99,3.36,3.60,1.28
38.9800,0.09,0.11,-0.99,3.48,3.66,1.40
38.9950,0.09,0.11,-0.99,3.23,3.54,0.98
39.0150,0.08,0.10,-0.99,3.36,3.66,0.18
39.0310,0.08,0.10,-1.00,3.23,4.21,-0.43
39.0460,0.08,0.11,-0.99,3.42,3.72,-0.85
39.0610,0.08,0.10,-0.99,3.48,4.21,-2.44
39.0680,0.08,0.10,-1.00,3.54,4.46,-3.48
39.0840,0.09,0.12,-0.99,3.66,4.33,-3.17
39.0990,0.09,0.13,-0.99,3.48,4.46,-1.89
39.1220,0.08,0.13,-0.99,3.30,4.27,-1.59
39.1370,0.09,0.13,-0.99,3.11,3.85,0.37
39.1530,0.09,0.13,-0.99,3.05,3.42,1.10
39.1670,0.09,0.12,-0.99,3.05,3.60,1.59
39.1830,0.09,0.11,-1.00,3.17,4.03,1.46
39.1980,0.09,0.11,-0.99,3.11,3.78,1.16
39.2120,0.08,0.11,-1.00,3.11,4.09,0.43
39.2270,0.08,0.11,-0.99,3.30,3.78,-0.24
39.2380,0.09,0.11,-0.99,3.23,4.03,-0.37
39.2550,0.08,0.11,-0.99,3.36,4.09,-0.98
39.2720,0.08,0.12,-0.99,3.30,4.15,-0.98
39.2730,0.08,0.13,-0.99,3.23,4.03,0.06
39.3030,0.09,0.14,-0.99,3.30,3.60,0.98
39.3180,0.09,0.12,-0.99,3.17,3.42,1.77
39.3330,0.08,0.11,-0.99,3.23,3.72,1.71
39.3490,0.09,0.11,-0.99,3.11,3.78,0.55
39.3660,0.09,0.11,-0.99,3.23,4.15,-0.49
39.3820,0.09,0.12,-0.99,3.30,4.03,-0.37
39.3970,0.08,0.12,-0.99,3.17,3.72,0.55
39.4120,0.08,0.11,-0.99,3.23,3.72,1.04
39.4230,0.08,0.12,-0.99,3.05,3.66,1.53
39.4390,0.08,0.12,-0.99,2.87,3.91,1.34
39.4550,0.09,0.12,-0.99,3.11,3.85,1.77
39.4720,0.09,0.12,-0.99,3.05,3.60,1.16
39.4870,0.08,0.11,-0.99,3.30,3.85,0.85
39.5030,0.09,0.12,-0.99,3.36,3.97,0.31
39.5060,0.09,0.12,-0.99,3.23,3.54,1.22
39.5210,0.08,0.11,-0.99,3.05,3.66,1.53
39.5450,0.08,0.11,-0.99,3.17,3.54,1.04
39.5620,0.09,0.12,-0.99,3.05,3.66,0.92
39.5790,0.09,0.12,-0.99,3.30,3.48,1.04
39.5950,0.09,0.12,-0.99,3.11,3.66,1.16
39.6100,0.08,0.11,-0.99,3.17,3.85,1.34
39.6120,0.08,0.11,-1.00,3.23,4.09,0.61
39.6280,0.08,0.11,-0.99,3.48,4.09,-0.18
39.6570,0.09,0.12,-0.99,3.23,3.91,15.50
39.6670,0.09,0.11,-0.99,3.23,3.66,-0.06
39.6840,0.09,0.11,-0.99,3.30,4.03,-0.18
39.7000,0.08,0.11,-0.99,3.23,3.72,0.00
39.7210,0.08,0.11,-0.99,3.11,3.97,0.06
39.7360,0.08,0.12,-0.99,3.11,4.03,-0.06
39.7520,0.09,0.12,-0.99,3.23,4.33,-0.79
39.7690,0.09,0.11,-0.99,3.17,3.97,-1.10
39.7840,0.09,0.11,-0.99,3.30,4.15,-2.01
39.7890,0.09,0.12,-0.99,3.54,4.03,-2.14
39.8050,0.09,0.12,-0.99,3.60,3.72,-0.73
39.8290,0.09,0.12,-0.99,3.30,3.60,0.49
39.8450,0.08,0.12,-0.99,3.36,3.36,0.61
39.8610,0.09,0.13,-0.99,3.17,3.78,1.10
39.8770,0.09,0.12,-0.99,3.23,3.54,1.59
39.8930,0.09,0.11,-0.99,3.11,3.48,1.40
39.8950,0.09,0.11,-0.99,3.23,3.66,0.92
39.9110,0.08,0.12,-0.99,2.99,3.60,0.37
39.9400,0.08,0.11,-0.99,3.23,3.91,0.37
39.9510,0.08,0.11,-1.00,3.30,3.78,0.85
39.9660,0.08,0.11,-1.00,3.23,3.72,0.61
39.9840,0.09,0.11,-0.99,3.30,3.66,0.55
39.9990,0.09,0.12,-0.99,3.23,3.72,0.31
40.0010,0.09,0.12,-0.99,3.17,3.91,0.00
40.0300,0.09,0.12,-0.99,3.30,4.21,0.61
40.0440,0.09,0.12,-0.99,3.42,3.72,0.49
40.0620,0.08,0.12,-0.99,2.99,3.85,0.67
40.0670,0.08,0.12,-0.99,2.93,4.03,1.10
40.0830,0.09,0.12,-0.99,3.11,3.78,1.04
40.1040,0.08,0.11,-0.99,3.23,3.48,0.79
40.1210,0.09,0.11,-0.99,3.17,3.85,0.98
40.1380,0.08,0.11,-0.99,3.11,3.48,0.67
40.1540,0.09,0.12,-0.99,3.05,4.21,0.98
40.1700,0.09,0.11,-0.99,3.30,3.72,1.16
40.1860,0.09,0.12,-0.99,3.30,3.72,0.79
40.2010,0.08,0.12,-0.99,3.05,3.85,1.04
40.2160,0.08,0.12,-0.99,3.30,3.78,1.46
40.2320,0.09,0.11,-0.99,3.30,3.78,1.40
40.2450,0.08,0.12,-0.99,3.30,3.78,1.28
40.2540,0.09,0.11,-0.99,3.30,3.66,0.61
40.2770,0.08,0.11,-0.99,3.48,3.78,0.49
40.2940,0.08,0.11,-0.99,3.36,3.85,0.31
40.3090,0.08,0.12,-0.99,3.05,3.97,0.24
40.3240,0.09,0.12,-0.99,3.11,3.91,0.73
40.3390,0.08,0.12,-0.99,3.05,3.78,1.16
40.3470,0.08,0.11,-0.99,3.17,3.72,1.10
40.3630,0.08,0.12,-0.99,3.23,3.60,0.85
40.3790,0.09,0.12,-0.99,3.17,3.66,0.85
40.3950,0.09,0.12,-0.99,3.11,3.66,0.98
40.4120,0.08,0.11,-1.00,3.11,3.91,1.16
40.4290,0.09,0.11,-0.99,3.30,3.60,1.40
40.4460,0.08,0.11,-0.99,3.11,3.36,1.34
40.4600,0.08,0.11,-0.99,2.99,3.78,1.46
40.4760,0.09,0.11,-0.99,3.05,3.60,1.16
40.4920,0.08,0.11,-0.99,3.23,3.72,0.12
40.5070,0.08,0.12,-0.99,3.30,3.54,-0.12
40.5220,0.09,0.12,-0.99,3.17,3.66,0.43
40.5370,0.08,0.12,-0.99,3.11,3.85,1.16
40.5530,0.08,0.11,-0.99,3.17,3.97,1.10
40.5680,0.09,0.11,-0.99,3.23,3.78,0.67
40.5780,0.08,0.11,-0.99,3.23,4.15,0.06
40.5940,0.09,0.12,-0.99,3.17,4.03,0.12
40.6150,0.09,0.12,-0.99,3.17,3.91,0.37
40.6200,0.08,0.11,-0.99,3.23,3.85,0.31
40.6460,0.09,0.11,-0.99,3.23,3.78,0.37
40.6530,0.09,0.13,-0.99,3.11,4.03,0.49
40.6690,0.09,0.13,-0.99,3.48,3.48,1.34
40.6920,0.09,0.12,-0.99,3.17,3.54,1.59
40.7020,0.08,0.11,-0.99,3.05,3.60,1.53
40.7190,0.08,0.11,-0.99,3.11,3.66,0.98
40.7350,0.08,0.12,-0.99,3.05,3.60,1.04
40.7520,0.09,0.12,-0.99,3.17,3.48,1.16
40.7680,0.08,0.11,-0.99,3.30,3.36,1.34
40.7840,0.09,0.11,-0.99,3.30,3.66,1.28
40.7860,0.09,0.12,-0.99,3.23,3.72,0.98
40.8160,0.08,0.12,-0.99,3.23,3.85,1.04
40.8190,0.08,0.12,-0.99,3.23,3.30,1.40
40.8480,0.08,0.12,-0.99,3.05,3.85,1.59
40.8640,0.08,0.11,-0.99,3.05,3.42,1.77
40.8810,0.08,0.11,-1.00,3.05,4.03,1.65
40.8970,0.08,0.11,-0.99,3.23,3.36,1.10
40.9010,0.08,0.11,-0.99,3.42,3.85,0.79
40.9170,0.08,0.11,-0.99,3.05,3.78,0.49
40.9400,0.08,0.12,-0.99,3.17,3.85,0.49
40.9570,0.09,0.12,-0.99,3.17,3.97,1.04
40.9730,0.09,0.11,-0.99,3.30,4.03,1.28
40.9890,0.08,0.11,-0.99,3.23,3.97,0.92
41.0040,0.09,0.11,-0.99,3.30,3.85,0.49
41.0190,0.08,0.12,-0.99,3.30,3.60,0.55
41.0340,0.08,0.12,-0.99,3.17,3.66,0.67
41.0510,0.09,0.11,-0.99,3.23,4.03,0.73
41.0660,0.09,0.11,-0.99,3.36,3.54,0.37
41.0820,0.08,0.11,-0.99,3.48,3.66,0.06
41.0980,0.08,0.12,-0.99,3.23,3.97,0.12
41.1070,0.08,0.12,-0.99,3.30,3.72,0.37
41.1230,0.09,0.13,-0.99,3.23,3.60,0.98
41.1450,0.09,0.12,-0.99,3.11,3.72,1.59
41.1470,0.09,0.12,-0.99,3.23,3.78,1.77
41.1650,0.08,0.11,-0.99,3.17,3.42,1.77
41.1810,0.08,0.11,-1.00,3.30,3.60,1.28
41.2060,0.08,0.11,-0.99,3.42,3.85,0.67
41.2180,0.08,0.11,-0.99,3.36,3.54,0.55
41.2330,0.08,0.12,-0.99,3.23,3.66,0.85
41.2500,0.09,0.11,-1.00,2.99,3.78,1.71
41.2670,0.08,0.12,-0.99,3.11,3.54,1.28
41.2820,0.09,0.11,-0.99,3.48,3.78,0.79
41.2970,0.08,0.11,-0.99,3.36,3.72,0.67
41.3130,0.08,0.12,-0.99,3.30,3.54,1.04
41.3170,0.08,0.12,-0.99,3.30,3.54,1.22
41.3450,0.08,0.11,-0.99,3.11,3.78,1.16
41.3550,0.08,0.12,-0.99,3.23,3.54,1.04
41.3720,0.08,0.11,-0.99,3.11,3.66,1.34
41.3880,0.08,0.11,-0.99,3.17,3.54,1.16
41.4050,0.09,0.11,-0.99,3.48,3.17,0.92
41.4210,0.08,0.11,-0.99,3.05,3.85,0.49
41.4360,0.08,0.11,-0.99,3.23,3.42,0.85
41.4510,0.08,0.12,-1.00,3.23,3.60,0.98
41.4660,0.08,0.12,-0.99,3.23,3.54,1.10
41.4820,0.08,0.12,-0.99,3.05,3.97,1.16
41.4980,0.08,0.11,-0.99,3.30,3.97,0.98
41.5140,0.08,0.11,-0.99,3.23,3.66,0.37
41.5300,0.08,0.12,-0.99,3.17,3.60,0.24
41.5380,0.08,0.12,-0.99,3.48,3.42,0.55
41.5540,0.08,0.12,-0.99,3.23,3.85,0.98
41.5760,0.08,0.12,-0.99,3.17,3.36,1.40
41.5920,0.08,0.12,-0.99,2.99,3.66,1.59
41.6080,0.08,0.12,-0.99,2.99,3.72,1.59
41.6240,0.08,0.12,-0.99,3.11,3.66,1.65
41.6400,0.08,0.11,-0.99,2.99,3.78,1.95
41.6550,0.08,0.11,-0.99,3.23,3.54,1.59
41.6700,0.08,0.11,-0.99,2.99,3.78,0.92
41.6770,0.08,0.11,-0.99,3.11,3.48,0.73
41.6930,0.08,0.11,-0.99,3.23,3.54,0.67
41.7150,0.08,0.11,-0.99,3.23,4.27,0.73
41.7150,0.08,0.12,-0.99,3.30,3.91,1.22
41.7450,0.09,0.12,-0.99,3.17,3.72,1.40
41.7620,0.08,0.12,-0.99,2.99,3.66,1.46
41.7780,0.08,0.12,-0.99,3.05,3.85,1.71
41.7820,0.08,0.11,-0.99,3.17,3.60,1.65
41.7980,0.08,0.11,-0.99,3.11,3.60,1.65
41.8230,0.08,0.11,-0.99,3.36,3.66,1.22
41.8380,0.08,0.11,-0.99,3.17,3.97,0.85
41.8540,0.08,0.11,-0.99,3.30,3.72,1.04
41.8690,0.08,0.12,-0.99,3.30,3.66,0.92
41.8730,0.09,0.12,-0.99,3.11,4.03,1.40
41.8880,0.08,0.12,-0.99,3.05,3.78,1.46
41.9110,0.08,0.12,-0.99,3.23,3.42,1.40
41.9280,0.08,0.11,-0.99,3.23,3.85,1.59
41.9440,0.08,0.11,-1.00,3.11,3.60,1.46
41.9600,0.08,0.11,-0.99,3.11,3.36,1.28
41.9770,0.08,0.11,-0.99,3.11,4.03,1.04
41.9930,0.08,0.11,-0.99,3.17,3.60,0.85
42.0100,0.08,0.11,-0.99,2.99,3.78,0.73
42.0270,0.08,0.11,-0.99,3.23,4.15,0.85
42.0420,0.08,0.11,-1.00,3.42,3.85,0.79
42.0580,0.08,0.09,-1.00,2.87,3.85,0.98
42.0730,0.08,0.13,-0.99,3.30,4.09,0.61
42.0880,0.09,0.13,-0.99,3.48,3.85,1.04
42.1030,0.09,0.12,-0.99,3.11,3.72,0.67
42.1190,0.09,0.13,-0.99,3.23,4.03,0.00
42.1280,0.09,0.14,-0.99,2.99,3.85,0.67
42.1470,0.08,0.12,-0.99,3.05,3.42,1.53
42.1640,0.08,0.11,-0.99,3.11,3.42,1.83
42.1800,0.09,0.11,-1.00,3.23,3.66,1.65
42.1960,0.08,0.11,-1.00,3.17,3.97,0.67
42.2120,0.08,0.11,-1.00,3.30,3.85,0.55
42.2280,0.08,0.12,-0.99,3.23,3.48,0.98
42.2440,0.09,0.11,-1.00,3.36,3.42,0.92
42.2490,0.08,0.12,-0.99,3.36,3.54,0.73
42.2640,0.08,0.12,-0.99,3.17,3.66,1.59
42.2890,0.08,0.12,-0.99,2.99,3.85,1.40
42.3050,0.08,0.12,-0.99,3.17,3.54,1.40
42.3220,0.08,0.12,-0.99,2.87,3.97,1.22
42.3370,0.08,0.12,-0.99,3.30,3.78,1.28
42.3530,0.09,0.12,-0.99,3.36,3.60,1.40
42.3560,0.09,0.11,-0.99,3.11,3.36,1.59
42.3840,0.09,0.12,-0.99,3.11,3.48,1.59
42.3950,0.08,0.11,-0.99,3.11,3.54,1.46
42.4110,0.09,0.11,-0.99,3.36,3.66,1.16
42.4270,0.08,0.10,-1.00,3.11,3.72,0.24
42.4430,0.08,0.11,-0.99,3.36,3.85,-0.61
42.4590,0.08,0.12,-0.99,3.23,3.91,-0.55
42.4750,0.08,0.12,-0.99,3.23,4.15,-0.31
42.4910,0.08,0.12,-0.99,3.05,3.66,1.28
42.5070,0.08,0.12,-1.00,3.23,3.78,0.85
42.5220,0.08,0.12,-0.99,3.23,3.97,0.49
42.5370,0.09,0.12,-0.99,3.30,3.85,0.67
42.5530,0.08,0.12,-0.99,3.23,3.97,1.04
42.5610,0.08,0.12,-0.99,3.11,3.91,1.34
42.5770,0.08,0.11,-0.99,3.17,3.60,1.46
42.5990,0.08,0.11,-0.99,3.17,3.72,1.22
42.6140,0.08,0.11,-1.00,3.30,3.54,1.04
42.6300,0.08,0.12,-0.99,3.11,3.60,1.34
42.6330,0.08,0.12,-0.99,3.23,3.78,1.53
42.6480,0.09,0.12,-0.99,3.11,3.42,1.59
42.6710,0.08,0.12,-0.99,3.17,3.66,1.46
42.6880,0.08,0.11,-0.99,3.30,3.78,1.28
42.7050,0.08,0.11,-0.99,3.05,3.60,1.10
42.7200,0.08,0.11,-0.99,3.23,3.54,1.16
42.7360,0.08,0.11,-0.99,2.99,3.48,1.04
42.7480,0.08,0.12,-0.99,3.05,3.66,0.98
42.7670,0.08,0.12,-0.99,3.11,3.60,1.40
42.7830,0.08,0.11,-0.99,3.17,4.15,1.53
42.7980,0.08,0.11,-0.99,3.23,3.48,1.28
42.8130,0.08,0.11,-0.99,3.17,3.72,1.28
42.8280,0.08,0.12,-0.99,3.11,3.66,1.10
42.8380,0.08,0.12,-0.99,3.23,3.72,1.65
42.8540,0.08,0.11,-0.99,3.17,3.66,1.89
42.8710,0.08,0.11,-0.99,3.23,3.66,1.28
42.8870,0.08,0.11,-0.99,3.23,3.42,1.16
42.9030,0.08,0.12,-0.99,3.23,3.78,0.98
42.9190,0.08,0.12,-0.99,3.23,3.60,1.34
42.9350,0.08,0.12,-0.99,3.11,3.72,1.46
42.9510,0.08,0.11,-0.99,3.05,3.66,1.65
42.9660,0.08,0.11,-0.99,3.48,3.42,1.46
42.9820,0.08,0.11,-0.99,3.05,3.72,1.34
42.9980,0.08,0.12,-0.99,3.23,3.66,1.46
43.0130,0.08,0.11,-0.99,3.11,3.78,1.34
43.0280,0.08,0.11,-0.99,3.23,3.78,1.22
43.0380,0.08,0.12,-0.99,3.17,3.72,0.98
43.0550,0.08,0.12,-0.99,3.17,3.36,1.10
43.0710,0.08,0.12,-0.99,2.99,3.48,1.28
43.0870,0.08,0.12,-0.99,3.05,3.78,1.34
43.1030,0.08,0.11,-0.99,3.11,3.91,1.83
43.1190,0.08,0.11,-0.99,3.11,3.91,1.28
43.1340,0.08,0.11,-1.00,3.17,3.66,0.73
43.1500,0.09,0.12,-0.99,3.30,4.03,0.55
43.1650,0.08,0.11,-0.99,3.23,3.72,0.49
43.1720,0.08,0.12,-0.99,3.36,3.78,0.61
43.1870,0.08,0.12,-0.99,2.99,3.78,1.16
43.2100,0.08,0.12,-0.99,3.17,3.30,1.46
43.2270,0.08,0.12,-0.99,3.17,3.60,1.83
43.2430,0.08,0.11,-0.99,3.30,3.85,1.40
43.2580,0.08,0.11,-0.99,3.30,3.66,1.10
43.2730,0.08,0.12,-0.99,3.36,3.91,0.85
43.2890,0.09,0.12,-0.99,2.99,3.91,1.40
43.3050,0.08,0.11,-0.99,3.23,3.54,1.59
43.3200,0.08,0.11,-0.99,3.11,3.66,1.34
43.3340,0.08,0.12,-0.99,3.17,3.85,1.34
43.3500,0.08,0.12,-0.99,3.36,3.72,1.28
43.3610,0.08,0.11,-0.99,3.11,3.85,1.22
43.3770,0.09,0.11,-0.99,3.05,3.66,1.16
43.3940,0.09,0.11,-0.99,3.11,3.72,0.79
43.4100,0.08,0.11,-0.99,3.30,3.72,0.49
43.4260,0.08,0.11,-0.99,3.11,3.78,0.31
43.4420,0.08,0.11,-0.99,3.11,4.03,0.18
43.4580,0.09,0.11,-0.99,3.48,3.36,0.61
43.4740,0.08,0.11,-0.99,3.05,4.03,0.43
43.4890,0.08,0.11,-0.99,3.23,4.09,0.06
43.4940,0.08,0.11,-0.99,3.17,3.85,0.06
43.5100,0.08,0.12,-0.99,3.36,3.72,0.37
43.5330,0.08,0.12,-0.99,3.42,3.85,0.61
43.5500,0.08,0.12,-0.99,3.11,3.72,1.16
43.5670,0.08,0.12,-0.99,3.23,3.85,1.28
43.5820,0.08,0.11,-0.99,2.93,3.78,1.59
43.5980,0.08,0.11,-0.99,3.05,3.85,1.22
43.6140,0.08,0.11,-1.00,3.11,3.78,0.67
43.6300,0.08,0.11,-1.00,3.11,3.85,0.43
43.6340,0.08,0.12,-0.99,3.17,3.72,0.55
43.6490,0.08,0.12,-0.99,3.11,4.03,1.16
43.6720,0.08,0.12,-0.99,3.23,3.85,1.28
43.6880,0.08,0.11,-0.99,2.93,3.78,1.34
43.7050,0.08,0.11,-0.99,2.87,3.72,0.98
43.7220,0.08,0.11,-0.99,2.99,3.85,0.85
43.7370,0.08,0.12,-0.99,3.11,4.03,0.73
43.7530,0.08,0.11,-0.99,3.17,3.97,1.16
43.7690,0.08,0.11,-0.99,2.99,3.91,1.16
43.7840,0.08,0.11,-0.99,3.05,3.91,1.10
43.8000,0.09,0.12,-0.99,2.93,3.97,1.22
43.8150,0.08,0.11,-0.99,3.17,3.48,1.71
43.8310,0.08,0.11,-0.99,3.23,3.97,1.59
43.8470,0.08,0.11,-0.99,3.23,3.72,1.28
43.8620,0.08,0.12,-0.99,3.23,3.48,1.10
43.8720,0.08,0.11,-0.99,3.11,4.09,1.34
43.8890,0.08,0.11,-0.99,3.11,3.42,1.28
43.9050,0.08,0.11,-1.00,3.30,3.66,1.22
43.9220,0.08,0.11,-0.99,3.17,3.85,1.16
43.9370,0.08,0.11,-0.99,3.23,3.78,1.28
43.9520,0.08,0.11,-0.99,3.36,3.78,1.40
43.9660,0.08,0.11,-1.00,3.23,3.72,1.16
43.9830,0.08,0.11,-0.99,3.05,3.85,0.85
43.9880,0.09,0.11,-0.99,3.11,3.78,0.67
44.0040,0.08,0.12,-0.99,3.23,3.72,0.73
44.0290,0.08,0.12,-0.99,3.17,3.17,1.53
44.0410,0.08,0.12,-0.99,3.11,3.48,1.77
44.0580,0.08,0.12,-0.99,3.23,3.48,1.71
44.0740,0.08,0.11,-0.99,3.17,3.66,1.95
44.0910,0.08,0.11,-1.00,3.05,4.03,2.14
44.1070,0.08,0.11,-1.00,3.17,3.48,1.95
44.1230,0.08,0.11,-0.99,2.99,3.60,1.89
44.1380,0.08,0.11,-0.99,3.11,3.72,1.77
44.1500,0.08,0.11,-0.99,3.30,3.23,1.65
44.1570,0.08,0.11,-0.99,3.11,3.78,1.59
44.1820,0.08,0.12,-0.99,3.05,3.78,1.53
44.1990,0.08,0.12,-0.99,3.11,3.66,1.83
44.2150,0.08,0.11,-0.99,3.05,3.60,1.83
44.2310,0.08,0.11,-0.99,3.11,3.60,1.53
44.2470,0.08,0.11,-0.99,3.17,3.48,1.40
44.2620,0.08,0.12,-0.99,3.17,3.66,1.22
44.2780,0.08,0.11,-0.99,3.23,3.36,1.28
44.2830,0.08,0.11,-0.99,3.11,3.54,1.59
44.2980,0.08,0.11,-0.99,3.23,3.54,1.46
44.3140,0.08,0.11,-0.99,3.17,3.42,1.28
44.3380,0.08,0.12,-0.99,3.05,3.85,1.40
44.3540,0.08,0.11,-1.00,3.17,3.91,1.16
44.3700,0.09,0.11,-0.99,3.30,3.78,0.98
44.3860,0.08,0.10,-1.00,3.11,3.85,0.43
44.4000,0.08,0.12,-0.99,3.17,4.15,0.61
44.4050,0.08,0.12,-0.99,3.05,3.66,1.28
44.4210,0.08,0.12,-0.99,3.17,3.48,1.89
44.4430,0.08,0.12,-0.99,2.99,3.66,2.08
44.4600,0.08,0.11,-0.99,3.05,3.60,2.14
44.4770,0.08,0.11,-0.99,3.05,3.60,2.01
44.4930,0.08,0.11,-0.99,3.17,3.60,2.08
44.5090,0.08,0.11,-0.99,2.99,3.30,2.14
44.5250,0.08,0.11,-0.99,3.17,3.23,1.83
44.5410,0.08,0.11,-0.99,3.05,3.72,1.65
44.5570,0.08,0.11,-0.99,3.23,4.03,0.67
44.5600,0.08,0.11,-0.99,3.11,3.60,0.12
44.5760,0.08,0.12,-0.99,3.36,3.66,0.55
44.5990,0.08,0.12,-0.99,3.30,3.60,0.92
44.6150,0.08,0.12,-0.99,3.23,3.48,1.59
44.6320,0.08,0.12,-0.99,3.05,3.66,1.53
44.6480,0.08,0.12,-0.99,3.17,3.48,1.53
44.6510,0.08,0.11,-0.99,2.99,3.66,1.28
44.6810,0.08,0.11,-0.99,3.17,3.66,1.10
44.6820,0.08,0.12,-0.99,3.23,3.42,1.04
44.6980,0.08,0.12,-0.99,2.99,3.48,1.28
44.7160,0.08,0.11,-0.99,3.36,3.54,1.71
44.7440,0.08,0.11,-0.99,3.17,3.85,1.22
44.7510,0.08,0.11,-0.99,3.23,3.91,0.98
44.7650,0.08,0.11,-0.99,3.05,3.42,0.92
44.7920,0.09,0.12,-0.99,3.30,3.60,1.22
44.8030,0.09,0.12,-0.99,3.05,3.78,1.77
44.8200,0.08,0.12,-0.99,3.17,3.54,1.89
44.8360,0.08,0.11,-0.99,3.30,3.72,1.95
44.8530,0.08,0.11,-0.99,3.11,3.60,1.65
44.8690,0.08,0.11,-0.99,3.17,3.60,1.59
44.8840,0.08,0.11,-0.99,3.11,3.60,1.28
44.8990,0.08,0.11,-0.99,3.30,3.66,1.22
44.9150,0.08,0.12,-0.99,3.30,3.54,1.22
44.9310,0.08,0.12,-0.99,3.11,3.42,1.53
44.9460,0.08,0.12,-0.99,3.11,3.66,1.53
44.9620,0.08,0.11,-0.99,3.23,3.54,1.65
44.9770,0.08,0.11,-0.99,3.17,3.42,1.59
44.9860,0.08,0.11,-0.99,2.93,3.66,1.53
45.0020,0.08,0.12,-0.99,3.05,3.54,1.77
45.0230,0.08,0.11,-0.99,3.17,3.78,1.59
45.0390,0.08,0.11,-0.99,3.05,3.97,1.59
45.0550,0.08,0.11,-1.00,3.05,3.72,1.16
45.0710,0.08,0.12,-0.99,3.30,3.54,1.10
45.0860,0.08,0.12,-0.99,3.11,3.48,1.59
45.1020,0.08,0.11,-0.99,3.30,3.78,1.59
45.1080,0.08,0.11,-0.99,3.30,3.60,1.16
45.1230,0.08,0.11,-0.99,3.36,3.72,0.98
45.1480,0.08,0.10,-1.00,3.48,4.09,-0.31
45.1640,0.08,0.12,-0.99,3.36,3.72,-0.67
45.1810,0.08,0.12,-0.99,3.17,3.78,0.37
45.1820,0.08,0.12,-0.99,3.17,3.85,0.61
45.1980,0.08,0.12,-0.99,3.36,3.85,0.92
45.2270,0.08,0.12,-0.99,3.17,3.66,0.85
45.2430,0.08,0.12,-0.99,3.30,3.48,1.04
45.2510,0.08,0.12,-0.99,3.23,3.48,1.59
45.2640,0.08,0.11,-0.99,3.17,3.60,1.71
45.2790,0.08,0.11,-0.99,3.11,3.66,1.89
45.3030,0.08,0.11,-0.99,3.36,3.36,1.22
45.3200,0.08,0.12,-0.99,3.30,3.36,1.22
45.3370,0.08,0.12,-0.99,3.23,3.42,1.22
45.3520,0.08,0.11,-0.99,3.17,3.48,1.46
45.3680,0.08,0.12,-0.99,3.17,3.36,1.65
45.3840,0.08,0.12,-0.99,3.11,3.42,1.95
45.3990,0.08,0.11,-0.99,3.11,3.36,1.83
45.4140,0.08,0.11,-0.99,3.23,3.30,1.83
45.4200,0.08,0.11,-0.99,3.36,3.23,1.40
45.4380,0.08,0.11,-0.99,3.05,3.85,1.40
45.4540,0.08,0.11,-0.99,2.99,3.60,1.71
45.4760,0.08,0.12,-0.99,3.36,3.48,1.65
45.4910,0.08,0.12,-0.99,3.17,3.30,1.71
45.5060,0.08,0.11,-0.99,3.17,3.72,1.59
45.5210,0.08,0.11,-0.99,3.23,3.85,1.53
45.5360,0.08,0.12,-0.99,3.11,4.09,1.34
45.5440,0.08,0.11,-1.00,3.23,3.05,1.28
45.5600,0.08,0.11,-0.99,2.99,3.54,1.34
45.5810,0.08,0.11,-0.99,3.11,3.54,1.46
45.5970,0.08,0.11,-1.00,3.30,3.66,1.65
45.6120,0.08,0.12,-0.99,3.36,3.42,1.16
45.6280,0.08,0.12,-0.99,2.87,3.66,1.46
45.6440,0.08,0.11,-0.99,3.11,3.66,1.59
45.6580,0.08,0.12,-0.99,3.11,3.48,1.28
45.6670,0.08,0.12,-0.99,3.23,3.42,1.34
45.6890,0.08,0.12,-0.99,3.30,3.23,1.40
45.6990,0.08,0.11,-0.99,3.23,3.54,1.65
45.7160,0.08,0.11,-0.99,3.17,3.72,1.46
45.7330,0.08,0.11,-1.00,3.17,3.91,1.22
45.7490,0.08,0.11,-0.99,3.05,3.60,0.92
45.7650,0.08,0.12,-0.99,3.42,3.72,1.40
45.7810,0.08,0.11,-0.99,3.30,3.66,1.40
45.7960,0.08,0.11,-0.99,3.11,3.66,0.98
45.8100,0.08,0.11,-0.99,3.23,3.54,0.98
45.8170,0.08,0.11,-0.99,3.17,3.54,1.04
45.8390,0.08,0.12,-0.99,3.23,3.60,1.28
45.8520,0.08,0.12,-0.99,3.23,3.30,1.40
45.8720,0.08,0.12,-0.99,3.30,3.42,1.46
45.8870,0.08,0.12,-0.99,3.23,3.54,1.59
45.9030,0.08,0.11,-0.99,3.30,3.54,1.89
45.9180,0.08,0.11,-0.99,3.30,3.97,1.53
45.9230,0.08,0.11,-0.99,3.36,3.23,0.92
45.9390,0.08,0.11,-0.99,3.17,3.36,1.16
45.9610,0.08,0.11,-1.00,3.05,3.60,1.04
45.9770,0.08,0.11,-0.99,3.30,3.85,0.61
45.9950,0.08,0.12,-0.99,3.36,3.66,1.16
46.0110,0.08,0.12,-0.99,3.17,3.60,1.59
46.0260,0.08,0.11,-0.99,3.17,3.42,1.71
46.0420,0.08,0.11,-0.99,3.17,3.54,1.53
46.0580,0.08,0.11,-0.99,3.36,3.48,1.53
46.0730,0.08,0.11,-0.99,3.17,3.85,1.28
46.0880,0.08,0.12,-0.99,3.11,3.85,1.28
46.1030,0.08,0.11,-0.99,3.17,3.54,1.34
46.1170,0.08,0.11,-1.00,3.30,3.72,1.28
46.1320,0.08,0.11,-0.99,3.23,3.85,0.67
46.1450,0.08,0.12,-1.00,3.30,3.85,0.73
46.1610,0.08,0.12,-0.99,3.11,3.91,0.98
46.1770,0.08,0.12,-0.99,2.87,3.60,1.40
46.1920,0.08,0.12,-0.99,3.11,3.48,1.46
46.2080,0.08,0.11,-0.99,3.05,3.60,1.77
46.2110,0.08,0.11,-1.00,3.17,3.85,1.40
46.2260,0.08,0.11,-1.00,3.23,3.85,1.16
46.2520,0.08,0.11,-0.99,3.05,3.91,0.98
46.2660,0.08,0.11,-0.99,3.23,3.78,1.04
46.2820,0.08,0.11,-0.99,3.30,3.91,0.98
46.2980,0.08,0.12,-0.99,3.30,3.72,0.79
46.3150,0.08,0.11,-0.99,3.42,3.91,0.79
46.3310,0.08,0.11,-0.99,3.36,4.21,0.18
46.3470,0.08,0.11,-0.99,3.17,3.91,-0.12
46.3630,0.09,0.12,-0.99,2.99,3.97,0.79
46.3790,0.08,0.11,-0.99,3.17,3.78,0.85
46.3930,0.08,0.11,-1.00,3.36,3.91,0.67
46.3990,0.08,0.11,-0.99,3.36,3.72,0.67
46.4150,0.08,0.11,-1.00,3.36,3.72,0.79
46.4390,0.08,0.12,-0.99,3.30,3.66,0.67
46.4550,0.08,0.12,-0.99,3.36,3.60,0.79
46.4730,0.08,0.11,-0.99,3.30,3.54,0.79
46.4890,0.08,0.11,-1.00,2.99,3.78,1.04
46.5060,0.08,0.12,-0.99,3.11,3.54,0.98
46.5120,0.08,0.12,-0.99,3.17,3.36,1.16
46.5370,0.08,0.12,-0.99,2.99,3.85,1.34
46.5510,0.08,0.11,-0.99,3.17,3.72,1.40
46.5620,0.08,0.11,-1.00,3.23,3.78,0.85
46.5780,0.08,0.11,-0.99,3.23,3.85,0.85
46.5950,0.08,0.12,-0.99,3.17,3.78,0.98
46.6110,0.08,0.12,-0.99,3.30,3.48,1.59
46.6270,0.08,0.12,-0.99,3.17,3.66,1.71
46.6440,0.08,0.12,-0.99,3.11,3.91,1.71
46.6600,0.08,0.11,-0.99,3.30,3.48,1.77
46.6750,0.08,0.11,-0.99,3.05,3.54,1.40
46.6780,0.08,0.11,-0.99,3.30,3.66,1.22
46.6940,0.08,0.11,-0.99,3.36,3.60,1.04
46.7160,0.08,0.11,-0.99,3.36,3.72,0.92
46.7330,0.08,0.12,-0.99,3.17,3.72,1.46
46.7510,0.08,0.12,-0.99,3.05,3.30,1.89
46.7670,0.08,0.11,-0.99,3.30,3.36,1.95
46.7670,0.08,0.11,-0.99,3.11,3.60,2.01
46.7980,0.08,0.11,-0.99,2.99,3.78,1.89
46.8140,0.08,0.11,-0.99,3.05,3.97,1.65
46.8300,0.08,0.11,-0.99,3.05,3.60,1.28
46.8460,0.08,0.11,-0.99,3.23,4.15,1.22
46.8530,0.08,0.11,-0.99,3.11,3.85,1.10
46.8650,0.08,0.11,-1.00,3.30,3.85,1.16
46.8900,0.08,0.11,-0.99,3.23,3.72,0.67
46.9070,0.08,0.11,-1.00,3.23,3.54,0.43
46.9230,0.08,0.11,-0.99,3.42,3.85,0.37
46.9390,0.08,0.10,-1.00,3.36,3.72,-0.06
46.9550,0.08,0.11,-0.99,3.23,3.78,-0.43
46.9700,0.08,0.12,-0.99,3.17,3.54,0.92
46.9720,0.08,0.12,-0.99,3.36,3.54,0.98
46.9880,0.08,0.12,-0.99,3.17,3.60,0.79
47.0110,0.08,0.12,-0.99,3.30,3.66,1.04
47.0280,0.08,0.12,-0.99,3.17,3.66,1.59
47.0440,0.08,0.11,-0.99,3.11,3.54,2.08
47.0610,0.08,0.11,-0.99,3.42,3.30,1.89
47.0770,0.08,0.11,-0.99,3.30,3.42,1.83
47.0940,0.08,0.11,-0.99,3.05,3.48,1.83
47.1100,0.08,0.11,-0.99,3.30,3.60,1.71
47.1270,0.08,0.11,-1.00,3.36,3.60,1.28
47.1430,0.08,0.12,-0.99,2.93,3.78,1.40
47.1590,0.08,0.11,-0.99,3.11,3.66,1.59
47.1610,0.08,0.11,-0.99,3.23,3.72,1.28
47.1770,0.08,0.11,-0.99,3.11,3.66,1.28
47.2000,0.08,0.12,-0.99,3.36,3.66,1.46
47.2170,0.08,0.12,-0.99,3.23,3.85,1.53
47.2330,0.08,0.12,-0.99,3.11,3.91,1.65
47.2500,0.08,0.12,-0.99,3.05,3.85,1.95
47.2540,0.08,0.11,-0.99,3.11,3.78,1.95
47.2680,0.08,0.11,-0.99,3.23,3.72,1.77
47.2980,0.08,0.11,-0.99,3.36,3.60,1.65
47.3010,0.08,0.11,-0.99,3.30,3.42,1.77
47.3180,0.08,0.11,-0.99,3.23,3.36,1.95
47.3330,0.08,0.11,-0.99,2.99,3.60,2.44
47.3570,0.08,0.11,-0.99,3.30,3.30,2.75
47.3730,0.08,0.11,-0.99,3.23,3.48,1.95
47.3910,0.08,0.11,-0.99,3.17,3.54,2.01
47.4060,0.08,0.12,-0.99,2.99,3.66,2.01
47.4220,0.08,0.13,-0.99,2.87,3.66,2.14
47.4370,0.08,0.11,-0.99,3.23,3.60,2.26
47.4410,0.08,0.11,-0.99,3.11,3.60,2.62
47.4560,0.08,0.11,-1.00,2.87,3.54,2.87
47.4800,0.08,0.12,-0.99,2.99,3.66,2.87
47.4980,0.08,0.11,-0.99,3.05,3.60,2.87
47.5140,0.08,0.12,-0.99,3.17,3.78,2.93
47.5300,0.08,0.11,-0.99,3.17,3.48,2.38
47.5470,0.08,0.11,-0.99,2.99,3.72,2.50
47.5630,0.08,0.12,-0.99,2.93,3.54,2.32
47.5790,0.08,0.12,-1.00,2.93,3.30,2.14
47.5810,0.08,0.11,-0.99,3.05,3.66,2.20
47.6110,0.08,0.11,-0.99,3.05,3.48,2.26
47.6180,0.08,0.11,-0.99,3.17,3.36,2.08
47.6400,0.08,0.11,-0.99,3.11,3.30,2.20
47.6550,0.08,0.11,-0.99,3.17,3.42,2.26
47.6670,0.08,0.12,-0.99,3.11,3.17,2.69
47.6830,0.08,0.11,-0.99,3.17,3.23,2.44
47.7010,0.08,0.12,-0.99,3.05,3.48,2.50
47.7160,0.08,0.11,-0.99,3.05,3.11,2.44
47.7330,0.08,0.11,-0.99,2.99,3.54,2.56
47.7480,0.08,0.12,-0.99,3.11,3.30,2.69
47.7640,0.08,0.12,-0.99,3.05,3.42,2.56
