Timestamp, AccX, AccY, AccZ, GyroX, GyroY, GyroZ
0.0070,0.08,0.10,-0.99,3.30,2.99,1.77
0.0210,0.08,0.11,-0.99,3.11,2.62,1.77
0.0360,0.08,0.11,-0.99,2.81,2.44,1.77
0.0510,0.08,0.11,-0.99,3.11,2.75,1.65
0.0660,0.08,0.11,-0.99,3.23,2.75,2.01
0.0790,0.08,0.11,-0.99,3.17,2.62,1.89
0.0950,0.08,0.11,-0.99,3.05,2.14,1.89
0.1080,0.08,0.11,-1.00,3.05,2.81,1.89
0.1250,0.08,0.11,-0.99,3.05,2.69,1.53
0.1410,0.11,0.15,-0.98,3.42,2.75,1.28
0.1560,0.10,0.13,-0.99,4.27,2.44,-0.24
0.1710,0.11,0.13,-0.99,3.54,2.26,0.37
0.1870,0.14,0.16,-0.98,4.27,2.87,-1.71
0.2010,0.13,0.15,-0.97,4.58,3.30,-5.74
0.2130,0.10,0.13,-0.99,4.09,3.97,-5.37
0.2290,0.06,0.11,-0.99,3.42,3.85,-2.44
0.2470,0.06,0.09,-1.00,3.85,2.93,0.67
0.2590,0.07,0.10,-1.00,3.42,2.81,3.23
0.2750,0.07,0.10,-1.00,3.23,2.81,2.81
0.2920,0.07,0.11,-0.99,3.42,2.93,1.16
0.3060,0.07,0.09,-1.00,3.23,3.36,-0.43
0.3210,0.06,0.10,-1.00,3.23,3.48,-0.55
0.3370,0.06,0.10,-1.00,3.42,2.87,0.49
0.3510,0.06,0.10,-1.00,3.36,2.81,1.22
0.3660,0.05,0.08,-1.00,3.36,2.44,3.54
0.3790,0.06,0.09,-1.00,2.75,2.56,4.88
0.3950,0.08,0.10,-0.99,2.87,2.26,4.64
0.4080,0.08,0.10,-0.99,2.99,2.62,4.27
0.4260,0.09,0.11,-0.99,3.11,2.93,4.21
0.4410,0.09,0.11,-0.99,2.93,2.93,4.33
0.4580,0.09,0.11,-0.99,2.81,2.38,5.19
0.4710,0.09,0.11,-0.99,2.69,2.32,6.53
0.4870,0.08,0.11,-0.99,2.81,1.95,6.96
0.5010,0.08,0.11,-0.99,2.62,2.14,7.51
0.5210,0.08,0.11,-0.99,2.81,1.89,6.96
0.5350,0.08,0.11,-0.99,2.62,2.08,6.90
0.5510,0.07,0.10,-0.99,2.56,2.14,5.98
0.5640,0.07,0.10,-0.99,2.87,2.32,4.27
0.5800,0.07,0.11,-0.99,2.75,2.87,3.60
0.5960,0.07,0.11,-1.00,3.17,2.93,2.69
0.6120,0.08,0.11,-0.99,3.23,2.50,2.32
0.6240,0.06,0.13,-0.99,2.75,2.69,4.15
0.6400,0.07,0.11,-0.99,2.32,1.46,9.58
0.6560,0.08,0.10,-1.00,2.20,1.46,10.44
0.6710,0.06,0.11,-0.99,2.14,1.65,7.39
0.6880,0.06,0.10,-0.99,2.69,2.01,7.20
0.7030,0.06,0.09,-1.00,2.62,1.77,8.18
0.7180,0.08,0.09,-1.00,2.81,1.65,7.39
0.7320,0.07,0.09,-1.00,2.87,1.89,5.25
0.7480,0.07,0.09,-1.00,2.69,2.01,5.07
0.7630,0.08,0.11,-0.99,2.69,2.26,5.31
0.7750,0.09,0.11,-0.99,2.75,2.14,5.55
0.7920,0.09,0.12,-0.99,2.69,2.32,5.55
0.8050,0.09,0.12,-0.99,2.56,2.62,5.19
0.8210,0.09,0.11,-0.99,2.62,2.81,4.70
0.8370,0.10,0.11,-0.99,2.87,2.93,2.87
0.8530,0.09,0.11,-0.99,2.99,3.11,1.71
0.8680,0.08,0.11,-0.99,3.11,2.87,1.65
0.8840,0.08,0.11,-0.99,3.11,3.05,1.77
0.9010,0.08,0.10,-0.99,3.23,2.69,0.98
0.9170,0.08,0.10,-1.00,3.66,2.56,-0.24
0.9290,0.08,0.10,-0.99,3.48,2.87,-0.61
0.9450,0.08,0.11,-0.99,3.48,3.30,-1.10
0.9650,0.06,0.09,-1.00,3.42,3.11,-1.10
0.9770,0.08,0.11,-0.99,3.48,2.93,-1.04
0.9930,0.09,0.12,-0.99,3.42,2.81,-0.79
1.0100,0.10,0.13,-0.99,3.48,2.81,0.18
1.0260,0.10,0.13,-0.99,3.54,2.75,0.12
1.0420,0.09,0.12,-0.99,3.54,2.93,0.49
1.0580,0.09,0.11,-0.99,3.23,2.87,1.10
1.0700,0.08,0.10,-0.99,3.42,2.62,0.73
1.0900,0.08,0.09,-1.00,3.42,3.30,-0.98
1.1060,0.07,0.07,-1.00,3.78,3.17,-3.05
1.1220,0.07,0.07,-1.00,3.78,4.03,-4.09
1.1340,0.07,0.10,-1.00,3.91,3.97,-5.62
1.1540,0.08,0.13,-0.99,3.91,4.03,-5.00
1.1690,0.07,0.13,-0.99,4.03,3.60,-4.15
1.1820,0.08,0.13,-0.99,3.60,3.17,-1.53
1.1980,0.08,0.12,-0.99,3.60,2.75,-0.24
1.2140,0.09,0.11,-0.99,3.42,2.81,-0.31
1.2260,0.08,0.10,-0.99,3.85,2.99,-2.20
1.2420,0.08,0.10,-0.99,3.97,3.23,-3.30
1.2580,0.09,0.10,-0.99,3.85,3.42,-4.09
1.2740,0.08,0.11,-0.99,3.72,4.33,-5.43
1.2870,0.08,0.12,-0.99,4.15,3.85,-4.82
1.3030,0.08,0.12,-0.99,3.42,3.72,-3.72
1.3200,0.07,0.11,-0.99,3.42,3.60,-2.62
1.3360,0.08,0.11,-0.99,3.42,3.91,-1.89
1.3520,0.07,0.10,-0.99,3.17,3.54,-1.71
1.3670,0.07,0.09,-0.99,3.48,3.23,-1.34
1.3830,0.07,0.12,-0.99,3.48,3.23,-0.73
1.3980,0.08,0.11,-0.99,3.11,2.75,2.08
1.4130,0.07,0.11,-0.99,3.05,3.11,1.65
1.4290,0.08,0.11,-0.99,3.17,2.87,1.40
1.4450,0.09,0.12,-0.99,3.36,3.05,1.16
1.4610,0.08,0.11,-0.99,3.05,2.99,1.10
1.4760,0.07,0.11,-0.99,3.11,3.05,1.22
1.4890,0.08,0.11,-0.99,3.36,2.75,1.77
1.5050,0.08,0.10,-0.99,3.36,2.93,1.83
1.5220,0.08,0.11,-0.99,3.17,2.87,2.20
1.5380,0.08,0.11,-0.99,3.17,2.69,1.95
1.5530,0.08,0.11,-0.99,2.87,3.11,1.95
1.5680,0.09,0.11,-0.99,3.36,2.75,1.53
1.5820,0.08,0.11,-0.99,3.23,2.75,1.53
1.5980,0.08,0.10,-0.99,3.42,2.62,1.65
1.6110,0.07,0.10,-1.00,3.42,3.11,1.95
1.6290,0.07,0.10,-0.99,3.23,2.56,1.77
1.6410,0.07,0.10,-0.99,3.42,2.69,1.89
1.6570,0.08,0.11,-0.99,3.23,2.44,2.14
1.6740,0.08,0.11,-0.99,3.17,2.93,2.20
1.6900,0.09,0.12,-0.99,3.05,2.44,2.08
1.7040,0.11,0.14,-0.99,2.99,2.81,1.77
1.7200,0.09,0.12,-1.00,3.97,2.26,1.59
1.7350,0.20,0.15,-0.97,3.72,1.22,3.78
1.7490,0.11,0.19,-1.05,2.50,1.04,4.39
1.7650,0.07,0.12,-1.10,0.37,-7.63,-0.61
1.7810,0.09,0.13,-1.05,-11.66,-6.84,-0.98
1.7970,0.08,0.12,-1.02,-30.94,-3.66,2.38
1.8130,0.08,0.08,-1.03,-36.01,-0.12,1.65
1.8290,0.11,0.07,-0.97,-36.07,5.55,10.74
1.8450,0.11,-0.00,-0.86,-25.51,2.62,24.60
1.8590,0.09,-0.06,-0.84,-6.29,-4.88,20.08
1.8750,0.07,-0.07,-0.84,4.09,-4.52,8.91
1.8910,0.05,-0.01,-0.86,32.71,2.56,5.19
1.9060,0.02,0.06,-0.93,57.56,20.14,2.50
1.9220,0.05,0.14,-1.13,65.49,22.64,4.03
1.9360,0.08,0.14,-1.15,8.54,2.56,1.77
1.9490,0.04,0.11,-1.01,3.72,3.36,-1.95
1.9650,0.06,0.15,-0.99,3.48,3.42,-2.93
1.9820,0.06,0.12,-0.99,3.66,3.17,-1.89
1.9940,0.04,0.08,-1.00,3.60,3.48,0.43
2.0100,0.05,0.08,-1.00,3.23,3.17,0.98
2.0280,0.04,0.08,-1.00,3.05,3.36,0.37
2.0430,0.06,0.08,-0.99,2.81,3.36,1.34
2.0560,0.09,0.10,-0.99,2.69,3.66,0.85
2.0730,0.17,0.17,-0.98,3.23,2.75,0.85
2.0850,0.10,0.12,-0.99,2.81,2.50,3.85
2.1010,0.11,0.13,-0.99,3.05,2.50,3.23
2.1170,0.10,0.13,-0.99,2.99,2.32,3.17
2.1330,0.09,0.12,-0.99,3.17,2.62,3.05
2.1490,0.09,0.12,-0.99,2.99,2.62,2.81
2.1630,0.09,0.12,-0.99,3.05,2.75,2.81
2.1790,0.08,0.11,-0.99,3.17,2.26,2.44
2.1970,0.08,0.10,-0.99,3.30,2.69,2.38
2.2120,0.08,0.11,-0.99,3.17,2.26,2.56
2.2270,0.09,0.12,-0.99,3.17,2.69,2.69
2.2410,0.09,0.12,-0.99,3.36,2.50,2.38
2.2570,0.08,0.11,-0.99,3.05,2.56,1.95
2.2710,0.08,0.11,-0.99,3.30,2.87,2.01
2.2840,0.08,0.11,-0.99,3.17,2.93,2.20
2.3000,0.08,0.11,-0.99,3.05,3.11,2.14
2.3170,0.08,0.11,-0.99,3.05,2.75,2.08
2.3300,0.08,0.11,-0.99,3.05,2.32,1.95
2.3470,0.08,0.11,-0.99,3.23,2.56,1.95
2.3620,0.08,0.11,-0.99,3.42,2.69,1.83
2.3770,0.08,0.11,-0.99,3.30,2.62,2.01
2.3920,0.08,0.11,-0.99,3.30,2.93,1.95
2.4070,0.08,0.11,-0.99,3.17,2.56,1.95
2.4210,0.08,0.11,-0.99,3.17,2.69,1.83
2.4330,0.08,0.11,-0.99,3.36,2.26,1.71
2.4500,0.08,0.11,-0.99,3.11,2.69,1.77
2.4660,0.08,0.11,-0.99,3.11,2.99,1.77
2.4800,0.08,0.11,-0.99,3.11,2.50,1.83
2.4960,0.08,0.11,-0.99,3.54,2.32,1.95
2.5120,0.08,0.11,-0.99,3.36,2.56,2.26
2.5270,0.08,0.11,-0.99,3.05,2.93,3.60
2.5420,0.08,0.11,-0.99,3.30,2.56,3.48
2.5570,0.08,0.11,-0.99,3.11,2.38,3.91
2.5720,0.08,0.11,-0.99,3.42,2.14,3.17
2.5790,0.09,0.12,-0.99,3.60,2.32,2.69
2.5960,0.08,0.12,-0.99,3.36,2.20,2.38
2.6120,0.08,0.12,-0.99,3.36,2.81,3.05
2.6290,0.08,0.11,-0.99,3.23,2.14,4.39
2.6470,0.08,0.11,-0.99,3.11,2.20,5.19
2.6620,0.08,0.11,-0.99,3.23,2.01,5.55
2.6780,0.08,0.10,-0.99,2.99,2.50,5.37
2.6920,0.08,0.12,-0.99,3.23,2.44,4.21
2.7080,0.08,0.11,-0.99,3.11,2.01,5.62
2.7220,0.08,0.11,-0.99,2.99,1.83,5.68
2.7300,0.08,0.10,-0.99,3.30,2.14,4.09
2.7460,0.08,0.10,-0.99,3.17,2.62,2.50
2.7640,0.08,0.10,-0.99,3.60,2.38,2.50
2.7790,0.08,0.10,-0.99,3.48,2.50,2.50
2.7970,0.08,0.12,-0.99,3.36,2.26,2.62
2.8130,0.08,0.12,-0.99,3.17,2.14,4.52
2.8290,0.09,0.10,-0.99,2.87,1.95,5.86
2.8450,0.08,0.10,-0.99,2.99,2.38,3.30
2.8460,0.08,0.11,-0.99,3.11,2.38,2.20
2.8750,0.08,0.11,-0.99,3.17,2.69,1.77
2.8800,0.08,0.11,-0.99,3.23,2.62,1.83
2.8960,0.08,0.11,-0.99,3.30,2.62,1.71
2.9110,0.08,0.11,-0.99,3.23,2.75,1.77
2.9280,0.08,0.11,-0.99,3.11,2.99,1.95
2.9440,0.08,0.11,-0.99,3.23,3.36,2.08
2.9610,0.08,0.11,-0.99,3.11,2.99,2.14
2.9770,0.08,0.11,-0.99,3.23,2.81,2.32
2.9940,0.08,0.11,-0.99,3.23,2.62,1.89
3.0090,0.08,0.11,-0.99,3.17,2.44,1.83
3.0250,0.08,0.11,-0.99,3.48,2.56,1.89
3.0390,0.08,0.11,-0.99,3.36,2.69,2.08
3.0540,0.08,0.11,-0.99,3.36,2.38,2.62
3.0700,0.08,0.11,-0.99,3.23,2.62,2.32
3.0780,0.08,0.11,-0.99,3.05,2.75,2.38
3.0940,0.08,0.11,-0.99,3.17,2.62,2.69
3.1110,0.08,0.12,-0.99,3.48,2.69,2.56
3.1270,0.08,0.11,-0.99,3.42,2.44,2.87
3.1440,0.08,0.11,-0.99,3.30,2.69,2.08
3.1600,0.08,0.10,-0.99,3.36,2.75,1.95
3.1760,0.08,0.10,-0.99,3.36,2.56,1.95
3.1780,0.08,0.10,-0.99,3.30,2.75,2.01
3.1930,0.08,0.10,-0.99,2.99,3.11,2.08
3.2090,0.08,0.11,-0.99,3.48,2.75,2.01
3.2250,0.08,0.11,-0.99,3.42,2.69,2.14
3.2400,0.08,0.11,-1.00,3.30,2.56,2.14
3.2560,0.08,0.11,-0.99,3.42,2.44,2.01
3.2820,0.08,0.11,-0.99,3.36,2.56,1.77
3.2880,0.08,0.11,-0.99,3.36,2.75,1.77
3.3040,0.08,0.11,-0.99,3.42,2.69,2.20
3.3210,0.08,0.12,-0.99,3.30,2.81,2.62
3.3390,0.08,0.11,-0.99,3.23,2.56,3.97
3.3540,0.08,0.10,-0.99,3.17,2.56,3.42
3.3700,0.08,0.11,-0.99,3.30,2.75,1.95
3.3860,0.08,0.11,-0.99,3.36,2.75,1.95
3.4020,0.08,0.11,-1.00,3.30,2.93,1.83
3.4170,0.08,0.11,-0.99,3.23,2.69,2.08
3.4320,0.08,0.11,-0.99,3.05,2.50,2.99
3.4470,0.08,0.10,-0.99,2.93,2.81,3.11
3.4620,0.08,0.11,-0.99,3.17,2.62,2.32
3.4770,0.08,0.10,-0.99,3.42,2.56,2.01
3.4850,0.08,0.10,-0.99,3.23,2.50,1.83
3.5010,0.08,0.11,-0.99,3.36,3.11,2.01
3.5180,0.08,0.11,-0.99,3.36,2.62,1.83
3.5340,0.08,0.11,-0.99,3.17,2.75,1.71
3.5510,0.08,0.11,-0.99,3.17,2.69,1.83
3.5670,0.08,0.12,-0.99,3.05,2.93,1.77
3.5820,0.08,0.11,-0.99,3.17,2.87,2.01
3.5970,0.08,0.11,-0.99,3.17,2.93,2.08
3.6120,0.08,0.12,-0.99,2.93,2.75,2.38
3.6280,0.08,0.11,-0.99,3.11,2.32,3.54
3.6350,0.08,0.10,-1.00,3.30,2.50,3.91
3.6510,0.08,0.10,-0.99,3.05,2.50,3.05
3.6680,0.08,0.10,-0.99,3.23,2.32,2.50
3.6850,0.08,0.10,-0.99,3.17,2.62,1.89
3.7010,0.08,0.10,-0.99,3.36,2.32,1.95
3.7190,0.08,0.11,-0.99,3.23,2.50,2.20
3.7350,0.08,0.11,-0.99,3.05,2.56,2.32
3.7500,0.08,0.11,-0.99,3.17,2.56,2.69
3.7650,0.08,0.11,-0.99,3.11,2.50,3.05
3.7810,0.08,0.11,-0.99,2.93,2.26,2.99
3.7840,0.08,0.11,-0.99,3.05,2.87,2.69
3.8000,0.08,0.11,-0.99,3.23,2.32,2.14
3.8150,0.08,0.11,-0.99,3.36,2.56,2.14
3.8310,0.08,0.11,-0.99,3.05,2.38,2.87
3.8620,0.08,0.11,-0.99,2.93,2.75,3.78
3.8760,0.08,0.11,-0.99,2.99,2.38,3.97
3.8810,0.08,0.10,-0.99,2.81,2.56,3.11
3.8960,0.08,0.10,-0.99,3.23,2.50,2.44
3.9120,0.08,0.10,-0.99,3.17,2.69,1.83
3.9280,0.08,0.11,-0.99,3.17,2.69,1.83
3.9430,0.08,0.11,-0.99,3.23,2.32,1.83
3.9590,0.08,0.12,-0.99,3.54,2.56,2.01
3.9760,0.08,0.12,-0.99,2.99,2.69,3.17
3.9910,0.08,0.12,-0.99,3.05,2.08,3.72
4.0150,0.08,0.12,-0.99,2.75,2.38,4.39
4.0230,0.08,0.10,-0.99,2.81,2.32,4.64
4.0410,0.08,0.10,-0.99,3.05,2.38,3.05
4.0570,0.08,0.10,-0.99,3.11,2.75,3.05
4.0730,0.08,0.10,-0.99,3.17,2.87,2.69
4.0900,0.08,0.10,-0.99,3.30,2.44,1.89
4.1060,0.08,0.11,-0.99,3.36,2.93,1.89
4.1210,0.08,0.11,-0.99,3.23,2.50,2.01
4.1360,0.08,0.11,-0.99,3.30,2.50,1.95
4.1520,0.08,0.11,-0.99,3.11,2.44,1.95
4.1570,0.08,0.11,-0.99,3.17,2.69,2.01
4.1760,0.08,0.11,-0.99,3.30,2.69,2.01
4.1890,0.08,0.12,-0.99,3.23,2.56,2.56
4.2040,0.08,0.11,-0.99,3.17,2.75,2.99
4.2360,0.08,0.12,-0.99,2.99,2.75,2.50
4.2510,0.08,0.11,-0.99,3.17,2.50,3.11
4.2670,0.08,0.11,-0.99,3.30,2.56,3.23
4.2840,0.08,0.11,-0.99,3.11,2.50,2.93
4.2990,0.08,0.10,-0.99,3.30,2.32,3.17
4.3060,0.08,0.10,-0.99,3.17,2.44,3.30
4.3220,0.08,0.10,-0.99,3.11,2.50,2.75
4.3380,0.08,0.11,-0.99,3.11,2.69,2.32
4.3530,0.08,0.10,-0.99,3.11,2.69,2.26
4.3690,0.08,0.11,-0.99,3.30,2.56,2.32
4.3840,0.08,0.11,-0.99,3.05,2.69,2.38
4.4010,0.08,0.12,-0.99,3.23,1.89,2.81
4.4180,0.08,0.12,-0.99,2.93,2.26,3.60
4.4340,0.08,0.12,-0.99,3.05,2.14,4.03
4.4500,0.08,0.11,-0.99,3.23,2.38,3.54
4.4660,0.08,0.11,-0.99,3.11,2.62,2.99
4.4810,0.08,0.10,-0.99,3.11,2.38,2.87
4.4840,0.08,0.10,-0.99,3.30,2.32,2.81
4.5000,0.08,0.11,-0.99,3.42,2.69,2.69
4.5150,0.08,0.10,-1.00,3.48,2.26,2.81
4.5310,0.08,0.10,-1.00,3.36,2.50,2.01
4.5470,0.08,0.11,-0.99,3.30,2.75,1.71
4.5690,0.08,0.11,-0.99,3.11,2.44,1.95
4.5850,0.08,0.10,-0.99,3.48,2.26,2.01
4.6020,0.08,0.11,-0.99,3.42,2.32,1.95
4.6180,0.08,0.11,-0.99,3.17,2.50,1.95
4.6330,0.08,0.12,-0.99,3.30,2.44,1.83
4.6480,0.08,0.12,-0.99,3.23,2.75,2.20
4.6630,0.08,0.11,-0.99,3.23,2.32,2.44
4.6760,0.08,0.11,-0.99,3.17,2.75,2.99
4.6850,0.08,0.11,-0.99,3.11,2.08,2.87
4.7010,0.08,0.11,-0.99,3.17,2.44,2.50
4.7190,0.08,0.10,-0.99,3.11,2.44,2.26
4.7350,0.08,0.11,-0.99,3.17,2.32,2.01
4.7520,0.08,0.12,-0.99,3.23,2.56,2.32
4.7680,0.08,0.11,-0.99,3.23,2.26,2.87
4.7840,0.08,0.11,-0.99,3.36,2.38,2.32
4.8000,0.08,0.11,-0.99,3.42,2.44,3.05
4.8150,0.08,0.11,-0.99,3.42,2.38,2.99
4.8300,0.08,0.11,-0.99,3.30,2.62,3.30
4.8340,0.08,0.12,-0.99,3.11,2.38,3.23
4.8510,0.08,0.10,-0.99,3.17,2.01,3.42
4.8680,0.08,0.10,-0.99,3.11,2.38,2.20
4.8850,0.08,0.11,-0.99,3.42,2.38,1.83
4.9010,0.08,0.11,-0.99,3.30,2.44,2.01
4.9190,0.08,0.11,-0.99,3.36,2.26,2.32
4.9350,0.08,0.11,-0.99,3.23,2.56,2.50
4.9500,0.08,0.12,-0.99,3.23,2.14,3.36
4.9650,0.08,0.12,-0.99,3.17,1.95,4.09
4.9800,0.08,0.12,-0.99,2.99,2.01,4.94
4.9950,0.08,0.11,-0.99,3.05,1.95,4.64
5.0010,0.08,0.09,-1.00,3.23,2.01,4.21
5.0190,0.08,0.09,-1.00,3.30,2.08,3.23
5.0350,0.08,0.10,-0.99,3.30,2.20,1.59
5.0520,0.08,0.11,-0.99,3.36,2.32,1.71
5.0680,0.08,0.11,-0.99,3.54,2.32,1.77
5.0840,0.08,0.11,-0.99,3.11,2.56,1.95
5.1020,0.07,0.12,-0.99,3.23,2.56,2.87
5.1180,0.08,0.11,-0.99,3.23,2.44,3.36
5.1340,0.08,0.12,-0.99,3.11,2.38,2.69
5.1500,0.08,0.11,-0.99,3.48,2.14,2.81
5.1650,0.08,0.11,-0.99,3.11,2.26,2.69
5.1800,0.08,0.10,-0.99,3.11,2.50,2.87
5.1950,0.08,0.10,-0.99,3.17,2.62,2.81
5.2010,0.08,0.10,-0.99,3.30,2.44,2.69
5.2180,0.08,0.11,-0.99,3.11,2.87,2.08
5.2350,0.08,0.11,-0.99,3.30,2.81,1.89
5.2510,0.08,0.11,-0.99,3.30,2.99,1.89
5.2680,0.08,0.11,-0.99,3.36,2.81,1.83
5.2850,0.08,0.11,-0.99,3.30,2.69,1.77
5.3010,0.08,0.13,-0.99,3.11,2.81,2.69
5.3170,0.09,0.11,-0.99,2.93,2.26,4.88
5.3320,0.08,0.12,-0.99,3.17,2.50,2.56
5.3340,0.08,0.10,-0.99,2.99,2.62,3.66
5.3510,0.08,0.09,-1.00,3.11,2.32,3.17
5.3760,0.08,0.10,-0.99,3.23,2.69,2.69
5.3820,0.08,0.10,-0.99,3.30,2.50,2.32
5.3980,0.08,0.11,-0.99,3.23,2.69,1.95
5.4130,0.08,0.11,-0.99,3.05,2.81,2.01
5.4290,0.08,0.11,-0.99,3.30,2.69,1.95
5.4510,0.08,0.11,-0.99,3.17,2.81,1.83
5.4670,0.08,0.11,-0.99,3.42,2.38,1.89
5.4830,0.08,0.11,-0.99,3.36,2.75,2.01
5.5000,0.08,0.11,-0.99,3.11,2.69,2.14
5.5170,0.08,0.11,-0.99,3.36,2.56,2.75
5.5330,0.08,0.13,-0.99,2.81,2.20,3.97
5.5490,0.08,0.11,-0.99,2.99,2.01,4.52
5.5650,0.08,0.10,-0.99,2.87,2.93,3.42
5.5810,0.08,0.11,-0.99,3.11,2.81,3.36
5.5970,0.08,0.10,-0.99,3.30,2.93,2.87
5.6110,0.08,0.11,-0.99,3.05,2.50,3.30
5.6250,0.08,0.11,-0.99,3.11,2.75,3.60
5.6340,0.08,0.11,-0.99,3.11,2.50,2.56
5.6490,0.07,0.12,-0.99,3.11,2.50,2.81
5.6650,0.08,0.11,-0.99,3.11,2.50,4.39
5.6810,0.08,0.10,-1.00,2.87,2.44,3.54
5.6970,0.08,0.10,-0.99,3.36,2.08,2.62
5.7120,0.08,0.10,-0.99,3.17,2.50,2.20
5.7280,0.08,0.11,-0.99,3.42,2.38,2.44
5.7560,0.08,0.12,-0.99,3.23,2.32,2.75
5.7710,0.08,0.11,-0.99,3.05,2.38,2.93
5.7860,0.08,0.12,-0.99,3.11,2.62,2.99
5.7950,0.08,0.11,-0.99,3.17,2.75,3.17
5.8100,0.08,0.11,-0.99,3.30,2.44,3.36
5.8260,0.08,0.11,-0.99,2.99,2.38,3.97
5.8420,0.09,0.11,-0.99,2.93,2.32,4.46
5.8570,0.08,0.11,-0.99,3.23,2.08,2.69
5.8760,0.08,0.11,-0.99,3.17,2.56,2.20
5.8890,0.08,0.11,-0.99,3.17,2.56,1.89
5.9130,0.08,0.11,-0.99,3.23,2.38,2.20
5.9290,0.08,0.11,-0.99,3.23,2.69,2.50
5.9350,0.08,0.12,-0.99,3.05,2.50,2.38
5.9510,0.07,0.15,-0.99,2.99,2.01,5.68
5.9680,0.08,0.14,-0.99,2.75,1.34,8.54
5.9840,0.09,0.11,-0.99,2.69,1.83,8.00
6.0010,0.09,0.09,-0.99,2.93,1.89,5.19
6.0190,0.08,0.07,-1.00,3.23,2.32,3.23
6.0340,0.08,0.08,-1.00,3.23,2.62,2.01
6.0340,0.08,0.11,-0.99,3.54,2.87,1.71
6.0510,0.08,0.11,-0.99,3.54,2.50,1.83
6.0750,0.08,0.11,-0.99,2.93,2.81,1.77
6.0840,0.08,0.11,-0.99,3.30,2.62,1.83
6.0990,0.08,0.11,-0.99,3.30,2.99,2.01
6.1150,0.08,0.11,-0.99,2.99,2.75,2.01
6.1300,0.08,0.11,-0.99,3.11,2.81,1.89
6.1460,0.08,0.11,-0.99,3.42,2.62,1.83
6.1620,0.08,0.11,-0.99,3.36,2.81,2.01
6.1780,0.08,0.11,-0.99,3.30,2.93,2.01
6.1930,0.09,0.12,-0.99,3.17,2.26,3.66
6.2090,0.09,0.11,-0.99,3.05,2.44,3.17
6.2400,0.08,0.12,-0.99,2.93,2.62,2.20
6.2540,0.08,0.10,-0.99,3.23,2.14,3.23
6.2690,0.08,0.10,-0.99,3.11,2.69,2.56
6.2850,0.08,0.11,-0.99,3.17,2.50,2.56
6.2910,0.08,0.10,-0.99,3.23,2.75,2.32
6.3070,0.08,0.11,-0.99,3.23,2.50,2.32
6.3250,0.08,0.12,-0.99,3.11,2.38,2.38
6.3430,0.08,0.12,-0.99,2.87,2.38,3.60
6.3560,0.08,0.11,-0.99,2.93,2.62,3.60
6.3750,0.08,0.11,-0.99,2.99,2.32,3.11
6.3880,0.08,0.11,-0.99,3.05,2.26,2.81
6.4030,0.08,0.10,-0.99,3.17,2.38,2.62
6.4290,0.08,0.11,-0.99,2.99,2.75,3.23
6.4450,0.08,0.11,-1.00,3.05,2.32,3.85
6.4600,0.08,0.12,-0.99,2.81,2.69,4.15
6.4750,0.09,0.11,-0.99,2.81,2.14,4.76
6.4820,0.08,0.10,-0.99,2.99,2.75,3.85
6.4970,0.08,0.10,-0.99,2.87,2.75,2.50
6.5130,0.08,0.11,-0.99,2.87,2.81,2.01
6.5280,0.08,0.11,-0.99,3.30,2.69,2.99
6.5440,0.08,0.11,-0.99,3.05,2.38,3.30
6.5600,0.08,0.12,-0.99,3.05,2.69,4.09
6.5750,0.08,0.11,-0.99,2.81,2.20,4.94
6.5910,0.08,0.10,-0.99,2.87,2.87,3.60
6.6120,0.08,0.09,-0.99,2.93,3.23,2.87
6.6290,0.08,0.10,-0.99,3.11,2.69,1.89
6.6460,0.08,0.11,-0.99,3.23,2.81,1.83
6.6630,0.08,0.11,-0.99,3.42,2.75,1.71
6.6780,0.08,0.12,-0.99,2.93,2.87,2.44
6.6930,0.08,0.13,-0.99,2.87,2.32,4.09
6.6960,0.08,0.11,-0.99,3.11,2.32,3.60
6.7120,0.08,0.12,-0.99,2.99,2.69,3.66
6.7270,0.08,0.11,-0.99,3.05,2.44,4.09
6.7430,0.08,0.11,-0.99,2.81,2.44,4.33
6.7740,0.08,0.10,-0.99,2.87,2.32,4.52
6.7900,0.08,0.10,-0.99,2.93,2.50,4.09
6.8060,0.08,0.09,-1.00,3.23,2.50,2.93
6.8170,0.08,0.11,-0.99,3.17,2.81,1.89
6.8330,0.08,0.11,-0.99,3.05,2.81,1.95
6.8490,0.08,0.11,-0.99,3.17,2.62,2.08
6.8670,0.08,0.11,-0.99,3.11,2.56,2.20
6.8820,0.08,0.11,-0.99,3.17,2.69,2.44
6.8980,0.08,0.12,-0.99,3.05,2.44,3.05
6.9000,0.08,0.12,-0.99,3.11,2.44,3.66
6.9160,0.08,0.11,-0.99,2.93,2.56,4.03
6.9320,0.08,0.11,-0.99,2.87,2.75,3.11
6.9480,0.08,0.10,-0.99,3.11,2.81,2.81
6.9790,0.08,0.10,-0.99,2.87,2.87,2.81
6.9950,0.08,0.11,-0.99,3.23,2.62,2.26
7.0110,0.08,0.12,-0.99,2.99,2.69,2.75
7.0270,0.08,0.12,-0.99,3.05,2.81,3.91
7.0420,0.09,0.12,-0.99,2.81,2.99,3.36
7.0510,0.08,0.11,-0.99,2.75,2.62,3.54
7.0680,0.08,0.10,-0.99,2.93,2.75,3.36
7.0850,0.08,0.11,-0.99,3.05,2.62,3.11
7.1010,0.08,0.11,-0.99,3.23,2.87,2.75
7.1170,0.08,0.11,-0.99,3.11,2.87,2.50
7.1340,0.08,0.11,-0.99,3.30,2.62,2.08
7.1510,0.08,0.11,-0.99,3.36,3.05,2.20
7.1660,0.08,0.11,-0.99,2.87,2.87,2.01
7.1830,0.08,0.11,-0.99,3.30,2.69,2.08
7.1980,0.08,0.11,-0.99,2.99,2.75,2.08
7.2140,0.08,0.11,-0.99,3.05,2.93,2.08
7.2280,0.08,0.11,-0.98,3.30,2.69,2.50
7.2350,0.08,0.11,-0.98,3.60,2.56,2.56
7.2510,0.08,0.11,-1.02,3.78,2.44,2.75
7.2670,0.08,0.12,-0.98,2.81,2.50,2.87
7.2840,0.07,0.11,-0.99,2.81,2.62,2.69
7.3000,0.08,0.12,-0.99,3.30,2.56,3.17
7.3170,0.08,0.10,-1.00,3.36,2.32,3.36
7.3340,0.09,0.10,-0.98,3.48,2.32,2.56
7.3490,0.08,0.10,-1.00,3.42,2.81,1.53
7.3490,0.08,0.10,-1.00,3.23,2.93,1.71
7.3760,0.08,0.11,-0.99,3.23,2.81,1.65
7.3810,0.08,0.11,-0.99,3.23,2.69,1.71
7.3960,0.08,0.11,-1.00,3.30,2.69,1.83
7.4120,0.09,0.11,-0.99,3.05,2.93,1.95
7.4350,0.08,0.12,-0.99,3.30,2.62,1.83
7.4510,0.08,0.12,-0.99,3.11,3.17,2.50
7.4680,0.08,0.11,-0.99,2.99,2.56,3.05
7.4840,0.08,0.12,-0.99,3.11,2.81,2.69
7.5010,0.09,0.11,-0.99,2.99,2.38,2.87
7.5180,0.08,0.11,-0.99,2.81,2.81,2.44
7.5340,0.08,0.11,-0.99,3.23,3.11,2.50
7.5500,0.08,0.12,-0.99,3.11,2.32,2.99
7.5660,0.08,0.11,-0.99,3.11,2.69,3.54
7.5820,0.08,0.12,-0.99,2.81,2.26,3.91
7.5850,0.09,0.10,-1.00,3.05,2.44,4.09
7.6000,0.08,0.10,-0.99,2.75,2.50,2.81
7.6160,0.08,0.11,-0.99,3.42,2.75,2.32
7.6310,0.08,0.12,-0.99,3.36,2.81,2.62
7.6470,0.08,0.12,-0.99,2.99,2.26,4.27
7.6760,0.08,0.12,-0.99,2.69,2.26,4.39
7.6880,0.08,0.11,-0.99,3.11,1.89,4.33
7.7040,0.08,0.09,-1.00,3.11,2.20,3.11
7.7210,0.08,0.10,-0.99,2.99,2.56,3.05
7.7370,0.08,0.10,-0.99,3.11,2.32,2.62
7.7520,0.08,0.11,-0.99,3.30,2.75,2.26
7.7660,0.08,0.11,-0.99,3.23,2.56,2.26
7.7810,0.08,0.11,-0.99,3.05,2.62,2.44
7.7970,0.08,0.11,-0.99,2.93,2.56,3.11
7.8050,0.08,0.11,-0.99,2.99,2.62,3.05
7.8210,0.08,0.11,-0.99,3.23,2.32,2.62
7.8380,0.08,0.11,-0.99,3.36,2.32,2.32
7.8550,0.08,0.12,-0.99,3.42,2.69,2.32
7.8710,0.08,0.12,-0.99,3.42,2.75,2.62
7.8870,0.09,0.12,-0.99,3.11,2.44,3.42
7.9050,0.08,0.11,-0.99,3.05,2.44,2.99
7.9210,0.08,0.11,-0.99,3.05,2.75,2.62
7.9370,0.08,0.11,-0.99,3.17,2.50,3.23
7.9370,0.08,0.11,-0.99,3.23,2.44,3.23
7.9530,0.08,0.10,-0.99,3.23,2.56,2.38
7.9760,0.08,0.10,-0.99,3.30,2.56,2.01
7.9850,0.08,0.11,-0.99,3.23,2.44,1.95
8.0000,0.08,0.11,-0.99,3.05,2.93,2.32
8.0160,0.08,0.11,-0.99,3.36,2.50,3.11
8.0400,0.08,0.11,-0.99,3.42,2.26,2.81
8.0560,0.08,0.12,-0.99,2.93,2.44,2.75
8.0730,0.08,0.11,-0.99,3.17,2.01,3.48
8.0900,0.08,0.12,-0.99,3.05,2.50,3.78
8.1050,0.08,0.10,-0.99,3.11,2.32,3.60
8.1210,0.08,0.11,-0.99,3.23,2.50,3.23
8.1380,0.08,0.11,-0.99,3.23,2.32,2.93
8.1540,0.08,0.11,-0.99,3.11,2.44,3.17
8.1700,0.08,0.11,-0.99,2.93,2.69,3.42
8.1850,0.08,0.11,-0.99,3.05,2.44,3.72
8.2020,0.08,0.12,-0.99,2.93,1.95,3.97
8.2180,0.08,0.11,-0.99,3.11,1.65,4.03
8.2320,0.08,0.10,-1.00,3.11,2.50,3.23
8.2390,0.08,0.10,-0.99,3.36,2.50,2.93
8.2570,0.08,0.11,-0.99,3.30,2.62,2.50
8.2750,0.08,0.10,-0.99,3.48,2.62,2.56
8.2900,0.08,0.11,-0.99,3.17,2.93,2.32
8.3070,0.08,0.11,-0.99,3.05,2.87,1.95
8.3230,0.08,0.11,-0.99,3.05,2.99,2.08
8.3400,0.08,0.11,-0.99,3.05,2.69,2.38
8.3560,0.08,0.12,-0.99,3.42,2.38,2.38
8.3720,0.09,0.12,-0.99,3.30,2.50,2.99
8.3880,0.08,0.11,-0.99,3.11,2.75,2.93
8.4040,0.08,0.12,-0.99,3.05,2.50,3.30
8.4200,0.08,0.11,-0.99,2.93,2.26,3.91
8.4360,0.08,0.10,-0.99,2.81,2.81,2.81
8.4400,0.08,0.11,-0.99,3.23,2.75,2.20
8.4550,0.08,0.12,-0.99,2.99,2.69,2.56
8.4750,0.08,0.12,-0.99,3.17,2.08,3.78
8.4870,0.08,0.12,-0.99,2.93,2.38,4.03
8.5020,0.08,0.11,-0.99,3.11,2.26,3.54
8.5280,0.08,0.10,-0.99,3.05,2.44,3.36
8.5430,0.08,0.10,-0.99,3.05,2.44,2.81
8.5590,0.08,0.10,-0.99,3.36,2.75,2.62
8.5750,0.08,0.11,-0.99,2.99,3.23,2.38
8.5910,0.08,0.12,-0.99,3.11,2.75,2.26
8.6070,0.08,0.12,-0.99,2.99,2.56,2.99
8.6110,0.08,0.12,-0.99,3.05,2.56,3.36
8.6270,0.08,0.12,-0.99,3.11,2.44,3.17
8.6420,0.08,0.11,-0.99,3.11,2.69,3.54
8.6580,0.08,0.11,-0.99,2.99,2.50,3.05
8.6750,0.08,0.11,-0.99,2.93,2.87,2.50
8.6890,0.08,0.11,-0.99,3.11,2.75,3.17
8.7170,0.08,0.11,-0.99,3.30,2.50,3.05
8.7330,0.08,0.10,-0.99,3.30,2.81,3.05
8.7490,0.08,0.11,-0.99,3.36,2.62,2.69
8.7640,0.08,0.11,-0.99,3.23,2.56,2.87
8.7800,0.08,0.11,-0.99,3.17,3.05,2.75
8.7940,0.08,0.12,-0.99,3.11,2.75,2.32
8.8100,0.08,0.11,-0.99,3.17,2.93,2.26
8.8170,0.08,0.12,-0.99,3.05,2.99,2.14
8.8330,0.08,0.12,-0.99,3.30,2.87,2.08
8.8500,0.08,0.12,-0.99,3.11,2.87,2.69
8.8670,0.08,0.12,-0.99,3.05,2.56,3.11
8.8840,0.08,0.12,-0.99,2.87,2.69,3.42
8.9000,0.08,0.11,-0.99,3.17,2.69,3.48
8.9170,0.08,0.10,-0.99,3.17,3.05,2.81
8.9340,0.08,0.11,-0.99,3.23,2.56,2.56
8.9500,0.08,0.11,-0.99,3.05,2.62,3.11
8.9660,0.08,0.11,-0.99,2.87,2.81,3.42
8.9820,0.08,0.11,-0.99,3.11,2.50,2.93
8.9970,0.08,0.11,-0.99,3.05,2.56,3.42
9.0120,0.08,0.10,-0.99,3.11,2.81,2.87
9.0160,0.08,0.11,-0.99,3.30,3.11,1.89
9.0330,0.08,0.11,-0.99,3.36,2.50,1.95
9.0490,0.08,0.12,-0.99,3.23,2.69,2.20
9.0750,0.08,0.12,-0.99,3.11,2.75,2.93
9.0800,0.08,0.12,-0.99,2.87,2.44,3.60
9.0960,0.08,0.11,-0.99,2.93,2.56,3.78
9.1110,0.08,0.11,-0.99,2.93,2.38,4.03
9.1370,0.08,0.10,-0.99,2.93,2.99,3.54
9.1540,0.08,0.10,-0.99,3.23,2.87,3.30
9.1710,0.08,0.11,-0.99,3.30,3.11,2.44
9.1870,0.08,0.11,-0.99,3.11,2.87,2.44
9.2030,0.08,0.12,-0.99,3.11,2.62,3.11
9.2190,0.08,0.12,-0.99,3.05,2.69,3.78
9.2350,0.08,0.11,-0.99,2.87,2.50,3.85
9.2500,0.08,0.11,-0.99,2.99,2.62,2.75
9.2650,0.08,0.11,-0.99,3.36,2.81,2.38
9.2800,0.08,0.11,-0.99,3.11,3.11,2.01
9.2950,0.08,0.11,-0.99,3.17,2.56,2.08
9.3040,0.08,0.12,-0.99,3.11,2.50,2.32
9.3210,0.08,0.11,-0.99,2.99,2.38,3.11
9.3370,0.08,0.12,-0.99,2.87,2.38,3.30
9.3540,0.08,0.10,-0.99,2.81,2.32,3.36
9.3700,0.08,0.11,-0.99,3.05,2.44,2.87
9.3860,0.08,0.11,-0.99,3.30,2.38,2.87
9.4040,0.08,0.11,-0.99,3.17,2.50,2.50
9.4200,0.08,0.12,-0.99,3.11,2.99,2.69
9.4360,0.08,0.11,-0.99,3.36,2.62,3.11
9.4360,0.08,0.12,-0.99,3.05,2.75,3.48
9.4510,0.08,0.11,-0.99,3.11,2.62,3.97
9.4750,0.08,0.11,-0.99,3.17,2.20,3.36
9.4990,0.08,0.11,-0.99,2.99,2.75,2.81
9.5010,0.08,0.12,-0.99,3.11,3.11,2.69
9.5160,0.08,0.12,-0.99,3.05,2.93,3.05
9.5320,0.08,0.11,-0.99,2.93,2.62,3.05
9.5470,0.08,0.11,-0.99,3.36,2.14,2.62
9.5770,0.08,0.11,-0.99,2.99,2.56,3.54
9.5920,0.08,0.11,-0.99,2.93,2.50,4.21
9.6070,0.08,0.10,-0.99,2.99,2.81,3.36
9.6230,0.08,0.10,-0.99,3.30,2.50,2.26
9.6390,0.08,0.10,-0.99,3.17,2.75,2.20
9.6550,0.08,0.11,-0.99,3.36,2.44,1.77
9.6610,0.08,0.12,-0.99,3.11,2.69,1.83
9.6760,0.08,0.13,-0.99,3.17,2.50,2.32
9.6920,0.08,0.12,-0.99,3.11,2.14,4.03
9.7080,0.08,0.11,-0.99,2.87,2.62,3.17
9.7230,0.08,0.10,-0.99,2.99,2.69,2.69
9.7390,0.08,0.11,-0.99,3.36,3.17,2.14
9.7640,0.08,0.11,-0.99,3.23,2.62,2.01
9.7800,0.08,0.12,-0.99,2.93,2.69,2.32
9.7960,0.08,0.12,-0.99,2.93,2.62,3.30
9.8120,0.08,0.11,-0.99,2.69,2.87,3.85
9.8280,0.08,0.11,-0.99,2.99,2.62,3.48
9.8420,0.08,0.11,-0.99,3.36,2.87,3.17
9.8580,0.08,0.10,-1.00,3.30,2.69,3.05
9.8630,0.08,0.11,-0.99,3.17,2.62,2.56
9.8800,0.08,0.12,-0.99,3.36,2.93,2.56
9.9010,0.08,0.12,-0.99,3.11,2.81,3.05
9.9120,0.09,0.12,-0.99,2.87,2.62,3.23
9.9280,0.09,0.11,-0.99,3.36,2.75,3.30
9.9430,0.08,0.11,-0.99,2.81,2.62,3.17
9.9590,0.08,0.12,-0.99,3.17,2.81,3.11
9.9840,0.08,0.11,-0.99,2.93,2.44,3.11
10.0000,0.08,0.12,-0.99,3.05,2.99,3.42
10.0170,0.08,0.12,-0.99,2.99,2.62,4.27
10.0330,0.08,0.10,-0.99,2.93,2.93,4.09
10.0480,0.08,0.11,-0.99,2.93,2.81,3.42
10.0630,0.08,0.12,-0.99,2.93,2.81,2.99
10.0780,0.08,0.10,-0.99,3.11,2.44,3.72
10.0930,0.08,0.10,-0.99,3.17,2.38,2.69
10.1080,0.08,0.11,-0.99,3.17,2.50,2.26
10.1160,0.08,0.11,-0.99,3.23,2.99,2.44
10.1330,0.08,0.12,-0.99,3.17,2.93,2.08
10.1490,0.08,0.11,-0.99,3.17,2.99,2.01
10.1670,0.08,0.11,-0.99,3.30,2.81,1.89
10.1830,0.08,0.11,-0.99,3.30,2.87,1.95
10.1980,0.08,0.11,-0.99,3.17,2.87,2.14
10.2130,0.08,0.12,-0.99,2.99,2.62,3.30
10.2280,0.08,0.11,-0.99,2.93,2.62,3.91
10.2420,0.08,0.11,-0.99,2.99,2.81,3.60
10.2500,0.08,0.11,-0.99,2.93,3.11,3.17
10.2660,0.08,0.10,-0.99,2.99,3.05,2.87
10.2830,0.08,0.11,-0.99,3.17,3.05,2.38
10.3000,0.08,0.11,-0.99,3.30,2.69,2.26
10.3170,0.08,0.12,-0.99,3.05,3.11,2.62
10.3320,0.08,0.13,-0.99,3.17,2.56,3.66
10.3470,0.08,0.12,-0.99,2.87,2.56,4.46
10.3620,0.09,0.11,-0.99,2.87,2.69,4.09
10.3780,0.09,0.11,-0.99,2.93,2.62,4.03
10.3930,0.08,0.10,-0.99,3.05,2.56,2.93
10.4080,0.08,0.11,-0.99,3.11,2.87,2.32
10.4160,0.08,0.11,-0.99,2.99,2.99,2.32
10.4330,0.08,0.11,-0.99,2.99,3.11,2.69
10.4500,0.08,0.12,-0.99,3.23,2.87,2.87
10.4670,0.08,0.12,-0.99,2.81,2.56,4.03
10.4830,0.08,0.11,-0.99,3.05,2.56,4.27
10.4980,0.08,0.11,-0.99,3.17,2.44,3.17
10.5150,0.08,0.11,-0.99,2.87,2.38,3.42
10.5310,0.08,0.10,-0.99,3.11,2.69,2.87
10.5450,0.08,0.11,-0.99,3.17,2.44,2.44
10.5610,0.08,0.11,-0.99,3.11,2.99,2.38
10.5760,0.08,0.12,-0.99,2.99,2.62,2.56
10.5820,0.08,0.12,-0.99,2.93,2.93,3.17
10.5980,0.08,0.12,-0.99,2.93,2.26,4.03
10.6140,0.08,0.12,-0.99,2.99,2.32,4.09
10.6290,0.08,0.11,-0.99,2.99,2.20,4.03
10.6450,0.08,0.11,-0.99,2.99,2.32,4.09
10.6600,0.08,0.10,-1.00,2.99,2.87,3.30
10.6760,0.08,0.11,-0.99,3.11,2.87,2.56
10.6940,0.08,0.11,-0.99,2.99,2.81,2.44
10.7110,0.08,0.11,-0.99,3.11,2.69,2.38
10.7270,0.08,0.12,-0.99,2.99,2.56,2.81
10.7440,0.08,0.12,-0.99,3.05,3.05,3.66
10.7610,0.08,0.11,-0.99,3.11,2.56,4.21
10.7760,0.08,0.10,-0.99,2.93,2.75,3.85
10.7910,0.08,0.10,-1.00,3.05,3.11,2.81
10.8060,0.08,0.11,-0.99,3.11,2.93,2.26
10.8230,0.08,0.11,-0.99,3.11,3.05,2.14
10.8370,0.08,0.12,-0.99,3.05,2.99,2.14
10.8440,0.08,0.12,-0.99,2.93,2.44,3.05
10.8600,0.08,0.12,-0.99,2.93,2.56,3.91
10.8770,0.08,0.12,-0.99,3.05,2.81,3.97
10.8940,0.08,0.10,-0.99,3.11,2.50,3.42
10.9100,0.08,0.11,-0.99,3.05,3.05,3.17
10.9270,0.08,0.11,-0.99,3.05,2.81,3.05
10.9430,0.08,0.11,-0.99,3.05,2.44,2.69
10.9590,0.08,0.11,-0.99,3.05,2.50,2.56
10.9740,0.08,0.12,-0.99,2.99,2.44,2.75
10.9890,0.08,0.11,-0.99,3.05,2.32,3.30
11.0040,0.08,0.12,-0.99,3.05,2.56,3.42
11.0180,0.08,0.12,-0.99,3.05,2.50,3.97
11.0270,0.08,0.11,-0.99,2.93,2.56,4.33
11.0440,0.09,0.12,-0.99,3.05,2.50,3.97
11.0600,0.08,0.10,-0.99,3.17,2.62,3.97
11.0770,0.08,0.11,-0.99,2.99,2.69,3.17
11.0930,0.08,0.11,-0.99,2.93,2.99,2.69
11.1080,0.08,0.11,-0.99,2.93,3.11,2.75
11.1240,0.08,0.11,-0.99,3.23,2.87,2.99
11.1390,0.08,0.12,-0.99,2.99,2.93,2.62
11.1540,0.08,0.12,-0.99,3.30,2.75,2.93
11.1680,0.08,0.12,-0.99,3.17,2.75,4.33
11.1770,0.08,0.12,-0.99,2.99,2.69,4.64
11.1930,0.08,0.10,-0.99,2.87,2.62,4.27
11.2100,0.09,0.10,-0.99,2.87,3.17,3.36
11.2260,0.08,0.11,-0.99,3.23,2.81,2.56
11.2430,0.08,0.11,-0.99,3.17,2.99,2.93
11.2600,0.08,0.12,-0.99,3.23,2.62,2.93
11.2760,0.08,0.12,-0.99,2.99,2.69,3.42
11.2940,0.08,0.11,-0.99,2.81,2.87,3.60
11.3090,0.08,0.10,-0.99,3.05,3.05,3.54
11.3250,0.08,0.11,-0.99,3.17,2.87,2.69
11.3400,0.08,0.11,-0.99,2.93,2.81,2.75
11.3550,0.08,0.12,-0.99,2.87,2.93,2.99
11.3600,0.08,0.11,-0.99,2.99,2.75,3.30
11.3770,0.09,0.12,-0.99,3.17,2.50,3.30
11.3930,0.08,0.11,-0.99,2.93,2.56,3.42
11.4100,0.08,0.11,-0.99,2.87,2.81,3.23
11.4270,0.08,0.11,-0.99,2.87,2.81,2.87
11.4440,0.08,0.11,-0.99,2.93,2.75,2.99
11.4600,0.08,0.11,-0.99,2.75,2.50,3.17
11.4750,0.08,0.11,-0.99,3.05,2.99,3.11
11.4910,0.08,0.10,-0.99,3.17,2.44,2.87
11.4930,0.08,0.11,-0.99,3.17,3.05,2.44
11.5220,0.08,0.11,-0.99,3.23,2.75,2.32
11.5260,0.08,0.11,-0.99,3.05,2.99,2.26
11.5420,0.08,0.12,-0.99,2.99,2.87,2.62
11.5570,0.08,0.12,-0.99,2.99,2.87,3.42
11.5750,0.08,0.11,-0.99,2.87,2.81,3.23
11.5890,0.08,0.12,-0.99,2.93,2.75,2.75
11.6040,0.08,0.11,-0.99,2.99,2.56,3.42
11.6210,0.08,0.11,-0.99,2.99,2.56,3.05
11.6470,0.08,0.11,-0.99,2.87,2.44,2.99
11.6550,0.08,0.11,-0.99,3.11,2.87,3.05
11.6750,0.08,0.12,-0.99,2.99,2.93,3.05
11.6880,0.08,0.11,-0.99,2.99,2.75,3.48
11.7040,0.08,0.12,-0.99,2.99,2.50,3.17
11.7210,0.08,0.11,-0.99,2.81,2.93,3.23
11.7370,0.08,0.11,-0.99,2.75,2.81,3.48
11.7530,0.08,0.11,-0.99,2.93,2.75,3.05
11.7690,0.08,0.11,-0.99,3.05,2.87,3.11
11.7850,0.08,0.12,-0.99,2.87,2.81,3.23
11.8000,0.08,0.11,-0.99,3.05,2.69,3.72
11.8150,0.08,0.12,-0.99,2.87,2.93,3.91
11.8210,0.08,0.10,-0.99,2.93,2.93,3.97
11.8380,0.08,0.10,-0.99,2.99,2.87,2.93
11.8540,0.08,0.12,-0.99,3.11,2.99,2.26
11.8750,0.08,0.12,-0.99,3.17,2.75,2.50
11.8880,0.08,0.12,-0.99,3.17,2.87,2.99
11.9050,0.09,0.12,-0.99,3.05,2.26,3.85
11.9200,0.08,0.11,-0.99,2.93,2.62,3.54
11.9220,0.08,0.10,-0.99,3.05,2.56,3.11
11.9370,0.08,0.11,-0.99,2.87,2.81,2.32
11.9530,0.08,0.11,-0.99,2.87,2.99,2.38
11.9750,0.09,0.11,-0.99,3.05,2.75,2.50
11.9840,0.09,0.12,-0.99,2.99,2.87,2.87
12.0060,0.08,0.12,-0.99,3.11,2.62,3.17
12.0230,0.08,0.11,-0.99,2.87,2.62,3.78
12.0400,0.08,0.11,-0.99,2.81,2.81,3.66
12.0560,0.08,0.11,-0.99,2.99,2.62,2.93
12.0710,0.08,0.11,-0.99,3.05,2.93,2.56
12.0860,0.08,0.12,-0.99,2.93,3.05,2.81
12.1020,0.08,0.12,-0.99,2.93,2.75,3.48
12.1170,0.09,0.12,-0.99,2.93,3.05,3.60
12.1320,0.08,0.11,-0.99,3.11,2.93,3.36
12.1390,0.09,0.11,-0.99,2.99,2.87,2.69
12.1550,0.08,0.11,-0.99,2.75,2.99,2.50
12.1750,0.08,0.11,-0.99,2.87,2.44,2.93
12.1890,0.08,0.11,-0.99,2.87,2.44,3.36
12.2060,0.08,0.12,-0.99,2.81,2.32,3.30
12.2230,0.09,0.11,-0.99,3.30,2.81,3.66
12.2380,0.08,0.11,-0.99,2.87,2.75,3.66
12.2540,0.09,0.12,-0.99,3.17,2.87,3.36
12.2690,0.08,0.12,-0.99,3.17,2.93,3.54
12.2840,0.08,0.11,-0.99,3.05,2.50,4.09
12.2980,0.08,0.11,-0.99,2.87,2.44,3.60
12.3140,0.08,0.10,-0.99,2.99,2.56,3.48
12.3220,0.08,0.11,-0.99,3.05,2.69,3.23
12.3380,0.09,0.11,-0.99,2.87,2.50,2.99
12.3540,0.08,0.11,-0.99,3.17,2.50,2.75
12.3750,0.08,0.12,-0.99,2.87,2.75,2.93
12.3850,0.08,0.11,-0.99,3.05,2.38,3.23
12.4010,0.08,0.11,-0.99,3.11,2.87,3.91
12.4270,0.08,0.10,-0.99,3.05,2.93,3.60
12.4430,0.08,0.11,-0.99,3.05,2.62,2.93
12.4590,0.08,0.11,-0.99,3.17,2.81,2.93
12.4750,0.08,0.12,-0.99,3.17,2.69,2.62
12.4900,0.08,0.12,-0.99,3.05,2.56,3.05
12.5050,0.08,0.11,-0.99,2.99,2.93,2.81
12.5200,0.08,0.12,-0.99,3.05,2.69,2.81
12.5270,0.08,0.12,-0.99,2.99,2.62,3.42
12.5440,0.09,0.11,-0.99,2.93,2.62,4.39
12.5600,0.08,0.11,-0.99,3.05,2.44,3.48
12.5780,0.08,0.10,-0.99,3.11,2.75,3.05
12.5940,0.08,0.10,-0.99,3.05,2.62,2.87
12.6100,0.08,0.11,-0.99,3.11,2.56,2.50
12.6250,0.09,0.12,-0.99,2.93,2.93,2.93
12.6400,0.08,0.12,-0.99,3.23,2.44,3.78
12.6550,0.09,0.12,-0.99,3.23,2.56,4.09
12.6700,0.08,0.11,-0.99,2.99,2.56,3.60
12.6770,0.08,0.10,-0.99,2.99,2.56,3.30
12.6940,0.09,0.11,-0.99,3.23,2.62,3.11
12.7100,0.09,0.11,-0.99,3.05,2.62,2.75
12.7270,0.09,0.11,-0.99,3.17,2.87,2.50
12.7440,0.08,0.12,-0.99,3.05,2.75,2.75
12.7610,0.08,0.13,-1.00,2.93,2.62,3.60
12.7760,0.09,0.12,-0.99,2.56,2.81,4.64
12.7920,0.09,0.12,-0.98,2.93,2.20,4.33
12.8080,0.09,0.11,-0.98,2.75,2.56,4.03
12.8230,0.09,0.10,-1.00,3.05,2.69,3.54
12.8230,0.09,0.10,-0.99,3.11,2.56,3.60
12.8390,0.08,0.10,-1.00,2.93,2.81,3.30
12.8540,0.08,0.11,-0.99,2.93,2.87,2.87
12.8800,0.08,0.11,-0.99,3.11,2.81,2.75
12.8970,0.08,0.10,-0.99,3.36,2.81,2.75
12.9140,0.09,0.11,-0.99,3.17,2.99,2.14
12.9310,0.08,0.12,-0.99,3.17,2.69,2.50
12.9470,0.08,0.12,-0.99,3.23,2.56,3.30
12.9630,0.08,0.13,-0.99,3.05,2.56,3.85
12.9800,0.09,0.12,-0.99,2.99,2.44,3.72
12.9960,0.09,0.12,-0.99,2.99,2.08,3.91
13.0120,0.09,0.11,-0.99,2.99,2.69,4.27
13.0280,0.08,0.11,-0.99,3.23,2.75,3.17
13.0440,0.08,0.11,-0.99,3.17,2.69,2.87
13.0590,0.09,0.12,-0.99,3.05,2.81,2.99
13.0740,0.09,0.11,-0.99,3.11,2.75,2.93
13.0800,0.08,0.11,-0.99,2.87,2.56,3.11
13.0970,0.08,0.10,-0.99,2.93,3.11,3.36
13.1130,0.08,0.10,-0.99,3.17,2.44,2.87
13.1300,0.08,0.11,-0.99,3.30,2.62,2.38
13.1470,0.08,0.11,-0.99,3.17,2.93,2.01
13.1630,0.08,0.12,-0.99,3.23,2.69,2.01
13.1800,0.09,0.12,-0.99,3.23,2.75,2.20
13.1940,0.08,0.13,-0.99,2.87,2.62,3.42
13.2090,0.09,0.13,-0.99,2.93,2.56,4.33
13.2250,0.09,0.12,-0.99,2.93,2.69,4.27
13.2390,0.09,0.11,-0.99,3.11,2.69,3.78
13.2550,0.09,0.10,-0.99,2.87,2.99,4.09
13.2630,0.08,0.10,-0.99,2.99,2.87,3.30
13.2800,0.08,0.10,-0.99,2.99,2.81,3.36
13.2970,0.08,0.10,-0.99,3.17,2.75,3.36
13.3130,0.08,0.11,-0.99,2.87,2.99,2.87
13.3300,0.08,0.11,-0.99,3.17,2.93,2.50
13.3470,0.08,0.11,-0.99,3.05,2.75,2.81
13.3630,0.08,0.11,-0.99,3.11,2.69,2.99
13.3750,0.08,0.12,-0.99,3.05,2.99,2.87
13.3790,0.09,0.11,-0.99,2.99,2.62,3.17
13.3940,0.09,0.11,-0.99,3.11,2.50,2.87
13.4100,0.08,0.12,-0.99,3.17,2.69,2.44
13.4250,0.08,0.13,-0.99,2.99,2.93,3.36
13.4410,0.09,0.11,-0.99,3.05,2.87,3.91
13.4590,0.09,0.12,-0.99,2.93,2.56,3.66
13.4760,0.09,0.10,-0.99,3.05,2.75,4.21
13.4920,0.08,0.11,-0.99,2.93,2.87,3.60
13.5090,0.08,0.11,-0.99,2.87,2.75,3.48
13.5250,0.08,0.11,-0.99,2.93,2.99,3.42
13.5420,0.09,0.11,-0.99,2.99,2.69,3.30
13.5580,0.09,0.11,-0.99,2.87,3.17,2.99
13.5730,0.09,0.12,-0.99,2.99,2.50,3.30
13.5880,0.08,0.11,-0.99,3.11,2.44,3.42
13.6030,0.08,0.11,-0.99,3.05,2.75,3.23
13.6090,0.08,0.12,-0.99,3.11,2.26,3.54
13.6250,0.09,0.11,-0.99,2.99,2.75,3.11
13.6420,0.08,0.11,-0.99,2.93,2.93,2.81
13.6590,0.09,0.12,-0.99,2.93,2.56,2.69
13.6760,0.08,0.12,-0.99,3.05,2.50,3.42
13.6920,0.09,0.11,-0.99,2.99,2.44,3.97
13.7080,0.08,0.11,-0.99,3.23,2.69,3.78
13.7240,0.08,0.11,-0.99,3.05,1.89,3.91
13.7380,0.09,0.11,-0.99,2.99,2.20,4.21
13.7540,0.09,0.11,-0.99,2.87,2.62,4.58
13.7580,0.09,0.11,-0.99,2.87,2.69,3.78
13.7760,0.08,0.11,-0.99,3.36,2.56,3.66
13.7920,0.08,0.11,-0.99,3.23,2.56,3.48
13.8090,0.09,0.11,-0.99,3.05,2.38,3.72
13.8250,0.09,0.11,-0.99,2.93,2.75,3.48
13.8410,0.08,0.12,-0.99,2.93,2.81,3.11
13.8590,0.09,0.12,-0.99,3.17,2.87,3.91
13.8750,0.08,0.11,-0.99,2.81,2.81,4.15
13.8910,0.08,0.11,-0.99,2.81,2.56,4.52
13.9080,0.08,0.10,-0.99,3.05,2.20,4.15
13.9230,0.08,0.11,-0.99,2.99,2.62,3.66
13.9250,0.08,0.11,-0.99,2.99,3.05,3.05
13.9410,0.08,0.11,-0.99,2.99,2.50,3.05
13.9570,0.08,0.11,-0.99,2.99,2.87,2.99
13.9740,0.08,0.11,-0.99,2.99,2.69,3.17
13.9880,0.08,0.11,-0.99,3.05,2.62,2.99
14.0040,0.08,0.11,-0.99,3.23,2.81,2.87
14.0280,0.09,0.11,-0.99,2.99,3.05,2.87
14.0440,0.09,0.12,-0.99,3.05,2.99,2.56
14.0610,0.09,0.12,-0.99,3.23,2.81,2.81
14.0780,0.09,0.12,-0.99,2.99,2.75,3.36
14.0930,0.08,0.11,-0.99,2.99,2.38,3.17
14.1090,0.08,0.11,-0.99,2.93,2.93,3.23
14.1240,0.08,0.10,-0.99,3.17,2.93,3.23
14.1380,0.08,0.12,-0.99,2.87,2.87,3.05
14.1440,0.09,0.12,-0.99,3.05,2.38,3.72
14.1600,0.09,0.11,-0.99,2.87,2.50,3.78
14.1760,0.08,0.11,-0.99,2.99,2.32,4.09
14.1910,0.09,0.10,-0.99,3.05,2.75,3.78
14.2070,0.08,0.11,-0.99,3.11,2.93,2.69
14.2220,0.08,0.11,-0.99,3.30,2.75,2.20
14.2380,0.08,0.12,-0.99,3.11,3.23,2.20
14.2540,0.08,0.12,-0.99,3.05,3.11,2.81
14.2740,0.09,0.12,-0.99,3.11,2.50,3.48
14.2910,0.09,0.12,-0.99,2.93,2.93,3.91
14.3070,0.09,0.11,-0.99,2.87,2.81,4.03
14.3230,0.08,0.10,-0.99,2.99,2.81,3.30
14.3390,0.08,0.10,-0.99,2.99,2.81,2.44
14.3540,0.08,0.10,-0.99,3.17,3.05,2.14
14.3690,0.09,0.11,-0.99,3.23,3.17,2.14
14.3850,0.09,0.12,-0.99,2.99,2.93,2.14
14.3910,0.09,0.13,-0.99,3.17,2.56,3.91
14.4070,0.09,0.12,-0.99,2.81,2.08,4.88
14.4230,0.09,0.11,-0.99,3.05,2.44,3.72
14.4390,0.08,0.11,-0.99,2.93,2.26,3.54
14.4540,0.09,0.12,-0.99,3.05,2.38,3.97
14.4740,0.09,0.12,-0.99,3.23,2.38,4.39
14.4860,0.08,0.11,-0.99,2.93,2.75,3.91
14.5090,0.09,0.10,-0.99,3.11,2.38,3.54
14.5240,0.08,0.10,-0.99,3.23,2.44,3.05
14.5390,0.08,0.11,-0.99,2.99,2.38,2.81
14.5460,0.08,0.11,-0.99,2.99,2.62,2.87
14.5620,0.09,0.11,-0.99,3.17,2.38,3.05
14.5780,0.09,0.11,-0.99,3.30,2.62,3.05
14.5930,0.08,0.11,-0.99,2.99,2.62,3.30
14.6090,0.09,0.11,-0.99,3.11,2.87,3.66
14.6250,0.09,0.11,-0.99,3.11,2.44,3.23
14.6400,0.08,0.11,-0.99,3.05,2.32,2.75
14.6560,0.08,0.11,-0.99,3.05,2.62,3.17
14.6750,0.09,0.12,-0.99,3.05,2.81,3.05
14.6850,0.08,0.12,-0.99,3.17,2.38,3.66
14.7020,0.09,0.12,-0.99,3.05,2.32,4.33
14.7180,0.08,0.11,-0.99,3.11,2.56,3.72
14.7350,0.08,0.12,-0.99,2.87,2.87,3.85
14.7520,0.09,0.12,-0.99,2.93,2.26,3.97
14.7670,0.09,0.11,-0.99,3.23,2.56,3.72
14.7820,0.08,0.11,-0.99,3.05,2.50,3.42
14.7840,0.09,0.11,-0.99,3.17,2.50,3.42
14.8000,0.09,0.11,-0.99,2.81,2.69,3.11
14.8160,0.08,0.12,-0.99,3.05,2.44,4.33
14.8310,0.09,0.12,-0.99,2.93,2.44,4.27
14.8470,0.09,0.12,-0.99,3.17,2.26,3.85
14.8620,0.08,0.11,-0.99,3.11,2.75,3.66
14.8780,0.09,0.10,-0.99,2.99,2.44,3.48
14.8980,0.09,0.11,-0.99,3.11,2.81,2.56
14.9150,0.08,0.11,-0.99,3.36,2.81,2.26
14.9310,0.09,0.12,-0.99,3.23,2.87,2.50
14.9480,0.08,0.12,-0.99,3.05,2.56,3.60
14.9640,0.09,0.11,-0.99,2.81,2.93,3.72
14.9800,0.09,0.11,-0.99,2.99,2.38,2.75
14.9810,0.08,0.11,-0.99,2.99,2.87,3.30
15.0090,0.09,0.11,-0.99,3.05,2.62,3.42
15.0150,0.09,0.11,-0.99,3.17,2.44,3.78
15.0320,0.09,0.11,-0.99,2.93,2.62,3.54
15.0480,0.09,0.11,-0.99,2.99,2.75,2.69
15.0650,0.08,0.11,-0.99,3.36,2.38,2.69
15.0810,0.09,0.11,-0.99,3.23,2.75,2.93
15.0980,0.09,0.11,-0.99,3.05,2.99,3.05
15.1140,0.09,0.11,-0.99,2.87,2.44,2.93
15.1290,0.08,0.12,-0.99,3.11,2.62,2.44
15.1440,0.08,0.12,-0.99,2.99,2.50,3.42
15.1590,0.09,0.11,-0.99,3.17,2.44,3.54
15.1740,0.09,0.11,-0.99,2.69,2.81,3.42
15.1820,0.08,0.12,-0.99,3.11,2.56,3.30
15.1980,0.08,0.12,-0.99,3.36,2.50,4.03
15.2140,0.09,0.12,-0.99,3.05,2.50,4.58
15.2320,0.09,0.11,-0.99,2.99,2.50,4.58
15.2490,0.09,0.10,-0.99,3.05,1.89,3.91
15.2640,0.09,0.11,-0.99,3.05,2.87,3.17
15.2790,0.08,0.10,-0.99,3.11,2.38,3.36
15.2940,0.08,0.10,-0.99,3.11,2.50,3.05
15.2970,0.09,0.11,-0.99,2.99,2.81,2.38
15.3130,0.08,0.11,-0.99,3.17,2.56,2.08
15.3370,0.08,0.12,-0.99,3.17,2.01,2.20
15.3540,0.08,0.12,-0.99,3.30,2.69,3.23
15.3690,0.09,0.12,-0.99,3.05,2.32,3.85
15.3850,0.09,0.11,-0.99,3.17,2.99,3.30
15.3850,0.09,0.11,-0.99,3.05,2.62,1.89
15.4010,0.09,0.11,-0.99,3.23,2.56,1.89
15.4170,0.08,0.11,-0.99,3.23,2.99,1.83
15.4320,0.09,0.11,-0.99,3.17,2.93,1.77
15.4480,0.09,0.11,-0.99,3.36,2.87,2.14
15.4750,0.08,0.11,-0.99,3.05,2.62,2.44
15.4820,0.09,0.11,-0.99,2.99,2.62,2.44
15.4990,0.09,0.11,-0.99,2.99,2.99,1.95
15.5150,0.09,0.11,-0.99,3.17,2.69,1.83
15.5330,0.09,0.11,-0.99,3.36,2.56,2.08
15.5490,0.08,0.11,-0.99,3.23,2.93,1.89
15.5640,0.09,0.11,-0.99,3.05,2.81,1.89
15.5800,0.09,0.12,-0.99,3.17,2.75,1.83
15.5960,0.08,0.11,-0.99,3.11,2.62,1.95
15.6120,0.08,0.11,-0.99,3.23,2.75,1.95
15.6270,0.09,0.11,-0.99,3.17,2.38,2.14
15.6430,0.09,0.11,-0.99,3.05,2.56,2.08
15.6620,0.08,0.11,-0.99,3.05,2.50,2.08
15.6770,0.09,0.11,-0.99,2.99,2.44,2.14
15.6840,0.08,0.12,-0.99,3.11,2.99,2.32
15.7000,0.08,0.12,-0.99,3.11,2.62,3.05
15.7170,0.09,0.11,-0.99,2.93,2.87,3.42
15.7340,0.09,0.11,-0.99,3.05,2.75,2.75
15.7500,0.09,0.11,-0.99,3.23,2.93,2.50
15.7650,0.09,0.12,-0.99,2.99,2.62,2.38
15.7810,0.09,0.12,-0.99,3.05,2.62,2.38
15.7840,0.09,0.12,-0.99,3.23,2.75,2.93
15.8000,0.09,0.12,-0.99,3.30,2.56,3.36
15.8170,0.08,0.11,-0.99,2.99,2.50,3.23
15.8330,0.08,0.11,-0.99,3.05,2.75,2.75
15.8480,0.09,0.11,-0.99,3.05,2.56,2.50
15.8740,0.09,0.12,-0.99,3.23,2.87,2.32
15.8800,0.08,0.12,-0.99,2.93,2.93,2.81
15.9080,0.09,0.11,-0.99,3.17,2.56,2.56
15.9230,0.09,0.11,-0.99,3.17,2.69,2.20
15.9390,0.09,0.11,-0.99,3.42,2.50,1.83
15.9540,0.09,0.12,-0.99,3.36,2.69,1.83
15.9690,0.09,0.12,-0.99,3.30,2.50,1.83
15.9850,0.09,0.11,-0.99,3.05,2.62,1.83
15.9910,0.09,0.11,-0.99,3.23,2.50,1.83
16.0080,0.09,0.11,-0.99,3.23,2.50,1.83
16.0250,0.09,0.11,-0.99,3.17,3.05,1.95
16.0410,0.09,0.11,-0.99,3.42,2.62,2.01
16.0580,0.09,0.11,-0.99,3.05,2.87,2.08
16.0750,0.09,0.11,-0.99,3.05,2.56,2.14
16.0910,0.08,0.11,-0.99,3.17,2.75,1.77
16.1070,0.09,0.11,-0.99,3.30,2.44,1.89
16.1250,0.09,0.11,-0.99,3.30,2.44,1.89
16.1400,0.09,0.12,-0.99,3.11,2.75,1.95
16.1550,0.09,0.12,-0.99,3.17,2.44,1.71
16.1700,0.09,0.12,-0.99,2.99,2.44,1.77
16.1750,0.08,0.12,-0.99,3.23,2.62,1.71
16.1910,0.09,0.12,-0.99,3.11,2.81,1.83
16.2060,0.09,0.11,-0.99,3.23,2.75,1.77
16.2220,0.09,0.11,-0.99,3.30,2.69,1.59
16.2380,0.09,0.12,-0.99,3.30,3.05,1.59
16.2530,0.09,0.11,-0.99,3.36,2.69,1.71
16.2760,0.09,0.11,-0.99,3.23,2.75,1.89
16.2930,0.09,0.11,-0.99,3.42,2.99,1.95
16.3090,0.09,0.11,-0.99,3.05,2.81,1.89
16.3270,0.08,0.11,-1.00,3.05,2.56,1.83
16.3420,0.09,0.11,-0.99,2.93,2.75,2.01
16.3580,0.09,0.11,-0.99,3.11,2.69,1.89
16.3740,0.09,0.11,-0.99,3.48,2.26,1.83
16.3900,0.09,0.12,-1.00,3.54,2.87,2.08
16.4060,0.09,0.12,-0.99,3.17,2.69,2.08
16.4090,0.08,0.12,-0.99,3.11,2.62,1.89
16.4260,0.08,0.12,-0.99,3.11,2.75,1.89
16.4410,0.08,0.12,-0.99,3.17,2.32,1.89
16.4570,0.09,0.11,-0.99,3.42,2.56,1.89
16.4750,0.09,0.11,-0.99,3.30,2.99,1.95
16.4880,0.09,0.11,-0.99,3.30,2.50,2.01
16.5040,0.08,0.11,-0.99,3.17,2.81,1.95
16.5150,0.08,0.11,-0.99,2.99,2.81,1.89
16.5320,0.09,0.11,-0.99,3.23,2.56,2.01
16.5490,0.09,0.11,-0.99,3.23,2.50,1.89
16.5650,0.09,0.11,-0.99,3.36,2.69,1.95
16.5820,0.09,0.11,-0.99,3.36,2.81,1.95
16.5990,0.08,0.12,-0.99,2.93,2.32,1.95
16.6150,0.08,0.11,-0.99,3.11,2.99,1.95
16.6320,0.08,0.12,-0.99,3.23,2.87,1.71
16.6480,0.09,0.12,-0.99,3.17,2.99,1.83
16.6640,0.09,0.11,-0.99,3.17,2.50,1.95
16.6800,0.09,0.12,-1.00,2.87,2.81,3.17
16.6950,0.08,0.13,-0.99,3.11,2.56,3.30
16.7110,0.08,0.11,-0.99,3.42,3.05,2.20
16.7260,0.08,0.12,-0.99,3.48,2.93,1.77
16.7320,0.09,0.11,-0.99,3.05,2.69,1.95
16.7480,0.09,0.11,-0.99,3.42,2.69,1.83
16.7630,0.09,0.11,-0.99,3.60,2.75,1.77
16.7800,0.08,0.11,-0.99,2.87,2.81,1.71
16.7950,0.08,0.11,-1.00,2.62,2.56,1.77
16.8110,0.08,0.11,-0.99,3.11,2.44,1.89
16.8380,0.09,0.12,-0.99,2.93,2.69,1.71
16.8530,0.09,0.11,-0.99,2.87,2.93,1.95
16.8690,0.09,0.11,-0.99,3.23,2.56,1.77
16.8830,0.08,0.11,-0.99,3.05,2.81,1.16
16.8900,0.08,0.11,-0.99,2.50,2.75,0.73
16.9060,0.09,0.11,-0.99,3.36,2.99,0.98
16.9230,0.09,0.11,-0.99,3.36,2.69,0.79
16.9390,0.09,0.11,-0.99,3.17,2.93,0.37
16.9540,0.09,0.11,-0.99,3.42,2.56,-0.06
16.9750,0.08,0.12,-0.99,3.48,2.81,-0.06
16.9860,0.08,0.12,-0.99,3.36,3.17,0.85
17.0020,0.08,0.12,-0.99,3.36,2.93,1.10
17.0240,0.08,0.12,-0.99,3.17,2.99,1.46
17.0390,0.08,0.11,-0.99,3.11,2.62,1.83
17.0480,0.08,0.11,-1.00,3.23,2.56,1.95
17.0640,0.08,0.11,-0.99,2.99,2.56,1.83
17.0810,0.08,0.11,-0.99,2.87,2.44,1.83
17.0980,0.09,0.11,-0.99,3.17,2.38,1.65
17.1140,0.09,0.11,-0.99,3.30,2.75,1.83
17.1280,0.09,0.12,-0.99,3.30,2.99,1.71
17.1430,0.08,0.12,-0.99,3.23,2.87,1.65
17.1590,0.08,0.12,-1.00,3.23,2.69,1.71
17.1730,0.08,0.12,-0.99,3.11,2.75,2.01
17.1820,0.09,0.11,-0.99,3.05,3.11,1.89
17.1980,0.09,0.11,-0.99,3.23,2.81,1.89
17.2140,0.09,0.11,-0.99,2.99,2.87,2.01
17.2310,0.08,0.11,-0.99,2.93,2.75,1.77
17.2480,0.08,0.11,-0.99,2.93,2.99,1.89
17.2650,0.08,0.11,-0.99,3.05,2.69,1.95
17.2800,0.09,0.11,-0.99,3.30,2.62,1.83
17.2950,0.09,0.11,-0.99,3.30,2.75,1.89
17.3110,0.09,0.11,-0.99,3.11,2.87,1.95
17.3270,0.08,0.12,-0.99,3.05,2.50,1.95
17.3420,0.08,0.12,-0.99,3.17,2.81,2.01
17.3480,0.08,0.12,-0.99,3.05,3.17,2.01
17.3640,0.09,0.12,-0.99,3.23,2.99,2.08
17.3810,0.09,0.12,-0.99,3.17,3.23,2.14
17.3980,0.09,0.12,-0.99,3.05,2.81,2.01
17.4140,0.09,0.12,-0.99,3.17,3.05,1.83
17.4310,0.15,0.12,-0.99,2.87,2.62,2.56
17.4470,0.08,0.11,-0.99,3.30,2.69,1.83
17.4620,0.09,0.11,-0.99,3.30,3.11,1.95
17.4770,0.08,0.12,-0.99,3.17,2.50,1.83
17.4940,0.08,0.11,-0.99,3.17,2.87,2.26
17.5080,0.08,0.11,-1.00,3.17,2.93,2.50
17.5230,0.08,0.11,-1.00,2.99,2.38,2.50
17.5310,0.08,0.11,-0.99,3.17,2.62,2.56
17.5470,0.07,0.11,-0.99,3.17,2.44,2.44
17.5640,0.08,0.11,-0.99,2.93,2.93,2.50
17.5810,0.08,0.11,-0.99,2.93,2.75,2.32
17.5980,0.08,0.11,-0.98,3.05,2.44,2.01
17.6140,0.08,0.11,-1.00,3.23,2.38,2.01
17.6300,0.08,0.11,-1.00,3.05,2.81,1.83
17.6300,0.08,0.11,-0.99,2.87,2.75,1.89
17.6450,0.09,0.11,-0.99,2.99,2.44,1.83
17.6610,0.09,0.11,-0.99,3.36,2.38,1.77
17.6770,0.09,0.11,-0.99,3.30,2.56,1.77
17.6920,0.09,0.12,-0.99,3.11,2.93,1.77
17.7120,0.09,0.12,-0.99,3.11,2.56,1.22
17.7290,0.09,0.12,-0.99,2.87,2.32,1.04
17.7440,0.09,0.12,-0.99,2.99,2.93,1.53
17.7600,0.08,0.12,-0.99,2.93,3.11,1.71
17.7780,0.08,0.12,-0.99,3.17,2.87,1.71
17.7950,0.09,0.11,-0.99,3.11,2.81,1.59
17.8100,0.09,0.11,-1.00,2.87,2.99,1.04
17.8250,0.09,0.11,-0.99,2.93,2.99,1.22
17.8400,0.09,0.11,-0.99,2.99,2.93,1.59
17.8550,0.08,0.11,-0.99,2.99,2.75,2.38
17.8690,0.08,0.11,-0.99,3.11,2.62,2.75
17.8780,0.09,0.11,-0.99,3.23,3.11,2.75
17.8950,0.09,0.11,-0.99,3.36,2.69,1.59
17.9120,0.08,0.11,-1.00,3.36,2.81,1.28
17.9290,0.08,0.12,-0.99,3.17,3.11,0.79
17.9450,0.08,0.12,-0.99,3.11,2.69,1.28
17.9610,0.09,0.12,-0.99,3.36,2.87,1.83
17.9760,0.08,0.12,-0.99,3.05,3.11,2.01
17.9920,0.08,0.12,-0.99,3.17,3.05,2.08
18.0080,0.08,0.12,-0.99,3.17,3.17,2.08
18.0220,0.09,0.11,-0.99,2.93,3.11,1.89
18.0270,0.09,0.11,-0.99,3.05,2.99,1.40
18.0430,0.09,0.11,-0.99,2.99,2.87,1.22
18.0580,0.08,0.11,-0.99,3.23,2.93,1.53
18.0740,0.09,0.11,-0.99,3.05,2.99,1.65
18.0900,0.08,0.11,-0.99,3.17,2.62,1.59
18.1050,0.08,0.12,-0.99,3.17,3.05,1.16
18.1340,0.08,0.11,-0.99,3.17,2.38,1.59
18.1490,0.09,0.12,-0.99,3.48,2.99,1.71
18.1640,0.09,0.12,-0.99,3.48,2.75,1.77
18.1800,0.09,0.11,-0.99,3.05,2.81,1.46
18.1950,0.09,0.11,-0.99,3.42,2.69,0.98
18.2010,0.09,0.12,-0.99,3.17,2.87,1.16
18.2170,0.08,0.12,-0.99,3.11,2.56,1.83
18.2330,0.08,0.12,-0.99,3.36,2.62,1.95
18.2480,0.10,0.11,-0.99,3.17,2.75,2.26
18.2740,0.08,0.11,-0.99,2.99,2.56,2.56
18.2800,0.08,0.11,-0.99,2.87,2.93,2.50
18.3070,0.08,0.11,-0.99,3.23,2.93,2.32
18.3220,0.08,0.11,-0.99,3.30,2.93,1.89
18.3370,0.09,0.11,-0.99,3.11,3.05,2.01
18.3520,0.09,0.11,-0.99,3.05,2.99,1.89
18.3580,0.09,0.11,-0.99,3.17,3.11,2.01
18.3760,0.08,0.12,-0.99,3.36,2.99,1.77
18.3920,0.08,0.12,-0.99,3.11,3.11,1.77
18.4090,0.09,0.12,-0.99,3.17,3.05,1.89
18.4260,0.09,0.11,-0.99,3.11,3.11,1.83
18.4430,0.09,0.12,-0.99,3.23,3.11,1.46
18.4580,0.08,0.11,-0.99,3.17,2.81,1.71
18.4740,0.09,0.11,-0.99,3.42,2.50,1.77
18.4900,0.08,0.11,-0.99,3.11,2.44,2.26
18.4900,0.08,0.11,-0.99,3.05,2.81,2.44
18.5050,0.08,0.11,-0.99,3.11,2.75,2.50
18.5350,0.09,0.11,-0.99,3.17,2.56,2.08
18.5490,0.09,0.11,-0.99,3.36,2.32,1.53
18.5590,0.09,0.11,-0.99,3.30,2.93,0.85
18.5740,0.09,0.11,-0.99,3.36,2.93,0.79
18.5900,0.09,0.12,-0.99,3.11,2.99,1.22
18.6050,0.08,0.12,-0.99,3.30,2.81,2.08
18.6210,0.08,0.12,-0.99,3.05,2.87,2.14
18.6370,0.08,0.12,-0.99,3.23,2.81,2.26
18.6520,0.09,0.12,-0.99,3.30,2.75,2.38
18.6700,0.08,0.11,-0.99,2.93,2.50,2.32
18.6850,0.09,0.11,-0.99,2.93,2.81,2.14
18.7010,0.09,0.11,-0.99,3.30,2.44,2.01
18.7170,0.09,0.11,-0.99,3.23,2.99,1.95
18.7320,0.09,0.11,-0.99,3.17,2.62,1.83
18.7480,0.09,0.11,-0.99,3.11,2.56,1.83
18.7520,0.08,0.11,-0.99,3.11,2.81,2.14
18.7740,0.09,0.11,-0.99,3.30,3.05,2.14
18.7840,0.09,0.11,-0.99,3.05,2.93,1.34
18.7990,0.09,0.12,-0.99,2.99,3.30,1.10
18.8150,0.09,0.12,-0.99,3.23,3.11,1.16
18.8300,0.09,0.12,-0.99,3.05,2.99,1.71
18.8460,0.08,0.12,-0.99,3.23,2.50,1.89
18.8620,0.08,0.12,-0.99,3.05,2.93,2.56
18.8820,0.08,0.11,-0.99,2.99,2.81,2.62
18.8970,0.08,0.11,-0.99,3.11,2.62,2.26
18.9040,0.08,0.11,-0.99,3.23,2.62,1.95
18.9210,0.09,0.11,-0.99,3.30,2.75,2.08
18.9370,0.09,0.11,-0.99,3.11,2.87,2.26
18.9540,0.08,0.11,-0.99,3.11,2.75,2.08
18.9700,0.09,0.11,-0.99,3.23,2.99,1.89
18.9880,0.09,0.11,-0.99,3.11,2.99,1.65
19.0030,0.08,0.11,-0.99,3.23,3.11,1.53
19.0180,0.08,0.11,-0.99,3.23,2.69,1.77
19.0330,0.09,0.12,-0.99,3.17,2.69,1.71
19.0490,0.09,0.12,-0.99,3.17,2.56,1.71
19.0640,0.09,0.12,-0.99,3.23,2.75,1.71
19.0740,0.09,0.11,-0.99,3.36,2.50,1.65
19.0860,0.08,0.12,-0.99,3.05,2.56,1.65
19.1020,0.08,0.11,-0.99,3.17,2.56,1.53
19.1170,0.09,0.11,-0.99,3.23,2.75,1.59
19.1330,0.09,0.11,-0.99,3.11,3.23,1.59
19.1480,0.08,0.11,-0.99,3.36,2.44,1.89
19.1640,0.08,0.11,-0.99,3.30,2.50,1.89
19.1840,0.09,0.11,-0.99,3.23,2.87,1.59
19.2000,0.09,0.11,-0.99,3.05,2.62,1.46
19.2170,0.09,0.11,-0.99,2.99,2.75,1.59
19.2320,0.09,0.11,-0.99,3.11,2.81,1.83
19.2480,0.09,0.12,-0.99,3.17,2.75,1.89
19.2630,0.09,0.12,-0.99,3.05,3.05,1.59
19.2740,0.08,0.12,-0.99,3.23,2.99,1.59
19.2840,0.08,0.12,-0.99,3.11,2.81,1.53
19.3000,0.08,0.11,-0.99,3.17,2.93,1.34
19.3150,0.08,0.11,-0.99,3.30,2.56,1.59
19.3310,0.09,0.11,-0.99,3.17,3.05,1.53
19.3460,0.08,0.11,-0.99,3.17,2.93,1.53
19.3740,0.09,0.11,-0.99,3.17,2.93,1.53
19.3900,0.08,0.11,-0.99,3.05,2.87,1.53
19.4050,0.08,0.11,-0.99,3.23,3.05,2.08
19.4130,0.08,0.11,-0.99,3.23,2.75,2.08
19.4300,0.08,0.11,-0.99,3.30,2.93,2.08
19.4460,0.09,0.11,-0.99,3.05,2.81,1.89
19.4630,0.09,0.11,-0.99,3.48,2.87,1.89
19.4800,0.09,0.11,-0.99,3.48,2.81,1.77
19.4950,0.09,0.11,-0.99,3.42,2.50,1.77
19.5110,0.08,0.12,-0.99,3.48,2.50,1.71
19.5260,0.08,0.11,-0.99,2.99,2.93,1.89
19.5300,0.09,0.11,-0.99,3.23,2.75,1.95
19.5450,0.09,0.12,-0.99,3.42,3.05,2.01
19.5610,0.09,0.11,-0.99,3.30,2.99,1.89
19.5770,0.09,0.11,-0.99,3.36,2.69,2.01
19.5930,0.09,0.11,-0.99,2.99,2.99,2.08
19.6080,0.09,0.11,-0.99,3.17,2.62,1.83
19.6240,0.08,0.11,-0.99,3.11,2.69,1.77
19.6390,0.08,0.11,-0.99,3.23,2.87,1.89
19.6550,0.08,0.11,-0.99,3.11,2.93,2.01
19.6740,0.08,0.11,-0.99,3.60,2.75,2.01
19.6910,0.08,0.11,-0.99,3.36,2.62,1.89
19.7070,0.09,0.12,-0.99,3.30,2.50,1.83
19.7240,0.09,0.12,-0.99,3.05,2.87,2.01
19.7390,0.09,0.12,-0.99,3.11,2.69,2.08
19.7540,0.09,0.12,-0.99,3.23,2.81,2.01
19.7680,0.08,0.12,-0.99,3.36,2.75,1.89
19.7830,0.08,0.12,-0.99,3.30,2.75,1.89
19.7990,0.08,0.12,-0.99,3.30,2.75,1.77
19.8070,0.09,0.11,-0.99,3.23,2.56,1.89
19.8230,0.09,0.11,-0.99,3.17,2.75,1.83
19.8400,0.09,0.11,-0.99,3.36,2.75,1.83
19.8580,0.08,0.11,-0.99,3.42,3.05,2.01
19.8740,0.08,0.11,-0.99,3.30,2.99,1.95
19.8890,0.08,0.11,-0.99,3.17,3.11,1.95
19.9040,0.09,0.11,-0.99,3.23,2.38,1.71
19.9210,0.09,0.11,-0.99,3.36,3.11,0.73
19.9360,0.08,0.12,-0.99,3.48,3.17,0.06
19.9510,0.08,0.12,-0.99,3.17,3.05,1.22
19.9560,0.08,0.12,-0.99,2.99,3.23,1.53
19.9740,0.09,0.11,-0.99,3.42,2.75,1.71
19.9900,0.08,0.12,-0.99,3.30,2.99,1.40
20.0070,0.08,0.11,-0.99,3.17,2.93,1.16
20.0240,0.09,0.11,-0.99,3.17,2.87,1.22
20.0400,0.09,0.11,-0.99,3.17,2.81,1.10
20.0570,0.09,0.11,-0.99,3.23,2.93,1.04
20.0740,0.08,0.11,-0.99,3.23,3.23,0.85
20.0900,0.09,0.11,-0.99,3.36,2.93,1.40
20.1050,0.08,0.11,-0.99,3.42,2.75,1.89
20.1210,0.08,0.11,-0.99,3.30,2.99,2.20
20.1370,0.10,0.11,-0.99,3.30,2.69,1.95
20.1520,0.09,0.11,-0.99,3.54,2.93,0.92
20.1680,0.09,0.11,-0.99,3.42,2.93,0.18
20.1840,0.09,0.12,-0.99,3.30,2.93,0.73
20.2000,0.08,0.12,-0.99,3.36,2.99,1.22
20.2180,0.08,0.12,-0.99,3.30,2.50,1.28
20.2340,0.08,0.12,-0.99,3.05,2.99,1.95
20.2500,0.08,0.11,-0.99,3.11,3.11,2.08
20.2660,0.08,0.11,-0.99,3.23,2.56,2.08
20.2820,0.08,0.11,-0.99,3.54,2.81,2.08
20.2860,0.08,0.11,-0.99,3.17,2.56,2.08
20.3010,0.09,0.11,-0.99,3.17,3.17,2.01
20.3170,0.08,0.11,-0.99,3.17,3.11,2.08
20.3480,0.08,0.11,-0.99,3.23,2.69,1.89
20.3640,0.09,0.11,-0.99,3.17,2.87,1.89
20.3740,0.09,0.11,-0.99,3.30,2.62,1.95
20.3890,0.09,0.11,-0.99,3.54,2.75,1.83
20.4050,0.09,0.12,-0.99,3.30,2.87,1.65
20.4220,0.09,0.12,-0.99,3.23,2.93,1.53
20.4390,0.09,0.11,-0.99,3.05,2.99,1.40
20.4550,0.09,0.11,-0.99,3.17,2.99,1.40
20.4710,0.08,0.11,-0.99,3.23,2.69,1.89
20.4880,0.10,0.11,-0.99,3.05,2.81,2.01
20.5040,0.08,0.11,-0.99,3.30,2.87,1.83
20.5200,0.09,0.11,-0.99,3.36,2.81,1.40
20.5360,0.09,0.11,-0.99,3.11,3.23,1.04
20.5510,0.09,0.11,-0.99,3.48,2.93,1.10
20.5660,0.08,0.11,-0.99,3.17,2.81,1.95
20.5810,0.08,0.12,-0.99,2.93,2.87,1.71
20.5890,0.08,0.12,-0.99,3.11,2.75,1.71
20.6060,0.08,0.12,-0.99,3.11,2.75,1.65
20.6220,0.08,0.12,-0.99,3.23,2.56,1.77
20.6390,0.08,0.12,-0.99,3.23,2.44,1.77
20.6550,0.08,0.11,-0.99,3.36,2.75,1.83
20.6710,0.08,0.11,-0.99,3.42,2.62,1.83
20.6870,0.08,0.11,-0.99,3.42,2.50,1.71
20.7030,0.08,0.11,-0.99,3.11,2.32,1.83
20.7180,0.08,0.11,-0.99,3.05,2.69,1.77
20.7340,0.08,0.11,-0.99,3.11,2.69,1.77
20.7490,0.09,0.11,-0.99,3.36,2.81,1.89
20.7650,0.09,0.11,-0.99,3.23,2.93,1.89
20.7810,0.08,0.11,-0.99,3.11,2.81,1.65
20.7970,0.09,0.11,-0.99,3.17,3.05,1.77
20.8110,0.09,0.11,-0.99,3.05,3.11,1.59
20.8270,0.08,0.12,-0.99,3.23,3.30,1.65
20.8440,0.08,0.12,-0.99,2.99,3.23,1.65
20.8610,0.09,0.11,-0.99,3.23,3.17,1.95
20.8760,0.09,0.11,-0.99,3.11,2.81,1.83
20.8920,0.08,0.12,-0.99,3.11,2.62,1.71
20.9080,0.09,0.11,-0.99,3.30,2.62,1.77
20.9110,0.09,0.11,-0.99,3.36,3.05,1.83
20.9270,0.08,0.11,-0.99,3.17,2.99,1.59
20.9420,0.09,0.11,-0.99,3.36,2.99,1.10
20.9580,0.09,0.11,-0.99,3.11,2.87,1.16
20.9740,0.08,0.11,-0.99,3.23,2.62,1.22
20.9900,0.08,0.11,-0.99,3.11,2.56,1.95
21.0190,0.08,0.11,-0.99,2.87,3.11,2.56
21.0350,0.08,0.11,-0.99,3.17,2.44,2.50
21.0500,0.08,0.12,-0.99,3.17,2.87,2.32
21.0650,0.09,0.12,-0.99,3.30,2.99,2.01
21.0790,0.09,0.12,-0.99,3.11,2.62,1.46
21.0870,0.08,0.12,-0.99,3.11,2.99,1.22
21.1040,0.09,0.11,-0.99,3.23,2.69,1.53
21.1210,0.08,0.11,-0.99,3.05,2.87,1.71
21.1370,0.08,0.11,-0.99,2.99,3.17,1.95
21.1530,0.08,0.11,-0.99,3.11,2.99,2.01
21.1700,0.08,0.11,-0.99,3.54,2.81,2.08
21.1860,0.09,0.11,-0.99,3.36,3.11,1.83
21.2020,0.08,0.11,-0.99,3.36,2.75,1.65
21.2180,0.08,0.11,-0.99,3.30,2.81,1.53
21.2330,0.08,0.11,-0.99,3.30,2.87,1.65
21.2490,0.08,0.11,-0.99,3.17,3.05,1.77
21.2540,0.09,0.11,-0.99,2.93,2.32,1.71
21.2740,0.09,0.11,-0.99,2.99,2.50,1.77
21.2860,0.09,0.11,-0.99,3.05,2.81,1.77
21.3040,0.08,0.11,-0.99,3.17,2.81,1.46
21.3190,0.08,0.11,-0.99,3.36,3.05,1.40
21.3350,0.08,0.11,-0.99,3.05,2.81,1.71
21.3510,0.09,0.11,-0.99,3.36,3.05,1.95
21.3740,0.09,0.11,-0.99,3.30,2.56,2.01
21.3820,0.09,0.11,-0.99,3.11,2.93,1.89
21.3980,0.08,0.11,-0.99,3.30,2.87,1.77
21.4130,0.09,0.11,-0.99,3.30,3.17,1.53
21.4300,0.08,0.11,-0.99,3.36,2.81,1.10
21.4460,0.09,0.11,-0.99,3.17,2.87,1.46
21.4630,0.08,0.11,-0.99,3.42,2.75,1.77
21.4790,0.09,0.11,-0.99,3.30,2.56,2.26
21.4960,0.11,0.11,-0.99,3.05,2.56,2.26
21.5110,0.09,0.12,-0.99,3.11,3.11,2.20
21.5260,0.09,0.11,-0.99,2.99,2.50,1.83
21.5410,0.09,0.11,-0.99,3.17,2.62,1.46
21.5560,0.09,0.12,-0.99,3.36,2.81,1.34
21.5630,0.09,0.11,-0.99,3.30,2.87,1.28
21.5790,0.08,0.11,-0.99,3.17,2.99,1.53
21.5960,0.08,0.12,-0.99,3.17,2.81,1.77
21.6120,0.08,0.11,-0.99,3.05,2.87,1.83
21.6290,0.08,0.11,-0.99,3.30,2.50,2.01
21.6470,0.08,0.11,-0.99,3.11,2.56,1.89
21.6620,0.08,0.11,-0.99,3.30,2.99,1.89
21.6780,0.08,0.11,-0.99,3.23,2.81,1.95
21.6930,0.08,0.11,-0.99,3.23,2.81,1.83
21.7080,0.09,0.11,-0.99,3.36,2.81,1.95
21.7130,0.09,0.11,-0.99,3.30,3.23,1.95
21.7290,0.09,0.12,-0.99,3.42,2.93,1.89
21.7450,0.09,0.11,-0.99,3.17,2.62,1.95
21.7630,0.09,0.11,-0.99,3.17,3.11,2.08
21.7790,0.09,0.11,-0.99,3.30,2.69,1.83
21.7960,0.09,0.11,-0.99,3.11,3.23,1.59
21.8120,0.10,0.11,-0.99,3.17,3.23,1.40
21.8290,0.10,0.11,-0.99,3.36,2.69,1.89
21.8460,0.08,0.11,-0.99,3.17,2.99,2.14
21.8620,0.08,0.11,-0.99,3.11,2.87,2.20
21.8740,0.08,0.11,-0.99,3.23,2.99,1.77
21.8780,0.08,0.12,-0.99,3.23,2.87,1.40
21.8930,0.08,0.11,-0.99,3.23,2.99,1.28
21.9090,0.09,0.11,-0.99,3.23,2.99,1.65
21.9240,0.09,0.11,-0.99,3.23,2.87,2.01
21.9400,0.09,0.12,-0.99,3.23,2.99,2.08
21.9640,0.09,0.11,-0.99,3.30,2.87,1.95
21.9790,0.09,0.11,-0.99,3.30,2.93,1.77
21.9970,0.08,0.11,-0.99,2.93,3.05,1.83
22.0110,0.08,0.11,-0.99,3.05,3.23,2.20
22.0260,0.08,0.11,-0.99,3.23,2.62,2.01
22.0410,0.08,0.11,-0.99,3.30,2.69,2.08
22.0560,0.08,0.11,-0.99,3.30,2.69,2.01
22.0710,0.08,0.11,-0.99,3.23,2.93,1.89
22.0800,0.08,0.11,-0.99,3.30,2.62,1.95
22.0960,0.09,0.11,-0.99,3.23,2.56,1.89
22.1130,0.09,0.12,-0.99,3.30,2.62,2.01
22.1310,0.09,0.12,-0.99,3.23,3.05,1.95
22.1460,0.08,0.12,-0.99,3.23,2.93,1.83
22.1600,0.08,0.12,-0.99,3.42,2.56,1.83
22.1760,0.09,0.12,-0.99,3.42,3.11,1.95
22.1910,0.09,0.12,-0.99,3.30,3.36,1.89
22.2060,0.09,0.11,-0.99,3.42,2.56,1.71
22.2210,0.08,0.11,-0.99,3.11,2.81,1.65
22.2290,0.09,0.11,-0.99,3.11,2.69,1.95
22.2460,0.09,0.11,-0.99,3.05,2.87,1.89
22.2620,0.09,0.11,-0.99,3.23,3.05,1.59
22.2790,0.08,0.11,-0.99,2.99,2.87,1.16
22.2950,0.08,0.11,-0.99,3.23,2.75,1.34
22.3130,0.08,0.11,-0.99,3.36,2.87,1.77
22.3280,0.08,0.11,-0.99,3.36,2.99,1.89
22.3430,0.09,0.11,-0.99,3.17,2.81,1.53
22.3580,0.08,0.12,-0.99,3.30,2.93,1.46
22.3620,0.08,0.12,-0.99,2.93,3.11,1.53
22.3800,0.08,0.12,-0.99,3.23,2.99,1.83
22.3950,0.09,0.12,-0.99,3.30,2.93,1.77
22.4110,0.08,0.12,-0.99,3.17,2.87,2.20
22.4260,0.08,0.12,-0.99,2.99,2.69,2.08
22.4420,0.09,0.11,-0.99,3.17,2.56,2.14
22.4580,0.08,0.11,-0.99,3.23,2.69,1.89
22.4740,0.08,0.11,-0.99,3.17,2.87,1.83
22.4980,0.08,0.11,-0.99,3.23,2.93,1.59
22.5050,0.08,0.11,-0.99,3.42,2.99,1.65
22.5220,0.09,0.11,-0.99,3.23,2.75,1.53
22.5390,0.09,0.11,-0.99,3.17,2.87,1.71
22.5550,0.08,0.11,-0.99,3.17,2.87,1.89
22.5720,0.08,0.12,-0.99,3.23,2.50,2.14
22.5890,0.08,0.12,-0.99,3.05,2.44,2.08
22.6050,0.09,0.11,-0.99,3.17,2.62,2.14
22.6050,0.09,0.11,-0.99,3.23,2.75,2.01
22.6200,0.09,0.11,-0.99,3.36,2.87,1.83
22.6360,0.09,0.11,-0.99,3.36,2.81,1.53
22.6520,0.09,0.11,-0.99,3.23,2.69,1.59
22.6740,0.10,0.11,-0.99,3.23,3.30,1.65
22.6930,0.08,0.11,-0.99,3.23,2.87,1.95
22.7090,0.09,0.11,-0.99,3.23,2.50,2.08
22.7240,0.09,0.11,-0.99,3.30,2.69,1.71
22.7400,0.09,0.11,-0.99,3.23,2.81,1.65
22.7560,0.08,0.12,-0.99,3.48,3.05,1.53
22.7710,0.08,0.11,-0.99,2.87,3.17,1.46
22.7860,0.08,0.11,-0.99,3.30,2.69,1.77
22.7930,0.08,0.12,-0.99,3.30,2.87,1.89
22.8100,0.08,0.11,-0.99,3.17,2.99,2.01
22.8260,0.08,0.11,-0.99,3.05,3.05,1.95
22.8420,0.08,0.11,-0.99,3.05,2.81,1.83
22.8600,0.08,0.11,-0.99,3.30,2.81,1.95
22.8760,0.09,0.11,-0.99,3.48,2.75,1.89
22.8910,0.09,0.11,-0.99,3.48,2.56,2.01
22.8940,0.09,0.11,-0.99,3.36,2.75,2.01
22.9230,0.09,0.11,-0.99,3.23,2.81,1.89
22.9270,0.09,0.11,-0.99,3.11,3.05,2.01
22.9430,0.09,0.11,-0.99,3.05,3.05,1.89
22.9590,0.09,0.11,-0.99,3.05,3.17,1.83
22.9750,0.09,0.11,-0.99,3.11,2.69,1.95
22.9910,0.09,0.11,-0.99,3.17,2.93,1.95
23.0060,0.09,0.11,-0.99,3.23,2.62,2.01
23.0310,0.09,0.11,-0.99,3.36,2.62,1.89
23.0470,0.08,0.11,-0.99,3.48,2.87,1.71
23.0640,0.09,0.11,-0.99,3.17,2.99,1.71
23.0790,0.08,0.11,-0.99,3.42,2.75,1.77
23.0950,0.09,0.11,-0.99,3.17,2.32,1.83
23.1110,0.09,0.11,-0.99,3.23,3.05,1.83
23.1270,0.08,0.11,-0.99,3.05,2.93,1.95
23.1420,0.08,0.11,-0.99,3.17,3.48,2.08
23.1570,0.09,0.11,-0.99,3.30,3.11,1.95
23.1630,0.09,0.11,-0.99,3.30,3.36,1.95
23.1810,0.09,0.11,-0.99,3.23,3.11,1.77
23.1970,0.09,0.11,-0.99,3.11,3.11,1.77
23.2130,0.09,0.10,-0.95,3.78,2.56,1.77
23.2300,0.09,0.12,-1.05,4.15,3.30,1.95
23.2470,0.10,0.12,-1.00,2.93,2.99,2.08
23.2620,0.06,0.12,-0.97,2.32,2.56,1.83
23.2770,0.09,0.11,-0.98,2.87,2.69,1.95
23.2930,0.08,0.11,-1.00,3.66,3.05,1.77
23.3080,0.10,0.12,-1.00,3.78,2.87,1.89
23.3130,0.07,0.11,-1.00,3.11,2.81,1.59
23.3300,0.08,0.11,-0.99,2.87,2.81,1.95
23.3460,0.08,0.11,-1.00,2.81,2.56,1.83
23.3630,0.08,0.11,-0.98,3.42,2.87,1.95
23.3800,0.09,0.12,-1.00,3.30,2.81,2.01
23.3960,0.10,0.12,-1.00,3.23,2.69,1.89
23.4130,0.09,0.12,-0.99,2.99,2.62,1.89
23.4300,0.08,0.11,-0.98,3.17,2.69,1.95
23.4460,0.08,0.11,-0.99,3.17,2.56,2.08
23.4470,0.08,0.11,-1.00,3.30,2.99,2.01
23.4740,0.09,0.11,-0.99,3.17,2.75,2.14
23.4800,0.09,0.11,-0.98,3.36,2.93,2.08
23.4950,0.09,0.11,-0.99,3.42,2.62,2.01
23.5110,0.09,0.11,-1.00,3.23,2.56,1.89
23.5270,0.08,0.11,-0.99,3.11,2.62,1.95
23.5420,0.08,0.11,-0.99,3.23,2.38,1.89
23.5710,0.09,0.11,-0.99,3.36,2.93,1.95
23.5860,0.09,0.11,-0.99,3.17,2.69,1.77
23.6020,0.09,0.11,-0.99,3.23,2.56,1.83
23.6190,0.08,0.12,-0.99,3.23,2.75,1.89
23.6340,0.08,0.12,-1.00,3.42,2.87,1.95
23.6500,0.08,0.11,-0.99,2.93,2.87,1.95
23.6660,0.09,0.11,-0.99,3.11,2.75,2.01
23.6740,0.09,0.11,-0.99,3.05,2.62,1.83
23.6860,0.09,0.11,-0.99,3.48,2.56,1.95
23.7010,0.08,0.11,-0.99,2.99,3.05,1.83
23.7170,0.09,0.11,-0.99,3.05,2.93,1.83
23.7330,0.09,0.11,-0.99,3.17,2.62,1.89
23.7480,0.09,0.11,-0.99,3.42,2.44,1.95
23.7640,0.09,0.11,-0.99,3.30,2.44,1.95
23.7860,0.09,0.11,-0.99,3.36,2.81,1.83
23.8030,0.09,0.12,-0.99,3.30,2.81,2.01
23.8180,0.09,0.12,-0.99,3.42,2.50,1.83
23.8340,0.09,0.12,-0.99,3.23,2.50,1.95
23.8480,0.09,0.12,-0.99,3.17,2.87,1.77
23.8550,0.09,0.12,-0.99,3.30,2.69,1.65
23.8740,0.09,0.12,-0.99,3.11,2.87,1.65
23.8870,0.08,0.11,-0.99,3.36,2.44,1.46
23.9040,0.08,0.12,-0.99,3.54,2.14,1.71
23.9220,0.09,0.11,-0.99,3.30,3.05,1.71
23.9380,0.08,0.11,-0.99,2.99,2.99,1.16
23.9530,0.09,0.11,-0.99,3.23,2.44,1.22
23.9560,0.09,0.11,-0.99,3.36,3.23,1.40
23.9750,0.10,0.11,-0.99,3.42,2.99,1.10
23.9870,0.09,0.11,-0.99,3.23,3.30,1.65
24.0030,0.08,0.11,-0.99,3.17,3.11,1.46
24.0180,0.09,0.11,-0.99,3.17,2.81,1.46
24.0340,0.08,0.12,-0.99,3.36,2.56,1.89
24.0500,0.11,0.11,-0.99,2.99,2.99,1.77
24.0750,0.08,0.12,-0.99,3.05,2.87,2.20
24.0880,0.09,0.12,-0.99,3.05,2.62,2.20
24.1040,0.08,0.11,-0.99,3.23,2.87,2.38
24.1200,0.08,0.11,-0.99,3.23,2.75,2.14
24.1350,0.08,0.11,-0.99,3.30,2.50,1.89
24.1510,0.08,0.11,-0.99,3.17,2.38,2.01
24.1670,0.08,0.11,-0.99,3.23,2.81,2.01
24.1830,0.08,0.11,-0.99,3.11,2.62,2.14
24.1980,0.09,0.11,-0.99,3.11,2.69,2.14
24.2140,0.09,0.11,-0.99,3.17,2.75,2.32
24.2280,0.09,0.11,-0.99,3.05,2.93,2.50
24.2440,0.08,0.12,-0.99,3.30,2.81,2.32
24.2590,0.09,0.11,-0.99,3.11,2.75,1.89
24.2740,0.09,0.12,-0.99,3.05,3.30,1.71
24.2820,0.09,0.12,-0.99,3.30,3.11,1.77
24.2990,0.09,0.12,-0.99,3.11,2.75,2.26
24.3160,0.08,0.12,-0.99,3.23,2.44,2.44
24.3330,0.08,0.12,-0.99,3.17,2.69,2.32
24.3490,0.08,0.11,-0.99,3.17,2.62,2.01
24.3660,0.08,0.11,-0.99,3.05,2.75,2.01
24.3820,0.09,0.11,-0.99,3.36,2.75,1.95
24.3980,0.08,0.11,-0.99,3.17,2.69,2.01
24.4140,0.09,0.11,-0.99,3.11,2.87,2.14
24.4290,0.09,0.11,-0.99,3.05,3.05,2.26
24.4450,0.08,0.11,-0.99,3.42,2.56,2.01
24.4620,0.09,0.11,-0.99,3.11,2.62,2.14
24.4760,0.09,0.11,-0.99,3.36,2.87,2.01
24.4920,0.09,0.11,-0.99,3.30,2.38,1.89
24.4990,0.09,0.12,-0.99,3.36,2.62,2.01
24.5150,0.09,0.11,-0.99,3.11,2.75,1.89
24.5320,0.09,0.12,-0.99,3.23,2.75,2.14
24.5490,0.09,0.11,-0.99,3.05,2.38,2.14
24.5650,0.09,0.11,-0.99,3.17,2.62,2.14
24.5810,0.09,0.12,-0.99,3.11,2.50,2.01
24.5960,0.08,0.11,-0.99,3.11,2.69,2.08
24.6110,0.10,0.11,-0.99,3.42,2.99,2.01
24.6260,0.08,0.11,-0.99,3.48,2.75,1.71
24.6410,0.08,0.11,-0.99,2.99,3.05,1.77
24.6560,0.09,0.11,-0.99,3.30,2.69,1.53
24.6660,0.08,0.11,-0.99,3.17,2.69,1.77
24.6820,0.08,0.11,-0.99,3.36,2.99,1.77
24.6980,0.09,0.11,-0.99,3.30,2.75,1.77
24.7160,0.08,0.11,-0.99,3.36,2.75,1.65
24.7310,0.08,0.11,-0.99,3.23,3.23,1.77
24.7460,0.08,0.11,-0.99,3.42,2.69,1.77
24.7610,0.09,0.12,-0.99,2.87,2.62,2.01
24.7760,0.09,0.11,-0.99,3.30,2.99,1.89
24.7910,0.08,0.11,-0.99,2.99,2.75,1.89
24.8060,0.09,0.11,-0.99,2.99,2.75,1.71
24.8140,0.08,0.11,-0.99,3.17,2.81,1.83
24.8320,0.09,0.11,-0.99,3.23,2.87,1.83
24.8490,0.08,0.11,-0.99,3.30,2.50,1.83
24.8650,0.09,0.11,-0.99,3.30,2.56,1.77
24.8810,0.09,0.11,-0.99,3.23,2.75,1.71
24.8980,0.10,0.11,-0.99,3.42,2.69,1.83
24.9130,0.08,0.12,-0.99,3.23,2.87,1.77
24.9290,0.10,0.11,-0.99,3.05,2.81,1.71
24.9440,0.09,0.12,-0.99,3.05,2.56,1.71
24.9620,0.08,0.11,-0.99,3.17,3.23,1.89
24.9790,0.08,0.12,-0.99,3.30,2.50,1.65
24.9940,0.08,0.11,-0.99,3.17,2.44,1.40
25.0080,0.08,0.11,-0.99,3.30,2.32,1.53
25.0240,0.08,0.11,-0.99,3.23,2.69,1.53
25.0320,0.08,0.11,-0.99,3.23,2.69,1.59
25.0490,0.08,0.11,-0.99,3.30,2.56,1.83
25.0640,0.08,0.11,-0.99,3.05,2.81,1.89
25.0800,0.08,0.11,-0.99,3.17,2.75,1.89
25.0960,0.08,0.11,-0.99,3.23,2.69,2.01
25.1120,0.09,0.11,-0.99,3.36,2.62,2.01
25.1270,0.09,0.11,-0.99,3.17,2.81,1.95
25.1510,0.08,0.11,-0.99,3.36,2.81,2.01
25.1660,0.09,0.11,-0.99,3.30,2.93,2.08
25.1810,0.09,0.11,-0.99,3.30,2.50,1.95
25.1850,0.09,0.11,-0.99,3.17,2.81,1.95
25.2020,0.09,0.11,-0.99,2.99,2.69,2.01
25.2180,0.09,0.11,-0.99,3.05,2.32,1.89
25.2340,0.09,0.11,-0.99,3.36,2.87,2.01
25.2500,0.09,0.12,-0.99,3.11,2.56,1.95
25.2650,0.08,0.11,-0.99,3.23,2.44,1.83
25.2810,0.09,0.11,-0.99,3.17,2.75,1.83
25.2970,0.09,0.11,-0.99,3.30,3.05,1.95
25.3160,0.08,0.12,-0.99,3.11,2.81,2.01
25.3310,0.09,0.11,-0.99,2.93,2.99,1.89
25.3460,0.10,0.11,-0.99,2.93,3.05,1.71
25.3600,0.08,0.11,-0.99,3.17,3.11,1.59
25.3750,0.08,0.11,-0.99,3.17,3.17,1.65
25.3840,0.09,0.11,-0.99,3.48,2.75,1.71
25.4010,0.08,0.11,-0.99,3.42,2.81,1.59
25.4180,0.08,0.11,-0.99,3.42,2.69,1.65
25.4350,0.10,0.12,-0.99,3.30,2.44,1.59
25.4510,0.08,0.11,-0.99,3.36,3.05,1.77
25.4660,0.10,0.11,-0.99,3.42,2.62,1.83
25.4820,0.10,0.11,-0.99,3.30,2.93,1.83
25.4980,0.09,0.11,-0.99,3.30,2.69,1.46
25.5130,0.09,0.11,-0.99,3.36,2.81,1.28
25.5160,0.08,0.12,-0.99,3.11,2.69,1.16
25.5310,0.09,0.11,-0.99,3.42,2.62,1.46
25.5620,0.08,0.12,-0.99,3.17,2.75,1.83
25.5780,0.08,0.11,-0.99,3.11,2.99,1.71
25.5880,0.08,0.11,-0.99,3.11,3.17,1.65
25.6050,0.08,0.11,-0.99,3.11,2.99,1.71
25.6210,0.08,0.12,-0.99,3.17,2.81,1.59
25.6370,0.08,0.11,-0.99,3.11,3.05,1.71
25.6550,0.08,0.12,-0.99,3.05,2.87,1.71
25.6560,0.08,0.11,-0.99,3.30,2.87,1.77
25.6750,0.08,0.11,-0.99,3.30,2.81,1.77
25.6870,0.08,0.11,-0.99,3.11,2.87,1.71
25.7030,0.08,0.11,-0.99,3.30,2.50,1.89
25.7180,0.09,0.11,-0.99,3.42,2.93,1.89
25.7340,0.09,0.11,-0.99,3.11,3.23,1.95
25.7590,0.09,0.11,-0.99,3.42,2.87,1.77
25.7750,0.08,0.11,-0.99,3.17,3.05,1.71
25.7900,0.09,0.11,-0.99,3.23,2.69,1.71
25.8050,0.09,0.11,-0.99,3.36,2.93,1.83
25.8090,0.08,0.11,-0.99,3.11,2.81,1.83
25.8240,0.08,0.12,-0.99,3.11,2.62,1.71
25.8400,0.08,0.11,-0.99,3.42,2.62,1.89
25.8560,0.09,0.12,-0.99,3.48,2.50,1.95
25.8750,0.08,0.12,-0.99,3.11,2.69,2.01
25.8870,0.08,0.11,-0.99,3.42,2.75,1.83
25.9030,0.09,0.11,-0.99,3.23,2.87,1.95
25.9170,0.08,0.11,-0.99,3.42,2.69,1.77
25.9340,0.09,0.11,-0.99,3.54,2.69,1.95
25.9500,0.09,0.11,-0.99,3.30,2.75,2.01
25.9670,0.08,0.11,-0.99,3.11,2.75,1.95
25.9850,0.09,0.11,-0.99,3.23,2.87,1.95
26.0020,0.09,0.11,-0.99,3.11,2.38,1.83
26.0170,0.09,0.11,-0.99,3.23,2.56,1.95
26.0330,0.08,0.11,-0.99,3.36,2.81,1.95
26.0480,0.09,0.12,-0.99,3.48,2.62,1.95
26.0640,0.09,0.12,-0.99,3.23,2.56,2.08
26.0790,0.09,0.11,-0.99,3.36,2.87,1.89
26.0940,0.09,0.11,-0.99,3.17,2.62,2.08
26.1000,0.09,0.11,-0.99,3.36,2.75,1.83
26.1170,0.09,0.11,-0.99,3.11,2.81,1.95
26.1330,0.09,0.11,-0.99,3.48,2.93,1.71
26.1490,0.12,0.11,-0.99,3.48,3.05,1.53
26.1650,0.11,0.11,-0.99,3.30,2.93,1.16
26.1810,0.09,0.12,-0.99,3.30,2.81,1.71
26.1960,0.10,0.12,-0.99,3.17,2.87,1.65
26.2120,0.09,0.12,-0.99,3.11,3.11,1.65
26.2270,0.08,0.11,-0.99,3.17,2.87,1.46
26.2430,0.08,0.12,-0.99,3.05,2.62,1.16
26.2600,0.07,0.11,-0.99,3.11,2.99,1.53
26.2770,0.08,0.11,-0.99,3.11,3.11,2.08
26.2930,0.07,0.11,-0.99,2.99,2.50,1.95
26.3100,0.08,0.11,-0.99,3.30,2.62,1.83
26.3270,0.08,0.12,-0.99,3.11,2.93,1.95
26.3440,0.08,0.11,-0.99,3.05,2.69,1.89
26.3450,0.08,0.11,-0.99,3.23,2.69,1.89
26.3730,0.09,0.11,-0.99,3.42,2.44,1.71
26.3770,0.09,0.11,-0.99,3.30,2.20,1.83
26.3940,0.09,0.11,-0.99,3.48,2.26,1.83
26.4090,0.09,0.11,-0.99,3.23,2.75,1.95
26.4270,0.08,0.11,-0.99,3.23,2.99,1.89
26.4430,0.08,0.11,-0.99,3.30,3.11,2.01
26.4610,0.09,0.11,-0.99,3.36,2.75,1.95
26.4780,0.09,0.11,-0.99,3.23,2.75,1.89
26.4940,0.09,0.11,-0.99,3.05,2.99,1.95
26.5110,0.08,0.11,-0.99,3.11,2.50,1.95
26.5270,0.09,0.11,-0.99,3.30,2.93,1.89
26.5420,0.09,0.11,-0.99,3.23,2.93,2.01
26.5580,0.09,0.11,-0.99,3.42,2.93,1.95
26.5750,0.09,0.11,-0.99,3.17,2.99,1.89
26.5890,0.09,0.11,-0.99,3.36,2.50,1.77
26.6050,0.09,0.11,-0.99,3.23,2.75,1.89
26.6050,0.09,0.11,-0.99,3.30,2.87,1.89
26.6290,0.08,0.11,-0.99,3.30,2.69,1.83
26.6460,0.09,0.11,-0.99,3.48,2.56,1.89
26.6620,0.09,0.12,-0.99,3.23,2.81,1.89
26.6790,0.09,0.11,-0.99,3.23,2.75,2.01
26.6950,0.09,0.11,-0.99,3.17,2.99,1.83
26.7100,0.08,0.11,-0.99,3.23,2.75,1.83
26.7260,0.08,0.11,-0.99,3.48,2.62,1.95
26.7400,0.09,0.11,-0.99,3.36,2.81,1.95
26.7550,0.09,0.11,-0.99,3.17,2.99,2.08
26.7620,0.09,0.11,-0.99,3.30,2.93,1.89
26.7780,0.09,0.11,-0.99,3.23,2.81,1.95
26.7950,0.08,0.11,-0.99,3.11,2.75,1.95
26.8110,0.08,0.11,-0.99,3.30,2.69,1.89
26.8260,0.08,0.11,-0.99,3.17,2.56,1.95
26.8420,0.09,0.11,-0.99,3.23,2.56,1.83
26.8580,0.09,0.11,-0.99,3.42,2.62,1.89
26.8750,0.09,0.12,-0.99,3.48,2.38,1.83
26.8900,0.09,0.12,-0.99,3.23,2.14,1.77
26.9080,0.08,0.11,-0.99,3.30,2.93,1.89
26.9230,0.08,0.11,-0.99,3.54,2.87,1.95
26.9390,0.09,0.12,-0.99,3.36,2.87,1.95
26.9540,0.09,0.11,-0.99,2.99,2.56,2.01
26.9700,0.09,0.11,-0.99,3.11,2.87,2.14
26.9750,0.08,0.11,-0.99,3.30,2.75,2.32
26.9980,0.08,0.12,-0.99,3.05,2.75,2.44
27.0160,0.08,0.12,-0.99,3.78,3.48,2.14
27.0320,0.09,0.11,-0.99,3.17,2.81,1.83
27.0480,0.09,0.12,-0.99,3.72,2.87,1.89
27.0640,0.09,0.11,-0.99,2.93,2.99,1.95
27.0780,0.08,0.11,-0.99,3.30,2.62,1.89
27.0940,0.08,0.11,-0.99,3.36,2.99,1.95
27.1090,0.08,0.11,-0.99,3.23,3.17,1.89
27.1160,0.09,0.11,-0.99,2.87,2.62,1.89
27.1320,0.09,0.11,-0.99,3.17,2.99,1.83
27.1490,0.09,0.11,-0.99,3.17,2.99,1.95
27.1660,0.09,0.11,-0.99,3.11,2.99,1.89
27.1820,0.09,0.12,-0.99,3.23,2.69,1.95
27.1980,0.09,0.11,-0.99,3.05,2.87,1.95
27.2130,0.09,0.12,-0.99,2.99,3.23,1.95
27.2290,0.09,0.11,-0.99,3.17,2.56,1.89
27.2440,0.09,0.11,-0.99,3.30,2.62,1.95
27.2440,0.09,0.11,-0.99,3.11,2.69,1.77
27.2600,0.09,0.11,-0.99,3.17,2.50,1.83
27.2760,0.08,0.11,-0.99,3.30,2.75,1.83
27.2950,0.08,0.11,-0.99,3.11,2.50,2.01
27.3200,0.09,0.11,-0.99,3.17,2.75,1.83
27.3280,0.09,0.11,-0.99,3.11,2.75,1.77
27.3440,0.08,0.11,-0.99,3.11,2.62,1.65
27.3590,0.08,0.11,-0.99,3.30,2.99,0.85
27.3750,0.10,0.10,-0.99,3.54,3.17,-0.43
27.3910,0.07,0.13,-0.99,3.91,3.42,-2.14
27.4060,0.09,0.11,-0.99,3.30,3.30,0.98
27.4220,0.09,0.11,-0.99,3.54,2.87,0.24
27.4370,0.09,0.11,-0.99,3.66,3.42,-0.92
27.4580,0.09,0.11,-0.99,3.85,3.36,-1.65
27.4750,0.09,0.11,-0.99,3.60,3.36,-1.40
27.4920,0.09,0.11,-0.99,3.60,3.30,-1.95
27.5080,0.08,0.11,-0.99,3.42,3.17,-2.08
27.5230,0.08,0.12,-0.99,3.54,3.05,-0.37
27.5400,0.08,0.13,-0.99,3.36,2.50,1.16
27.5540,0.09,0.11,-0.99,3.17,2.69,1.71
27.5700,0.09,0.11,-0.99,2.99,2.75,1.77
27.5750,0.09,0.11,-0.99,3.11,3.36,0.92
27.5910,0.09,0.11,-0.99,3.91,3.66,-1.34
27.6070,0.11,0.10,-0.99,3.30,3.05,-0.31
27.6230,0.08,0.11,-0.99,3.17,3.72,-2.56
27.6380,0.08,0.12,-0.99,3.42,3.36,-0.85
27.6540,0.09,0.11,-0.99,3.17,3.11,-1.16
27.6750,0.08,0.12,-0.99,3.36,3.36,-1.59
27.6850,0.08,0.12,-0.99,3.23,3.42,-0.18
27.7130,0.08,0.12,-0.99,3.42,2.87,0.67
27.7280,0.08,0.12,-0.99,3.42,3.30,1.22
27.7430,0.08,0.11,-0.99,3.23,3.11,1.53
27.7510,0.09,0.11,-0.99,3.05,2.69,1.40
27.7680,0.08,0.11,-0.99,3.17,2.87,1.28
27.7840,0.09,0.11,-0.99,3.05,2.99,1.65
27.8010,0.08,0.11,-0.99,3.36,2.87,1.46
27.8160,0.08,0.11,-0.99,3.30,3.30,1.89
27.8320,0.09,0.11,-0.99,3.17,3.11,1.77
27.8480,0.08,0.11,-0.99,3.17,2.93,1.77
27.8630,0.08,0.11,-0.99,3.11,3.17,1.83
27.8790,0.09,0.11,-0.99,3.11,3.05,1.77
27.8950,0.09,0.11,-0.99,3.11,2.81,1.83
27.9100,0.09,0.11,-0.99,3.11,3.36,1.53
27.9300,0.09,0.12,-0.99,3.17,3.05,1.53
27.9470,0.09,0.11,-0.99,3.23,2.69,1.83
27.9610,0.09,0.11,-0.99,3.23,2.99,1.53
27.9770,0.09,0.11,-0.99,3.48,2.62,1.22
27.9800,0.09,0.11,-0.99,3.36,2.56,1.22
27.9960,0.09,0.12,-0.99,3.23,3.11,1.34
28.0130,0.09,0.12,-0.99,3.17,2.99,1.53
28.0300,0.09,0.11,-0.99,3.17,2.93,1.65
28.0460,0.09,0.11,-0.99,3.23,2.93,1.59
28.0630,0.09,0.11,-0.99,3.36,3.17,1.34
28.0800,0.09,0.11,-0.99,3.30,3.48,0.85
28.0970,0.09,0.10,-0.99,3.48,2.99,0.12
28.1120,0.08,0.11,-0.99,3.23,2.81,-0.06
28.1280,0.08,0.12,-0.99,3.36,3.17,0.79
28.1430,0.09,0.11,-0.99,3.17,3.42,1.04
28.1580,0.08,0.11,-0.99,3.23,2.99,0.79
28.1730,0.08,0.10,-0.99,3.23,3.05,0.43
28.1890,0.08,0.11,-0.99,3.48,3.23,-0.43
28.1970,0.09,0.12,-0.99,3.36,3.11,-0.12
28.2130,0.09,0.12,-0.99,3.48,3.30,0.61
28.2300,0.09,0.12,-0.99,3.42,3.05,1.59
28.2460,0.09,0.12,-0.99,3.17,3.05,1.46
28.2630,0.09,0.11,-0.99,3.36,3.11,1.16
28.2800,0.09,0.10,-0.99,3.36,3.11,0.24
28.2950,0.08,0.11,-0.99,3.60,3.17,-0.49
28.3100,0.08,0.12,-0.99,3.48,3.05,0.18
28.3250,0.08,0.11,-0.99,3.42,3.11,1.46
28.3400,0.08,0.11,-0.99,3.11,2.99,1.34
28.3460,0.08,0.10,-0.99,3.42,2.93,0.98
28.3630,0.09,0.11,-0.99,3.17,3.05,0.37
28.3810,0.08,0.10,-0.99,3.60,3.11,-0.43
28.3970,0.09,0.12,-0.99,3.48,3.30,-0.67
28.4130,0.09,0.12,-0.99,3.30,3.30,0.31
28.4300,0.09,0.12,-0.99,3.05,2.75,1.16
28.4450,0.09,0.12,-0.99,3.30,3.23,1.59
28.4610,0.09,0.12,-0.99,3.17,2.99,1.59
28.4770,0.09,0.12,-0.99,3.23,2.81,1.77
28.4770,0.09,0.11,-0.99,3.42,2.87,1.34
28.4920,0.08,0.10,-1.00,3.42,3.48,0.24
28.5080,0.08,0.11,-0.99,3.05,3.54,-0.31
28.5240,0.09,0.11,-0.99,3.48,3.48,-0.37
28.5510,0.08,0.10,-0.99,3.54,3.48,-0.67
28.5670,0.09,0.12,-0.99,3.36,3.48,-0.24
28.5820,0.09,0.11,-0.99,3.23,3.30,0.92
28.5970,0.09,0.11,-0.99,3.23,2.93,1.04
28.6120,0.08,0.11,-0.99,2.99,3.36,1.53
28.6270,0.09,0.11,-0.99,3.05,3.05,1.04
28.6340,0.08,0.11,-0.99,3.48,3.36,-0.49
28.6520,0.09,0.10,-0.99,3.72,3.30,-0.98
28.6670,0.09,0.11,-0.99,3.54,3.66,-1.16
28.6850,0.09,0.12,-0.99,3.42,3.36,-0.92
28.7000,0.09,0.13,-0.99,3.48,3.23,-0.49
28.7170,0.08,0.13,-0.99,3.23,3.05,0.37
28.7340,0.08,0.12,-0.99,3.30,3.11,1.40
28.7500,0.08,0.11,-0.99,3.23,2.75,1.77
28.7660,0.09,0.11,-0.99,2.99,2.50,1.71
28.7820,0.09,0.11,-0.99,3.48,2.87,1.28
28.7960,0.09,0.10,-0.99,3.42,3.05,0.61
28.8020,0.08,0.10,-0.99,3.60,2.93,-0.31
28.8170,0.08,0.11,-0.99,3.42,2.99,-0.85
28.8330,0.08,0.10,-0.99,3.60,2.93,0.37
28.8490,0.08,0.11,-0.99,3.36,2.93,0.37
28.8640,0.08,0.11,-0.99,3.23,3.05,-0.06
28.8800,0.08,0.12,-0.99,3.42,2.93,0.06
28.8960,0.09,0.12,-0.99,3.54,3.11,0.06
28.9170,0.08,0.12,-0.99,3.36,3.17,-0.24
28.9310,0.08,0.12,-0.99,3.17,3.05,-0.12
28.9360,0.09,0.12,-0.99,3.05,3.23,0.85
28.9520,0.09,0.11,-0.99,3.05,3.23,0.37
28.9750,0.09,0.12,-0.99,3.42,3.23,0.49
28.9830,0.09,0.12,-0.99,3.11,3.48,1.04
28.9990,0.09,0.11,-0.99,3.17,3.17,1.95
29.0140,0.08,0.11,-0.99,2.93,2.99,2.08
29.0430,0.08,0.11,-0.99,3.05,3.23,2.08
29.0580,0.09,0.11,-0.99,3.23,3.42,1.77
29.0730,0.09,0.11,-0.99,3.42,2.99,0.73
29.0800,0.08,0.10,-1.00,3.36,3.30,0.31
29.0960,0.08,0.11,-0.99,3.42,2.99,0.18
29.1110,0.08,0.11,-0.99,3.54,2.99,0.43
29.1270,0.08,0.12,-0.99,3.30,3.23,0.67
29.1420,0.09,0.12,-0.99,2.93,3.60,0.67
29.1580,0.09,0.12,-0.99,3.17,3.23,0.18
29.1750,0.09,0.13,-0.99,3.17,3.48,-0.55
29.1900,0.08,0.12,-0.99,3.30,3.05,0.24
29.2110,0.08,0.12,-0.99,3.30,3.23,0.49
29.2270,0.09,0.11,-0.99,3.36,2.99,0.24
29.2440,0.08,0.11,-0.99,3.23,2.99,0.31
29.2590,0.08,0.10,-0.99,3.11,2.99,0.73
29.2760,0.09,0.10,-0.99,3.11,3.11,0.79
29.2910,0.08,0.10,-0.99,3.17,2.99,0.18
29.3070,0.09,0.11,-0.99,3.30,3.30,-0.73
29.3110,0.09,0.12,-0.99,3.48,3.23,-0.61
29.3260,0.08,0.12,-0.99,3.54,3.17,0.18
29.3420,0.08,0.12,-0.99,3.36,3.23,1.04
29.3570,0.08,0.12,-0.99,3.17,2.87,1.34
29.3750,0.08,0.12,-0.99,3.23,3.05,1.28
29.3890,0.08,0.11,-0.99,3.23,2.99,1.04
29.4050,0.08,0.12,-0.99,3.11,3.30,0.49
29.4250,0.09,0.11,-0.99,3.42,2.69,0.49
29.4410,0.08,0.11,-0.99,3.36,3.23,0.31
29.4590,0.09,0.12,-0.99,3.30,3.54,0.85
29.4740,0.09,0.11,-0.99,3.11,3.11,1.46
29.4900,0.08,0.11,-0.99,3.48,3.05,1.04
29.5060,0.08,0.11,-0.99,3.23,3.11,1.04
29.5220,0.08,0.11,-0.99,3.11,3.11,0.55
29.5380,0.08,0.11,-0.99,3.42,3.30,0.79
29.5550,0.09,0.11,-0.99,3.42,3.30,-0.18
29.5700,0.08,0.12,-0.99,3.60,3.60,-0.67
29.5850,0.08,0.12,-0.99,3.36,3.60,0.49
29.5920,0.08,0.12,-0.99,3.30,3.54,0.06
29.6080,0.09,0.12,-0.99,3.30,3.23,0.31
29.6240,0.08,0.12,-0.99,3.23,3.17,0.00
29.6410,0.08,0.11,-0.99,3.30,3.30,0.73
29.6580,0.08,0.11,-0.99,3.23,3.23,0.31
29.6760,0.08,0.11,-0.99,3.42,2.99,0.98
29.6760,0.09,0.11,-0.99,3.30,3.05,0.92
29.6910,0.08,0.11,-0.99,3.30,2.87,0.79
29.7070,0.09,0.11,-0.99,3.42,3.42,0.24
29.7220,0.09,0.11,-0.99,3.36,2.81,-0.12
29.7380,0.08,0.12,-0.99,3.48,2.99,-0.06
29.7630,0.08,0.12,-0.99,3.05,2.87,0.79
29.7800,0.08,0.12,-0.99,3.36,3.05,1.04
29.7970,0.08,0.11,-0.99,3.11,3.30,1.28
29.8110,0.09,0.10,-0.99,3.17,3.11,1.04
29.8270,0.09,0.11,-0.99,3.23,3.48,-0.49
29.8430,0.09,0.11,-0.99,3.48,3.11,-1.22
29.8580,0.09,0.12,-0.99,3.42,3.05,-0.67
29.8730,0.08,0.12,-0.99,3.17,3.17,1.10
29.8790,0.08,0.12,-0.99,3.30,2.99,1.04
29.8960,0.09,0.11,-0.99,3.17,3.42,0.73
29.9140,0.09,0.11,-0.99,3.17,3.11,0.24
29.9300,0.09,0.11,-0.99,3.30,3.05,-0.24
29.9470,0.08,0.11,-0.99,3.54,3.17,0.24
29.9620,0.08,0.11,-0.99,3.60,3.42,0.12
29.9740,0.08,0.12,-0.99,3.54,2.87,0.79
29.9780,0.08,0.11,-0.99,3.42,3.17,1.16
29.9940,0.09,0.11,-0.99,3.30,2.93,0.31
30.0100,0.09,0.12,-0.99,3.48,3.05,-0.73
30.0250,0.08,0.12,-0.99,3.72,3.23,-0.24
30.0480,0.08,0.12,-0.99,3.23,3.23,0.85
30.0640,0.08,0.11,-0.99,3.23,3.23,0.92
30.0820,0.09,0.11,-0.99,3.11,3.05,1.28
30.0980,0.09,0.11,-0.99,3.23,3.36,0.67
30.1140,0.08,0.11,-0.99,3.48,3.48,-0.67
30.1290,0.08,0.11,-0.99,3.30,3.60,-0.24
30.1320,0.08,0.12,-0.99,3.23,3.23,0.43
30.1600,0.08,0.12,-0.99,3.30,3.05,0.85
30.1750,0.08,0.11,-0.99,3.36,3.30,1.28
30.1810,0.09,0.11,-0.99,3.23,3.05,0.98
30.1980,0.09,0.11,-0.99,3.05,2.99,0.37
30.2140,0.08,0.11,-0.99,3.30,3.05,0.06
30.2320,0.08,0.12,-0.99,3.30,2.99,0.24
30.2480,0.08,0.11,-0.99,3.36,2.99,0.98
30.2640,0.09,0.11,-0.99,3.17,2.99,1.04
30.2800,0.08,0.11,-0.99,3.23,3.17,0.00
30.2960,0.09,0.11,-0.99,3.17,3.54,-0.06
30.3110,0.08,0.12,-0.99,3.30,3.05,0.43
30.3270,0.08,0.12,-0.99,3.17,3.11,1.22
30.3420,0.08,0.11,-0.99,3.23,3.11,1.53
30.3580,0.08,0.12,-0.99,3.17,2.87,1.34
30.3750,0.08,0.11,-0.99,3.30,2.87,1.04
30.3910,0.08,0.10,-0.99,3.30,2.99,0.49
30.4060,0.09,0.10,-0.99,3.48,3.23,-0.49
30.4210,0.08,0.11,-0.99,3.30,3.42,-0.49
30.4270,0.08,0.12,-0.99,3.54,3.11,-0.06
30.4430,0.08,0.12,-0.99,3.23,3.05,1.04
30.4600,0.08,0.12,-0.99,3.23,2.93,0.85
30.4770,0.08,0.12,-0.99,3.17,2.99,1.16
30.4930,0.08,0.11,-0.99,3.23,3.17,0.85
30.5100,0.09,0.11,-0.99,3.30,3.36,0.12
30.5260,0.09,0.11,-0.99,3.60,2.99,0.43
30.5270,0.08,0.11,-0.99,3.11,3.11,0.85
30.5420,0.08,0.11,-0.99,3.36,3.17,1.04
30.5580,0.08,0.12,-0.99,3.17,2.99,0.73
30.5740,0.08,0.11,-0.99,3.36,2.87,0.92
30.5890,0.08,0.11,-0.99,3.23,2.93,0.49
30.6050,0.08,0.11,-0.99,3.36,3.36,0.61
30.6320,0.08,0.11,-0.99,3.48,3.11,0.49
30.6470,0.08,0.11,-0.99,3.48,3.23,0.12
30.6620,0.08,0.11,-0.99,3.30,3.30,0.55
30.6780,0.08,0.11,-0.99,3.23,3.54,0.85
30.6840,0.08,0.12,-0.99,3.48,2.87,-0.31
30.7010,0.08,0.12,-0.99,3.36,3.30,0.06
30.7170,0.08,0.12,-0.99,3.30,3.17,0.12
30.7340,0.09,0.12,-0.99,3.23,3.36,0.79
30.7500,0.08,0.11,-0.99,3.23,3.05,1.22
30.7650,0.08,0.11,-0.99,3.42,2.75,1.28
30.7810,0.08,0.11,-0.99,3.30,2.62,1.04
30.7970,0.08,0.11,-0.99,3.30,3.17,0.98
30.8130,0.08,0.11,-0.99,3.17,3.30,0.92
30.8280,0.09,0.12,-0.99,3.05,3.23,0.79
30.8430,0.09,0.12,-0.99,3.05,3.36,0.92
30.8490,0.08,0.11,-0.99,3.05,3.11,0.98
30.8650,0.08,0.11,-0.99,3.30,3.11,0.67
30.8820,0.08,0.11,-0.99,3.48,3.17,0.43
30.8990,0.08,0.11,-0.99,3.54,3.11,0.37
30.9150,0.08,0.11,-0.99,3.48,3.11,0.18
30.9320,0.08,0.11,-0.99,3.17,3.17,0.43
30.9470,0.09,0.11,-0.99,3.30,3.42,0.00
30.9630,0.09,0.11,-0.99,3.30,3.30,0.12
30.9770,0.08,0.11,-0.99,3.54,3.17,0.24
30.9950,0.08,0.09,-1.00,3.17,2.50,0.98
31.0100,0.08,0.12,-0.99,3.42,3.17,0.67
31.0240,0.08,0.11,-0.99,3.30,2.87,0.92
31.0320,0.08,0.11,-0.99,3.11,3.17,0.24
31.0470,0.09,0.12,-0.99,3.17,3.11,0.00
31.0630,0.08,0.12,-0.99,3.48,2.99,0.31
31.0790,0.08,0.12,-0.99,3.23,3.36,1.22
31.0990,0.09,0.12,-0.99,3.48,2.93,1.10
31.1150,0.09,0.12,-0.99,3.11,3.17,1.16
31.1160,0.08,0.11,-0.99,3.11,3.05,1.10
31.1320,0.08,0.11,-0.99,3.30,3.30,1.04
31.1470,0.09,0.11,-0.99,3.30,3.05,0.79
31.1740,0.08,0.11,-0.99,3.36,2.99,0.98
31.1790,0.08,0.11,-0.99,3.36,2.93,0.92
31.1950,0.08,0.11,-0.99,3.23,3.11,0.67
31.2100,0.08,0.11,-0.99,3.17,2.69,0.79
31.2280,0.08,0.11,-0.99,3.23,2.81,1.10
31.2440,0.08,0.11,-0.99,3.36,3.05,1.22
31.2610,0.08,0.11,-0.99,3.36,3.17,1.28
31.2780,0.08,0.11,-0.99,3.23,3.11,1.65
31.2940,0.08,0.11,-0.99,3.42,2.69,1.65
31.3110,0.08,0.11,-1.00,3.30,2.38,1.34
31.3270,0.08,0.11,-0.99,3.23,3.23,0.85
31.3430,0.08,0.11,-0.99,3.54,3.11,0.24
31.3590,0.08,0.12,-0.99,3.36,3.17,0.73
31.3740,0.08,0.10,-0.99,3.11,3.30,1.16
31.3900,0.08,0.11,-0.99,3.48,3.11,0.49
31.4050,0.08,0.11,-1.00,3.48,2.99,0.73
31.4240,0.09,0.12,-0.99,3.42,3.17,-0.18
31.4400,0.09,0.11,-0.99,3.60,3.05,0.00
31.4550,0.09,0.12,-0.99,3.48,2.87,0.43
31.4600,0.08,0.12,-0.99,3.42,2.69,1.16
31.4770,0.08,0.11,-1.00,3.11,2.75,1.89
31.4940,0.08,0.11,-0.99,3.30,2.93,1.53
31.5100,0.09,0.11,-0.99,3.48,2.69,0.79
31.5270,0.08,0.11,-0.99,3.42,2.75,0.79
31.5440,0.08,0.11,-0.99,3.23,3.42,0.49
31.5600,0.08,0.11,-0.99,3.30,3.54,0.31
31.5750,0.08,0.11,-0.99,3.48,3.11,0.49
31.5770,0.08,0.12,-0.99,3.23,3.23,0.85
31.5940,0.08,0.12,-0.99,3.11,3.17,0.98
31.6100,0.09,0.12,-0.99,3.11,3.05,1.46
31.6270,0.08,0.11,-0.99,3.11,2.99,1.71
31.6440,0.08,0.11,-0.99,3.36,3.05,1.34
31.6600,0.08,0.11,-0.99,3.30,3.17,0.61
31.6760,0.08,0.11,-0.99,3.36,3.42,0.24
31.6930,0.08,0.11,-0.99,3.48,3.11,0.73
31.7100,0.08,0.11,-0.99,3.36,2.93,0.79
31.7260,0.08,0.11,-0.99,3.36,3.11,1.46
31.7420,0.08,0.11,-1.00,3.30,2.75,1.10
31.7570,0.08,0.10,-0.99,3.30,2.93,0.43
31.7720,0.08,0.11,-0.99,3.48,3.17,0.24
31.7870,0.08,0.09,-0.99,3.66,2.93,0.37
31.7940,0.08,0.12,-1.00,3.54,2.93,0.43
31.8100,0.08,0.08,-1.00,3.54,2.93,1.16
31.8250,0.08,0.11,-0.99,2.99,3.11,1.10
31.8410,0.08,0.10,-0.99,3.42,3.23,-0.31
31.8560,0.08,0.12,-0.99,3.30,3.48,0.00
31.8740,0.08,0.11,-0.99,3.36,3.36,-0.61
31.8880,0.08,0.12,-0.99,3.42,3.36,-0.55
31.9040,0.08,0.12,-0.99,3.17,3.17,0.18
31.9200,0.08,0.12,-0.99,3.17,3.42,0.37
31.9360,0.08,0.12,-0.99,3.23,3.17,0.55
31.9510,0.08,0.12,-0.99,3.30,2.87,0.73
31.9740,0.08,0.12,-0.99,3.42,3.11,1.04
31.9800,0.08,0.12,-0.99,3.30,2.99,1.16
31.9970,0.08,0.12,-0.99,3.30,3.17,1.46
32.0130,0.08,0.11,-0.99,3.11,2.93,1.83
32.0310,0.09,0.11,-0.99,3.30,2.87,1.71
32.0460,0.08,0.11,-0.99,3.30,3.23,1.71
32.0640,0.08,0.11,-0.99,3.17,2.87,1.28
32.0800,0.08,0.11,-0.99,3.23,3.17,0.85
32.0800,0.08,0.12,-0.99,3.42,2.99,0.92
32.0960,0.08,0.12,-0.99,3.30,2.87,1.28
32.1120,0.08,0.12,-0.99,3.23,2.69,1.65
32.1270,0.08,0.11,-0.99,3.23,3.30,1.83
32.1430,0.08,0.11,-0.99,3.17,3.05,1.46
32.1580,0.09,0.11,-0.99,3.42,2.93,1.28
32.1740,0.08,0.11,-0.99,3.36,3.11,1.10
32.1900,0.08,0.11,-0.99,3.30,2.99,1.34
32.2080,0.09,0.11,-0.99,3.36,2.93,1.10
32.2240,0.08,0.11,-0.99,3.48,3.05,0.79
32.2410,0.08,0.11,-0.99,3.30,3.11,0.67
32.2570,0.08,0.11,-0.99,3.36,3.05,0.73
32.2750,0.08,0.12,-0.99,3.48,3.17,0.55
32.2910,0.08,0.12,-0.99,3.17,2.99,1.59
32.3080,0.08,0.11,-0.99,3.17,2.81,1.89
32.3230,0.08,0.11,-0.99,3.23,2.87,1.77
32.3390,0.08,0.11,-0.99,3.30,2.99,1.77
32.3540,0.08,0.11,-0.99,3.30,3.11,1.71
32.3690,0.09,0.10,-0.99,3.30,2.99,0.92
32.3740,0.08,0.11,-0.99,3.48,2.99,0.00
32.3910,0.08,0.11,-0.99,3.30,2.87,1.10
32.4070,0.08,0.11,-0.99,3.23,3.23,1.83
32.4240,0.08,0.11,-0.99,3.17,2.93,1.71
32.4410,0.08,0.10,-0.99,3.23,2.93,1.28
32.4570,0.08,0.10,-0.99,3.66,2.99,0.18
32.4740,0.08,0.12,-0.99,3.23,3.23,0.12
32.4910,0.08,0.11,-0.99,3.48,2.87,0.92
32.5070,0.08,0.12,-0.99,3.30,3.11,0.85
32.5220,0.08,0.12,-0.99,3.30,2.38,1.16
32.5400,0.08,0.11,-0.99,3.30,2.69,1.34
32.5550,0.08,0.11,-0.99,3.36,2.69,1.53
32.5710,0.08,0.11,-0.99,3.30,2.99,1.28
32.5870,0.09,0.10,-1.00,3.54,3.11,0.67
32.6030,0.08,0.11,-0.99,3.54,2.69,0.00
32.6180,0.08,0.11,-1.00,3.54,3.42,0.43
32.6340,0.09,0.11,-1.00,3.30,3.30,-0.24
32.6500,0.08,0.13,-0.99,3.30,3.66,-0.61
32.6650,0.08,0.12,-0.99,3.36,3.05,1.53
32.6810,0.08,0.12,-0.99,2.93,2.69,1.59
32.6970,0.08,0.11,-0.99,3.05,2.69,1.89
32.7120,0.08,0.11,-0.99,3.05,2.99,1.89
32.7300,0.08,0.11,-0.99,3.36,2.99,1.71
32.7460,0.08,0.10,-0.99,3.36,2.81,0.92
32.7620,0.08,0.11,-1.00,3.17,3.48,-0.06
32.7730,0.08,0.11,-0.99,3.17,3.05,1.04
32.7790,0.08,0.12,-0.99,3.36,2.87,1.59
32.7950,0.08,0.11,-0.99,3.30,2.75,1.65
32.8110,0.08,0.11,-0.99,3.36,3.05,1.28
32.8260,0.08,0.11,-0.99,3.17,3.23,0.61
32.8420,0.08,0.12,-0.99,3.36,3.11,0.18
32.8570,0.08,0.11,-0.99,3.60,2.50,0.92
32.8740,0.08,0.11,-0.99,3.23,3.05,1.53
32.8890,0.08,0.11,-0.99,3.17,3.11,1.46
32.9050,0.08,0.11,-0.99,3.36,3.11,1.28
32.9220,0.08,0.11,-0.99,3.42,2.93,1.22
32.9390,0.08,0.12,-0.99,3.17,2.81,1.59
32.9560,0.08,0.11,-0.99,3.11,2.99,1.77
32.9730,0.08,0.11,-0.99,3.05,3.11,1.71
32.9880,0.08,0.11,-0.99,3.17,3.11,1.46
33.0040,0.08,0.10,-0.99,3.23,3.05,0.98
33.0200,0.08,0.11,-0.99,3.42,3.30,0.37
33.0360,0.08,0.11,-0.99,3.23,3.11,0.98
33.0510,0.08,0.11,-0.99,3.17,2.93,1.16
33.0690,0.08,0.10,-0.99,3.54,2.81,0.67
33.0860,0.08,0.11,-0.99,3.42,3.36,0.43
33.1020,0.08,0.12,-0.99,3.78,2.62,0.49
33.1160,0.08,0.12,-0.99,3.42,2.99,0.73
33.1340,0.08,0.11,-0.99,3.17,3.23,1.04
33.1490,0.08,0.12,-0.99,3.60,2.75,0.85
33.1640,0.09,0.12,-0.99,3.36,3.11,1.22
33.1740,0.09,0.12,-0.99,3.36,3.17,0.98
33.1860,0.08,0.11,-0.99,3.30,3.23,1.16
33.2030,0.08,0.11,-0.99,3.36,3.17,1.22
33.2190,0.08,0.11,-0.99,3.54,2.99,0.92
33.2360,0.08,0.11,-0.99,3.36,3.11,0.73
33.2520,0.08,0.11,-0.99,3.48,2.81,1.04
33.2690,0.08,0.11,-0.99,3.54,3.11,1.04
33.2840,0.08,0.12,-0.99,3.23,3.23,0.49
33.2860,0.08,0.11,-0.99,3.48,2.93,0.92
33.3170,0.08,0.11,-0.99,3.30,3.17,0.85
33.3330,0.08,0.11,-0.99,3.42,3.36,0.67
33.3480,0.08,0.11,-0.99,3.48,2.93,0.98
33.3640,0.08,0.11,-0.99,3.23,2.87,0.61
33.3800,0.08,0.10,-0.99,3.30,3.30,0.37
33.3940,0.08,0.09,-1.00,3.30,2.99,0.18
33.4110,0.08,0.11,-0.99,3.60,3.05,-0.12
33.4260,0.08,0.10,-0.99,3.72,2.99,-0.37
33.4410,0.08,0.12,-0.99,3.36,2.87,0.31
33.4570,0.08,0.11,-0.99,3.30,3.05,0.73
33.4720,0.08,0.11,-0.99,3.48,2.99,0.61
33.4880,0.08,0.11,-0.99,3.54,2.81,0.31
33.5030,0.09,0.11,-0.99,3.48,3.11,0.18
33.5100,0.08,0.12,-0.99,3.42,3.60,0.00
33.5270,0.08,0.12,-0.99,3.54,3.42,0.67
33.5440,0.08,0.12,-0.99,3.30,2.93,0.98
33.5600,0.08,0.12,-0.99,3.17,2.93,1.16
33.5780,0.08,0.12,-0.99,3.23,2.62,1.40
33.5940,0.08,0.11,-0.99,3.17,3.17,1.40
33.6100,0.08,0.12,-0.99,3.30,2.87,1.10
33.6250,0.08,0.11,-0.99,3.17,3.05,1.65
33.6270,0.08,0.11,-0.99,3.30,3.05,1.53
33.6430,0.08,0.11,-0.99,3.42,2.75,1.59
33.6580,0.08,0.11,-0.99,3.54,2.87,1.53
33.6740,0.08,0.11,-0.99,3.11,3.11,1.46
33.6900,0.08,0.11,-0.99,3.30,3.11,0.98
33.7060,0.08,0.11,-0.99,3.48,3.11,0.98
33.7280,0.08,0.11,-0.99,3.48,2.93,0.67
33.7440,0.08,0.11,-0.99,3.36,3.17,0.92
33.7610,0.08,0.11,-0.99,3.36,3.05,0.85
33.7760,0.08,0.11,-0.99,3.23,3.17,0.61
33.7930,0.08,0.11,-0.99,3.48,2.99,0.98
33.8080,0.08,0.12,-0.99,3.54,2.99,1.16
33.8230,0.08,0.11,-0.99,3.30,3.17,1.34
33.8390,0.08,0.11,-0.99,2.99,2.99,1.71
33.8440,0.08,0.11,-0.99,3.17,2.50,1.59
33.8610,0.08,0.10,-0.99,3.17,2.93,1.34
33.8770,0.08,0.09,-1.00,3.23,2.99,0.67
33.8930,0.08,0.11,-0.99,3.42,3.23,-0.06
33.9090,0.08,0.12,-0.99,3.48,3.11,-0.37
33.9240,0.08,0.11,-0.99,3.23,3.11,1.04
33.9400,0.08,0.12,-0.99,3.05,3.11,0.79
33.9550,0.08,0.11,-0.99,3.36,3.42,0.49
33.9730,0.09,0.12,-0.99,3.05,3.23,0.79
33.9960,0.08,0.11,-0.99,3.17,2.87,1.71
34.0030,0.08,0.11,-0.99,3.30,2.99,1.71
34.0190,0.08,0.11,-0.99,3.23,2.93,1.53
34.0370,0.08,0.11,-0.99,3.17,2.81,1.16
34.0530,0.08,0.11,-0.99,3.23,2.99,1.10
34.0730,0.08,0.11,-0.99,3.17,3.23,0.79
34.0860,0.08,0.11,-0.99,3.17,3.42,0.73
34.1040,0.08,0.11,-0.99,3.48,3.23,0.73
34.1200,0.08,0.11,-0.99,3.23,2.75,1.04
34.1340,0.08,0.11,-0.99,3.36,2.93,1.10
34.1500,0.08,0.12,-0.99,3.17,3.05,1.46
34.1660,0.08,0.11,-0.99,3.17,3.23,1.83
34.1810,0.08,0.11,-0.99,3.36,2.62,1.53
34.1860,0.08,0.11,-0.99,3.36,2.81,0.98
34.2020,0.08,0.11,-0.99,3.36,2.99,0.61
34.2170,0.08,0.11,-0.99,3.36,3.17,0.92
34.2330,0.08,0.11,-0.99,3.11,2.81,0.79
34.2490,0.08,0.11,-0.99,3.17,3.05,1.16
34.2740,0.08,0.11,-0.99,3.11,2.75,1.28
34.2800,0.08,0.11,-0.99,3.23,2.75,1.46
34.2990,0.08,0.11,-0.99,3.23,2.99,1.40
34.3150,0.08,0.11,-0.99,3.30,2.87,0.79
34.3320,0.08,0.11,-0.99,3.42,2.93,0.49
34.3480,0.08,0.11,-0.99,3.30,2.93,0.73
34.3630,0.08,0.11,-0.99,3.17,2.87,0.98
34.3790,0.08,0.11,-0.99,3.11,2.69,1.46
34.3950,0.08,0.10,-0.99,3.23,3.05,1.46
34.4110,0.08,0.11,-0.99,3.30,3.23,0.55
34.4260,0.08,0.11,-0.99,3.42,3.23,0.06
34.4450,0.08,0.11,-0.99,3.23,3.30,0.37
34.4620,0.08,0.10,-0.99,3.42,3.23,-0.24
34.4780,0.08,0.11,-0.99,3.30,3.05,0.37
34.4950,0.08,0.10,-0.99,3.36,3.17,0.98
34.5120,0.08,0.11,-0.99,3.23,2.81,0.92
34.5270,0.08,0.11,-0.99,3.30,2.99,0.43
34.5430,0.08,0.11,-0.99,3.42,2.99,0.55
34.5590,0.08,0.12,-0.99,3.42,2.81,0.55
34.5740,0.08,0.11,-0.99,3.11,2.99,0.92
34.5890,0.09,0.12,-0.99,3.17,3.05,0.73
34.5960,0.08,0.11,-0.99,3.30,3.17,1.04
34.6120,0.08,0.11,-0.99,3.23,3.17,0.73
34.6290,0.08,0.11,-0.99,3.36,2.99,0.73
34.6450,0.08,0.11,-0.99,3.23,3.23,0.31
34.6610,0.08,0.11,-0.99,3.36,2.75,0.24
34.6770,0.08,0.11,-0.99,3.42,2.87,0.55
34.6920,0.08,0.12,-0.99,3.42,2.93,0.92
34.7080,0.08,0.11,-0.99,3.23,3.17,0.92
34.7240,0.08,0.11,-0.99,3.36,3.05,-0.06
34.7430,0.08,0.11,-0.99,3.36,3.17,-0.92
34.7590,0.08,0.12,-0.99,3.60,3.42,-0.12
34.7760,0.08,0.11,-0.99,3.42,3.05,0.55
34.7910,0.08,0.11,-0.99,3.60,2.87,0.61
34.8070,0.08,0.11,-0.99,3.36,2.99,0.98
34.8230,0.08,0.11,-0.99,3.36,3.11,1.34
34.8390,0.08,0.11,-0.99,3.36,3.11,1.40
34.8550,0.08,0.11,-0.99,3.36,2.81,0.92
34.8710,0.08,0.11,-0.99,3.23,3.23,1.04
34.8750,0.08,0.11,-0.99,3.30,3.11,0.61
34.8920,0.08,0.11,-0.99,3.11,3.05,0.85
34.9080,0.08,0.12,-0.99,3.42,3.05,1.16
34.9230,0.08,0.11,-0.99,3.23,3.17,1.71
34.9390,0.09,0.11,-0.99,3.48,2.81,1.65
34.9550,0.09,0.11,-0.99,3.42,2.87,0.85
34.9730,0.09,0.11,-0.99,3.42,2.93,-0.37
34.9860,0.08,0.11,-0.99,3.36,2.93,-0.31
35.0140,0.08,0.12,-0.99,3.36,3.05,0.49
35.0300,0.08,0.12,-0.99,3.23,2.93,1.65
35.0460,0.08,0.11,-0.99,3.23,2.69,1.89
35.0620,0.08,0.11,-0.99,3.17,2.81,1.77
35.0730,0.08,0.11,-0.99,3.11,2.69,1.40
35.0810,0.09,0.10,-0.99,3.17,2.99,0.06
35.0970,0.08,0.11,-0.99,3.30,3.48,-0.73
35.1120,0.08,0.12,-0.99,3.36,3.05,0.79
35.1280,0.08,0.11,-0.99,3.30,2.75,1.71
35.1430,0.08,0.11,-0.99,3.11,3.11,1.95
35.1590,0.08,0.11,-0.99,3.23,2.93,1.83
35.1770,0.08,0.11,-0.99,3.23,2.50,1.83
35.1940,0.08,0.11,-0.99,3.54,2.50,1.83
35.2100,0.08,0.11,-0.99,3.36,2.99,2.01
35.2270,0.08,0.11,-0.99,3.30,2.44,1.40
35.2440,0.09,0.10,-0.99,3.17,3.23,0.85
35.2600,0.08,0.11,-0.99,3.60,3.23,-1.46
35.2750,0.08,0.10,-0.99,3.54,3.23,-0.67
35.2910,0.08,0.12,-0.99,3.30,3.17,-0.31
35.3050,0.08,0.12,-0.99,3.30,3.30,0.43
35.3210,0.08,0.11,-0.99,3.23,3.17,0.18
35.3270,0.08,0.11,-0.99,3.30,3.05,-0.31
35.3440,0.08,0.10,-0.99,3.36,3.54,-0.43
35.3600,0.08,0.11,-0.99,3.23,3.11,-0.43
35.3760,0.08,0.11,-0.99,3.30,3.11,0.18
35.3920,0.08,0.12,-0.99,3.23,3.05,1.22
35.4080,0.08,0.12,-0.99,3.05,2.87,1.53
35.4230,0.08,0.11,-0.99,3.42,2.99,1.71
35.4290,0.08,0.11,-0.99,3.05,2.75,1.04
35.4460,0.08,0.11,-0.99,3.36,3.17,0.24
35.4630,0.08,0.10,-0.99,3.36,3.36,0.18
35.4790,0.08,0.10,-0.99,3.48,2.93,-0.43
35.5050,0.08,0.10,-0.99,3.66,3.05,-0.92
35.5130,0.09,0.11,-0.99,3.60,3.42,-1.71
35.5290,0.08,0.12,-0.99,3.72,3.05,-1.34
35.5460,0.08,0.13,-0.99,3.30,3.11,0.18
35.5620,0.08,0.13,-0.99,3.23,2.87,1.10
35.5790,0.08,0.12,-0.99,3.30,2.56,1.40
35.5960,0.08,0.11,-0.99,3.30,2.93,1.71
35.6120,0.08,0.11,-0.99,3.36,2.99,1.59
35.6270,0.08,0.11,-0.99,3.42,2.93,1.46
35.6430,0.08,0.11,-0.99,3.36,2.44,1.59
35.6450,0.08,0.11,-0.99,3.11,2.56,1.77
35.6740,0.08,0.11,-0.99,3.23,2.56,1.65
35.6770,0.08,0.11,-0.99,3.17,2.62,1.59
35.6920,0.08,0.11,-1.00,3.30,2.75,1.59
35.7240,0.08,0.11,-0.99,3.30,2.99,1.34
35.7390,0.08,0.11,-0.99,3.23,2.87,1.22
35.7550,0.08,0.10,-0.99,3.30,3.11,1.34
35.7710,0.08,0.11,-0.99,3.17,3.30,0.67
35.7860,0.08,0.11,-0.99,3.23,3.11,0.79
35.8030,0.08,0.12,-0.99,3.48,2.93,0.55
35.8200,0.08,0.11,-0.99,3.30,2.75,0.85
35.8350,0.08,0.11,-1.00,3.30,2.75,0.73
35.8510,0.08,0.11,-1.00,3.42,2.81,0.61
35.8540,0.08,0.11,-0.99,3.23,3.11,0.67
35.8740,0.08,0.11,-0.99,3.30,2.75,1.04
35.8860,0.08,0.11,-0.99,3.36,2.81,0.98
35.9020,0.08,0.11,-0.99,3.17,3.23,0.79
35.9170,0.08,0.10,-0.99,3.30,3.05,0.73
35.9430,0.08,0.10,-0.99,3.48,2.87,-0.06
35.9590,0.08,0.10,-0.99,3.54,2.44,-0.61
35.9740,0.08,0.11,-1.00,3.48,3.17,-0.85
35.9900,0.08,0.12,-0.99,3.36,3.36,-0.37
36.0060,0.08,0.13,-0.99,3.23,3.30,0.49
36.0100,0.08,0.12,-0.99,3.48,2.69,0.98
36.0270,0.08,0.12,-0.99,3.23,2.93,0.92
36.0430,0.08,0.11,-0.99,3.42,3.05,1.10
36.0610,0.08,0.11,-0.99,3.30,3.11,0.92
36.0770,0.08,0.11,-0.99,3.48,3.05,0.79
36.0940,0.08,0.11,-0.99,3.42,2.75,1.46
36.1100,0.08,0.11,-0.99,3.23,2.69,1.71
36.1270,0.08,0.11,-0.99,3.36,2.56,1.71
36.1430,0.08,0.11,-0.99,3.17,2.99,1.34
36.1570,0.08,0.10,-0.99,3.11,2.75,0.73
36.1720,0.08,0.11,-0.99,3.42,2.87,-0.31
36.1770,0.08,0.12,-0.99,3.36,2.75,0.73
36.1920,0.08,0.11,-0.99,3.11,2.93,1.53
36.2230,0.08,0.11,-0.99,3.42,3.05,1.53
36.2390,0.08,0.11,-0.99,3.30,2.93,1.34
36.2550,0.08,0.11,-0.99,3.23,3.11,1.10
36.2700,0.08,0.10,-0.99,3.42,2.69,0.55
36.2860,0.08,0.11,-0.99,3.36,3.11,0.00
36.3020,0.08,0.12,-0.99,3.36,3.17,0.31
36.3180,0.08,0.11,-0.99,3.23,2.50,1.04
36.3330,0.08,0.11,-0.99,3.30,2.81,0.92
36.3500,0.08,0.10,-0.99,3.36,3.17,-0.24
36.3650,0.08,0.12,-0.99,3.48,3.42,-0.73
36.3800,0.08,0.12,-0.99,3.36,3.17,1.04
36.3850,0.08,0.12,-0.99,3.30,3.11,1.28
36.4020,0.08,0.11,-0.99,3.30,2.93,1.46
36.4190,0.08,0.11,-0.99,3.30,2.99,1.40
36.4350,0.08,0.11,-0.99,3.23,3.17,1.28
36.4520,0.08,0.11,-0.99,3.23,2.93,0.98
36.4690,0.08,0.11,-0.99,3.17,2.62,0.55
36.4850,0.08,0.10,-0.99,3.42,2.69,1.04
36.5000,0.08,0.11,-0.99,2.93,2.50,1.40
36.5160,0.08,0.10,-0.99,3.17,3.05,1.28
36.5320,0.08,0.11,-0.99,2.99,3.23,0.73
36.5470,0.08,0.11,-0.99,3.48,3.11,0.85
36.5630,0.08,0.12,-0.99,3.42,2.93,0.85
36.5790,0.08,0.11,-0.99,3.48,2.62,1.16
36.5950,0.08,0.11,-0.99,3.36,2.99,1.10
36.6110,0.08,0.11,-0.99,3.11,3.05,0.67
36.6280,0.08,0.10,-0.99,3.48,3.05,0.55
36.6450,0.08,0.11,-0.99,3.30,3.11,-0.24
36.6620,0.08,0.12,-0.99,3.42,3.05,0.79
36.6780,0.08,0.12,-0.99,3.23,2.87,1.28
36.6930,0.08,0.12,-0.99,3.42,2.75,1.71
36.6940,0.08,0.11,-0.99,3.30,2.69,1.71
36.7100,0.08,0.11,-0.99,3.17,2.56,1.83
36.7260,0.08,0.10,-0.99,3.23,2.99,1.40
36.7570,0.08,0.10,-1.00,3.48,2.75,0.73
36.7570,0.08,0.11,-1.00,3.30,3.17,-0.12
36.7890,0.08,0.10,-0.99,3.30,3.17,0.31
36.8040,0.08,0.11,-0.99,3.30,2.99,0.37
36.8200,0.08,0.11,-0.99,3.11,2.87,1.22
36.8350,0.08,0.11,-0.99,3.17,2.99,1.28
36.8500,0.08,0.11,-0.99,3.30,2.62,1.04
36.8660,0.08,0.11,-0.99,3.23,2.99,0.92
36.8740,0.08,0.11,-0.99,3.17,2.87,0.98
36.8900,0.07,0.09,-1.00,3.23,2.87,1.10
36.9060,0.08,0.11,-0.99,3.23,2.81,1.10
36.9230,0.08,0.10,-0.99,3.05,3.05,0.55
36.9400,0.09,0.11,-0.99,3.23,3.42,-0.18
36.9400,0.08,0.11,-0.99,3.42,3.11,-0.85
36.9700,0.08,0.11,-0.99,3.23,3.48,-0.12
36.9750,0.08,0.11,-0.99,3.60,3.11,0.85
36.9920,0.08,0.11,-0.99,3.60,2.69,0.79
37.0090,0.08,0.12,-0.99,3.30,2.69,0.85
37.0260,0.08,0.11,-0.99,3.23,2.87,1.04
37.0420,0.08,0.12,-0.99,3.23,2.99,0.43
37.0590,0.08,0.12,-0.99,3.30,2.99,0.92
37.0760,0.08,0.11,-0.99,3.17,2.69,0.79
37.0910,0.08,0.11,-0.99,3.36,3.11,1.34
37.1070,0.08,0.11,-0.99,3.05,2.99,1.46
37.1230,0.08,0.10,-0.99,3.36,3.05,0.85
37.1380,0.08,0.11,-0.99,3.48,3.05,0.00
37.1530,0.08,0.11,-0.99,3.54,2.81,0.61
37.1580,0.08,0.11,-0.99,3.48,2.69,0.67
37.1740,0.08,0.11,-0.99,3.23,2.87,0.73
37.1900,0.08,0.11,-0.99,3.30,3.17,0.79
37.2050,0.08,0.11,-0.99,3.17,3.23,0.98
37.2210,0.08,0.11,-0.99,3.36,3.48,0.61
37.2360,0.08,0.12,-0.99,3.36,2.75,0.85
37.2660,0.08,0.11,-0.99,3.11,2.69,1.71
37.2810,0.08,0.11,-0.99,2.99,3.23,1.77
37.2960,0.08,0.11,-0.99,3.17,2.38,1.10
37.3030,0.08,0.11,-0.99,3.36,2.87,0.79
37.3190,0.08,0.11,-0.99,3.36,3.17,0.67
37.3350,0.08,0.11,-0.99,3.36,2.87,1.28
37.3500,0.08,0.11,-0.99,3.30,3.17,1.10
37.3660,0.08,0.11,-0.99,3.30,3.17,0.67
37.3820,0.08,0.11,-0.99,3.30,2.99,0.18
37.3970,0.08,0.11,-0.99,3.30,2.99,0.18
37.4130,0.08,0.11,-0.99,3.17,3.11,0.73
37.4240,0.08,0.11,-0.99,3.36,2.75,0.98
37.4410,0.08,0.10,-0.99,3.23,3.05,0.73
37.4580,0.08,0.12,-0.99,3.42,3.23,-0.49
37.4750,0.08,0.12,-0.99,3.48,2.87,0.73
37.4910,0.08,0.12,-0.99,3.05,2.99,1.34
37.5080,0.08,0.11,-0.99,3.30,2.81,1.65
37.5230,0.08,0.11,-0.99,3.17,2.99,1.28
37.5390,0.08,0.10,-0.99,3.30,3.05,0.79
37.5540,0.08,0.10,-0.99,3.23,2.81,-0.49
37.5700,0.08,0.11,-0.99,3.54,3.42,-0.31
37.5860,0.08,0.12,-0.99,3.36,3.23,1.04
37.6010,0.08,0.11,-0.99,3.30,2.93,1.59
37.6160,0.08,0.11,-0.99,3.23,2.75,1.34
37.6240,0.08,0.11,-0.99,3.30,2.93,1.34
37.6400,0.08,0.11,-0.99,3.05,3.30,0.73
37.6550,0.08,0.11,-0.99,3.48,3.17,0.61
37.6730,0.08,0.11,-0.99,3.42,3.42,0.31
37.6870,0.08,0.11,-0.99,3.42,2.87,0.37
37.7030,0.08,0.10,-1.00,3.42,3.17,-0.43
37.7280,0.08,0.11,-0.99,3.54,3.48,-2.01
37.7450,0.08,0.11,-0.99,3.60,3.42,-2.20
37.7610,0.08,0.11,-1.00,3.66,3.60,-2.14
37.7760,0.08,0.12,-0.99,3.36,3.72,-1.65
37.7920,0.08,0.13,-0.99,3.42,2.69,0.43
37.8070,0.08,0.12,-0.99,3.48,2.56,1.65
37.8130,0.08,0.12,-0.99,3.11,2.87,1.65
37.8300,0.08,0.11,-0.99,3.17,2.69,1.71
37.8450,0.08,0.10,-0.99,3.36,2.75,1.40
37.8610,0.08,0.09,-0.99,3.60,3.11,-0.92
37.8770,0.08,0.09,-0.99,3.85,3.60,-2.99
37.8930,0.08,0.11,-0.99,3.66,3.48,-1.83
37.9080,0.08,0.13,-0.99,3.60,2.75,0.67
37.9330,0.08,0.12,-0.99,3.36,2.62,1.46
37.9480,0.08,0.11,-0.99,3.17,2.81,1.71
37.9630,0.08,0.11,-0.99,2.99,2.93,1.77
37.9730,0.08,0.10,-0.99,2.87,3.30,1.40
37.9880,0.08,0.10,-0.99,3.48,3.72,-1.10
38.0030,0.08,0.11,-0.99,3.72,3.78,-2.08
38.0190,0.08,0.11,-0.99,3.42,3.60,-1.16
38.0340,0.08,0.12,-0.99,3.30,3.42,-0.61
38.0500,0.08,0.13,-0.99,3.23,3.42,0.85
38.0660,0.08,0.11,-0.99,3.11,3.17,1.65
38.0820,0.08,0.11,-0.99,2.93,2.56,1.89
38.0970,0.08,0.11,-0.99,3.36,2.62,1.83
38.1130,0.08,0.11,-0.99,3.36,2.75,1.77
38.1230,0.08,0.11,-0.99,3.11,3.11,1.53
38.1390,0.09,0.10,-0.99,3.23,2.75,0.24
38.1560,0.08,0.11,-0.99,3.42,3.60,-1.77
38.1720,0.08,0.12,-0.99,3.48,3.23,0.18
38.1890,0.08,0.11,-0.99,3.17,3.05,1.95
38.2050,0.08,0.11,-0.99,3.48,2.62,1.95
38.2190,0.08,0.11,-0.99,3.11,2.99,1.95
38.2350,0.08,0.11,-0.99,2.93,2.93,1.83
38.2510,0.08,0.10,-0.99,3.11,2.75,1.59
38.2660,0.08,0.10,-0.99,3.36,3.48,-1.71
38.2810,0.08,0.11,-0.99,3.85,3.48,-1.65
38.2890,0.08,0.11,-0.99,3.17,2.93,0.31
38.3060,0.08,0.12,-0.99,3.17,3.11,0.55
38.3220,0.08,0.12,-0.99,3.05,3.23,1.10
38.3390,0.08,0.11,-0.99,3.17,3.30,1.59
38.3560,0.08,0.11,-0.99,3.36,2.87,1.83
38.3710,0.08,0.11,-0.99,3.30,2.75,1.95
38.3870,0.08,0.11,-0.99,3.36,3.05,2.01
38.4040,0.08,0.11,-0.99,3.42,2.87,2.08
38.4190,0.08,0.11,-0.99,3.36,2.62,1.89
38.4340,0.08,0.11,-0.99,3.17,2.99,1.77
38.4480,0.08,0.11,-0.99,3.54,2.62,1.95
38.4550,0.08,0.11,-0.99,3.36,2.99,1.95
38.4730,0.08,0.11,-0.99,3.36,2.99,1.83
38.4890,0.08,0.11,-0.99,3.48,2.93,1.71
38.5060,0.08,0.11,-0.99,3.36,2.75,1.77
38.5220,0.07,0.10,-0.98,3.48,2.50,1.95
38.5370,0.08,0.11,-0.99,3.42,2.62,2.01
38.5530,0.08,0.11,-0.99,3.36,2.62,1.89
38.5570,0.08,0.11,-0.99,3.48,2.50,1.89
38.5860,0.08,0.11,-0.99,3.11,3.05,1.83
38.6000,0.08,0.11,-0.99,3.30,2.50,1.65
38.6060,0.08,0.11,-0.98,3.23,2.56,2.32
38.6230,0.08,0.11,-0.99,3.17,2.62,2.81
38.6420,0.08,0.10,-0.99,2.93,2.69,4.33
38.6570,0.08,0.10,-0.99,2.50,2.69,3.85
38.6730,0.08,0.11,-0.99,3.17,2.75,2.56
38.6890,0.08,0.11,-0.99,2.99,2.44,2.26
38.7080,0.08,0.11,-0.99,2.93,2.69,2.08
38.7220,0.08,0.11,-0.99,3.05,2.44,2.01
38.7230,0.08,0.11,-0.99,3.05,3.23,1.83
38.7390,0.08,0.11,-0.99,2.99,2.81,1.95
38.7560,0.08,0.11,-0.99,3.05,2.75,1.89
38.7740,0.08,0.11,-0.99,3.05,2.44,1.83
38.7890,0.08,0.11,-0.99,3.05,2.93,1.95
38.8060,0.08,0.11,-0.99,3.17,3.17,1.95
38.8220,0.08,0.11,-0.99,3.17,2.44,1.89
38.8390,0.08,0.11,-0.99,3.23,3.05,1.89
38.8560,0.08,0.11,-0.99,3.30,3.23,1.95
38.8720,0.08,0.11,-0.99,3.36,2.50,2.01
38.8880,0.08,0.11,-0.99,3.05,3.05,1.95
38.9030,0.08,0.11,-0.99,2.93,3.23,2.14
38.9180,0.08,0.11,-0.99,3.23,2.93,2.08
38.9220,0.08,0.11,-0.99,3.11,2.81,2.08
38.9380,0.08,0.11,-1.00,3.17,2.81,1.95
38.9530,0.08,0.11,-0.99,3.36,2.75,2.01
38.9730,0.08,0.11,-0.99,3.48,2.81,2.14
39.0010,0.08,0.11,-0.99,3.36,2.99,2.01
39.0010,0.08,0.11,-0.99,3.48,2.81,2.01
39.0300,0.06,0.10,-1.00,2.99,2.69,3.23
39.0470,0.07,0.11,-0.99,2.99,2.56,3.91
39.0620,0.08,0.11,-0.99,2.93,2.32,3.30
39.0730,0.08,0.11,-0.99,3.17,2.93,2.32
39.0820,0.08,0.12,-0.99,3.05,2.81,2.14
39.0970,0.09,0.11,-0.99,3.30,2.99,2.08
39.1130,0.09,0.11,-0.99,3.17,2.81,2.50
39.1290,0.09,0.11,-0.99,3.05,2.99,2.69
39.1440,0.09,0.11,-0.99,2.87,2.32,2.75
39.1710,0.09,0.10,-0.99,2.93,2.69,2.44
39.1770,0.08,0.10,-0.99,3.23,2.81,2.08
39.1930,0.08,0.11,-0.99,3.36,2.99,1.95
39.2100,0.08,0.11,-0.99,3.48,2.44,1.65
39.2270,0.08,0.11,-0.99,3.48,2.99,1.46
39.2430,0.08,0.11,-0.99,3.17,2.87,1.53
39.2600,0.08,0.11,-0.99,3.42,2.62,1.59
39.2760,0.08,0.11,-0.99,3.66,2.87,1.46
39.2910,0.08,0.11,-0.99,3.23,3.36,1.16
39.3070,0.08,0.11,-0.99,3.23,2.87,0.92
39.3230,0.08,0.11,-0.99,3.30,3.05,0.79
39.3270,0.07,0.11,-1.00,3.17,2.81,1.46
39.3530,0.07,0.11,-1.00,3.42,2.69,2.26
39.3600,0.08,0.11,-0.99,3.48,2.81,2.75
39.3770,0.09,0.11,-0.99,3.36,2.93,1.89
39.3930,0.08,0.11,-0.99,3.17,3.11,1.34
39.4100,0.08,0.11,-0.99,3.17,3.11,1.46
39.4270,0.08,0.11,-0.99,3.23,2.81,1.59
39.4420,0.09,0.11,-0.99,3.05,3.05,1.89
39.4570,0.09,0.11,-0.99,3.54,2.62,1.83
39.4720,0.08,0.11,-0.99,3.23,2.81,1.77
39.4880,0.08,0.11,-0.99,3.17,2.62,1.95
39.4930,0.09,0.11,-0.99,3.11,2.75,2.14
39.5080,0.08,0.11,-0.99,3.11,3.11,1.89
39.5240,0.08,0.11,-0.99,3.30,2.99,1.89
39.5400,0.08,0.11,-0.99,3.42,2.81,1.83
39.5550,0.08,0.11,-0.99,3.30,2.56,1.83
39.5730,0.08,0.11,-0.99,3.17,2.81,1.95
39.5890,0.08,0.11,-0.99,3.17,3.17,1.89
39.6060,0.08,0.11,-0.99,3.17,2.75,1.89
39.6220,0.07,0.11,-0.99,3.11,3.36,1.95
39.6380,0.08,0.11,-0.99,3.36,3.23,1.77
39.6530,0.08,0.11,-0.99,3.30,2.87,1.40
39.6680,0.08,0.11,-0.99,3.42,3.17,1.16
39.6830,0.08,0.11,-0.99,3.23,2.50,1.28
39.6980,0.09,0.11,-0.99,3.36,2.62,1.34
39.7050,0.08,0.11,-0.99,3.42,2.75,1.53
39.7220,0.08,0.11,-0.99,3.23,2.81,1.40
39.7390,0.08,0.11,-0.99,3.23,3.11,1.46
39.7550,0.08,0.11,-0.99,3.48,2.93,1.46
39.7740,0.08,0.11,-0.99,3.48,2.32,1.65
39.7890,0.08,0.11,-0.99,3.36,2.93,1.89
39.8040,0.08,0.11,-0.99,3.30,2.99,2.08
39.8200,0.07,0.10,-0.99,3.23,2.87,1.89
39.8350,0.07,0.11,-0.99,3.23,2.56,1.65
39.8500,0.07,0.11,-0.99,3.17,3.05,1.77
39.8560,0.08,0.11,-0.99,3.11,3.23,1.59
39.8740,0.08,0.12,-0.99,3.05,3.05,1.46
39.8890,0.08,0.11,-0.99,3.11,2.75,2.08
39.9050,0.05,0.11,-0.99,3.05,2.56,2.62
39.9220,0.07,0.12,-1.00,3.42,2.81,2.38
39.9390,0.08,0.11,-0.99,3.30,2.81,1.77
39.9550,0.09,0.11,-0.99,3.30,3.11,0.98
39.9710,0.09,0.11,-0.99,3.36,2.87,1.10
39.9860,0.08,0.11,-0.99,3.23,3.11,1.28
40.0010,0.09,0.11,-0.99,3.17,2.81,1.34
40.0170,0.10,0.11,-0.99,3.23,2.62,1.28
40.0230,0.08,0.11,-0.99,3.30,2.99,2.20
40.0390,0.09,0.10,-0.99,3.36,2.75,2.62
40.0550,0.08,0.11,-0.99,3.05,2.69,1.95
40.0740,0.08,0.11,-0.99,3.17,2.81,2.01
40.0890,0.08,0.11,-0.99,2.99,3.05,2.01
40.1040,0.08,0.11,-0.99,3.17,2.87,1.77
40.1220,0.08,0.11,-0.99,3.23,2.56,1.89
40.1380,0.08,0.11,-0.99,3.30,2.81,2.01
40.1530,0.08,0.11,-0.99,3.36,2.99,2.14
40.1680,0.08,0.11,-0.99,3.23,2.93,2.08
40.1740,0.08,0.11,-0.99,3.11,3.11,2.26
40.1880,0.08,0.11,-0.99,3.17,3.17,2.14
40.2030,0.08,0.11,-0.99,3.23,2.87,2.20
40.2190,0.08,0.11,-0.99,3.23,2.69,2.26
40.2500,0.07,0.11,-0.99,3.11,3.05,2.44
40.2660,0.08,0.11,-0.99,3.23,2.93,2.56
40.2740,0.08,0.11,-0.99,3.36,2.81,2.50
40.2830,0.08,0.11,-0.99,3.30,2.56,2.20
40.2990,0.08,0.11,-0.99,3.23,2.87,2.08
40.3140,0.06,0.11,-0.99,3.48,2.69,2.08
40.3300,0.07,0.11,-0.99,3.17,2.69,2.56
40.3460,0.08,0.11,-0.99,3.17,2.93,2.20
40.3610,0.08,0.11,-0.99,3.23,2.62,2.14
40.3870,0.08,0.11,-0.99,3.42,2.75,2.20
40.4010,0.08,0.11,-0.99,3.30,3.11,1.95
40.4060,0.09,0.11,-0.99,3.05,2.87,2.20
40.4210,0.09,0.11,-0.99,3.17,2.93,2.01
40.4370,0.09,0.11,-0.99,3.23,2.87,1.95
40.4530,0.09,0.11,-0.99,3.11,3.05,1.53
40.4750,0.09,0.11,-0.99,3.42,2.87,1.71
40.4910,0.09,0.11,-0.99,3.60,3.17,1.71
40.5080,0.08,0.11,-0.99,3.17,3.23,1.83
40.5240,0.08,0.11,-0.99,3.17,3.36,1.77
40.5400,0.08,0.11,-0.99,3.05,2.69,1.65
40.5550,0.08,0.11,-0.99,3.30,2.87,1.65
40.5710,0.08,0.11,-0.99,3.36,2.99,1.65
40.5860,0.08,0.11,-0.99,3.17,2.87,1.53
40.5920,0.08,0.11,-0.99,3.42,3.11,1.40
40.6080,0.08,0.11,-0.99,3.36,2.81,1.46
40.6250,0.08,0.11,-0.99,3.54,2.69,1.46
40.6410,0.06,0.11,-0.99,3.42,2.87,1.46
40.6570,0.08,0.11,-1.00,3.42,3.05,1.40
40.6740,0.07,0.11,-0.99,3.23,2.69,2.14
40.6880,0.08,0.11,-0.99,3.23,2.87,2.14
40.7040,0.08,0.11,-0.99,3.30,2.81,2.01
40.7190,0.08,0.11,-0.99,3.17,3.36,1.22
40.7350,0.08,0.11,-0.99,3.42,3.30,1.10
40.7510,0.08,0.11,-0.99,3.17,2.99,1.16
40.7660,0.08,0.11,-0.99,3.54,2.93,1.40
40.7820,0.08,0.11,-0.99,3.54,2.87,1.46
40.7840,0.08,0.11,-0.99,3.30,2.99,1.53
40.7990,0.08,0.11,-0.99,3.30,2.87,1.65
40.8210,0.08,0.11,-0.99,3.05,3.30,1.71
40.8380,0.08,0.11,-0.99,3.36,2.69,1.59
40.8540,0.08,0.11,-0.99,3.30,2.81,1.53
40.8720,0.08,0.11,-0.99,3.36,2.87,1.59
40.8870,0.08,0.11,-0.99,3.23,3.36,1.77
40.9030,0.08,0.11,-0.99,3.23,3.11,1.46
40.9190,0.08,0.11,-0.99,3.42,2.99,1.46
40.9350,0.07,0.11,-0.99,3.23,2.87,1.53
40.9510,0.08,0.11,-1.00,3.36,2.93,1.95
40.9650,0.08,0.11,-0.99,3.11,2.93,2.08
40.9740,0.08,0.11,-0.99,3.23,3.05,2.01
40.9860,0.08,0.11,-0.99,3.17,2.93,2.01
41.0010,0.08,0.11,-0.99,3.17,3.11,2.14
41.0170,0.08,0.11,-0.99,3.05,3.05,2.14
41.0330,0.08,0.11,-0.99,3.05,2.75,2.14
41.0480,0.08,0.11,-0.99,2.87,3.42,1.77
41.0740,0.08,0.11,-0.99,3.11,3.11,1.46
41.0840,0.08,0.11,-0.99,3.23,3.30,1.40
41.1010,0.08,0.11,-0.99,3.30,3.05,1.65
41.1170,0.08,0.11,-0.99,3.05,3.05,1.71
41.1320,0.08,0.11,-0.99,3.11,3.05,1.95
41.1480,0.08,0.11,-0.99,3.05,3.30,1.77
41.1640,0.08,0.11,-0.99,3.42,2.87,1.83
41.1810,0.08,0.11,-0.99,3.11,3.30,1.83
41.1980,0.08,0.11,-0.99,3.23,3.05,2.01
41.2150,0.08,0.11,-0.99,2.93,3.05,2.38
41.2310,0.08,0.11,-0.99,3.17,2.81,2.01
41.2470,0.08,0.11,-0.99,3.23,3.17,1.95
41.2640,0.08,0.11,-0.99,3.42,3.23,1.46
41.2800,0.08,0.11,-0.99,3.17,2.87,1.59
41.2800,0.08,0.11,-0.99,3.11,2.81,1.65
41.2960,0.08,0.11,-1.00,3.42,2.69,1.89
41.3110,0.08,0.11,-0.99,3.23,2.81,2.26
41.3270,0.07,0.11,-0.99,3.17,2.62,2.56
41.3430,0.08,0.11,-0.99,2.93,2.93,1.95
41.3700,0.08,0.11,-0.99,3.23,3.11,1.77
41.3850,0.08,0.11,-0.99,3.23,3.05,1.28
41.4010,0.08,0.11,-0.99,3.36,3.17,1.59
41.4170,0.08,0.11,-0.99,3.17,2.87,1.77
41.4330,0.09,0.11,-0.99,3.36,2.75,2.38
41.4480,0.08,0.11,-0.99,3.11,2.99,2.50
41.4630,0.08,0.11,-0.99,3.17,2.99,2.38
41.4780,0.08,0.11,-0.99,3.30,2.99,2.01
41.4860,0.08,0.11,-0.99,3.30,2.81,2.01
41.5030,0.08,0.11,-0.99,3.23,3.05,1.71
41.5200,0.08,0.11,-0.99,3.11,2.93,1.77
41.5370,0.08,0.11,-0.99,3.23,3.05,1.83
41.5530,0.08,0.11,-0.99,3.05,2.99,1.71
41.5690,0.08,0.11,-0.99,3.05,3.23,2.01
41.5850,0.08,0.11,-0.99,3.05,2.81,1.71
41.6000,0.08,0.11,-0.99,3.23,2.93,1.83
41.6160,0.08,0.11,-0.99,3.23,3.11,1.89
41.6160,0.08,0.11,-0.99,3.36,2.99,1.77
41.6310,0.08,0.11,-0.99,3.11,2.87,1.83
41.6470,0.08,0.11,-0.99,3.05,3.05,1.77
41.6740,0.08,0.11,-0.99,3.30,2.93,1.83
41.6830,0.08,0.11,-0.99,3.17,2.69,1.95
41.7000,0.08,0.11,-0.99,3.23,2.99,1.83
41.7160,0.08,0.11,-0.99,3.48,2.50,1.71
41.7330,0.08,0.11,-0.99,3.17,2.75,1.71
41.7500,0.08,0.11,-0.99,3.05,2.75,1.83
41.7660,0.08,0.11,-0.99,3.23,2.56,1.83
41.7800,0.08,0.11,-0.99,3.11,3.05,1.83
41.7950,0.08,0.11,-0.99,3.23,2.81,2.01
41.8110,0.06,0.11,-0.99,2.87,2.87,1.95
41.8250,0.07,0.11,-1.00,3.48,2.62,1.77
41.8330,0.08,0.11,-0.99,3.30,2.62,1.53
41.8500,0.08,0.11,-0.99,3.23,3.05,1.22
41.8660,0.08,0.11,-0.99,3.36,3.36,0.98
41.8840,0.09,0.11,-0.99,3.36,3.11,0.79
41.9010,0.08,0.11,-0.99,3.54,2.93,1.40
41.9010,0.09,0.11,-0.99,3.23,2.81,1.53
41.9160,0.08,0.11,-0.99,3.23,2.75,1.83
41.9320,0.08,0.11,-0.99,3.42,3.05,1.95
41.9480,0.08,0.11,-0.99,3.11,2.56,1.89
41.9730,0.08,0.11,-0.99,3.23,2.50,2.08
41.9800,0.08,0.11,-0.99,3.23,2.93,1.83
41.9950,0.08,0.11,-0.99,3.36,2.50,1.95
42.0210,0.08,0.11,-0.99,3.05,2.81,1.89
42.0370,0.08,0.11,-0.99,3.36,2.87,1.77
42.0520,0.08,0.11,-0.99,3.30,2.75,1.71
42.0670,0.08,0.11,-0.99,3.17,3.17,1.71
42.0820,0.08,0.11,-0.99,3.36,2.62,1.89
42.0880,0.08,0.11,-0.99,3.17,2.69,1.83
42.1050,0.08,0.11,-0.99,3.23,2.81,1.89
42.1200,0.08,0.11,-0.99,3.05,2.50,1.71
42.1360,0.08,0.11,-0.99,3.05,3.05,1.95
42.1520,0.08,0.11,-0.99,3.11,2.93,1.77
42.1670,0.08,0.11,-0.99,3.17,2.56,1.71
42.1830,0.08,0.11,-0.99,3.11,2.75,1.95
42.1990,0.07,0.11,-0.99,3.30,2.75,1.89
42.2190,0.08,0.11,-0.99,3.42,3.05,1.77
42.2340,0.08,0.11,-0.99,2.93,2.87,1.83
42.2390,0.08,0.11,-0.99,3.17,3.23,1.89
42.2560,0.08,0.11,-0.99,3.11,2.56,1.83
42.2740,0.08,0.11,-0.99,3.23,2.50,1.65
42.2880,0.08,0.11,-0.99,3.23,2.99,2.01
42.3040,0.08,0.11,-0.99,3.23,2.75,2.32
42.3190,0.08,0.11,-0.99,3.23,2.62,2.32
42.3350,0.08,0.11,-0.99,3.11,2.87,2.26
42.3530,0.08,0.11,-0.99,3.23,2.93,2.20
42.3690,0.08,0.11,-1.00,2.99,3.11,2.14
42.3860,0.08,0.11,-0.99,3.11,2.81,1.83
42.4020,0.08,0.11,-0.99,3.05,2.56,1.95
42.4170,0.08,0.11,-0.99,3.11,2.50,2.08
42.4330,0.08,0.11,-0.99,3.30,2.38,1.95
42.4480,0.08,0.11,-0.99,3.11,2.62,1.71
42.4520,0.08,0.11,-0.99,3.05,3.05,1.71
42.4730,0.08,0.11,-0.99,3.48,2.93,1.83
42.4840,0.08,0.11,-0.99,3.30,3.11,2.01
42.4990,0.08,0.11,-0.99,3.11,3.42,2.01
42.5150,0.08,0.11,-0.99,3.23,2.99,2.14
42.5460,0.08,0.11,-0.99,3.30,2.69,2.08
42.5460,0.08,0.11,-0.99,3.36,2.75,2.08
42.5760,0.08,0.11,-0.99,3.30,2.87,1.83
42.5910,0.07,0.11,-0.99,3.30,2.69,1.83
42.6060,0.07,0.11,-0.99,3.48,2.81,1.89
42.6130,0.08,0.11,-0.99,3.05,2.56,1.95
42.6290,0.08,0.11,-0.99,3.11,3.17,2.32
42.6450,0.08,0.11,-1.00,3.36,2.62,2.38
42.6600,0.08,0.11,-0.99,3.11,2.99,2.26
42.6760,0.08,0.11,-0.99,3.11,3.17,2.01
42.6920,0.08,0.11,-0.99,3.11,2.56,1.77
42.7080,0.08,0.11,-0.99,3.23,2.69,1.77
42.7240,0.08,0.11,-0.99,3.30,2.81,2.01
42.7390,0.08,0.11,-0.99,3.30,2.38,2.26
42.7550,0.08,0.11,-0.99,3.17,2.62,2.14
42.7730,0.08,0.11,-0.99,2.93,3.17,1.89
42.7870,0.08,0.11,-0.99,3.11,2.87,1.71
42.8020,0.08,0.11,-0.99,3.42,2.56,1.71
42.8130,0.08,0.11,-0.99,3.23,2.75,1.83
42.8300,0.08,0.11,-0.99,3.17,2.62,1.83
42.8460,0.08,0.11,-0.99,3.17,2.93,1.77
42.8630,0.08,0.11,-0.99,3.05,3.17,1.71
42.8790,0.08,0.11,-0.99,3.30,2.87,1.53
42.8960,0.08,0.11,-0.99,3.36,2.75,1.83
42.9130,0.09,0.11,-1.00,3.42,3.05,1.95
42.9290,0.08,0.11,-0.99,3.23,2.75,1.77
42.9450,0.08,0.11,-0.99,3.30,3.05,1.77
42.9600,0.08,0.11,-0.99,3.05,2.75,1.89
42.9760,0.08,0.11,-0.99,3.17,2.62,1.71
42.9790,0.08,0.11,-0.99,3.17,2.87,1.77
42.9960,0.08,0.11,-0.99,3.11,2.69,1.71
43.0120,0.07,0.11,-0.99,3.05,2.75,1.77
43.0280,0.08,0.11,-0.99,3.30,2.56,1.71
43.0440,0.08,0.11,-0.99,3.11,2.87,1.53
43.0590,0.08,0.11,-1.00,3.17,3.11,1.28
43.0750,0.08,0.11,-0.99,3.05,2.75,1.10
43.0910,0.08,0.11,-0.99,3.30,3.11,1.22
43.1060,0.08,0.11,-0.99,3.23,2.93,1.65
43.1220,0.08,0.11,-0.99,3.23,2.99,1.46
43.1460,0.08,0.11,-0.99,3.36,2.99,1.65
43.1640,0.08,0.11,-0.99,3.42,3.17,1.89
43.1790,0.08,0.11,-0.99,3.17,2.62,1.89
43.1960,0.08,0.11,-0.99,3.17,3.11,2.26
43.2120,0.08,0.11,-0.99,3.42,3.05,2.14
43.2280,0.08,0.11,-0.99,3.23,2.56,2.14
43.2440,0.08,0.11,-0.99,3.30,2.69,2.26
43.2600,0.07,0.11,-0.99,3.11,2.93,2.50
43.2750,0.08,0.11,-0.99,3.23,3.11,2.44
43.2900,0.08,0.11,-0.99,2.93,2.93,2.01
43.2960,0.08,0.11,-0.99,3.42,3.23,1.59
43.3120,0.08,0.11,-0.99,3.23,3.05,1.40
43.3270,0.08,0.11,-0.99,3.30,2.38,1.34
43.3430,0.08,0.11,-0.99,3.30,2.75,1.83
43.3590,0.08,0.11,-0.99,3.17,2.62,1.83
43.3750,0.08,0.11,-0.99,3.05,2.62,1.83
43.3900,0.08,0.11,-0.99,3.05,2.69,1.89
43.4060,0.08,0.11,-0.99,2.99,3.17,1.83
43.4180,0.08,0.11,-0.99,2.93,2.93,1.77
43.4360,0.08,0.11,-0.99,3.48,2.93,1.71
43.4520,0.08,0.11,-0.99,3.17,3.17,1.59
43.4680,0.08,0.11,-0.99,3.30,2.81,1.53
43.4850,0.08,0.11,-0.99,3.05,3.42,1.77
43.5010,0.08,0.11,-0.99,3.30,3.30,1.77
43.5170,0.08,0.11,-0.99,3.30,2.93,1.65
43.5320,0.07,0.11,-1.00,3.05,2.56,1.40
43.5470,0.06,0.11,-0.99,3.11,2.93,1.16
43.5620,0.08,0.11,-0.99,3.48,2.99,0.37
43.5740,0.08,0.11,-0.99,3.42,3.30,0.73
43.5840,0.08,0.11,-0.99,3.17,2.69,1.16
43.6010,0.08,0.11,-0.99,3.17,3.11,1.65
43.6190,0.09,0.11,-0.99,3.17,2.93,1.95
43.6360,0.08,0.11,-0.99,3.42,2.87,2.44
43.6510,0.08,0.11,-0.99,3.36,2.87,2.50
43.6680,0.08,0.11,-0.99,3.11,2.81,2.56
43.6840,0.08,0.11,-0.99,3.05,2.69,2.38
43.7000,0.08,0.11,-0.99,3.05,3.05,2.01
43.7020,0.08,0.11,-0.99,3.23,2.81,2.01
43.7320,0.08,0.11,-0.99,3.05,2.87,2.01
43.7470,0.08,0.11,-0.99,3.23,2.93,1.89
43.7620,0.08,0.11,-0.99,3.30,2.50,1.95
43.7740,0.08,0.11,-0.99,3.36,2.99,2.08
43.7850,0.08,0.11,-0.99,3.36,2.75,2.01
43.8020,0.08,0.11,-0.99,3.30,2.62,1.95
43.8180,0.08,0.11,-0.99,3.30,2.81,2.01
43.8350,0.08,0.11,-0.99,3.11,3.11,2.14
43.8520,0.08,0.11,-0.99,3.23,2.44,2.08
43.8680,0.08,0.11,-0.99,3.23,2.81,2.14
43.8830,0.08,0.11,-0.99,3.23,2.87,2.20
43.8980,0.08,0.11,-0.99,3.11,2.99,1.83
43.9140,0.08,0.11,-0.99,3.17,2.62,1.83
43.9280,0.07,0.11,-0.99,3.17,3.11,1.59
43.9360,0.07,0.11,-0.99,3.05,2.81,1.46
43.9510,0.07,0.11,-0.99,3.11,2.99,1.65
43.9690,0.08,0.11,-0.99,3.36,3.17,1.95
43.9850,0.08,0.11,-0.99,3.11,2.75,2.01
44.0010,0.09,0.11,-0.99,3.17,3.42,2.01
44.0180,0.09,0.11,-0.99,3.30,2.93,1.59
44.0330,0.09,0.11,-0.99,3.36,2.87,1.65
44.0480,0.08,0.11,-0.99,3.17,3.30,1.65
44.0630,0.08,0.11,-0.99,3.23,3.05,1.77
44.0780,0.08,0.11,-0.99,3.17,2.87,1.83
44.0840,0.08,0.11,-0.99,2.87,2.69,1.83
44.1020,0.08,0.11,-0.99,3.17,2.99,1.89
44.1180,0.08,0.11,-0.99,3.23,2.69,2.20
44.1340,0.07,0.11,-0.99,2.99,3.11,2.14
44.1510,0.07,0.11,-0.99,3.23,3.42,1.89
44.1680,0.08,0.11,-0.99,3.30,2.69,1.53
44.1840,0.08,0.11,-0.99,3.30,3.05,1.77
44.2010,0.08,0.11,-0.99,3.17,2.75,2.08
44.2180,0.08,0.11,-0.99,3.48,2.87,2.38
44.2340,0.07,0.11,-0.99,2.99,3.05,1.95
44.2490,0.08,0.11,-0.99,3.23,3.05,1.71
44.2640,0.08,0.11,-0.99,3.36,2.62,1.40
44.2790,0.08,0.11,-0.99,3.42,2.93,1.40
44.2940,0.09,0.11,-0.99,3.36,2.69,1.59
44.3010,0.08,0.11,-0.99,3.36,2.81,1.65
44.3180,0.08,0.11,-0.99,3.30,3.05,1.77
44.3340,0.08,0.11,-0.99,3.23,2.87,1.77
44.3500,0.08,0.11,-0.99,3.30,2.99,1.95
44.3650,0.08,0.11,-0.99,3.17,2.99,1.89
44.3810,0.08,0.11,-0.99,3.05,3.30,1.89
44.3970,0.07,0.11,-0.99,3.11,2.99,1.46
44.4130,0.08,0.11,-0.99,3.30,2.81,1.34
44.4200,0.08,0.11,-0.99,3.11,3.11,1.46
44.4370,0.08,0.11,-0.99,3.23,3.05,1.77
44.4540,0.08,0.11,-0.99,3.17,3.05,1.83
44.4710,0.08,0.11,-0.99,3.05,2.81,1.95
44.4880,0.08,0.11,-0.99,2.93,3.05,1.77
44.5040,0.09,0.11,-0.99,3.17,3.05,1.83
44.5200,0.09,0.11,-0.99,3.23,3.17,1.83
44.5360,0.09,0.11,-0.99,3.17,2.81,1.89
44.5380,0.08,0.11,-0.99,3.11,2.81,1.95
44.5660,0.08,0.11,-0.99,2.87,3.11,2.01
44.5810,0.08,0.11,-0.99,2.87,2.87,1.95
44.5880,0.08,0.11,-0.99,3.17,2.93,1.95
44.6040,0.08,0.11,-0.99,3.17,2.75,1.83
44.6190,0.08,0.11,-0.99,3.11,2.99,1.89
44.6350,0.08,0.11,-0.99,3.36,2.81,1.89
44.6500,0.08,0.11,-0.99,3.36,2.81,1.89
44.6760,0.08,0.11,-0.99,3.36,2.93,1.77
44.6910,0.08,0.11,-0.99,3.05,2.75,1.89
44.7050,0.08,0.11,-0.99,3.48,2.87,1.77
44.7210,0.08,0.11,-0.99,3.17,2.62,1.77
44.7280,0.08,0.11,-0.99,3.23,2.87,1.77
44.7450,0.08,0.11,-0.99,3.42,2.56,1.89
44.7620,0.08,0.11,-0.99,3.30,2.44,1.95
44.7770,0.08,0.11,-0.99,3.23,2.93,1.95
44.7940,0.08,0.11,-0.99,3.30,2.99,1.95
44.8100,0.08,0.11,-0.99,3.23,2.87,1.89
44.8260,0.08,0.11,-0.99,3.05,2.87,1.83
44.8420,0.08,0.11,-0.99,3.11,3.11,1.89
44.8570,0.08,0.11,-0.99,3.11,2.81,1.77
44.8740,0.08,0.11,-0.99,2.93,3.05,1.77
44.8890,0.08,0.11,-0.99,2.99,3.23,1.71
44.9040,0.08,0.11,-0.99,2.93,3.23,2.01
44.9190,0.08,0.11,-0.99,3.17,3.17,2.01
44.9350,0.08,0.11,-0.99,3.17,2.87,1.95
44.9530,0.08,0.11,-0.99,2.93,2.93,2.08
44.9690,0.07,0.10,-0.99,3.11,3.23,1.95
44.9840,0.08,0.11,-1.00,3.36,3.36,1.71
44.9990,0.08,0.11,-0.99,2.93,3.36,1.16
45.0140,0.07,0.11,-0.99,2.81,3.05,1.22
45.0190,0.08,0.11,-0.99,3.36,2.87,1.40
45.0340,0.08,0.11,-0.99,3.36,2.99,1.53
45.0500,0.08,0.11,-0.99,3.17,3.17,1.65
45.0740,0.08,0.11,-0.99,3.17,2.81,1.59
45.0810,0.08,0.11,-0.99,3.30,2.93,1.71
45.0970,0.08,0.11,-0.99,3.30,3.17,1.65
45.1130,0.08,0.11,-0.99,3.17,3.05,1.53
45.1280,0.08,0.11,-0.99,3.42,2.87,1.83
45.1400,0.08,0.11,-0.99,3.17,2.87,1.77
45.1570,0.08,0.11,-0.99,3.30,2.93,1.77
45.1750,0.08,0.11,-0.99,3.23,3.05,1.83
45.1910,0.08,0.11,-0.99,3.36,2.87,1.89
45.2070,0.08,0.11,-0.99,3.42,2.99,1.83
45.2250,0.08,0.11,-0.99,3.05,2.69,1.89
45.2400,0.08,0.11,-0.99,3.30,2.99,2.01
45.2560,0.08,0.11,-0.99,3.17,2.93,1.83
45.2720,0.08,0.11,-0.99,3.17,3.11,1.59
45.2870,0.08,0.11,-0.99,3.42,3.05,1.71
45.3010,0.08,0.11,-0.99,3.05,2.75,1.89
45.3080,0.08,0.11,-0.99,3.42,2.62,1.77
45.3240,0.08,0.11,-0.99,3.11,2.81,1.95
45.3400,0.08,0.11,-0.99,2.93,2.81,1.89
45.3560,0.08,0.11,-0.99,2.99,2.99,1.83
45.3740,0.08,0.11,-0.99,3.30,2.87,1.77
45.3880,0.08,0.11,-0.99,3.36,2.75,1.95
45.4030,0.08,0.11,-0.99,3.17,3.23,2.01
45.4190,0.08,0.11,-0.99,3.23,2.99,2.01
45.4430,0.08,0.11,-0.99,3.05,2.93,1.89
45.4580,0.08,0.11,-0.99,3.05,3.30,2.01
45.4650,0.08,0.11,-0.99,3.17,2.87,1.83
45.4820,0.08,0.11,-0.99,3.36,2.69,1.89
45.4980,0.08,0.11,-0.99,2.93,2.75,1.95
45.5150,0.08,0.11,-0.99,2.93,2.81,1.89
45.5320,0.08,0.11,-0.99,2.87,3.05,1.95
45.5470,0.08,0.11,-0.99,3.23,3.11,1.95
45.5630,0.08,0.11,-0.99,3.17,2.81,1.89
45.5790,0.08,0.11,-0.99,3.11,3.05,1.77
45.5950,0.08,0.11,-0.99,2.99,2.87,1.77
45.6100,0.08,0.11,-0.99,2.99,2.93,1.89
45.6270,0.08,0.11,-0.99,3.05,3.23,2.20
45.6430,0.08,0.11,-0.99,3.30,3.11,1.95
45.6580,0.08,0.11,-0.99,3.05,3.05,1.89
45.6720,0.06,0.11,-0.99,3.17,2.87,1.71
45.6870,0.08,0.11,-1.00,3.23,2.93,1.77
45.6950,0.07,0.11,-0.99,2.99,3.11,1.65
45.7120,0.07,0.11,-0.99,3.36,2.75,1.46
45.7270,0.08,0.11,-0.99,3.11,3.17,1.40
45.7440,0.08,0.11,-0.99,2.81,3.05,1.40
45.7610,0.08,0.11,-0.99,3.36,2.81,1.65
45.7780,0.09,0.11,-0.99,3.17,3.05,1.77
45.7950,0.08,0.11,-0.99,3.17,3.17,1.83
45.8100,0.08,0.11,-0.99,3.36,2.69,1.83
45.8260,0.08,0.11,-0.99,3.36,3.11,2.01
45.8410,0.08,0.11,-0.99,3.17,2.99,1.83
45.8570,0.08,0.11,-0.99,3.11,2.69,1.83
45.8740,0.08,0.11,-0.99,3.05,2.93,1.89
45.8890,0.08,0.11,-0.99,2.99,3.11,2.01
45.9050,0.07,0.11,-0.99,3.48,2.81,2.26
45.9200,0.08,0.11,-1.00,3.17,2.56,2.08
45.9230,0.06,0.11,-1.00,3.36,2.50,1.95
45.9390,0.08,0.11,-0.99,3.48,2.62,1.83
45.9550,0.07,0.11,-0.99,3.11,2.50,1.77
45.9740,0.08,0.11,-0.99,3.23,2.93,1.46
45.9860,0.09,0.11,-0.99,3.30,3.05,1.83
46.0020,0.08,0.11,-0.99,3.30,2.81,1.89
46.0170,0.08,0.11,-0.99,2.99,2.87,1.53
46.0340,0.09,0.11,-0.99,2.87,2.99,1.65
46.0510,0.09,0.11,-0.99,3.23,2.62,1.77
46.0670,0.08,0.11,-0.99,3.36,3.05,1.83
46.0840,0.08,0.11,-0.99,3.17,2.81,2.01
46.1000,0.08,0.11,-0.99,3.30,2.69,2.01
46.1170,0.08,0.11,-0.99,3.30,2.99,1.89
46.1340,0.08,0.11,-0.99,3.05,3.30,2.01
46.1500,0.08,0.11,-0.99,3.17,2.93,1.83
46.1660,0.08,0.11,-0.99,3.30,2.87,1.89
46.1810,0.08,0.11,-0.99,3.36,3.17,1.95
46.1840,0.08,0.11,-0.99,3.11,2.87,1.95
46.1990,0.08,0.11,-0.99,3.36,2.93,2.01
46.2300,0.08,0.11,-0.99,3.05,3.11,2.01
46.2300,0.08,0.11,-0.99,3.36,3.23,1.95
46.2460,0.08,0.11,-0.99,3.17,2.99,2.01
46.2740,0.08,0.11,-0.99,3.05,2.99,2.08
46.2780,0.08,0.11,-0.99,3.17,2.50,1.83
46.2930,0.08,0.11,-0.99,3.05,2.81,1.89
46.3210,0.08,0.11,-0.99,3.17,2.75,1.95
46.3360,0.08,0.11,-0.99,3.30,2.93,1.83
46.3500,0.08,0.11,-0.99,3.36,2.75,2.01
46.3650,0.08,0.11,-0.99,3.30,2.87,2.01
46.3800,0.08,0.11,-0.99,3.30,2.81,2.01
46.3870,0.08,0.11,-0.99,3.17,2.99,2.01
46.4040,0.08,0.11,-0.99,3.36,3.05,2.08
46.4200,0.08,0.11,-0.99,3.17,3.30,1.95
46.4370,0.08,0.11,-0.99,3.05,2.81,2.08
46.4530,0.08,0.11,-0.99,3.05,3.11,2.14
46.4710,0.08,0.11,-0.99,3.11,2.99,2.01
46.4860,0.08,0.11,-0.99,3.11,2.93,2.01
46.5030,0.08,0.11,-0.99,3.11,2.93,1.95
46.5190,0.08,0.11,-0.99,2.99,2.93,2.14
46.5350,0.08,0.11,-0.99,3.30,2.87,2.08
46.5510,0.08,0.11,-0.99,3.17,2.50,2.08
46.5670,0.08,0.11,-0.99,3.05,2.69,2.26
46.5810,0.07,0.11,-0.99,2.99,2.69,2.20
46.5960,0.06,0.11,-0.99,3.23,2.93,2.20
46.6040,0.07,0.11,-0.99,2.99,2.56,2.38
46.6210,0.08,0.11,-0.99,3.54,2.75,2.32
46.6370,0.08,0.11,-0.99,3.23,2.50,1.95
46.6520,0.08,0.11,-0.99,3.42,2.50,2.01
46.6680,0.08,0.11,-0.99,3.17,2.87,2.20
46.6840,0.09,0.11,-0.99,3.30,2.99,2.14
46.6990,0.09,0.11,-0.99,3.30,2.87,2.20
46.7150,0.08,0.11,-0.99,3.48,2.56,2.20
46.7330,0.09,0.11,-0.99,3.23,2.75,2.08
46.7490,0.08,0.11,-0.99,3.11,2.62,1.95
46.7500,0.08,0.11,-0.99,3.23,2.75,2.01
46.7790,0.08,0.11,-0.99,3.23,2.62,2.14
46.7940,0.08,0.11,-0.99,3.23,3.11,2.14
46.8090,0.08,0.11,-0.99,3.23,2.69,1.89
46.8170,0.08,0.11,-0.99,3.11,2.87,1.83
46.8330,0.08,0.11,-0.99,3.11,2.75,1.95
46.8500,0.08,0.11,-0.99,3.11,3.17,2.14
46.8660,0.08,0.11,-0.99,3.05,2.87,2.20
46.8830,0.08,0.11,-0.99,3.42,3.05,2.08
46.8990,0.08,0.11,-0.99,3.36,2.38,2.20
46.9140,0.08,0.11,-0.99,3.48,2.50,2.14
46.9300,0.08,0.11,-0.99,3.36,2.69,2.14
46.9460,0.08,0.11,-0.99,3.30,3.05,2.08
46.9610,0.08,0.11,-0.99,3.23,2.81,2.01
46.9770,0.08,0.11,-0.99,3.60,2.62,2.14
46.9930,0.08,0.11,-0.99,3.11,2.56,2.08
47.0060,0.08,0.11,-0.99,3.17,3.11,2.08
47.0230,0.08,0.11,-0.99,3.23,2.87,2.08
47.0390,0.08,0.11,-0.99,3.17,2.93,2.20
47.0570,0.08,0.11,-0.99,3.30,2.44,2.32
47.0730,0.08,0.11,-0.99,3.60,2.69,2.14
47.0890,0.08,0.11,-0.99,3.36,3.05,2.08
47.1050,0.08,0.11,-0.99,2.99,3.11,1.95
47.1200,0.08,0.11,-0.99,3.30,2.75,2.01
47.1350,0.08,0.11,-0.99,3.36,2.81,2.01
47.1490,0.08,0.11,-0.99,3.11,2.93,2.08
47.1560,0.08,0.11,-0.99,3.48,2.56,2.08
47.1730,0.08,0.11,-0.99,3.11,3.17,2.14
47.1890,0.08,0.11,-0.99,3.11,2.69,2.01
47.2060,0.08,0.11,-0.99,3.05,2.62,1.89
47.2230,0.08,0.11,-0.99,3.23,2.93,2.01
47.2390,0.08,0.11,-0.99,3.17,3.30,1.89
47.2540,0.08,0.11,-0.99,3.17,2.69,1.89
47.2710,0.07,0.11,-0.99,3.30,2.99,1.95
47.2730,0.08,0.11,-0.99,3.17,2.99,2.01
47.2860,0.08,0.11,-0.99,3.05,3.42,2.20
47.3020,0.08,0.11,-0.99,3.30,3.11,2.20
47.3170,0.07,0.11,-0.99,3.30,2.50,2.32
47.3430,0.07,0.11,-0.99,3.17,2.69,2.26
47.3600,0.07,0.11,-1.00,3.11,2.93,2.08
47.3760,0.08,0.11,-0.99,3.23,2.87,2.14
47.3920,0.08,0.11,-0.99,3.23,3.11,2.08
47.4080,0.09,0.11,-0.99,3.30,2.99,2.14
