Timestamp, AccX, AccY, AccZ, GyroX, GyroY, GyroZ
0.0080,0.07,0.12,-0.99,2.87,2.99,1.77
0.0230,0.07,0.12,-0.99,3.11,2.87,1.83
0.0380,0.07,0.13,-0.99,3.17,2.14,1.65
0.0520,0.07,0.12,-0.99,3.23,2.56,1.89
0.0680,0.07,0.12,-0.99,3.30,2.44,1.65
0.0780,0.07,0.12,-0.99,3.30,2.99,1.83
0.0950,0.07,0.12,-0.99,3.23,2.75,1.77
0.1130,0.08,0.12,-0.99,3.42,2.38,1.71
0.1130,0.07,0.13,-0.99,3.30,2.56,1.83
0.1280,0.07,0.12,-0.99,3.42,2.75,1.71
0.1580,0.07,0.12,-0.99,3.36,2.56,1.59
0.1730,0.07,0.13,-0.99,3.36,2.62,1.77
0.1880,0.07,0.12,-0.99,3.48,2.08,1.71
0.2020,0.07,0.13,-0.99,3.30,2.44,1.71
0.2170,0.07,0.13,-0.99,3.42,3.11,1.77
0.2280,0.07,0.13,-0.99,3.23,3.17,1.83
0.2440,0.07,0.13,-0.99,3.36,2.44,1.65
0.2620,0.07,0.13,-0.99,3.11,2.87,1.77
0.2770,0.07,0.13,-0.99,3.17,2.75,1.71
0.2920,0.07,0.12,-0.99,3.23,2.20,1.65
0.3070,0.07,0.12,-0.99,3.17,2.38,1.83
0.3230,0.08,0.12,-0.99,3.23,2.69,1.71
0.3380,0.08,0.12,-0.99,3.23,2.26,1.77
0.3530,0.07,0.13,-0.99,3.42,2.62,1.77
0.3680,0.08,0.12,-0.99,3.17,2.44,1.77
0.3760,0.07,0.13,-0.99,3.30,2.08,1.77
0.3930,0.07,0.12,-0.99,3.23,1.89,1.83
0.4100,0.07,0.13,-0.99,3.36,2.14,1.65
0.4260,0.07,0.12,-0.99,3.30,2.38,1.83
0.4430,0.07,0.13,-0.99,3.36,2.56,1.77
0.4570,0.07,0.13,-0.99,3.36,2.38,1.71
0.4730,0.07,0.13,-0.99,3.48,2.38,1.77
0.4880,0.07,0.13,-0.99,3.11,2.62,1.77
0.5050,0.08,0.12,-0.99,3.11,2.38,1.77
0.5190,0.07,0.12,-0.99,3.30,2.26,1.71
0.5350,0.07,0.12,-0.99,3.54,2.44,1.71
0.5510,0.07,0.13,-0.99,3.36,2.69,1.77
0.5650,0.07,0.12,-0.99,2.99,2.62,1.65
0.5770,0.07,0.12,-0.99,3.11,2.69,1.71
0.5940,0.07,0.12,-0.99,3.11,2.69,1.83
0.6120,0.07,0.12,-0.99,3.17,2.56,1.53
0.6270,0.07,0.13,-0.99,2.93,2.62,1.89
0.6270,0.07,0.12,-0.99,2.87,2.69,1.89
0.6570,0.07,0.12,-0.99,2.99,2.62,1.83
0.6590,0.07,0.12,-0.99,3.05,2.62,1.83
0.6880,0.07,0.12,-0.99,3.30,2.14,2.87
0.6970,0.08,0.13,-0.99,2.93,2.26,2.75
0.7100,0.08,0.13,-0.99,3.05,2.56,2.44
0.7270,0.08,0.12,-0.99,2.99,2.62,2.69
0.7500,0.07,0.11,-0.99,3.17,2.75,2.08
0.7590,0.07,0.12,-0.99,3.54,2.14,1.95
0.7750,0.07,0.12,-0.99,3.48,2.38,1.71
0.7940,0.07,0.12,-0.99,3.42,2.62,1.83
0.8100,0.07,0.12,-0.99,3.48,2.62,1.83
0.8270,0.07,0.12,-0.99,3.60,2.50,1.83
0.8430,0.07,0.12,-0.99,3.36,2.56,1.83
0.8580,0.07,0.12,-0.99,3.42,2.56,1.77
0.8600,0.07,0.12,-0.99,3.23,2.69,1.77
0.8760,0.07,0.12,-0.99,3.66,2.20,1.77
0.8960,0.07,0.12,-0.99,3.42,2.81,1.83
0.9120,0.07,0.12,-0.99,3.30,2.20,1.83
0.9290,0.07,0.12,-0.99,3.48,2.62,1.77
0.9450,0.07,0.12,-0.99,3.54,2.20,1.77
0.9610,0.07,0.12,-0.99,3.36,2.32,1.83
0.9800,0.07,0.12,-0.99,3.42,2.81,1.77
0.9950,0.07,0.12,-0.99,3.48,2.20,1.83
1.0110,0.07,0.12,-0.99,3.30,2.75,1.77
1.0270,0.07,0.12,-0.99,3.36,2.38,1.71
1.0270,0.07,0.12,-0.99,3.30,2.62,1.71
1.0440,0.07,0.12,-0.99,3.48,2.32,1.77
1.0750,0.07,0.12,-0.99,3.48,2.69,1.83
1.0780,0.07,0.13,-0.99,3.42,2.26,1.77
1.0940,0.07,0.12,-0.99,3.11,2.62,1.65
1.1100,0.07,0.12,-0.99,3.42,2.32,1.83
1.1390,0.07,0.12,-0.99,3.36,2.44,1.77
1.1530,0.07,0.12,-0.99,3.54,2.75,1.65
1.1630,0.07,0.12,-0.99,3.36,2.50,1.71
1.1790,0.07,0.12,-0.99,3.30,2.69,1.65
1.1960,0.07,0.12,-0.99,3.30,2.20,1.71
1.2120,0.07,0.12,-0.99,3.30,2.50,1.83
1.2290,0.07,0.12,-0.99,3.36,1.89,1.71
1.2450,0.08,0.12,-0.99,2.93,2.69,1.77
1.2620,0.07,0.12,-0.99,3.36,2.56,1.71
1.2780,0.07,0.13,-0.99,3.36,2.44,2.32
1.2940,0.08,0.14,-0.99,3.42,2.38,2.50
1.2960,0.07,0.12,-0.99,3.48,2.50,2.20
1.3110,0.07,0.12,-0.99,3.30,1.83,2.38
1.3420,0.07,0.12,-0.99,3.30,2.50,2.26
1.3450,0.07,0.12,-0.99,3.48,2.38,2.20
1.3620,0.07,0.12,-0.99,3.42,2.44,2.01
1.3780,0.07,0.13,-0.98,3.17,2.20,2.20
1.3990,0.08,0.13,-0.99,3.30,2.32,2.14
1.4160,0.07,0.12,-0.99,3.42,2.14,2.26
1.4310,0.07,0.12,-0.99,3.30,2.56,2.01
1.4490,0.07,0.12,-0.99,3.23,2.44,2.01
1.4650,0.07,0.12,-0.99,3.30,2.69,1.83
1.4800,0.07,0.12,-0.99,3.48,2.08,1.65
1.4930,0.08,0.12,-0.99,3.60,2.26,1.83
1.5110,0.07,0.12,-0.99,3.36,2.56,1.77
1.5280,0.07,0.12,-0.99,3.36,2.62,1.77
1.5360,0.07,0.13,-0.99,3.48,2.32,1.46
1.5520,0.07,0.13,-0.99,3.23,2.26,1.65
1.5670,0.07,0.12,-0.99,3.30,2.56,1.59
1.5860,0.08,0.13,-0.99,3.36,2.62,1.59
1.6020,0.08,0.12,-0.99,3.11,2.75,1.59
1.6200,0.08,0.12,-0.99,3.17,2.62,1.46
1.6360,0.07,0.12,-0.99,3.42,2.56,1.77
1.6510,0.07,0.13,-0.99,3.05,2.69,1.71
1.6670,0.07,0.13,-0.99,3.36,2.50,1.77
1.6820,0.08,0.13,-0.99,3.42,1.95,2.44
1.6980,0.07,0.11,-0.99,3.42,2.32,2.14
1.7140,0.07,0.11,-0.99,3.42,2.38,1.77
1.7290,0.07,0.12,-0.99,3.42,2.38,1.77
1.7440,0.07,0.12,-0.99,3.23,2.56,1.77
1.7510,0.07,0.12,-0.99,3.48,2.56,1.83
1.7670,0.07,0.13,-0.99,3.36,2.08,1.83
1.7900,0.07,0.13,-0.99,3.36,2.20,1.65
1.8050,0.07,0.13,-0.99,3.36,2.26,1.59
1.8060,0.08,0.13,-0.99,3.48,2.44,1.71
1.8220,0.08,0.12,-0.99,3.60,1.95,1.59
1.8400,0.07,0.12,-0.99,3.48,2.38,1.65
1.8670,0.07,0.12,-0.99,3.36,2.87,1.77
1.8730,0.07,0.12,-0.99,3.17,2.69,1.89
1.8910,0.07,0.12,-0.99,3.36,2.62,1.59
1.9080,0.07,0.12,-0.99,3.17,2.62,1.77
1.9250,0.07,0.12,-0.99,3.48,2.20,1.71
1.9410,0.07,0.13,-0.99,3.54,2.32,1.59
1.9570,0.07,0.12,-0.99,3.17,2.44,1.65
1.9740,0.08,0.12,-0.99,3.23,2.38,1.71
1.9910,0.08,0.12,-0.99,3.30,2.44,1.65
2.0070,0.07,0.12,-0.99,3.17,2.20,1.77
2.0230,0.07,0.12,-0.99,3.17,2.20,1.65
2.0400,0.07,0.12,-0.99,2.93,2.50,1.83
2.0560,0.07,0.12,-0.99,3.17,2.20,1.89
2.0720,0.08,0.14,-0.98,3.23,2.08,1.95
2.0870,0.07,0.11,-0.99,3.60,2.38,1.83
2.0900,0.07,0.13,-0.99,3.36,2.62,1.95
2.1050,0.07,0.13,-0.99,3.42,2.08,1.89
2.1330,0.07,0.13,-0.99,3.30,2.26,1.89
2.1430,0.07,0.13,-0.99,3.30,1.71,2.20
2.1600,0.07,0.13,-0.99,3.48,1.95,2.56
2.1760,0.08,0.12,-0.99,3.05,2.14,3.17
2.1930,0.07,0.12,-0.99,3.23,2.14,2.75
2.2090,0.07,0.12,-0.99,3.23,2.32,2.20
2.2250,0.07,0.12,-0.99,3.54,2.14,2.08
2.2410,0.07,0.12,-0.99,3.36,2.01,2.14
2.2560,0.07,0.13,-0.99,3.30,2.20,2.20
2.2720,0.07,0.13,-0.99,3.30,2.38,2.26
2.2870,0.08,0.12,-0.99,3.48,2.44,2.14
2.3020,0.08,0.12,-0.99,3.48,2.32,2.01
2.3090,0.07,0.13,-0.99,3.30,2.14,1.89
2.3250,0.07,0.13,-0.99,3.23,1.95,2.01
2.3420,0.07,0.13,-0.99,3.23,2.26,2.20
2.3590,0.07,0.13,-0.99,3.30,2.20,2.38
2.3760,0.07,0.12,-0.99,3.36,2.20,2.81
2.3910,0.07,0.11,-0.99,3.30,2.56,2.50
2.4080,0.08,0.11,-0.98,3.30,2.38,2.44
2.4230,0.07,0.11,-0.98,3.36,2.32,2.56
2.4390,0.07,0.11,-0.98,3.42,2.14,2.20
2.4540,0.07,0.12,-0.99,3.30,2.62,2.08
2.4680,0.07,0.13,-0.99,3.30,2.08,1.83
2.4840,0.07,0.13,-0.99,3.42,2.26,1.71
2.4980,0.08,0.13,-0.99,3.17,2.38,1.89
2.5070,0.08,0.14,-0.99,3.11,2.26,2.14
2.5230,0.08,0.13,-0.98,3.30,2.20,2.69
2.5410,0.08,0.12,-0.99,3.17,2.20,2.32
2.5570,0.07,0.11,-0.99,3.11,2.32,2.14
2.5730,0.07,0.11,-0.99,3.48,2.14,2.20
2.5880,0.07,0.12,-0.99,3.17,2.75,2.01
2.5950,0.07,0.12,-0.99,3.17,2.38,1.83
2.6110,0.07,0.12,-0.99,3.36,2.81,1.83
2.6320,0.07,0.12,-0.99,3.42,2.38,1.77
2.6490,0.07,0.13,-0.99,3.23,2.26,1.83
2.6510,0.08,0.13,-0.99,3.30,2.20,1.83
2.6660,0.08,0.13,-0.99,3.54,2.32,1.95
2.6860,0.08,0.13,-0.99,3.36,2.56,1.95
2.7120,0.07,0.13,-0.99,3.66,2.38,1.95
2.7160,0.07,0.12,-0.99,3.42,1.89,2.20
2.7330,0.07,0.12,-0.99,3.30,2.26,2.14
2.7490,0.07,0.12,-0.99,3.42,1.95,2.08
2.7680,0.07,0.12,-0.99,3.54,2.50,1.95
2.7870,0.07,0.12,-0.99,3.54,2.38,1.71
2.8020,0.07,0.12,-0.99,3.42,2.44,1.71
2.8180,0.07,0.12,-0.99,3.17,2.20,1.71
2.8350,0.08,0.12,-0.99,3.42,2.26,1.65
2.8520,0.08,0.13,-0.99,3.66,2.32,2.01
2.8680,0.07,0.13,-0.99,3.54,2.32,1.89
2.8840,0.08,0.14,-0.98,3.36,2.14,1.89
2.9010,0.07,0.12,-0.99,3.66,2.38,2.01
2.9160,0.07,0.12,-0.99,3.66,2.26,2.14
2.9190,0.07,0.11,-0.99,3.48,2.62,2.01
2.9340,0.07,0.12,-0.99,3.30,2.26,1.71
2.9500,0.07,0.12,-0.99,3.60,1.89,1.77
2.9730,0.07,0.12,-0.99,3.36,2.62,1.95
2.9890,0.07,0.12,-0.99,3.48,2.44,1.95
3.0050,0.07,0.13,-0.99,3.48,2.14,1.77
3.0230,0.08,0.13,-0.99,3.23,2.44,1.71
3.0380,0.08,0.13,-0.99,3.36,2.32,1.95
3.0540,0.07,0.13,-0.99,3.36,2.20,2.26
3.0560,0.07,0.12,-0.99,3.48,2.26,2.20
3.0850,0.08,0.12,-0.99,3.30,2.44,2.20
3.1010,0.07,0.12,-0.99,3.48,2.38,2.32
3.1160,0.07,0.12,-0.99,3.42,2.69,2.44
3.1320,0.07,0.12,-0.99,3.36,2.08,2.44
3.1480,0.07,0.12,-0.99,3.23,2.01,2.38
3.1540,0.07,0.12,-0.99,3.42,2.38,2.32
3.1710,0.07,0.13,-0.99,3.48,2.14,2.32
3.1880,0.08,0.13,-0.99,3.30,2.08,2.44
3.2030,0.08,0.13,-0.99,3.23,2.20,2.69
3.2190,0.08,0.13,-0.99,3.36,1.89,2.93
3.2390,0.08,0.12,-0.99,3.23,2.44,3.54
3.2540,0.08,0.12,-0.99,3.23,2.26,3.11
3.2710,0.08,0.12,-0.99,3.48,2.08,2.87
3.2860,0.07,0.12,-0.99,3.36,1.95,3.11
3.2880,0.07,0.12,-0.99,3.23,2.38,2.93
3.3040,0.07,0.12,-0.99,3.54,2.20,2.75
3.3260,0.07,0.12,-0.99,3.54,2.14,2.75
3.3430,0.07,0.13,-0.99,3.66,1.89,2.50
3.3590,0.07,0.12,-0.99,3.42,2.38,2.56
3.3760,0.07,0.12,-0.99,3.23,2.14,2.44
3.3920,0.07,0.12,-0.99,3.30,2.14,2.38
3.4090,0.07,0.13,-0.99,3.30,2.01,2.38
3.4260,0.08,0.13,-0.99,3.42,1.95,2.44
3.4410,0.08,0.12,-0.99,3.23,2.26,2.69
3.4570,0.07,0.12,-0.99,3.36,2.14,2.32
3.4720,0.07,0.11,-0.99,3.30,2.32,2.44
3.4820,0.07,0.12,-0.99,3.48,2.14,2.14
3.4910,0.07,0.13,-0.99,3.36,2.62,1.77
3.5150,0.07,0.13,-0.99,3.36,2.20,2.01
3.5300,0.07,0.12,-0.99,3.42,2.20,2.62
3.5470,0.07,0.12,-0.99,3.23,2.08,2.50
3.5640,0.07,0.13,-0.99,3.54,2.01,2.20
3.5810,0.07,0.13,-0.99,3.72,2.44,2.32
3.5970,0.07,0.13,-0.99,3.23,2.08,2.62
3.6120,0.07,0.12,-0.99,3.30,2.01,2.87
3.6150,0.08,0.12,-0.99,3.23,2.56,3.17
3.6300,0.07,0.12,-0.99,3.36,2.38,2.81
3.6610,0.07,0.12,-0.99,3.42,2.14,2.62
3.6640,0.07,0.13,-0.99,3.42,2.32,2.81
3.6810,0.07,0.13,-0.99,3.42,2.20,2.99
3.7080,0.07,0.13,-0.99,3.36,2.56,3.05
3.7240,0.07,0.13,-0.99,3.11,2.20,3.54
3.7400,0.07,0.13,-0.99,3.23,2.50,3.66
3.7460,0.07,0.13,-0.99,3.05,2.20,3.66
3.7630,0.08,0.13,-0.98,3.11,2.08,4.15
3.7800,0.07,0.12,-0.99,3.17,2.01,4.03
3.7960,0.07,0.12,-0.99,3.11,2.14,3.97
3.8120,0.07,0.12,-0.99,3.30,1.71,4.03
3.8280,0.07,0.12,-0.99,3.48,2.01,4.03
3.8470,0.07,0.12,-0.99,3.05,2.20,3.97
3.8620,0.07,0.13,-0.98,3.11,1.77,3.66
3.8790,0.07,0.12,-0.99,3.17,1.77,3.72
3.8950,0.07,0.13,-0.99,3.23,1.95,3.66
3.9100,0.07,0.13,-0.99,3.23,1.89,3.72
3.9260,0.08,0.12,-0.99,3.42,1.65,3.36
3.9410,0.07,0.12,-0.99,3.36,2.20,3.23
3.9560,0.08,0.12,-0.99,3.36,2.14,2.99
3.9600,0.07,0.12,-0.99,3.30,2.01,2.56
3.9790,0.07,0.13,-0.99,3.60,1.77,2.26
3.9990,0.07,0.12,-0.99,3.30,2.38,2.44
4.0140,0.07,0.12,-0.99,3.48,2.01,2.01
4.0310,0.07,0.12,-0.99,3.54,2.20,1.89
4.0480,0.07,0.13,-0.99,3.48,2.01,2.01
4.0640,0.07,0.13,-0.99,3.36,2.44,2.20
4.0800,0.07,0.12,-0.99,3.54,2.20,2.38
4.0960,0.07,0.12,-0.99,3.42,2.20,2.20
4.1120,0.07,0.12,-0.99,3.48,2.01,2.14
4.1270,0.07,0.13,-0.99,3.36,2.38,2.14
4.1430,0.07,0.12,-0.99,3.30,2.01,2.01
4.1580,0.07,0.12,-0.99,3.36,2.38,1.95
4.1730,0.07,0.12,-0.99,3.36,2.50,2.14
4.1890,0.08,0.12,-0.99,3.36,2.20,1.89
4.2030,0.08,0.13,-0.99,3.23,2.32,1.77
4.2130,0.07,0.13,-0.99,3.30,2.01,1.83
4.2300,0.07,0.13,-0.99,3.23,2.01,2.01
4.2460,0.07,0.12,-0.99,3.42,2.14,2.32
4.2630,0.07,0.13,-0.99,3.23,2.75,2.50
4.2790,0.07,0.13,-0.99,3.36,2.08,2.56
4.2810,0.07,0.13,-0.99,3.36,2.01,2.62
4.3100,0.07,0.12,-0.99,3.30,2.44,2.38
4.3240,0.07,0.12,-0.99,3.23,2.93,2.38
4.3400,0.07,0.12,-0.99,3.17,2.26,2.20
4.3560,0.08,0.13,-0.99,3.30,2.32,2.56
4.3720,0.07,0.12,-0.99,3.42,1.89,2.56
4.3880,0.07,0.12,-0.99,3.36,2.20,2.62
4.4030,0.07,0.12,-0.99,3.30,2.01,2.81
4.4170,0.08,0.13,-0.99,3.36,2.26,2.69
4.4280,0.07,0.13,-0.98,3.05,2.38,2.75
4.4450,0.07,0.13,-0.99,3.42,2.08,2.99
4.4610,0.07,0.12,-0.99,2.93,2.50,3.30
4.4770,0.07,0.13,-0.99,3.11,2.08,3.30
4.4930,0.08,0.13,-0.99,2.99,2.20,4.09
4.5090,0.07,0.11,-0.99,3.11,1.71,3.11
4.5250,0.07,0.12,-0.98,2.99,2.01,3.78
4.5400,0.07,0.11,-0.99,3.60,2.08,3.11
4.5560,0.07,0.12,-0.99,3.17,2.20,2.69
4.5720,0.07,0.13,-0.99,3.23,2.32,2.50
4.5870,0.07,0.13,-0.99,3.23,2.01,2.69
4.6030,0.07,0.12,-0.99,3.23,2.08,2.87
4.6110,0.07,0.12,-0.99,3.30,2.20,2.50
4.6330,0.07,0.12,-0.99,3.30,2.20,2.32
4.6430,0.07,0.12,-0.99,3.17,2.32,2.50
4.6600,0.07,0.12,-0.99,3.30,2.20,2.87
4.6750,0.07,0.12,-0.99,3.30,2.08,2.87
4.6950,0.08,0.12,-0.99,3.23,1.83,3.05
4.7100,0.07,0.12,-0.99,3.30,1.53,2.93
4.7240,0.07,0.12,-0.99,3.30,2.20,2.56
4.7320,0.07,0.13,-0.99,3.30,2.20,2.75
4.7550,0.07,0.12,-0.99,3.17,2.08,3.17
4.7650,0.07,0.12,-0.99,3.23,2.08,3.23
4.7820,0.07,0.12,-0.99,3.36,2.08,3.11
4.7980,0.07,0.12,-0.99,3.05,2.32,2.81
4.8150,0.07,0.13,-0.99,3.23,2.08,2.93
4.8310,0.07,0.13,-0.99,3.11,2.20,3.17
4.8480,0.07,0.12,-0.99,3.05,2.26,3.54
4.8630,0.07,0.12,-0.99,3.17,2.20,3.78
4.8800,0.07,0.12,-0.99,3.48,1.89,3.48
4.8960,0.07,0.13,-0.99,3.11,2.20,3.36
4.9110,0.07,0.12,-0.99,3.23,1.65,3.36
4.9260,0.07,0.12,-0.99,3.23,2.08,3.05
4.9310,0.07,0.13,-0.99,3.23,2.14,2.93
4.9460,0.07,0.13,-0.99,3.42,1.77,3.05
4.9700,0.07,0.12,-0.99,3.17,2.26,3.17
4.9860,0.07,0.12,-0.99,3.17,2.08,3.30
5.0020,0.08,0.12,-0.99,3.30,2.08,3.36
5.0030,0.07,0.12,-0.99,3.36,2.01,2.75
5.0330,0.07,0.12,-0.99,3.42,2.08,2.75
5.0360,0.07,0.12,-0.99,3.17,2.32,3.23
5.0650,0.07,0.12,-0.99,3.30,1.77,3.17
5.0800,0.07,0.13,-0.99,3.42,2.32,3.48
5.0950,0.07,0.13,-0.99,3.23,2.20,3.48
5.1020,0.08,0.12,-0.99,3.23,1.71,3.78
5.1170,0.07,0.12,-0.99,3.42,1.89,3.42
5.1390,0.07,0.12,-0.99,3.23,2.32,2.99
5.1540,0.07,0.13,-0.99,3.36,2.44,2.99
5.1570,0.08,0.13,-0.99,3.11,2.20,3.30
5.1720,0.07,0.12,-0.99,3.23,2.01,3.85
5.1950,0.07,0.11,-0.99,3.30,2.26,3.97
5.2110,0.07,0.11,-0.99,3.23,2.32,3.60
5.2280,0.07,0.12,-0.99,3.17,2.44,3.30
5.2450,0.07,0.13,-0.99,3.17,2.08,3.11
5.2610,0.08,0.12,-0.99,3.17,1.95,3.05
5.2770,0.07,0.12,-0.99,3.54,2.08,3.11
5.2920,0.07,0.12,-0.99,3.23,2.26,3.17
5.3090,0.07,0.12,-0.99,3.11,2.08,2.99
5.3240,0.07,0.12,-0.99,3.11,2.20,3.11
5.3400,0.07,0.12,-0.99,3.42,2.14,2.81
5.3430,0.07,0.12,-0.99,3.54,1.59,2.50
5.3590,0.08,0.13,-0.99,3.36,2.08,2.81
5.3800,0.07,0.12,-0.99,3.30,2.20,2.81
5.3970,0.07,0.13,-0.99,3.23,1.89,3.05
5.4140,0.07,0.12,-0.99,3.30,1.89,3.36
5.4290,0.07,0.12,-0.99,3.54,2.14,3.17
5.4480,0.07,0.12,-0.99,3.54,2.14,3.30
5.4620,0.08,0.12,-0.99,3.36,2.26,3.11
5.4780,0.08,0.13,-0.99,3.23,1.89,3.05
5.4950,0.07,0.12,-0.99,3.42,2.08,3.48
5.5110,0.07,0.12,-0.99,3.30,1.65,3.48
5.5130,0.07,0.12,-0.99,3.54,1.71,3.48
5.5280,0.07,0.12,-0.99,3.36,1.89,2.99
5.5580,0.07,0.12,-0.99,3.42,1.71,2.81
5.5740,0.07,0.12,-0.99,3.42,2.08,3.17
5.5900,0.07,0.12,-0.99,3.48,2.01,3.54
5.5960,0.07,0.12,-0.99,3.48,2.26,3.23
5.6120,0.07,0.12,-0.99,3.30,2.01,3.30
5.6310,0.07,0.12,-0.99,3.30,1.65,3.30
5.6480,0.07,0.12,-0.99,3.36,1.83,3.05
5.6640,0.07,0.12,-0.99,3.54,1.65,3.36
5.6800,0.08,0.12,-0.99,3.17,1.83,3.30
5.6960,0.07,0.12,-0.99,3.23,2.26,2.87
5.7130,0.07,0.12,-0.99,3.11,2.44,2.99
5.7290,0.07,0.12,-0.99,3.23,2.38,3.05
5.7440,0.07,0.12,-0.99,3.30,1.89,3.11
5.7590,0.07,0.12,-0.99,3.05,2.26,3.30
5.7690,0.07,0.12,-0.99,3.42,1.83,3.30
5.7860,0.07,0.12,-0.99,3.36,2.20,3.66
5.8030,0.07,0.12,-0.99,3.42,2.08,3.42
5.8190,0.07,0.12,-0.99,3.42,1.71,3.05
5.8360,0.07,0.12,-0.99,3.60,1.77,3.23
5.8520,0.07,0.12,-0.99,3.36,2.01,3.11
5.8690,0.07,0.12,-0.99,3.42,2.32,2.99
5.8850,0.07,0.12,-0.99,3.42,2.26,2.69
5.9010,0.07,0.12,-0.99,3.17,2.38,2.81
5.9180,0.07,0.12,-0.99,3.36,2.26,2.38
5.9350,0.07,0.12,-0.99,3.42,2.26,1.83
5.9510,0.07,0.12,-0.99,3.66,2.32,1.77
5.9660,0.07,0.12,-0.99,3.66,2.44,1.89
5.9830,0.07,0.12,-0.99,3.78,2.32,1.65
5.9850,0.07,0.12,-0.99,3.72,2.38,1.71
6.0120,0.07,0.12,-0.99,3.97,1.89,1.89
6.0280,0.07,0.12,-0.99,3.85,2.01,1.71
6.0390,0.07,0.12,-0.99,3.91,2.62,1.89
6.0540,0.08,0.12,-0.99,3.91,2.38,1.71
6.0740,0.07,0.12,-0.99,3.97,2.38,1.28
6.0890,0.08,0.13,-0.99,3.54,2.50,1.28
6.1040,0.07,0.12,-0.99,3.36,2.69,1.28
6.1100,0.08,0.13,-0.99,3.85,2.38,1.10
6.1250,0.07,0.13,-0.99,3.48,2.50,0.92
6.1460,0.07,0.12,-0.98,3.72,2.14,1.16
6.1630,0.08,0.12,-0.99,4.52,2.32,1.40
6.1790,0.07,0.13,-0.99,3.97,2.93,-0.31
6.1810,0.08,0.14,-0.99,3.42,2.44,0.85
6.1960,0.08,0.12,-0.99,2.38,2.50,1.77
6.2280,0.07,0.11,-0.98,2.20,2.56,1.65
6.2430,0.07,0.12,-0.98,3.97,2.01,1.71
6.2590,0.07,0.12,-0.99,4.09,2.26,1.83
6.2750,0.07,0.12,-0.99,3.97,2.32,1.83
6.2910,0.07,0.13,-0.99,4.15,2.32,1.77
6.2950,0.07,0.12,-0.99,3.97,1.95,1.71
6.3110,0.08,0.13,-0.99,3.60,2.20,1.77
6.3320,0.07,0.12,-0.99,2.93,2.69,1.89
6.3490,0.07,0.12,-0.99,3.36,1.95,1.71
6.3660,0.07,0.12,-0.99,3.36,2.01,1.71
6.3820,0.07,0.12,-0.99,3.42,2.20,1.77
6.3980,0.07,0.12,-0.99,3.60,2.56,1.71
6.4130,0.07,0.12,-0.99,3.60,2.26,1.77
6.4280,0.07,0.12,-0.99,3.54,2.14,1.83
6.4430,0.08,0.12,-0.99,3.30,2.32,1.83
6.4590,0.07,0.12,-0.99,3.42,2.20,1.77
6.4740,0.07,0.12,-0.99,3.42,2.38,1.77
6.4900,0.07,0.12,-0.99,3.42,2.26,1.77
6.5050,0.07,0.12,-0.99,3.66,2.08,1.95
6.5200,0.07,0.12,-0.99,3.91,2.08,1.89
6.5300,0.07,0.12,-0.99,3.17,2.44,1.77
6.5470,0.07,0.12,-0.99,3.05,2.32,1.77
6.5640,0.07,0.12,-0.99,2.81,2.20,1.71
6.5800,0.07,0.12,-0.99,3.05,2.50,1.71
6.5940,0.07,0.12,-0.99,2.87,2.32,1.65
6.6030,0.07,0.12,-0.99,3.78,2.08,1.71
6.6180,0.07,0.12,-0.99,3.23,2.38,1.77
6.6380,0.07,0.13,-0.99,3.36,2.14,1.77
6.6560,0.07,0.12,-0.99,2.99,2.56,1.83
6.6720,0.07,0.13,-0.99,3.05,2.14,1.83
6.6870,0.07,0.13,-0.99,2.93,2.38,2.69
6.7040,0.08,0.12,-0.99,2.62,2.44,3.36
6.7060,0.08,0.12,-0.99,2.69,2.56,3.17
6.7210,0.09,0.14,-0.98,2.93,2.62,2.75
6.7520,0.07,0.13,-0.99,3.54,2.08,1.77
6.7630,0.07,0.12,-0.99,3.54,1.89,2.20
6.7710,0.07,0.12,-0.99,3.11,2.20,2.75
6.7990,0.07,0.11,-0.99,2.87,2.01,2.38
6.8150,0.07,0.12,-0.99,3.11,1.83,2.56
6.8300,0.07,0.13,-0.99,3.30,2.08,3.11
6.8410,0.07,0.12,-0.99,3.48,2.26,2.81
6.8580,0.07,0.13,-0.99,3.11,1.89,2.75
6.8750,0.08,0.13,-0.99,3.42,2.20,3.30
6.8900,0.07,0.13,-0.99,3.42,2.08,3.60
6.9060,0.07,0.11,-0.99,3.17,2.26,4.27
6.9070,0.07,0.11,-0.99,2.87,1.95,3.78
6.9380,0.07,0.13,-0.99,2.93,2.14,3.72
6.9530,0.07,0.13,-0.99,2.81,1.95,4.52
6.9680,0.07,0.11,-0.99,3.05,2.14,4.58
6.9840,0.07,0.11,-0.99,3.05,1.89,3.66
7.0000,0.07,0.11,-0.99,3.23,2.01,2.75
7.0160,0.07,0.12,-0.99,3.42,2.14,2.44
7.0230,0.07,0.13,-0.99,3.72,2.08,2.01
7.0390,0.07,0.12,-0.99,3.23,2.20,2.50
7.0620,0.07,0.12,-0.99,3.17,2.01,3.42
7.0700,0.07,0.12,-0.99,3.36,2.08,3.48
7.0860,0.08,0.12,-0.99,3.17,2.14,2.99
7.1070,0.07,0.13,-0.99,3.23,1.95,2.69
7.1230,0.07,0.12,-0.99,3.17,2.56,2.62
7.1270,0.07,0.12,-0.99,3.17,2.14,2.62
7.1430,0.07,0.13,-0.99,2.87,2.26,3.17
7.1640,0.07,0.12,-0.99,3.05,2.20,3.72
7.1810,0.07,0.12,-0.99,3.11,2.08,3.85
7.1970,0.08,0.12,-0.99,3.23,2.44,3.48
7.2150,0.07,0.12,-0.99,3.23,2.44,3.54
7.2300,0.07,0.12,-0.99,3.05,2.62,3.30
7.2470,0.07,0.12,-0.99,2.93,2.32,3.36
7.2620,0.07,0.11,-0.99,3.36,2.26,3.60
7.2770,0.08,0.13,-0.99,3.23,2.14,3.30
7.2800,0.08,0.13,-0.99,3.36,2.08,3.36
7.2960,0.07,0.12,-0.99,3.30,1.59,3.11
7.3170,0.07,0.12,-0.99,2.93,2.01,3.36
7.3330,0.07,0.12,-0.99,3.23,2.26,3.11
7.3510,0.07,0.12,-0.99,3.05,2.44,3.60
7.3660,0.07,0.12,-0.99,3.42,2.26,3.30
7.3870,0.07,0.12,-0.99,3.17,1.89,3.60
7.4030,0.07,0.12,-0.99,3.30,2.32,3.66
7.4180,0.07,0.12,-0.99,3.17,2.01,3.60
7.4350,0.07,0.12,-0.99,3.48,2.20,3.54
7.4510,0.07,0.12,-0.99,3.30,2.38,3.60
7.4670,0.07,0.13,-0.99,3.36,2.01,3.72
7.4830,0.07,0.12,-0.99,3.11,2.26,4.46
7.4980,0.08,0.12,-0.99,3.17,2.08,4.39
7.5140,0.07,0.12,-0.99,3.11,2.20,4.09
7.5290,0.07,0.12,-0.99,2.93,2.08,4.27
7.5440,0.07,0.13,-0.98,3.05,1.40,3.97
7.5580,0.07,0.12,-0.99,3.23,1.71,4.58
7.5700,0.07,0.11,-0.99,3.36,1.77,4.39
7.5900,0.07,0.12,-0.99,3.42,1.95,4.09
7.6050,0.07,0.12,-0.99,3.17,1.77,3.78
7.6200,0.07,0.11,-0.99,3.17,2.20,3.78
7.6250,0.07,0.12,-0.99,3.11,1.77,3.66
7.6500,0.07,0.12,-0.99,3.11,1.89,3.36
7.6660,0.07,0.12,-0.99,2.99,1.95,3.05
7.6810,0.07,0.12,-0.99,3.11,2.20,3.11
7.6910,0.07,0.12,-0.99,3.05,2.08,3.72
7.7080,0.07,0.11,-0.99,3.11,2.14,3.54
7.7240,0.07,0.12,-0.99,3.17,2.08,3.36
7.7400,0.07,0.12,-0.99,3.23,2.01,3.42
7.7570,0.07,0.12,-0.99,3.17,2.01,3.60
7.7740,0.07,0.12,-0.99,3.17,1.95,3.91
7.7900,0.07,0.12,-0.99,3.23,1.95,4.21
7.8060,0.07,0.12,-0.99,3.36,1.89,4.21
7.8220,0.07,0.12,-0.99,3.11,2.20,4.03
7.8370,0.07,0.12,-0.99,3.42,1.89,4.21
7.8530,0.07,0.12,-0.99,3.05,1.59,3.91
7.8690,0.08,0.12,-0.99,2.87,1.77,3.85
7.8850,0.07,0.12,-0.99,2.93,1.89,3.97
7.9010,0.07,0.12,-0.99,3.30,1.89,4.52
7.9170,0.07,0.11,-0.99,3.36,1.77,4.76
7.9220,0.07,0.12,-0.99,3.11,2.32,4.39
7.9380,0.07,0.12,-0.99,3.17,1.59,4.27
7.9610,0.07,0.12,-0.99,3.11,1.83,3.97
7.9760,0.07,0.12,-0.99,3.30,1.71,4.21
7.9930,0.07,0.12,-0.99,3.23,1.46,4.39
8.0090,0.07,0.12,-0.99,2.87,1.77,4.39
8.0250,0.07,0.12,-0.99,3.54,1.65,3.72
8.0410,0.07,0.12,-0.99,3.11,2.26,4.33
8.0560,0.08,0.12,-0.99,3.11,2.14,4.82
8.0590,0.08,0.12,-0.99,3.17,2.01,4.52
8.0750,0.07,0.12,-0.99,3.17,2.01,3.91
8.0960,0.07,0.12,-0.99,2.99,2.32,3.60
8.1160,0.07,0.12,-0.99,3.11,2.26,3.54
8.1310,0.07,0.12,-0.99,3.60,1.89,4.09
8.1510,0.07,0.12,-0.99,3.17,1.71,4.27
8.1660,0.07,0.12,-0.99,3.36,1.95,4.64
8.1820,0.07,0.12,-0.99,3.05,1.89,4.52
8.1980,0.07,0.12,-0.99,3.17,2.01,4.64
8.2010,0.07,0.12,-0.99,3.23,1.83,4.70
8.2160,0.07,0.12,-0.99,2.99,1.71,5.13
8.2470,0.08,0.12,-0.99,2.99,1.77,5.43
8.2640,0.07,0.12,-0.99,3.36,1.46,5.31
8.2800,0.08,0.12,-0.99,3.23,1.71,5.37
8.2820,0.08,0.11,-0.99,3.23,1.77,4.94
8.3110,0.08,0.12,-0.99,2.87,1.83,4.88
8.3270,0.07,0.11,-0.99,3.11,1.89,4.94
8.3430,0.07,0.11,-0.99,3.30,2.38,4.46
8.3590,0.07,0.12,-0.99,3.11,1.89,3.97
8.3750,0.08,0.12,-0.99,2.93,1.95,3.97
8.3900,0.07,0.11,-0.99,3.23,2.32,3.54
8.4060,0.08,0.12,-0.99,3.36,2.01,2.87
8.4220,0.07,0.12,-0.99,3.60,1.83,2.69
8.4310,0.07,0.11,-0.99,3.23,2.01,2.75
8.4520,0.07,0.12,-0.99,3.17,2.08,2.81
8.4640,0.07,0.12,-0.99,3.54,2.26,2.81
8.4810,0.07,0.12,-0.99,3.23,1.89,2.56
8.4970,0.07,0.12,-0.99,3.36,2.14,3.17
8.5130,0.07,0.12,-0.99,3.17,2.14,3.48
8.5300,0.07,0.12,-0.99,3.23,2.01,3.91
8.5470,0.07,0.12,-0.99,3.23,2.50,3.72
8.5630,0.07,0.11,-0.99,3.36,2.20,3.48
8.5790,0.07,0.11,-0.99,3.05,2.14,3.30
8.5800,0.07,0.12,-0.99,3.17,1.95,3.30
8.6090,0.07,0.12,-0.99,3.42,2.32,3.60
8.6250,0.08,0.12,-0.99,3.30,2.26,3.85
8.6400,0.07,0.12,-0.99,2.99,2.01,3.91
8.6570,0.07,0.12,-0.99,3.42,1.95,4.03
8.6630,0.07,0.12,-0.99,3.17,2.38,4.27
8.6870,0.07,0.12,-0.99,3.30,2.38,4.15
8.6960,0.07,0.12,-0.99,3.36,2.32,4.94
8.7120,0.07,0.11,-0.99,3.11,1.95,4.64
8.7320,0.07,0.11,-0.99,3.30,2.14,3.97
8.7490,0.07,0.12,-0.99,3.17,2.01,3.97
8.7640,0.07,0.13,-0.99,3.17,2.38,4.82
8.7810,0.07,0.13,-0.99,3.23,1.65,5.68
8.7970,0.08,0.11,-0.99,3.48,1.71,5.43
8.8120,0.08,0.12,-0.99,3.23,1.89,4.70
8.8290,0.08,0.12,-0.99,3.11,1.95,5.19
8.8450,0.07,0.12,-0.99,2.93,2.20,4.76
8.8500,0.07,0.13,-0.99,2.87,2.26,5.00
8.8640,0.07,0.12,-0.99,2.99,1.71,5.86
8.8860,0.07,0.12,-0.99,2.93,1.95,6.10
8.9030,0.07,0.11,-0.99,2.81,2.20,5.74
8.9190,0.07,0.11,-0.99,2.87,1.77,4.58
8.9360,0.07,0.12,-0.99,3.23,1.89,4.33
8.9530,0.07,0.12,-0.99,3.23,2.14,4.70
8.9680,0.08,0.12,-0.99,3.05,1.71,5.31
8.9840,0.07,0.12,-0.99,2.69,2.01,5.13
9.0000,0.08,0.11,-0.99,2.87,2.08,5.31
9.0160,0.08,0.11,-0.99,2.93,1.95,4.58
9.0310,0.07,0.12,-0.99,3.17,2.26,3.66
9.0360,0.07,0.13,-0.99,3.30,2.38,3.54
9.0520,0.07,0.12,-0.99,2.99,2.20,3.85
9.0770,0.07,0.12,-0.99,2.99,2.01,4.27
9.0930,0.07,0.11,-0.99,3.17,1.95,4.21
9.1010,0.07,0.12,-0.99,3.23,2.01,3.23
9.1180,0.07,0.12,-0.99,3.17,1.95,3.30
9.1340,0.07,0.13,-0.99,3.11,2.01,3.91
9.1510,0.07,0.12,-0.99,3.17,1.95,4.15
9.1680,0.07,0.11,-0.99,3.36,2.01,3.97
9.1840,0.08,0.12,-0.99,3.17,2.01,3.97
9.2000,0.07,0.11,-0.99,3.30,2.32,3.66
9.2170,0.07,0.12,-0.99,3.17,2.01,3.60
9.2340,0.07,0.11,-0.99,3.36,2.26,3.54
9.2500,0.07,0.12,-0.99,3.42,2.20,3.11
9.2660,0.07,0.13,-0.99,3.36,2.08,3.66
9.2820,0.08,0.13,-0.99,3.05,1.83,4.33
9.2970,0.08,0.12,-0.99,3.17,1.95,4.58
9.3140,0.07,0.11,-0.99,3.17,2.01,4.46
9.3170,0.07,0.12,-0.99,3.11,2.32,4.09
9.3450,0.07,0.12,-0.99,3.23,2.01,4.70
9.3610,0.07,0.11,-0.99,2.99,1.89,4.88
9.3770,0.07,0.12,-0.99,2.93,2.20,4.82
9.3930,0.07,0.12,-0.99,2.99,1.83,4.82
9.4080,0.08,0.12,-0.99,3.17,1.83,4.21
9.4230,0.07,0.12,-0.99,3.42,2.08,3.91
9.4320,0.08,0.13,-0.99,3.60,1.71,4.15
9.4490,0.07,0.12,-0.99,3.30,1.46,4.52
9.4660,0.07,0.12,-0.99,3.05,2.01,4.94
9.4830,0.07,0.12,-0.99,2.99,1.83,4.76
9.4990,0.07,0.13,-0.99,3.17,1.77,5.13
9.5150,0.07,0.12,-0.99,3.42,1.83,5.49
9.5320,0.07,0.12,-0.99,3.23,1.83,5.13
9.5480,0.07,0.12,-0.99,3.17,1.83,5.74
9.5640,0.08,0.12,-0.99,3.17,1.65,5.62
9.5800,0.08,0.12,-0.99,3.30,1.83,5.00
9.5960,0.08,0.11,-0.99,3.17,1.71,4.88
9.6110,0.07,0.11,-0.99,3.11,2.14,3.91
9.6270,0.07,0.12,-0.99,3.30,2.20,3.36
9.6430,0.07,0.12,-0.99,3.30,1.71,4.15
9.6480,0.07,0.11,-0.99,3.30,1.89,4.15
9.6640,0.07,0.11,-0.99,3.11,1.65,3.48
9.6870,0.07,0.12,-0.99,3.42,1.89,3.23
9.7030,0.07,0.11,-0.99,3.30,2.14,2.62
9.7050,0.07,0.12,-0.99,3.30,2.08,2.56
9.7340,0.07,0.12,-0.99,3.36,2.14,2.75
9.7490,0.07,0.12,-0.99,3.36,2.44,2.56
9.7650,0.08,0.12,-0.99,3.30,2.44,2.44
9.7700,0.07,0.12,-0.99,3.54,2.08,2.56
9.7860,0.07,0.11,-0.99,3.36,2.26,3.17
9.8060,0.07,0.12,-0.99,3.36,2.62,3.42
9.8220,0.07,0.12,-0.99,3.36,2.26,2.62
9.8390,0.08,0.12,-0.99,3.60,2.26,2.50
9.8560,0.07,0.12,-0.99,3.36,2.32,2.56
9.8720,0.07,0.11,-0.99,3.60,1.95,2.56
9.8890,0.07,0.12,-0.99,3.30,2.08,2.69
9.9050,0.07,0.12,-0.99,3.17,1.95,2.75
9.9210,0.07,0.11,-0.99,3.60,1.89,2.93
9.9370,0.07,0.12,-0.99,3.48,1.83,2.87
9.9530,0.07,0.12,-0.99,3.30,2.20,3.05
9.9690,0.07,0.12,-0.99,3.17,2.14,2.62
9.9850,0.07,0.12,-0.99,3.11,2.62,2.99
10.0020,0.07,0.12,-0.99,3.66,2.44,3.42
10.0060,0.07,0.12,-0.99,3.54,2.38,3.30
10.0210,0.07,0.12,-0.99,3.17,2.08,2.87
10.0500,0.07,0.11,-0.99,3.36,2.20,2.75
10.0650,0.07,0.12,-0.99,3.48,2.14,2.87
10.0800,0.08,0.13,-0.99,3.11,1.71,3.36
10.0950,0.08,0.12,-0.99,3.48,1.83,3.85
10.1100,0.08,0.13,-0.98,3.23,2.01,4.03
10.1210,0.07,0.11,-0.99,3.54,2.08,4.21
10.1410,0.07,0.11,-0.99,2.99,1.71,3.78
10.1540,0.07,0.11,-0.99,2.99,2.14,3.72
10.1710,0.07,0.11,-0.99,3.42,1.83,3.42
10.1860,0.07,0.11,-0.99,3.30,2.32,2.81
10.2030,0.08,0.13,-0.99,3.36,2.56,2.32
10.2200,0.07,0.12,-0.99,3.54,1.71,2.87
10.2360,0.07,0.11,-0.99,3.54,2.32,2.99
10.2510,0.07,0.12,-0.99,3.17,2.44,2.62
10.2670,0.07,0.12,-0.99,3.23,2.01,2.56
10.2830,0.07,0.12,-0.99,3.23,2.32,2.50
10.2990,0.07,0.12,-0.99,3.23,2.50,2.62
10.3040,0.07,0.13,-0.99,3.36,2.14,2.08
10.3300,0.07,0.12,-0.99,3.17,2.26,2.69
10.3400,0.07,0.12,-0.99,3.36,2.32,2.87
10.3520,0.07,0.11,-0.99,3.36,2.50,2.62
10.3720,0.07,0.12,-0.99,3.36,2.26,2.38
10.3890,0.07,0.12,-0.99,3.36,1.95,2.26
10.4050,0.07,0.12,-0.99,3.36,2.14,2.38
10.4220,0.07,0.13,-0.99,3.23,2.32,2.50
10.4400,0.07,0.12,-0.99,3.48,2.26,2.81
10.4550,0.07,0.12,-0.99,3.36,2.08,2.99
10.4710,0.07,0.12,-0.99,3.23,2.08,3.48
10.4870,0.07,0.12,-0.99,3.11,2.26,3.30
10.5020,0.07,0.11,-0.99,3.36,2.01,3.11
10.5180,0.07,0.12,-0.99,3.05,2.38,2.56
10.5320,0.07,0.12,-0.99,2.93,2.26,2.50
10.5390,0.07,0.12,-0.99,2.87,2.20,2.08
10.5530,0.07,0.12,-0.99,3.17,2.08,2.32
10.5750,0.07,0.12,-0.99,3.11,2.08,2.50
10.5910,0.07,0.12,-0.99,3.17,1.89,2.20
10.6080,0.07,0.12,-0.99,3.23,1.77,1.89
10.6240,0.07,0.12,-0.99,2.99,2.44,1.83
10.6420,0.07,0.12,-0.99,3.11,2.14,2.01
10.6420,0.07,0.12,-0.99,3.11,2.14,2.01
10.6710,0.07,0.12,-0.99,3.11,2.56,2.50
10.6740,0.07,0.12,-0.99,3.42,2.01,2.56
10.6910,0.07,0.12,-0.99,3.30,2.32,2.38
10.7070,0.07,0.12,-0.99,3.17,2.38,2.50
10.7260,0.07,0.12,-0.99,2.93,2.26,2.56
10.7420,0.07,0.12,-0.99,3.23,2.14,2.69
10.7590,0.07,0.12,-0.99,3.54,2.20,2.81
10.7750,0.07,0.12,-0.99,3.54,2.08,2.69
10.7920,0.07,0.12,-0.99,3.36,2.38,2.69
10.8080,0.07,0.12,-0.99,3.42,2.20,2.75
10.8250,0.08,0.12,-0.99,3.42,2.26,2.69
10.8400,0.07,0.12,-0.99,3.36,2.01,2.62
10.8420,0.07,0.12,-0.99,3.48,2.20,2.08
10.8720,0.07,0.12,-0.99,3.48,2.14,2.20
10.8880,0.07,0.12,-0.99,3.54,2.50,2.14
10.9040,0.07,0.12,-0.99,3.05,2.08,2.20
10.9200,0.07,0.12,-0.99,3.30,2.44,2.14
10.9240,0.07,0.12,-0.99,3.42,1.77,2.26
10.9390,0.07,0.12,-0.99,3.60,2.14,2.44
10.9650,0.07,0.12,-0.99,3.48,1.89,2.38
10.9800,0.07,0.12,-0.99,3.66,2.20,2.01
10.9810,0.07,0.12,-0.99,3.30,2.50,2.14
11.0110,0.07,0.12,-0.99,3.48,2.20,2.08
11.0270,0.07,0.12,-0.99,3.30,2.14,2.08
11.0420,0.07,0.12,-0.99,3.05,2.69,2.26
11.0590,0.07,0.12,-0.99,3.36,2.26,2.26
11.0740,0.07,0.12,-0.99,3.36,2.20,2.01
11.0900,0.07,0.12,-0.99,3.36,2.32,2.26
11.1070,0.07,0.12,-0.99,3.42,2.08,2.20
11.1230,0.07,0.12,-0.99,3.17,2.26,2.56
11.1380,0.07,0.12,-0.99,3.48,2.08,2.32
11.1540,0.07,0.12,-0.99,2.93,2.50,2.08
11.1620,0.08,0.12,-0.99,3.23,2.44,1.89
11.1780,0.07,0.12,-0.99,3.48,2.44,1.83
11.2010,0.07,0.12,-0.99,3.36,2.56,1.83
11.2170,0.07,0.12,-0.99,3.23,3.05,1.77
11.2340,0.07,0.12,-0.99,3.36,1.95,1.71
11.2490,0.07,0.12,-0.99,3.72,2.38,1.77
11.2650,0.07,0.12,-0.99,3.91,2.26,1.77
11.2810,0.07,0.12,-0.99,3.66,2.08,1.83
11.2970,0.07,0.12,-0.99,3.54,2.38,1.71
11.3130,0.07,0.12,-0.99,3.42,2.32,1.65
11.3280,0.07,0.12,-0.99,3.23,1.89,1.89
11.3430,0.07,0.12,-0.99,3.60,2.14,1.65
11.3590,0.07,0.12,-0.99,3.30,2.14,1.65
11.3760,0.07,0.12,-0.99,2.81,2.20,1.71
11.3830,0.07,0.12,-0.99,3.36,2.20,1.83
11.3990,0.07,0.12,-0.99,3.54,1.95,1.65
11.4220,0.07,0.12,-0.99,3.54,2.44,1.77
11.4370,0.07,0.12,-0.99,3.42,1.89,1.65
11.4380,0.07,0.12,-0.99,2.93,2.08,1.83
11.4690,0.07,0.12,-0.99,2.81,2.14,1.77
11.4850,0.08,0.12,-0.98,3.60,1.95,2.20
11.5010,0.07,0.12,-0.99,3.72,2.14,1.89
11.5170,0.07,0.12,-0.99,3.72,2.44,1.71
11.5200,0.07,0.12,-0.99,3.11,2.38,1.71
11.5350,0.07,0.12,-0.99,3.17,2.38,1.77
11.5570,0.07,0.12,-0.99,3.23,2.69,1.71
11.5730,0.07,0.12,-0.99,3.48,1.89,1.77
11.5890,0.07,0.12,-0.99,3.60,2.20,1.71
11.6080,0.07,0.12,-0.99,3.54,2.20,1.83
11.6120,0.07,0.12,-0.99,3.23,2.20,1.71
11.6330,0.07,0.12,-0.99,3.23,2.20,1.53
11.6530,0.07,0.12,-0.99,3.66,2.38,1.77
11.6690,0.07,0.12,-0.99,3.48,2.50,1.77
11.6780,0.08,0.12,-0.99,3.72,2.01,1.83
11.6950,0.08,0.12,-0.99,3.42,2.14,1.65
11.7110,0.07,0.12,-0.99,3.42,2.14,1.71
11.7280,0.07,0.12,-0.99,3.54,2.20,1.77
11.7450,0.07,0.12,-0.99,3.54,2.32,1.89
11.7610,0.07,0.12,-0.99,3.54,2.14,1.77
11.7770,0.07,0.12,-0.99,3.60,2.26,1.65
11.7940,0.07,0.12,-0.99,3.17,2.50,1.71
11.8110,0.07,0.12,-0.99,3.23,2.38,1.77
11.8270,0.08,0.13,-0.99,3.23,2.69,1.46
11.8410,0.07,0.13,-0.99,3.42,2.14,1.59
11.8560,0.07,0.11,-0.99,3.36,2.56,1.65
11.8730,0.07,0.12,-0.99,3.60,2.38,1.83
11.8880,0.08,0.12,-0.99,3.42,2.14,1.71
11.8940,0.08,0.13,-0.99,3.42,2.20,1.59
11.9100,0.07,0.12,-0.99,3.30,2.50,1.53
11.9320,0.07,0.11,-0.99,3.54,2.32,1.65
11.9490,0.07,0.12,-0.99,3.42,2.38,1.59
11.9650,0.07,0.12,-0.99,3.42,2.44,1.53
11.9820,0.07,0.12,-0.99,3.23,2.08,1.59
11.9830,0.07,0.12,-0.99,3.54,2.01,1.83
11.9990,0.07,0.12,-0.99,3.60,2.20,1.95
12.0290,0.07,0.12,-0.99,3.42,2.01,2.08
12.0450,0.07,0.12,-0.99,3.54,2.26,2.32
12.0480,0.07,0.12,-0.99,3.11,2.44,2.75
12.0640,0.07,0.12,-0.99,3.36,2.32,3.23
12.0850,0.07,0.12,-0.99,3.23,2.32,4.03
12.1030,0.07,0.12,-0.99,3.36,1.95,3.91
12.1190,0.07,0.11,-0.99,3.42,2.38,3.78
12.1350,0.07,0.12,-0.99,3.05,2.14,3.72
12.1520,0.07,0.12,-0.99,3.17,2.32,3.72
12.1680,0.07,0.12,-0.99,2.99,2.01,3.54
12.1840,0.07,0.12,-0.99,3.48,1.59,3.36
12.2010,0.07,0.12,-0.99,3.30,2.08,3.36
12.2160,0.07,0.12,-0.99,3.23,1.95,3.42
12.2320,0.07,0.12,-0.99,3.11,2.01,3.91
12.2350,0.08,0.12,-0.99,3.17,1.95,4.33
12.2510,0.08,0.11,-0.99,3.30,2.20,3.17
12.2790,0.07,0.12,-0.99,3.36,2.38,2.75
12.2840,0.07,0.12,-0.99,3.54,2.08,2.56
12.3000,0.07,0.12,-0.99,3.23,2.32,2.75
12.3200,0.07,0.12,-0.99,3.11,2.08,3.23
12.3370,0.07,0.12,-0.99,2.99,2.26,3.91
12.3530,0.07,0.11,-0.99,3.36,2.08,3.60
12.3690,0.07,0.11,-0.99,3.23,2.56,3.23
12.3850,0.07,0.12,-0.99,3.23,2.32,2.81
12.4030,0.07,0.13,-0.99,3.23,2.20,2.99
12.4180,0.07,0.13,-0.99,3.11,2.14,3.54
12.4340,0.07,0.12,-0.99,3.23,1.95,4.15
12.4500,0.08,0.12,-0.99,2.99,2.01,4.52
12.4650,0.07,0.11,-0.99,3.36,2.32,4.27
12.4820,0.08,0.12,-0.99,3.42,2.14,3.72
12.4970,0.08,0.12,-0.99,3.42,2.14,3.66
12.5020,0.08,0.13,-0.99,3.17,1.95,3.36
12.5280,0.07,0.12,-0.99,3.48,1.89,3.48
12.5400,0.07,0.12,-0.99,3.17,1.71,3.66
12.5570,0.07,0.12,-0.99,2.99,2.32,3.48
12.5740,0.07,0.11,-0.99,3.42,2.01,3.23
12.5890,0.07,0.12,-0.99,3.42,2.32,3.05
12.6050,0.07,0.12,-0.99,3.23,2.20,3.17
12.6210,0.07,0.12,-0.99,3.23,2.14,3.05
12.6350,0.08,0.12,-0.99,3.48,1.83,3.05
12.6500,0.08,0.12,-0.99,3.54,2.26,3.42
12.6560,0.07,0.12,-0.99,3.36,2.56,3.42
12.6740,0.07,0.12,-0.99,3.48,2.08,3.42
12.6890,0.08,0.12,-0.99,3.30,2.08,3.17
12.7070,0.07,0.12,-0.99,3.54,1.83,3.54
12.7230,0.07,0.11,-0.99,3.42,1.95,3.48
12.7400,0.07,0.12,-0.99,3.48,2.01,2.93
12.7550,0.07,0.12,-0.99,3.66,2.32,3.42
12.7710,0.07,0.12,-0.99,3.60,2.14,2.75
12.7880,0.07,0.12,-0.99,3.11,2.01,2.56
12.8040,0.07,0.12,-0.99,3.23,2.26,3.48
12.8190,0.08,0.12,-0.99,3.54,2.26,3.48
12.8350,0.07,0.12,-0.99,3.54,2.20,2.69
12.8510,0.08,0.12,-0.99,3.42,2.01,2.38
12.8550,0.07,0.12,-0.99,3.11,2.38,2.38
12.8810,0.08,0.12,-0.98,3.17,2.56,2.56
12.8960,0.07,0.12,-0.99,3.30,2.62,2.75
12.9110,0.07,0.12,-0.99,3.42,2.56,2.69
12.9270,0.07,0.12,-0.99,3.23,2.56,3.05
12.9420,0.07,0.13,-0.99,3.17,2.01,3.23
12.9540,0.07,0.13,-0.99,3.17,1.89,4.09
12.9710,0.07,0.12,-0.99,3.23,2.20,5.80
12.9870,0.07,0.12,-0.99,3.11,1.95,6.16
13.0040,0.08,0.11,-0.99,3.05,1.71,6.23
13.0190,0.08,0.12,-0.99,3.11,2.14,4.88
13.0370,0.08,0.13,-0.99,3.17,1.71,5.00
13.0520,0.07,0.12,-0.99,2.93,1.71,5.74
13.0670,0.08,0.11,-0.99,2.56,2.20,5.74
13.0810,0.07,0.12,-0.99,2.87,2.56,4.64
13.0970,0.07,0.12,-0.99,2.93,2.38,4.52
13.1130,0.07,0.12,-0.99,3.36,2.01,4.09
13.1270,0.07,0.12,-0.99,3.23,2.38,4.15
13.1430,0.07,0.13,-0.99,3.23,2.20,4.94
13.1580,0.07,0.11,-0.99,3.11,2.20,5.43
13.1690,0.08,0.11,-0.99,3.23,2.01,4.27
13.1860,0.08,0.12,-0.99,3.30,1.95,3.97
13.2030,0.08,0.12,-0.99,3.23,2.01,4.03
13.2190,0.07,0.12,-0.99,3.05,2.44,3.91
13.2350,0.07,0.12,-0.99,2.99,1.89,3.97
13.2520,0.07,0.12,-0.99,2.81,2.32,4.46
13.2670,0.07,0.12,-0.99,3.17,2.01,4.52
13.2700,0.07,0.12,-0.99,3.05,1.71,4.88
13.3000,0.07,0.12,-0.99,3.23,1.95,5.00
13.3020,0.07,0.12,-0.99,3.23,1.71,5.00
13.3230,0.07,0.12,-0.99,2.99,1.89,5.07
13.3470,0.08,0.12,-0.99,2.99,2.26,5.37
13.3560,0.07,0.12,-0.99,3.05,1.83,5.37
13.3730,0.07,0.12,-0.99,3.11,1.95,5.25
13.3890,0.08,0.12,-0.99,2.93,1.77,5.86
13.4060,0.08,0.11,-0.99,3.23,1.77,5.00
13.4230,0.08,0.12,-0.99,3.23,2.01,4.09
13.4380,0.08,0.12,-0.99,3.23,1.83,3.36
13.4550,0.07,0.12,-0.99,3.36,2.14,3.60
13.4700,0.07,0.12,-0.99,3.11,2.01,3.97
13.4720,0.07,0.12,-0.99,3.17,1.71,4.46
13.5030,0.07,0.12,-0.99,3.23,1.89,4.94
13.5180,0.07,0.12,-0.99,3.30,1.71,4.88
13.5340,0.07,0.12,-0.99,3.23,1.89,4.76
13.5380,0.07,0.09,-0.99,3.11,2.20,4.88
13.5530,0.07,0.13,-0.99,2.99,2.08,5.13
13.5780,0.08,0.11,-0.99,3.11,1.71,5.37
13.5940,0.08,0.12,-0.99,2.99,2.01,5.07
13.6090,0.07,0.13,-0.99,2.93,2.01,5.19
13.6260,0.08,0.12,-0.99,2.87,1.95,5.37
13.6420,0.08,0.12,-0.99,3.17,2.20,4.82
13.6580,0.08,0.12,-0.99,3.30,2.32,5.00
13.6720,0.07,0.12,-0.99,3.11,1.04,5.07
13.6880,0.07,0.12,-0.99,3.05,1.89,5.37
13.7030,0.07,0.12,-0.99,2.56,2.08,5.37
13.7180,0.08,0.11,-0.99,2.93,2.01,5.13
13.7280,0.07,0.12,-0.99,3.36,2.14,4.09
13.7500,0.07,0.12,-0.99,3.05,1.95,4.76
13.7610,0.08,0.12,-0.99,2.93,1.89,5.07
13.7760,0.07,0.12,-0.99,2.93,2.20,5.43
13.7930,0.07,0.12,-0.99,3.05,2.20,5.43
13.8100,0.08,0.11,-0.99,3.11,2.26,5.19
13.8260,0.08,0.12,-0.99,3.05,2.14,4.15
13.8430,0.07,0.12,-0.99,2.99,2.20,3.91
13.8590,0.07,0.12,-0.99,3.17,2.01,3.48
13.8740,0.07,0.12,-0.99,3.23,2.20,3.72
13.8900,0.07,0.12,-0.99,3.23,2.01,4.09
13.8930,0.07,0.13,-0.99,3.30,1.59,4.58
13.9230,0.07,0.12,-0.99,3.48,1.65,5.37
13.9260,0.07,0.12,-0.99,3.48,1.77,5.43
13.9530,0.08,0.12,-0.99,3.11,1.46,5.25
13.9690,0.07,0.12,-0.99,3.17,1.77,5.13
13.9850,0.08,0.12,-0.99,3.23,1.77,5.07
14.0010,0.08,0.12,-0.99,3.05,1.83,5.19
14.0090,0.08,0.12,-0.99,3.05,1.83,5.37
14.0310,0.07,0.12,-0.99,3.11,2.14,5.55
14.0410,0.07,0.12,-0.99,2.87,2.32,5.49
14.0580,0.08,0.12,-0.99,2.99,1.95,5.37
14.0740,0.08,0.12,-0.99,2.87,2.20,4.88
14.0910,0.07,0.12,-0.99,2.99,2.26,4.88
14.1070,0.08,0.12,-0.99,3.05,1.95,4.70
14.1220,0.08,0.12,-0.99,3.05,1.65,3.78
14.1380,0.07,0.12,-0.99,2.75,2.20,4.33
14.1540,0.07,0.12,-0.99,3.23,1.77,4.46
14.1680,0.08,0.12,-0.99,3.42,1.77,4.09
14.1840,0.08,0.12,-0.99,3.17,1.89,3.78
14.1900,0.08,0.12,-0.99,3.30,1.65,3.54
14.2060,0.08,0.12,-0.99,3.48,1.89,3.48
14.2220,0.07,0.12,-0.99,3.23,1.95,3.91
14.2370,0.08,0.13,-0.99,3.17,1.71,4.15
14.2530,0.07,0.12,-0.99,3.23,1.59,4.27
14.2720,0.07,0.12,-0.99,3.30,1.40,4.70
14.2890,0.07,0.11,-0.99,3.23,2.01,4.33
14.3060,0.07,0.13,-0.99,2.81,2.20,4.33
14.3220,0.08,0.13,-0.99,2.81,1.89,5.31
14.3370,0.08,0.12,-0.99,3.11,1.77,5.31
14.3530,0.08,0.11,-0.99,3.05,1.83,5.49
14.3690,0.08,0.12,-0.99,2.87,1.95,4.27
14.3730,0.08,0.12,-0.99,2.99,1.95,4.52
14.3990,0.07,0.13,-0.99,3.23,1.83,5.43
14.4150,0.07,0.12,-0.99,3.05,1.46,5.68
14.4310,0.08,0.11,-0.99,3.05,1.65,5.62
14.4460,0.07,0.12,-0.99,3.05,1.89,4.64
14.4540,0.08,0.12,-0.99,2.56,1.77,5.00
14.4700,0.08,0.12,-0.99,2.99,1.46,5.37
14.4930,0.08,0.12,-0.99,3.48,1.53,5.00
14.5090,0.08,0.12,-0.99,3.54,1.40,4.82
14.5250,0.08,0.12,-0.99,3.23,1.89,4.21
14.5410,0.07,0.13,-0.99,2.93,2.50,4.52
14.5570,0.08,0.12,-0.99,2.87,2.08,5.49
14.5730,0.08,0.11,-0.99,3.60,2.08,4.88
14.5880,0.08,0.12,-0.99,3.48,1.89,4.09
14.6040,0.08,0.12,-0.99,2.81,2.08,4.52
14.6140,0.07,0.12,-0.99,2.75,2.08,4.52
14.6250,0.08,0.12,-0.99,3.11,1.95,4.52
14.6440,0.08,0.11,-0.99,3.23,2.14,4.39
14.6610,0.08,0.12,-0.99,3.36,1.95,3.85
14.6780,0.08,0.12,-0.99,3.23,2.20,3.36
14.6940,0.07,0.12,-0.99,2.93,1.89,3.42
14.7120,0.08,0.12,-0.99,3.42,1.89,4.46
14.7280,0.08,0.12,-0.99,3.42,1.71,4.33
14.7430,0.08,0.12,-0.99,3.48,1.89,4.64
14.7450,0.08,0.12,-0.99,3.23,1.95,4.46
14.7740,0.08,0.12,-0.99,3.54,2.20,3.72
14.7790,0.07,0.13,-0.99,3.23,2.32,3.85
14.7950,0.07,0.12,-0.99,2.81,2.20,4.46
14.8130,0.08,0.12,-0.99,2.81,1.89,5.00
14.8290,0.07,0.12,-0.99,3.05,1.77,5.13
14.8460,0.07,0.12,-0.99,2.93,2.56,5.68
14.8610,0.07,0.12,-0.99,3.30,2.26,5.00
14.8790,0.08,0.11,-0.99,3.17,1.95,4.70
14.8950,0.08,0.11,-0.99,3.23,2.50,3.66
14.9110,0.08,0.12,-0.99,3.36,2.32,3.30
14.9140,0.07,0.12,-0.99,3.48,2.26,3.42
14.9290,0.08,0.12,-0.99,3.42,2.01,3.97
14.9450,0.07,0.12,-0.99,3.66,2.26,4.09
14.9730,0.08,0.12,-0.99,3.85,2.32,4.76
14.9850,0.08,0.12,-0.99,3.85,2.14,4.52
15.0020,0.08,0.13,-0.99,3.36,2.32,4.76
15.0180,0.07,0.12,-0.99,3.05,2.26,4.88
15.0340,0.07,0.12,-0.99,3.42,2.44,4.94
15.0500,0.08,0.12,-0.99,3.48,2.01,4.76
15.0650,0.08,0.12,-0.99,3.11,2.44,3.78
15.0810,0.08,0.12,-0.99,3.23,2.26,2.75
15.0850,0.08,0.12,-0.99,3.54,2.01,2.50
15.1000,0.08,0.12,-0.99,3.36,2.56,2.50
15.1210,0.08,0.12,-0.99,3.36,2.56,2.44
15.1380,0.08,0.12,-0.99,3.54,2.69,2.08
15.1540,0.08,0.12,-0.99,3.30,2.44,2.08
15.1710,0.08,0.12,-0.99,3.54,2.38,1.95
15.1870,0.08,0.12,-0.99,3.54,2.50,2.08
15.2020,0.08,0.12,-0.99,3.78,2.14,1.83
15.2170,0.07,0.12,-0.99,3.54,2.38,1.77
15.2320,0.07,0.12,-0.99,3.17,2.50,1.95
15.2470,0.08,0.12,-0.99,3.30,2.62,1.89
15.2530,0.08,0.12,-0.99,3.48,2.62,1.83
15.2690,0.07,0.12,-0.99,3.54,2.32,1.83
15.2910,0.07,0.12,-0.99,3.48,2.38,2.01
15.3070,0.08,0.12,-0.99,3.60,2.26,1.95
15.3240,0.08,0.12,-0.99,3.17,2.87,1.89
15.3400,0.08,0.12,-0.99,3.36,2.01,1.65
15.3420,0.08,0.12,-0.99,3.36,2.75,1.71
15.3570,0.07,0.12,-0.99,3.78,2.44,1.77
15.3870,0.07,0.12,-0.99,3.60,2.56,1.71
15.4030,0.08,0.12,-0.99,3.60,2.56,1.65
15.4090,0.08,0.12,-0.99,3.30,2.81,1.16
15.4230,0.08,0.12,-0.99,3.17,2.26,1.59
15.4440,0.08,0.12,-0.99,3.30,2.50,1.65
15.4600,0.08,0.12,-0.99,3.42,2.50,2.01
15.4750,0.08,0.12,-0.99,3.42,2.50,1.77
15.4940,0.08,0.12,-0.99,3.48,2.56,1.83
15.5090,0.08,0.12,-0.99,3.30,2.44,1.83
15.5250,0.07,0.12,-0.99,3.48,2.38,1.89
15.5310,0.07,0.12,-0.99,3.54,2.38,1.77
15.5470,0.07,0.12,-0.99,3.30,2.32,1.83
15.5690,0.07,0.12,-0.99,3.23,2.26,1.71
15.5840,0.08,0.12,-0.99,3.36,2.38,1.77
15.6010,0.08,0.12,-0.99,3.54,2.44,1.89
15.6170,0.08,0.12,-0.99,3.78,2.62,1.83
15.6330,0.08,0.12,-0.99,4.03,2.20,1.89
15.6480,0.07,0.14,-1.00,4.39,2.08,1.65
15.6650,0.08,0.12,-0.99,4.03,2.44,1.83
15.6670,0.08,0.12,-0.99,4.15,2.62,1.83
15.6820,0.08,0.12,-0.99,3.85,2.50,1.71
15.7070,0.08,0.12,-0.99,3.54,2.44,1.77
15.7200,0.08,0.12,-0.99,2.75,2.69,1.83
15.7370,0.08,0.12,-0.99,2.56,2.81,1.77
15.7530,0.08,0.12,-0.98,2.14,3.23,1.65
15.7700,0.08,0.12,-0.99,2.32,2.75,1.65
15.7870,0.08,0.12,-0.98,2.87,2.75,1.59
15.8030,0.07,0.12,-0.99,3.42,2.56,1.22
15.8190,0.07,0.12,-0.99,3.36,2.38,1.22
15.8360,0.07,0.12,-0.99,3.60,2.69,1.59
15.8370,0.07,0.12,-0.99,3.60,2.62,1.53
15.8670,0.07,0.12,-0.99,3.54,2.50,1.59
15.8700,0.08,0.12,-0.99,3.66,2.44,1.34
15.8860,0.08,0.12,-0.99,3.66,2.44,1.28
15.9080,0.07,0.12,-0.99,3.60,2.20,1.40
15.9250,0.08,0.12,-0.99,3.42,2.62,1.16
15.9410,0.08,0.12,-0.99,3.78,2.56,1.28
15.9570,0.07,0.12,-0.99,3.78,2.44,1.46
15.9750,0.08,0.12,-0.99,3.66,2.20,1.40
15.9910,0.08,0.12,-0.99,3.48,2.50,1.71
16.0070,0.08,0.12,-0.99,3.66,2.26,1.40
16.0220,0.07,0.12,-0.99,3.42,2.81,1.53
16.0390,0.08,0.12,-0.99,3.36,2.56,1.77
16.0540,0.07,0.12,-0.99,3.36,2.26,1.71
16.0700,0.08,0.12,-0.99,3.42,2.38,1.77
16.0860,0.07,0.12,-0.99,3.54,2.69,1.59
16.1020,0.08,0.12,-0.99,3.36,2.44,1.65
16.1160,0.08,0.12,-0.99,3.17,2.56,1.77
16.1320,0.08,0.12,-0.99,3.48,2.38,1.77
16.1470,0.07,0.12,-0.99,3.54,2.87,2.01
16.1560,0.08,0.12,-0.99,3.54,2.44,1.83
16.1720,0.07,0.12,-0.99,3.05,2.32,1.77
16.1930,0.07,0.12,-0.99,3.23,2.08,1.71
16.2080,0.08,0.12,-0.99,3.54,2.20,1.83
16.2230,0.08,0.12,-0.99,3.54,2.69,1.83
16.2400,0.08,0.12,-0.99,3.17,2.26,1.65
16.2560,0.07,0.12,-0.99,3.23,2.26,1.83
16.2710,0.08,0.12,-0.99,3.30,2.69,1.83
16.2780,0.07,0.13,-0.99,2.93,2.20,1.40
16.2940,0.08,0.12,-0.99,2.93,2.38,1.71
16.3160,0.07,0.12,-0.99,2.56,2.20,1.71
16.3320,0.07,0.12,-0.99,2.62,2.50,1.77
16.3490,0.08,0.12,-0.99,2.81,2.62,1.95
16.3510,0.07,0.12,-0.99,2.93,2.32,1.83
16.3820,0.07,0.12,-0.99,2.93,2.44,1.89
16.3980,0.07,0.12,-0.99,3.05,2.44,1.83
16.4030,0.08,0.12,-0.99,3.05,2.38,1.65
16.4160,0.07,0.12,-0.99,2.56,2.56,1.83
16.4370,0.08,0.12,-0.99,2.75,2.50,1.46
16.4530,0.08,0.12,-1.00,2.01,2.81,1.16
16.4710,0.07,0.12,-1.00,-0.18,3.23,1.16
16.4870,0.08,0.13,-1.01,-3.48,3.36,1.04
16.5040,0.08,0.13,-1.02,-6.47,4.03,0.43
16.5200,0.07,0.12,-1.00,-12.21,4.64,0.12
16.5370,0.08,0.11,-1.03,-14.89,6.65,0.37
16.5530,0.08,0.10,-1.01,-18.98,10.31,0.00
16.5670,0.07,0.10,-1.01,-19.23,15.14,2.01
16.5830,0.06,0.07,-1.01,-17.15,20.87,6.90
16.5980,0.04,0.06,-0.98,-9.09,30.70,8.91
16.6140,0.05,0.09,-0.98,5.25,28.14,3.72
16.6300,0.03,0.07,-0.97,16.60,24.90,-0.43
16.6460,0.04,0.08,-1.02,23.68,26.31,-1.04
16.6610,0.04,0.10,-1.01,18.68,29.85,-2.56
16.6760,0.03,0.11,-1.03,22.83,33.45,-2.20
16.6860,0.01,0.10,-1.05,27.28,35.95,-3.66
16.7020,-0.01,0.09,-1.01,28.38,38.51,-4.27
16.7180,-0.05,0.04,-0.97,31.01,45.53,-9.22
16.7380,-0.09,-0.03,-1.01,28.99,50.23,-12.08
16.7540,-0.08,-0.01,-1.06,21.73,52.00,-19.23
16.7690,-0.06,0.10,-1.02,22.46,54.02,-27.40
16.7860,-0.05,0.22,-0.95,19.35,50.78,-24.17
16.8020,-0.05,0.25,-0.85,12.76,37.60,-18.37
16.8070,-0.08,0.19,-0.84,7.51,23.80,-13.12
16.8220,-0.11,0.08,-0.94,6.90,14.16,-14.89
16.8450,-0.13,0.03,-1.07,7.51,16.78,-26.43
16.8620,-0.12,0.04,-1.09,6.59,20.02,-34.73
16.8790,-0.09,0.20,-1.02,0.00,23.01,-31.74
16.8960,-0.08,0.30,-0.89,-0.61,16.72,-22.16
16.9120,-0.11,0.25,-0.81,9.52,3.97,-15.99
16.9280,-0.11,0.16,-0.87,6.23,-4.76,-12.15
16.9450,-0.10,0.09,-0.96,-3.36,-13.67,-13.18
16.9610,-0.09,0.12,-1.02,-12.45,-16.66,-15.14
16.9780,-0.08,0.17,-1.00,-14.83,-17.03,-12.39
16.9930,-0.08,0.20,-1.00,-4.88,-15.87,-12.02
17.0000,-0.09,0.19,-0.96,-3.48,-12.33,-7.57
17.0260,-0.05,0.17,-0.96,-7.69,-13.31,-3.72
17.0270,-0.05,0.14,-0.99,-9.03,-16.66,-4.03
17.0440,-0.06,0.14,-1.02,-7.14,-16.72,-4.39
17.0600,-0.06,0.14,-1.05,-7.75,-14.22,-3.23
17.0770,-0.05,0.14,-0.99,-6.16,-8.61,-0.92
17.0990,-0.05,0.12,-1.00,1.10,-5.92,-3.11
17.1100,-0.03,0.14,-1.00,-0.98,-5.74,-4.58
17.1260,-0.03,0.16,-1.00,-4.88,-5.07,-3.23
17.1540,-0.03,0.14,-0.99,-1.22,-4.82,-2.01
17.1640,-0.03,0.11,-1.00,1.71,-3.85,-2.08
17.1800,-0.03,0.11,-1.02,0.67,-2.62,-2.38
17.1990,-0.04,0.14,-1.00,-1.04,-0.98,-2.75
17.2130,-0.03,0.14,-0.98,-0.49,-0.92,-0.85
17.2300,-0.03,0.12,-0.95,-0.24,-2.56,-15.63
17.2470,-0.02,0.12,-0.97,-2.08,-6.23,-1.34
17.2620,-0.02,0.12,-0.99,-7.87,-5.74,-0.85
17.2790,-0.01,0.12,-1.06,-1.59,-9.95,-2.99
17.2980,-0.03,0.10,-1.01,1.65,-7.51,-0.67
17.3120,0.00,0.11,-0.99,2.32,-5.49,-1.28
17.3290,0.00,0.10,-0.98,-0.67,-9.03,-2.26
17.3470,-0.01,0.11,-0.98,-2.99,-14.10,-2.38
17.3630,-0.01,0.11,-0.99,0.43,-15.50,-1.16
17.3780,0.00,0.11,-1.00,2.87,-14.89,-1.16
17.3970,0.02,0.12,-0.99,1.53,-14.22,-0.24
17.4110,0.04,0.10,-1.00,1.59,-16.42,0.49
17.4280,0.03,0.10,-0.99,1.10,-16.11,-1.28
17.4440,0.03,0.11,-0.96,1.59,-18.31,-1.59
17.4600,0.04,0.10,-1.00,4.15,-21.36,-1.04
17.4620,0.06,0.10,-0.99,3.72,-20.57,-1.10
17.4780,0.06,0.11,-0.99,7.63,-17.58,-0.18
17.4970,0.07,0.09,-0.99,10.31,-13.98,-0.37
17.5240,0.05,0.10,-1.07,17.15,-9.70,-0.06
17.5400,0.08,0.10,-1.00,7.75,-0.37,3.36
17.5560,0.07,0.13,-0.98,6.47,0.92,2.81
17.5710,0.07,0.12,-0.99,11.35,0.24,1.16
17.5860,0.07,0.10,-1.00,8.18,0.98,1.59
17.5960,0.07,0.13,-0.98,5.62,1.65,2.62
17.6100,0.08,0.12,-0.99,6.10,1.10,2.32
17.6270,0.07,0.13,-0.99,4.52,2.14,2.14
17.6430,0.07,0.12,-0.99,4.21,1.83,2.87
17.6610,0.08,0.10,-0.99,4.09,1.83,3.97
17.6760,0.08,0.09,-0.99,3.48,2.32,2.32
17.6910,0.07,0.11,-0.99,3.66,2.56,1.59
17.7070,0.08,0.12,-0.99,2.99,2.75,1.59
17.7220,0.08,0.13,-0.99,3.78,2.62,1.10
17.7370,0.07,0.11,-0.99,3.91,2.81,0.67
17.7470,0.07,0.11,-0.99,4.15,2.81,0.79
17.7630,0.08,0.12,-0.99,3.97,2.69,0.92
17.7790,0.08,0.12,-0.99,3.91,2.62,0.61
17.7960,0.07,0.12,-0.99,4.33,2.50,0.55
17.8130,0.07,0.12,-0.99,4.09,2.44,0.55
17.8300,0.08,0.12,-0.99,4.27,2.81,0.73
17.8460,0.07,0.12,-0.99,3.91,2.62,0.37
17.8620,0.08,0.12,-0.99,3.54,2.38,0.73
17.8790,0.07,0.12,-0.99,3.72,2.08,0.43
17.8930,0.07,0.12,-0.99,3.85,2.32,0.12
17.8960,0.07,0.12,-0.99,3.66,2.87,0.12
17.9270,0.08,0.12,-0.99,3.23,2.38,0.55
17.9300,0.08,0.13,-0.99,2.69,2.38,0.98
17.9590,0.07,0.12,-0.99,2.87,2.44,1.04
17.9750,0.07,0.12,-0.99,3.60,2.32,1.46
17.9790,0.08,0.12,-0.99,3.36,2.44,1.40
18.0060,0.08,0.12,-0.99,3.42,2.26,1.04
18.0230,0.08,0.12,-0.99,3.36,2.08,1.10
18.0380,0.08,0.12,-0.99,2.99,2.26,1.22
18.0530,0.07,0.11,-0.99,3.36,2.75,0.92
18.0610,0.07,0.11,-0.99,3.54,2.56,0.55
18.0780,0.08,0.12,-0.99,3.78,2.56,0.12
18.0940,0.08,0.12,-0.99,3.42,3.05,-0.24
18.1110,0.06,0.12,-0.99,3.05,2.75,-0.49
18.1290,0.06,0.11,-0.99,3.17,2.44,0.12
18.1440,0.07,0.12,-0.99,3.48,2.44,0.73
18.1600,0.08,0.12,-0.99,3.23,2.81,0.24
18.1760,0.08,0.12,-0.99,3.23,2.62,-0.18
18.1920,0.08,0.12,-0.99,3.30,2.75,-0.55
18.2080,0.06,0.12,-0.99,3.42,2.75,-0.55
18.2100,0.06,0.12,-0.99,3.72,2.20,0.24
18.2260,0.06,0.12,-0.99,3.97,2.08,0.31
18.2420,0.07,0.12,-0.99,3.23,2.62,0.98
18.2690,0.08,0.12,-0.99,3.17,2.69,0.92
18.2800,0.07,0.12,-0.99,3.36,2.44,0.67
18.2970,0.07,0.12,-0.99,3.60,2.50,0.61
18.3130,0.07,0.12,-0.99,3.30,2.56,0.92
18.3300,0.07,0.12,-0.99,3.30,2.32,0.92
18.3460,0.07,0.12,-0.99,3.36,2.44,1.04
18.3630,0.07,0.12,-0.99,3.42,2.50,1.46
18.3790,0.07,0.12,-0.99,3.60,2.26,1.65
18.3950,0.08,0.12,-0.99,3.97,2.01,1.53
18.4100,0.08,0.12,-0.99,3.85,2.01,1.28
18.4250,0.07,0.12,-0.99,3.54,2.32,1.04
18.4410,0.07,0.12,-0.99,3.54,2.08,0.85
18.4560,0.07,0.12,-0.99,3.97,2.38,0.61
18.4720,0.08,0.12,-0.99,3.72,2.75,0.61
18.4880,0.07,0.13,-0.99,3.23,2.62,0.12
18.5040,0.07,0.12,-0.99,3.05,2.56,1.10
18.5120,0.08,0.12,-0.99,3.66,2.56,1.40
18.5280,0.07,0.12,-0.99,3.66,2.69,1.22
18.5510,0.07,0.12,-0.99,3.66,2.38,0.85
18.5660,0.07,0.12,-0.99,2.93,2.32,0.98
18.5820,0.07,0.12,-0.99,2.87,2.69,1.40
18.5900,0.07,0.12,-0.99,3.54,2.81,1.53
18.6140,0.07,0.12,-0.99,3.48,2.87,1.46
18.6170,0.07,0.12,-0.99,3.54,2.38,1.28
18.6330,0.08,0.12,-0.99,3.60,2.20,1.46
18.6480,0.07,0.12,-0.99,3.97,2.14,1.28
18.6700,0.07,0.12,-0.99,4.27,2.08,1.40
18.6900,0.07,0.12,-0.99,4.03,2.01,1.22
18.7030,0.07,0.12,-0.99,3.72,2.20,1.10
18.7240,0.08,0.12,-0.99,3.54,2.32,0.98
18.7390,0.08,0.12,-0.99,3.60,1.95,0.98
18.7540,0.08,0.12,-0.99,3.66,2.38,0.55
18.7700,0.07,0.12,-0.99,3.97,2.50,0.37
18.7860,0.07,0.13,-0.99,4.09,1.95,0.61
18.8000,0.08,0.12,-0.99,3.23,2.75,0.61
18.8150,0.07,0.11,-0.99,3.72,2.69,0.24
18.8240,0.07,0.12,-0.99,4.09,2.44,-0.37
18.8400,0.07,0.13,-0.99,3.85,2.44,-0.12
18.8630,0.07,0.12,-0.99,3.60,2.56,0.55
18.8740,0.07,0.12,-0.99,3.66,2.32,0.73
18.8890,0.07,0.13,-0.99,3.54,2.26,1.04
18.9090,0.07,0.12,-0.99,3.17,2.32,1.59
18.9120,0.07,0.12,-0.99,2.99,2.56,1.71
18.9390,0.07,0.12,-0.99,3.60,2.20,1.77
18.9460,0.08,0.12,-0.99,3.23,2.38,1.65
18.9610,0.07,0.12,-0.99,3.05,2.44,1.89
18.9790,0.08,0.12,-0.99,3.05,2.14,1.65
18.9960,0.08,0.12,-0.99,3.42,2.56,1.83
19.0110,0.08,0.12,-0.99,3.11,2.32,1.89
19.0320,0.08,0.12,-0.99,3.36,2.32,1.65
19.0390,0.07,0.12,-0.99,3.54,2.38,1.83
19.0630,0.08,0.12,-0.99,3.36,2.62,1.59
19.0780,0.07,0.12,-0.99,2.99,2.56,1.71
19.0940,0.08,0.12,-0.99,3.05,2.26,1.71
19.1010,0.08,0.12,-0.99,3.17,2.38,1.77
19.1170,0.08,0.12,-0.99,3.78,2.26,1.40
19.1400,0.07,0.12,-0.99,3.42,2.32,0.98
19.1400,0.07,0.12,-0.99,3.11,2.01,1.16
19.1700,0.07,0.12,-0.99,3.17,2.44,1.53
19.1720,0.07,0.12,-0.99,3.17,2.56,1.46
19.2000,0.07,0.12,-0.99,3.72,2.32,1.34
19.2060,0.08,0.12,-0.99,3.54,2.44,1.22
19.2220,0.07,0.12,-0.99,3.54,2.01,1.40
19.2380,0.07,0.12,-0.99,3.42,2.87,1.28
19.2630,0.08,0.12,-0.99,3.30,2.20,1.46
19.2720,0.07,0.12,-0.99,3.11,2.14,1.53
19.2890,0.07,0.12,-0.99,3.60,2.75,1.53
19.3050,0.07,0.12,-0.99,3.17,2.81,1.46
19.3210,0.08,0.12,-0.99,2.75,2.75,1.71
19.3380,0.07,0.12,-0.99,3.48,2.87,1.65
19.3540,0.07,0.12,-0.99,3.54,2.56,1.22
19.3700,0.07,0.12,-0.99,3.42,2.38,0.98
19.3700,0.08,0.12,-0.99,2.81,1.95,1.10
19.3880,0.07,0.12,-0.99,3.23,2.20,1.46
19.4170,0.07,0.12,-0.99,3.66,2.20,1.53
19.4330,0.07,0.12,-0.99,3.78,2.20,1.16
19.4470,0.08,0.12,-0.99,3.48,2.32,0.92
19.4640,0.07,0.12,-0.99,3.30,2.44,1.04
19.4790,0.07,0.12,-0.99,3.48,2.32,0.85
19.4950,0.07,0.12,-0.99,3.30,2.38,0.85
19.5040,0.07,0.12,-0.99,3.60,2.32,1.04
19.5190,0.07,0.12,-0.99,3.42,2.50,0.98
19.5360,0.08,0.12,-0.99,3.66,2.56,0.98
19.5520,0.07,0.12,-0.99,3.36,2.26,0.85
19.5700,0.07,0.12,-0.99,3.48,2.38,1.10
19.5860,0.08,0.12,-0.99,3.78,2.38,1.04
19.6010,0.08,0.12,-0.99,3.17,2.69,0.67
19.6030,0.07,0.12,-0.99,3.17,2.50,0.85
19.6330,0.07,0.12,-0.99,3.23,2.56,1.22
19.6480,0.07,0.12,-0.99,3.78,2.50,1.22
19.6630,0.07,0.12,-0.99,3.72,2.32,1.34
19.6800,0.08,0.12,-0.99,3.72,1.95,1.16
19.6850,0.08,0.12,-0.99,3.36,2.38,1.04
19.7030,0.08,0.12,-0.99,3.78,2.62,0.73
19.7260,0.07,0.12,-0.99,3.42,3.11,0.73
19.7350,0.07,0.11,-0.99,3.97,2.62,0.79
19.7510,0.07,0.12,-0.99,4.15,2.69,0.55
19.7680,0.07,0.12,-0.99,3.30,2.56,0.61
19.7840,0.07,0.12,-0.99,3.42,2.20,0.92
19.8010,0.08,0.12,-0.99,3.48,2.44,0.92
19.8170,0.07,0.12,-0.99,4.03,2.14,0.79
19.8350,0.07,0.12,-0.99,3.66,2.20,0.79
19.8510,0.07,0.12,-0.99,3.54,2.50,1.04
19.8670,0.07,0.12,-0.99,3.66,2.44,0.98
19.8810,0.06,0.12,-0.99,3.60,2.62,1.10
19.8850,0.07,0.12,-0.99,3.48,2.62,1.28
19.9000,0.07,0.12,-0.99,3.30,2.50,1.34
19.9290,0.08,0.12,-0.99,3.91,2.62,1.59
19.9330,0.07,0.12,-0.99,3.97,2.26,1.40
19.9610,0.07,0.12,-0.99,3.78,2.56,1.22
19.9770,0.08,0.12,-0.99,3.60,2.32,1.22
19.9930,0.07,0.12,-0.99,3.85,2.26,1.10
20.0090,0.07,0.12,-0.99,3.72,2.38,0.98
20.0230,0.07,0.12,-0.99,3.66,2.08,0.85
20.0330,0.08,0.12,-0.99,3.72,2.56,0.73
20.0490,0.07,0.12,-0.99,3.85,2.50,0.92
20.0660,0.08,0.12,-0.99,3.48,2.44,1.04
20.0820,0.07,0.12,-0.99,3.78,2.69,0.73
20.0980,0.07,0.12,-0.99,3.54,2.32,0.85
20.1160,0.07,0.12,-0.99,3.91,2.38,0.92
20.1310,0.07,0.12,-0.99,3.54,2.32,0.85
20.1460,0.07,0.12,-0.99,3.48,2.14,0.85
20.1630,0.07,0.12,-0.99,3.30,2.62,0.98
20.1790,0.07,0.12,-0.99,3.66,2.44,1.16
20.1940,0.07,0.12,-0.99,3.36,2.14,1.28
20.2090,0.07,0.12,-0.99,3.23,2.38,1.46
20.2250,0.07,0.12,-0.99,2.99,2.56,1.59
20.2410,0.07,0.12,-0.99,3.60,2.08,1.53
20.2560,0.08,0.12,-0.99,3.60,2.14,1.65
20.2720,0.08,0.12,-0.99,3.05,2.38,1.59
20.2810,0.07,0.12,-0.99,3.11,2.26,1.40
20.2970,0.07,0.12,-0.99,3.17,2.44,1.71
20.3130,0.07,0.12,-0.99,3.36,2.62,1.65
20.3310,0.07,0.12,-0.99,3.36,2.01,1.40
20.3470,0.07,0.12,-0.99,3.30,2.32,1.46
20.3620,0.07,0.12,-0.99,3.17,2.50,1.65
20.3650,0.07,0.12,-0.99,3.42,2.56,1.59
20.3920,0.07,0.12,-0.99,3.78,2.26,1.46
20.4080,0.07,0.12,-0.99,3.54,2.20,1.53
20.4240,0.07,0.12,-0.99,3.30,2.38,1.59
20.4390,0.07,0.12,-0.99,3.30,2.08,1.53
20.4460,0.08,0.12,-0.99,3.72,2.62,1.59
20.4620,0.08,0.12,-0.99,3.42,2.44,1.53
20.4820,0.08,0.12,-0.99,3.42,2.62,1.34
20.4980,0.07,0.12,-0.99,3.54,2.14,1.46
20.5150,0.07,0.12,-0.99,3.36,2.26,1.46
20.5300,0.07,0.12,-0.99,3.48,2.69,1.59
20.5460,0.07,0.12,-0.99,3.05,2.44,1.65
20.5610,0.07,0.12,-0.99,3.66,2.20,1.71
20.5770,0.07,0.12,-0.99,3.72,2.44,1.65
20.5920,0.07,0.12,-0.99,3.66,2.56,1.59
20.6070,0.07,0.12,-0.99,3.48,1.95,1.65
20.6240,0.07,0.12,-0.99,3.36,2.08,1.65
20.6390,0.07,0.12,-0.99,3.17,2.44,1.65
20.6480,0.07,0.12,-0.99,3.42,2.56,1.71
20.6700,0.08,0.12,-0.99,3.42,2.50,1.71
20.6810,0.07,0.12,-0.99,3.48,2.44,1.77
20.6970,0.07,0.12,-0.99,3.54,1.95,1.65
20.7160,0.07,0.12,-0.99,3.60,2.38,1.71
20.7300,0.07,0.12,-0.99,3.54,2.26,1.65
20.7450,0.07,0.12,-0.99,3.48,2.44,1.65
20.7620,0.07,0.12,-0.99,3.48,2.69,1.77
20.7780,0.08,0.12,-0.99,3.66,2.20,1.77
20.7840,0.07,0.12,-0.99,3.48,2.62,1.71
20.8110,0.07,0.12,-0.99,3.36,2.14,1.77
20.8270,0.07,0.12,-0.99,3.42,2.38,1.77
20.8420,0.07,0.12,-0.99,3.60,2.32,1.71
20.8500,0.07,0.12,-0.99,3.48,2.20,1.83
20.8660,0.07,0.12,-0.99,3.72,1.89,1.71
20.8830,0.07,0.12,-0.99,3.66,1.71,1.65
20.8990,0.07,0.12,-0.99,3.48,2.50,1.89
20.9210,0.07,0.12,-0.99,3.05,2.14,1.71
20.9380,0.07,0.12,-0.99,2.81,2.62,1.83
20.9400,0.07,0.12,-0.99,2.62,2.81,1.89
20.9690,0.07,0.13,-0.99,2.44,2.56,2.08
20.9850,0.07,0.12,-0.99,2.81,2.56,2.01
21.0010,0.07,0.12,-0.99,3.48,2.20,1.77
21.0170,0.07,0.12,-0.99,3.54,2.32,1.77
21.0320,0.07,0.12,-0.99,3.54,2.32,1.71
21.0470,0.08,0.12,-0.99,3.66,2.14,1.59
21.0620,0.07,0.12,-0.99,3.72,2.26,1.83
21.0760,0.07,0.12,-0.99,3.54,2.75,1.77
21.0940,0.07,0.12,-0.99,3.23,2.32,1.65
21.1050,0.07,0.12,-0.99,3.30,2.50,1.83
21.1220,0.07,0.12,-0.99,3.48,2.44,1.71
21.1390,0.07,0.12,-0.99,3.42,2.32,1.71
21.1540,0.07,0.12,-0.99,3.48,2.26,1.83
21.1700,0.07,0.12,-0.99,3.42,2.69,1.65
21.1860,0.07,0.12,-0.99,3.54,1.95,1.83
21.1880,0.07,0.12,-0.99,3.42,2.20,1.65
21.2040,0.07,0.12,-0.99,3.11,2.44,1.71
21.2320,0.07,0.12,-0.99,3.17,2.20,1.65
21.2470,0.07,0.12,-0.99,3.11,2.50,1.71
21.2580,0.07,0.12,-0.99,3.54,2.44,1.59
21.2740,0.08,0.12,-0.99,3.42,2.50,1.77
21.2920,0.07,0.12,-0.99,3.05,2.50,1.71
21.3080,0.08,0.12,-0.99,3.36,2.62,1.71
21.3250,0.07,0.12,-0.99,3.36,2.62,1.65
21.3410,0.07,0.12,-0.99,3.11,2.38,1.59
21.3560,0.07,0.12,-0.99,2.93,2.44,1.83
21.3720,0.07,0.12,-0.99,2.81,2.69,1.77
21.3740,0.07,0.12,-0.99,2.62,2.75,1.59
21.3890,0.07,0.12,-0.99,2.01,2.87,1.65
21.4120,0.07,0.12,-0.99,1.95,2.50,1.77
21.4280,0.07,0.12,-0.99,1.77,3.05,1.95
21.4450,0.07,0.12,-0.99,2.01,2.50,1.83
21.4610,0.07,0.12,-0.99,1.34,2.75,1.89
21.4770,0.07,0.11,-0.98,0.92,2.56,1.95
21.4940,0.07,0.11,-0.98,2.20,2.62,2.08
21.5110,0.07,0.12,-0.99,4.27,2.50,2.14
21.5270,0.08,0.12,-0.99,5.00,2.20,2.32
21.5430,0.07,0.12,-0.99,4.64,1.95,1.65
21.5450,0.07,0.12,-0.99,4.64,1.83,1.83
21.5730,0.07,0.12,-0.99,5.19,2.01,1.65
21.5780,0.07,0.12,-0.99,4.94,2.20,1.71
21.6030,0.07,0.12,-0.99,4.52,2.08,1.77
21.6100,0.08,0.12,-0.99,4.58,2.26,1.77
21.6340,0.08,0.12,-0.99,4.21,2.20,1.77
21.6430,0.08,0.12,-0.99,4.09,2.32,1.77
21.6600,0.07,0.12,-0.99,3.66,2.20,1.71
21.6770,0.07,0.12,-0.99,3.66,2.69,1.83
21.6920,0.07,0.12,-0.99,3.72,2.14,1.53
21.7100,0.07,0.12,-0.99,4.03,1.95,1.71
21.7260,0.07,0.12,-0.99,3.48,2.38,1.83
21.7430,0.07,0.12,-0.99,3.66,2.44,1.77
21.7590,0.07,0.12,-0.99,3.78,2.38,1.65
21.7750,0.07,0.12,-0.99,3.54,2.32,1.77
21.7920,0.07,0.12,-0.99,3.60,2.20,1.77
21.7930,0.07,0.12,-0.99,3.78,2.44,1.89
21.8080,0.08,0.12,-0.99,3.48,2.38,1.89
21.8250,0.07,0.12,-0.99,2.69,2.99,1.77
21.8420,0.07,0.12,-0.99,3.23,2.99,1.89
21.8590,0.07,0.12,-0.99,3.60,2.50,1.65
21.8750,0.08,0.12,-0.98,3.30,2.32,2.01
21.8920,0.06,0.12,-0.99,3.23,2.08,2.69
21.9080,0.05,0.11,-0.99,3.66,1.89,2.50
21.9320,0.11,0.12,-0.98,3.11,2.81,2.14
21.9410,0.07,0.12,-0.99,3.30,2.50,1.83
21.9570,0.07,0.12,-0.99,3.17,2.56,1.71
21.9770,0.07,0.12,-0.99,3.36,2.69,1.95
21.9940,0.08,0.12,-0.99,3.23,2.81,1.89
22.0090,0.08,0.12,-0.99,3.23,2.69,1.65
22.0250,0.07,0.12,-0.99,3.42,2.50,1.83
22.0270,0.07,0.12,-0.99,3.36,2.50,1.77
22.0580,0.07,0.12,-0.99,3.23,2.50,1.77
22.0730,0.07,0.12,-0.99,3.36,2.26,1.59
22.0890,0.07,0.12,-0.99,3.42,2.38,1.77
22.0930,0.07,0.12,-0.99,3.54,2.26,1.83
22.1080,0.07,0.12,-0.99,3.36,1.95,2.01
22.1300,0.07,0.12,-0.99,3.36,2.38,1.83
22.1460,0.07,0.12,-0.99,3.42,2.20,1.77
22.1640,0.07,0.12,-0.99,3.42,2.14,1.89
22.1800,0.07,0.12,-0.99,3.23,2.38,1.77
22.1960,0.08,0.12,-0.99,3.42,2.44,1.83
22.2120,0.07,0.12,-0.99,3.36,2.56,2.01
22.2280,0.07,0.12,-0.99,3.17,2.69,1.83
22.2440,0.07,0.12,-0.99,3.30,2.56,1.89
22.2590,0.07,0.12,-0.99,3.30,2.75,1.95
22.2740,0.07,0.12,-0.99,3.42,2.44,1.77
22.2900,0.07,0.12,-0.99,3.30,2.44,1.83
22.3050,0.07,0.12,-0.99,3.60,2.26,1.83
22.3130,0.07,0.12,-0.99,2.93,2.50,1.77
22.3280,0.07,0.12,-0.99,3.66,2.44,1.83
22.3520,0.07,0.12,-0.99,3.60,2.62,1.77
22.3680,0.07,0.12,-0.99,3.23,2.69,1.83
22.3840,0.07,0.12,-0.99,2.93,2.56,1.83
22.3860,0.07,0.12,-0.99,2.93,2.32,1.83
22.4150,0.07,0.12,-0.99,3.36,2.38,1.89
22.4300,0.07,0.12,-0.99,3.05,2.14,1.65
22.4380,0.07,0.12,-0.99,3.05,2.38,1.65
22.4540,0.07,0.12,-0.99,3.23,2.38,1.95
22.4700,0.07,0.12,-0.99,3.36,2.20,1.71
22.4920,0.07,0.12,-0.99,3.30,2.62,1.71
22.5070,0.07,0.12,-0.99,3.48,2.69,1.71
22.5240,0.08,0.12,-0.99,3.36,2.75,1.71
22.5400,0.08,0.12,-0.99,3.66,2.56,1.65
22.5560,0.07,0.12,-0.99,3.48,2.56,1.53
22.5720,0.07,0.12,-0.99,3.66,2.44,1.40
22.5880,0.07,0.12,-0.99,3.36,2.56,1.46
22.6030,0.08,0.12,-0.99,3.42,2.75,1.34
22.6080,0.08,0.12,-0.99,3.30,2.69,1.28
22.6230,0.07,0.12,-0.99,3.72,2.62,1.28
22.6460,0.07,0.12,-0.99,3.42,2.08,1.10
22.6620,0.08,0.12,-0.99,3.30,2.69,1.10
22.6790,0.07,0.12,-0.99,3.54,2.62,1.28
22.6950,0.08,0.12,-0.99,3.30,2.87,1.22
22.6960,0.07,0.12,-0.99,3.17,2.56,1.22
22.7260,0.07,0.12,-0.99,3.23,2.50,1.22
22.7410,0.07,0.12,-0.99,3.60,2.44,1.22
22.7590,0.08,0.12,-0.99,3.17,2.99,1.46
22.7750,0.08,0.12,-0.99,2.93,2.87,1.34
22.7910,0.07,0.12,-0.99,3.36,2.32,1.34
22.8070,0.07,0.12,-0.99,3.54,2.26,1.34
22.8210,0.07,0.12,-0.99,3.72,2.14,1.22
22.8370,0.07,0.12,-0.99,3.54,2.87,1.04
22.8530,0.07,0.12,-0.99,3.78,3.05,0.85
22.8680,0.07,0.12,-0.99,3.97,2.56,0.67
22.8770,0.08,0.13,-0.99,3.60,2.50,0.49
22.8930,0.07,0.12,-0.99,3.36,2.20,0.79
22.9100,0.07,0.12,-0.99,3.60,2.44,0.79
22.9270,0.07,0.12,-0.99,3.78,2.26,0.85
22.9430,0.07,0.12,-0.99,3.66,2.87,0.79
22.9590,0.07,0.12,-0.99,3.36,2.69,0.92
22.9750,0.08,0.12,-0.99,3.30,2.44,1.04
22.9900,0.08,0.12,-0.99,3.85,2.44,0.85
23.0050,0.07,0.12,-0.99,3.85,2.44,0.73
23.0210,0.07,0.13,-0.99,3.23,2.32,0.79
23.0370,0.07,0.12,-0.99,3.05,2.38,1.16
23.0430,0.08,0.12,-0.99,3.11,2.14,1.16
23.0650,0.07,0.12,-0.99,3.60,2.14,1.10
23.0820,0.07,0.13,-0.99,3.23,2.87,1.22
23.0980,0.07,0.12,-0.99,3.36,2.01,1.46
23.1130,0.07,0.12,-0.99,3.54,2.50,1.34
23.1300,0.07,0.12,-0.99,3.54,2.14,1.59
23.1450,0.07,0.12,-0.99,3.72,2.32,1.40
23.1480,0.07,0.12,-0.99,3.54,2.26,1.16
23.1650,0.07,0.13,-0.99,3.72,2.81,1.46
23.1880,0.07,0.12,-0.99,3.11,2.38,1.77
23.2050,0.07,0.12,-0.99,3.23,2.44,1.65
23.2210,0.07,0.12,-0.99,3.60,2.50,1.83
23.2370,0.08,0.12,-0.99,3.66,2.69,1.71
23.2390,0.08,0.12,-0.99,3.72,2.93,1.65
23.2640,0.08,0.12,-0.99,3.85,2.32,1.59
23.2710,0.07,0.12,-0.99,3.48,2.44,1.40
23.2930,0.08,0.12,-0.99,3.36,2.38,1.22
23.3100,0.07,0.12,-0.99,3.42,2.32,0.73
23.3260,0.07,0.12,-0.99,3.11,2.08,1.10
23.3420,0.07,0.12,-0.99,3.54,2.44,1.28
23.3590,0.07,0.12,-0.99,3.72,2.50,1.10
23.3760,0.07,0.12,-0.99,4.09,2.44,1.04
23.3920,0.07,0.12,-0.99,3.66,2.08,1.10
23.4080,0.07,0.12,-0.99,3.85,2.01,1.04
23.4240,0.07,0.12,-0.99,3.66,2.14,1.16
23.4390,0.08,0.12,-0.99,3.42,2.14,1.22
23.4550,0.08,0.12,-0.99,3.72,2.08,0.85
23.4700,0.07,0.13,-0.99,3.66,2.32,0.92
23.4860,0.07,0.13,-0.99,3.72,2.38,1.28
23.5020,0.07,0.13,-0.99,3.60,2.32,1.22
23.5170,0.08,0.13,-0.99,3.05,2.38,1.59
23.5330,0.07,0.12,-0.99,3.54,1.71,1.65
23.5420,0.07,0.12,-0.99,4.27,1.77,1.40
23.5630,0.08,0.12,-0.99,4.09,1.89,1.34
23.5800,0.08,0.13,-0.99,3.85,2.01,1.34
23.5960,0.08,0.12,-0.99,3.66,2.01,1.22
23.6120,0.08,0.12,-0.99,3.54,2.14,1.34
23.6280,0.07,0.13,-0.99,4.15,2.20,1.40
23.6310,0.07,0.13,-0.99,3.78,2.20,1.59
23.6480,0.08,0.13,-0.99,3.48,2.20,1.46
23.6630,0.08,0.13,-0.99,2.93,1.59,1.83
23.6860,0.07,0.12,-0.98,3.17,1.83,2.20
23.7020,0.07,0.12,-0.98,3.72,2.20,2.08
23.7200,0.07,0.13,-0.99,3.23,2.50,1.89
23.7350,0.07,0.12,-0.99,2.81,2.26,2.14
23.7500,0.07,0.12,-0.99,3.23,2.44,2.08
23.7670,0.07,0.12,-0.99,3.42,1.95,2.01
23.7830,0.07,0.13,-0.99,3.54,2.14,2.08
23.7980,0.07,0.13,-0.99,3.17,2.38,2.01
23.8130,0.08,0.13,-0.99,2.99,2.38,2.01
23.8290,0.08,0.13,-0.99,3.17,2.56,2.14
23.8450,0.08,0.12,-0.99,3.48,2.20,2.26
23.8590,0.08,0.13,-0.99,3.72,2.44,1.65
23.8680,0.08,0.12,-0.99,2.99,2.08,1.95
23.8850,0.07,0.12,-0.99,3.17,2.01,2.08
23.9010,0.07,0.13,-0.99,3.17,2.14,2.38
23.9210,0.08,0.12,-0.99,3.05,1.65,2.26
23.9360,0.08,0.12,-0.99,2.99,2.38,2.32
23.9510,0.08,0.12,-0.99,2.50,1.83,2.01
23.9660,0.07,0.12,-0.98,2.44,1.65,1.95
23.9820,0.07,0.12,-0.99,2.69,1.22,2.01
23.9960,0.07,0.12,-0.99,2.99,1.71,1.89
24.0120,0.07,0.12,-0.99,3.11,1.77,1.95
24.0210,0.07,0.12,-0.99,2.99,2.26,2.14
24.0370,0.08,0.12,-0.99,3.54,1.83,2.01
24.0570,0.08,0.13,-0.99,3.60,1.95,2.01
24.0610,0.08,0.13,-0.99,3.17,1.65,2.01
24.0880,0.08,0.12,-0.99,3.05,1.34,2.26
24.0910,0.08,0.12,-0.99,2.81,1.71,2.08
24.1100,0.08,0.12,-0.99,3.30,1.77,1.95
24.1260,0.08,0.12,-0.99,3.66,2.20,1.71
24.1490,0.08,0.13,-0.99,3.17,2.26,1.83
24.1650,0.09,0.13,-0.99,2.69,1.71,2.20
24.1810,0.08,0.12,-0.99,2.69,0.98,2.32
24.1830,0.07,0.12,-0.98,3.11,1.16,2.44
24.1980,0.08,0.12,-0.99,2.69,1.22,2.62
24.2270,0.08,0.12,-0.98,2.87,1.16,2.87
24.2420,0.09,0.11,-0.99,3.36,1.89,2.32
24.2540,0.09,0.12,-0.99,3.36,1.53,1.04
24.2700,0.08,0.12,-0.99,2.99,1.40,1.16
24.2870,0.08,0.12,-0.98,3.11,1.28,1.59
24.3030,0.08,0.12,-0.99,3.30,1.40,2.08
24.3200,0.08,0.12,-0.98,2.87,2.38,2.81
24.3350,0.08,0.12,-0.99,3.30,2.01,3.42
24.3500,0.08,0.12,-0.99,3.11,2.14,3.54
24.3650,0.08,0.12,-0.99,3.23,2.14,3.60
24.3800,0.08,0.12,-0.99,3.42,2.32,3.23
24.3860,0.08,0.12,-0.99,3.05,1.89,3.05
24.4020,0.08,0.12,-0.99,2.93,1.71,3.17
24.4260,0.08,0.12,-0.99,2.99,1.83,2.99
24.4440,0.08,0.12,-0.99,2.81,1.89,3.30
24.4740,0.08,0.12,-0.99,2.99,1.65,3.42
24.5140,0.08,0.13,-0.99,3.30,2.20,1.71
24.5550,0.08,0.12,-0.99,3.42,1.95,2.14
24.5730,0.08,0.12,-0.99,3.36,2.20,2.44
24.5880,0.08,0.12,-0.99,3.36,2.56,2.20
24.6030,0.08,0.12,-0.98,3.48,2.08,1.95
24.6120,0.08,0.13,-0.99,3.54,2.26,2.08
24.6280,0.08,0.12,-0.99,3.23,2.08,2.26
24.6480,0.08,0.12,-0.99,3.30,2.08,2.32
24.6520,0.08,0.12,-0.99,3.72,2.44,1.95
24.6780,0.08,0.12,-0.99,3.78,2.26,2.14
24.6850,0.08,0.12,-0.99,3.48,1.89,2.50
24.7000,0.08,0.12,-0.99,3.42,2.01,2.44
24.7200,0.07,0.12,-0.99,3.17,2.14,2.56
24.7370,0.07,0.12,-0.99,3.30,2.26,2.50
24.7540,0.07,0.12,-0.99,2.87,2.56,2.38
24.7690,0.08,0.12,-0.99,3.30,2.26,2.20
24.7720,0.08,0.12,-0.99,3.60,2.38,1.83
24.7870,0.08,0.13,-0.99,3.11,2.20,1.77
24.8030,0.08,0.12,-0.99,2.69,2.32,1.95
24.8200,0.08,0.12,-0.99,2.87,2.20,1.89
24.8360,0.08,0.12,-0.99,1.89,2.14,1.89
24.8520,0.08,0.12,-0.99,1.10,2.32,2.01
24.8800,0.08,0.12,-1.00,0.06,2.50,2.56
24.8910,0.08,0.12,-1.00,-1.95,2.69,2.56
24.9080,0.08,0.11,-0.99,-3.97,3.30,2.50
24.9230,0.08,0.12,-0.99,-4.15,3.66,2.01
24.9400,0.09,0.11,-0.99,-4.82,4.21,2.87
24.9570,0.08,0.11,-1.00,-5.37,5.31,2.87
24.9730,0.08,0.09,-0.97,-4.39,5.25,2.50
24.9900,0.08,0.10,-0.98,-1.53,3.91,1.77
25.0050,0.07,0.10,-0.99,-0.31,3.91,1.16
25.0210,0.08,0.11,-0.99,0.18,3.48,1.28
25.0370,0.08,0.10,-0.99,0.67,3.30,1.83
25.0520,0.07,0.10,-1.01,-0.55,4.70,1.28
25.0560,0.08,0.09,-0.98,-2.14,6.10,1.10
25.0720,0.07,0.10,-0.98,-1.53,6.23,1.10
25.0970,0.08,0.10,-0.99,1.65,4.33,1.59
25.1130,0.07,0.10,-1.00,1.28,5.13,1.95
25.1140,0.07,0.09,-1.00,0.67,5.92,2.38
25.1430,0.07,0.10,-0.98,1.16,6.16,2.26
25.1580,0.07,0.10,-0.98,1.65,5.37,2.75
25.1710,0.07,0.09,-1.00,2.38,4.64,2.87
25.1910,0.06,0.11,-0.99,1.89,5.86,3.05
25.2060,0.06,0.09,-0.99,2.50,6.84,5.25
25.2130,0.07,0.08,-0.98,3.05,4.88,4.70
25.2360,0.07,0.09,-0.98,2.93,2.56,3.30
25.2510,0.06,0.10,-1.00,3.30,1.53,3.48
25.2620,0.06,0.10,-1.00,3.11,2.01,4.27
25.2790,0.06,0.09,-0.97,2.50,1.53,5.74
25.2950,0.06,0.09,-0.98,2.87,-2.50,5.25
25.3130,0.07,0.09,-1.00,2.87,-4.58,4.09
25.3280,0.07,0.09,-1.01,3.91,-2.87,4.64
25.3450,0.07,0.09,-0.98,4.09,-0.79,5.00
25.3600,0.07,0.08,-0.97,5.62,-3.42,3.97
25.3760,0.07,0.09,-1.00,6.35,-4.58,2.75
25.3920,0.08,0.09,-1.01,6.16,-2.32,2.69
25.4080,0.08,0.09,-0.98,5.19,0.37,2.14
25.4230,0.08,0.10,-0.98,6.59,-1.10,1.53
25.4390,0.07,0.10,-1.00,6.84,-2.44,2.14
25.4540,0.08,0.10,-1.00,7.08,-1.59,2.56
25.4680,0.08,0.09,-0.99,7.69,-0.79,2.38
25.4790,0.08,0.10,-0.98,8.73,-1.28,2.01
25.4950,0.08,0.11,-1.00,8.48,-0.06,2.69
25.5120,0.08,0.10,-0.97,7.69,0.31,3.48
25.5290,0.08,0.10,-0.97,12.51,0.18,3.05
25.5440,0.08,0.13,-1.00,15.20,0.67,2.20
25.5620,0.09,0.12,-1.01,11.41,1.46,2.56
25.5780,0.09,0.12,-0.99,8.18,2.32,2.93
25.5940,0.08,0.11,-0.97,7.87,2.08,3.05
25.6090,0.08,0.12,-1.00,9.46,2.62,2.62
25.6250,0.08,0.13,-0.99,7.32,3.36,2.38
25.6410,0.08,0.12,-0.98,5.86,4.46,2.08
25.6560,0.09,0.11,-1.01,5.13,4.03,2.56
25.6720,0.09,0.10,-0.99,4.64,2.14,2.01
25.6860,0.08,0.12,-0.99,4.64,2.20,1.89
25.7020,0.08,0.13,-0.99,3.91,2.56,1.65
25.7120,0.08,0.12,-0.99,2.93,1.89,1.65
25.7280,0.08,0.12,-0.99,3.48,1.89,1.65
25.7450,0.08,0.12,-0.99,4.21,2.26,1.77
25.7620,0.08,0.12,-0.99,4.27,2.32,1.65
25.7790,0.08,0.12,-0.99,3.72,2.44,1.65
25.7940,0.08,0.12,-0.99,3.60,2.50,1.53
25.8110,0.08,0.12,-0.99,3.48,2.50,1.53
25.8260,0.08,0.12,-0.99,3.60,2.14,1.65
25.8410,0.08,0.12,-0.99,3.66,2.44,1.77
25.8560,0.08,0.12,-0.99,3.85,2.32,1.53
25.8720,0.08,0.12,-0.99,3.85,2.14,1.53
25.8880,0.08,0.12,-0.99,3.85,2.44,1.22
25.9030,0.08,0.12,-0.99,3.78,2.08,0.92
25.9180,0.08,0.12,-0.99,3.60,2.38,1.28
25.9290,0.08,0.12,-0.99,3.72,2.26,1.22
25.9450,0.08,0.12,-0.99,3.60,2.26,1.04
25.9620,0.08,0.13,-0.98,3.48,1.95,0.98
25.9790,0.08,0.12,-0.99,3.48,2.14,1.04
25.9960,0.07,0.12,-0.96,3.54,2.44,1.10
26.0110,0.08,0.13,-0.99,3.85,4.39,1.16
26.0260,0.08,0.12,-0.98,3.66,3.85,1.59
26.0410,0.08,0.12,-0.99,3.66,3.72,1.65
26.0560,0.08,0.12,-0.99,3.60,3.78,1.83
26.0730,0.08,0.12,-0.98,3.66,3.11,1.77
26.0890,0.08,0.12,-0.99,4.21,3.48,1.95
26.1040,0.08,0.13,-0.99,4.09,3.23,1.53
26.1120,0.08,0.12,-0.99,3.66,3.36,1.59
26.1280,0.08,0.13,-0.99,3.66,2.99,1.59
26.1500,0.08,0.12,-0.98,4.27,2.62,1.46
26.1660,0.08,0.13,-0.98,4.15,3.36,1.34
26.1700,0.08,0.13,-0.99,3.78,3.05,1.16
26.1840,0.08,0.12,-0.99,3.72,2.44,1.28
26.2010,0.08,0.12,-0.99,4.03,2.62,1.16
26.2170,0.08,0.13,-0.99,3.91,2.81,0.67
26.2390,0.08,0.13,-0.99,3.91,2.69,0.92
26.2560,0.08,0.13,-0.99,3.66,2.62,1.22
26.2720,0.08,0.13,-0.99,3.23,2.44,1.65
26.2890,0.08,0.12,-0.99,3.48,2.32,1.77
26.3050,0.08,0.13,-0.99,3.78,2.26,1.89
26.3210,0.08,0.13,-0.99,3.48,1.95,1.77
26.3360,0.08,0.13,-0.99,3.36,2.50,1.77
26.3520,0.08,0.13,-0.99,3.42,2.26,1.71
26.3680,0.08,0.13,-0.99,3.36,2.01,1.71
26.3840,0.08,0.13,-0.99,3.30,2.56,1.71
26.4000,0.08,0.12,-0.99,2.99,2.14,1.65
26.4060,0.08,0.13,-0.99,3.30,2.81,1.71
26.4230,0.08,0.12,-0.99,3.17,2.99,1.59
26.4450,0.08,0.12,-0.99,3.42,2.14,1.22
26.4610,0.08,0.13,-0.99,3.36,2.69,1.04
26.4770,0.08,0.13,-0.99,3.30,2.32,1.22
26.4920,0.08,0.13,-0.99,3.05,2.62,1.16
26.5070,0.07,0.13,-0.99,3.30,2.69,1.04
26.5120,0.07,0.13,-0.99,3.17,2.38,1.46
26.5280,0.07,0.13,-0.99,3.23,2.01,1.40
26.5490,0.08,0.13,-0.99,3.11,2.01,1.40
26.5660,0.08,0.13,-0.99,2.87,2.44,1.53
26.5820,0.08,0.13,-0.99,3.05,2.62,1.59
26.5980,0.08,0.13,-0.99,2.81,2.32,1.65
26.6140,0.07,0.13,-0.99,2.38,2.50,1.65
26.6160,0.07,0.13,-0.99,1.46,3.11,2.08
26.6460,0.08,0.13,-1.00,1.04,3.36,2.32
26.6620,0.08,0.13,-1.00,-1.46,5.31,2.56
26.6710,0.07,0.12,-0.99,-3.05,6.65,3.05
26.6840,0.07,0.12,-1.01,-3.42,7.39,3.05
26.7000,0.06,0.11,-1.02,-5.80,10.01,1.83
26.7260,0.07,0.12,-1.00,-6.77,14.95,2.56
26.7410,0.07,0.11,-1.00,-5.55,17.52,4.33
26.7570,0.06,0.12,-0.99,-4.03,18.74,3.54
26.7730,0.06,0.13,-0.98,0.00,11.54,2.69
26.7890,0.04,0.12,-0.99,0.85,10.07,2.93
26.8080,0.05,0.10,-1.00,-0.18,9.34,1.65
26.8240,0.03,0.09,-1.02,0.79,10.74,-1.71
26.8400,0.04,0.10,-0.99,1.10,15.14,-2.08
26.8560,0.03,0.12,-0.98,5.68,14.71,-1.34
26.8700,0.04,0.11,-0.98,7.26,11.35,0.18
26.8860,0.01,0.09,-1.00,4.88,9.03,0.06
26.9010,0.02,0.08,-1.01,-1.71,8.30,-0.55
26.9170,0.01,0.10,-1.03,-6.59,7.63,-0.12
26.9330,0.01,0.12,-1.04,-4.03,8.79,0.92
26.9410,0.02,0.12,-1.03,-1.53,8.91,1.28
26.9640,0.02,0.09,-1.04,-0.55,7.51,2.08
26.9800,0.02,0.09,-1.06,-0.98,5.13,2.14
26.9910,-0.04,0.08,-1.08,-0.37,5.13,-0.06
27.0080,-0.05,0.09,-1.06,-1.28,9.89,-1.77
27.0250,-0.04,0.10,-1.01,-1.83,13.61,-1.40
27.0410,-0.04,0.08,-0.99,-0.43,11.66,-3.11
27.0580,-0.05,0.07,-1.00,-4.76,7.26,-4.64
27.0740,-0.07,0.06,-0.98,-7.93,7.08,-5.62
27.0910,-0.06,0.05,-0.96,-12.33,6.29,-9.09
27.1070,-0.05,0.04,-0.96,-16.66,5.00,-11.90
27.1230,-0.06,0.06,-0.96,-16.54,3.17,-13.85
27.1400,-0.06,0.10,-0.91,-13.06,2.93,-12.88
27.1560,-0.06,0.10,-0.88,-6.59,1.59,-13.00
27.1720,-0.05,0.09,-0.88,-4.64,-2.08,-11.72
27.1880,-0.03,0.07,-0.86,-2.26,-4.64,-11.78
27.1920,0.04,0.05,-0.90,-0.67,-3.23,-11.66
27.2080,0.06,0.02,-0.94,-1.95,-6.90,-10.68
27.2360,0.06,0.01,-0.94,-4.09,-8.18,-10.31
27.2470,0.11,0.00,-0.98,-1.71,-7.32,-10.93
27.2640,0.11,0.00,-1.04,-1.28,-6.23,-12.51
27.2800,0.15,0.03,-1.02,-2.93,-6.10,-7.20
27.2970,0.11,0.01,-1.04,11.47,-7.45,-5.00
27.3130,0.09,-0.01,-1.02,15.87,-2.69,-3.42
27.3290,0.08,0.01,-0.99,9.09,0.12,-3.78
27.3470,0.10,0.05,-0.97,8.61,0.92,-3.23
27.3630,0.11,0.04,-0.95,18.80,0.31,-1.40
27.3790,0.09,0.01,-0.95,21.97,-0.55,-1.22
27.3940,0.05,0.00,-0.96,16.42,-4.46,-1.53
27.3980,0.05,0.04,-0.94,6.84,-6.53,-2.01
27.4250,0.09,0.07,-0.95,16.42,-6.77,-1.83
27.4420,0.09,0.06,-1.02,23.99,-7.81,-0.12
27.4570,0.08,0.07,-1.06,14.34,-8.61,0.73
27.4730,0.06,0.07,-1.05,4.15,-5.31,1.83
27.4800,0.07,0.08,-1.03,4.94,-1.53,2.75
27.4960,0.08,0.10,-1.01,12.08,-0.79,2.26
27.5180,0.09,0.11,-1.04,17.27,-0.12,2.69
27.5340,0.07,0.09,-1.02,17.33,0.43,4.09
27.5510,0.06,0.07,-0.96,16.72,-0.06,3.36
27.5670,0.05,0.09,-0.97,11.66,-1.77,1.65
27.5840,0.06,0.14,-0.99,0.49,-0.98,1.65
27.6000,0.07,0.16,-1.03,-1.59,-1.53,3.48
27.6160,0.03,0.12,-1.04,8.97,-1.28,3.85
27.6310,0.06,0.10,-1.03,11.78,1.40,3.60
27.6470,0.06,0.09,-1.04,7.20,2.62,3.11
27.6630,0.08,0.09,-0.97,-2.32,3.48,4.64
27.6720,0.09,0.09,-0.94,0.67,1.40,4.39
27.6840,0.07,0.07,-0.97,4.15,-1.71,2.44
27.7090,0.08,0.09,-0.99,-0.18,-0.73,2.93
27.7090,0.08,0.10,-0.99,-1.40,0.73,2.75
27.7400,0.08,0.13,-1.03,2.20,3.11,2.44
27.7560,0.07,0.09,-1.04,7.51,5.92,2.75
27.7710,0.07,0.08,-0.97,2.62,5.19,2.75
27.7880,0.08,0.13,-0.95,4.33,4.52,2.14
27.8040,0.07,0.10,-0.99,11.17,5.13,2.08
27.8190,0.06,0.07,-1.03,13.92,2.87,0.73
27.8350,0.08,0.09,-1.01,11.72,-0.79,0.98
27.8500,0.07,0.11,-1.00,10.93,-1.28,0.92
27.8670,0.08,0.12,-1.00,10.44,-0.37,1.83
27.8740,0.07,0.09,-0.99,9.83,0.00,2.14
27.8970,0.07,0.10,-0.98,12.27,0.06,1.53
27.9070,0.07,0.13,-1.02,13.85,0.12,1.46
27.9240,0.08,0.12,-0.99,7.02,1.71,2.14
27.9400,0.07,0.12,-0.99,5.80,1.77,2.38
27.9570,0.08,0.11,-0.99,5.68,1.46,2.50
27.9730,0.08,0.12,-1.00,7.02,1.04,2.50
27.9890,0.07,0.14,-0.99,5.13,2.01,2.14
28.0040,0.07,0.13,-0.99,3.11,2.26,1.89
28.0200,0.07,0.12,-0.99,2.62,2.50,2.14
28.0360,0.08,0.12,-0.99,3.36,1.83,2.32
28.0520,0.08,0.12,-0.99,3.78,2.01,2.01
28.0580,0.08,0.12,-0.99,3.54,1.83,1.95
28.0830,0.09,0.12,-0.99,3.23,2.20,2.08
28.0910,0.08,0.12,-0.99,2.93,2.50,1.95
28.1130,0.08,0.12,-0.99,2.69,2.38,2.01
28.1240,0.08,0.12,-0.99,3.30,2.14,1.59
28.1410,0.08,0.12,-0.99,3.42,2.50,1.59
28.1580,0.07,0.12,-0.99,3.60,2.14,1.16
28.1740,0.08,0.12,-0.99,3.66,2.38,1.16
28.1900,0.08,0.12,-0.99,3.97,2.62,1.28
28.2060,0.07,0.12,-0.99,4.03,2.26,1.53
28.2210,0.07,0.12,-0.99,3.72,2.20,1.59
28.2370,0.08,0.12,-0.99,3.60,2.20,1.53
28.2530,0.08,0.12,-0.99,3.60,2.14,1.40
28.2680,0.08,0.12,-0.99,3.17,2.44,1.40
28.2750,0.08,0.12,-0.99,3.54,2.20,1.83
28.2910,0.08,0.12,-0.99,3.72,2.14,2.14
28.3130,0.07,0.12,-0.99,3.42,2.62,2.01
28.3300,0.07,0.09,-0.99,2.99,2.38,1.83
28.3440,0.08,0.12,-0.99,3.11,2.14,1.71
28.3470,0.08,0.12,-0.99,3.42,2.32,1.89
28.3760,0.08,0.11,-0.99,3.78,2.01,2.08
28.3800,0.08,0.11,-0.99,4.03,1.95,2.14
28.3970,0.07,0.13,-0.99,3.66,2.14,1.65
28.4230,0.07,0.13,-0.99,2.81,2.44,1.46
28.4310,0.08,0.12,-0.99,2.69,2.56,1.40
28.4480,0.08,0.12,-0.99,2.93,2.81,1.34
28.4640,0.06,0.12,-0.99,3.66,2.38,1.28
28.4800,0.06,0.13,-0.99,3.54,2.44,1.22
28.4970,0.07,0.12,-0.99,2.81,2.75,1.40
28.5140,0.07,0.12,-0.99,3.23,2.69,1.59
28.5300,0.08,0.12,-0.99,3.66,2.75,1.53
28.5470,0.08,0.12,-0.99,3.54,2.50,1.04
28.5640,0.07,0.13,-0.99,3.11,2.32,1.10
28.5810,0.08,0.12,-0.99,2.56,2.69,1.04
28.5960,0.07,0.11,-0.99,3.17,2.81,1.04
28.5980,0.07,0.12,-0.99,4.15,2.20,0.98
28.6130,0.08,0.12,-0.99,3.48,2.14,0.98
28.6290,0.08,0.12,-0.99,3.05,2.44,0.92
28.6600,0.08,0.12,-0.99,3.54,2.62,1.16
28.6750,0.08,0.12,-0.99,3.72,2.38,1.22
28.6800,0.07,0.12,-0.99,3.60,2.75,1.04
28.6960,0.08,0.12,-0.99,3.48,2.38,0.92
28.7160,0.08,0.11,-0.99,3.42,2.44,1.04
28.7330,0.08,0.12,-0.99,3.78,2.56,1.22
28.7500,0.07,0.12,-0.99,3.66,2.38,1.22
28.7690,0.07,0.12,-0.99,3.66,2.32,1.16
28.7840,0.07,0.12,-0.99,3.91,2.26,1.28
28.7840,0.07,0.12,-0.99,3.91,2.14,1.10
28.7990,0.06,0.12,-0.99,3.23,2.32,1.22
28.8170,0.07,0.12,-0.99,3.42,2.69,1.59
28.8350,0.07,0.12,-0.99,3.66,2.14,1.53
28.8510,0.08,0.12,-0.99,3.54,2.20,1.59
28.8740,0.08,0.12,-0.99,3.11,2.38,1.34
28.8890,0.08,0.12,-0.99,3.23,2.32,1.46
28.9050,0.08,0.11,-0.99,3.78,2.32,1.53
28.9230,0.07,0.12,-0.99,3.66,2.69,1.59
28.9380,0.07,0.12,-0.99,2.93,2.44,1.59
28.9400,0.08,0.12,-0.99,3.17,2.26,1.59
28.9700,0.08,0.12,-0.99,3.54,2.20,1.34
28.9740,0.08,0.12,-0.99,4.15,2.20,1.59
29.0020,0.08,0.12,-0.99,4.15,2.50,1.34
29.0180,0.08,0.12,-0.99,3.66,2.08,1.40
29.0230,0.08,0.12,-0.99,3.48,2.62,1.46
29.0490,0.08,0.12,-0.99,3.91,2.38,1.16
29.0550,0.07,0.12,-0.99,3.36,2.75,1.28
29.0740,0.07,0.12,-0.99,3.48,2.44,1.22
29.0880,0.08,0.12,-0.99,3.30,2.62,1.22
29.1100,0.09,0.12,-0.99,3.30,2.38,1.04
29.1250,0.07,0.11,-0.99,3.78,2.69,1.16
29.1270,0.06,0.12,-0.99,3.72,2.69,0.92
29.1550,0.07,0.12,-0.99,3.23,2.44,0.98
29.1710,0.07,0.13,-0.99,3.11,2.56,1.04
29.1770,0.07,0.12,-0.99,3.23,2.38,1.10
29.1930,0.07,0.12,-0.99,3.60,2.32,1.22
29.2110,0.07,0.12,-0.99,3.54,2.69,1.22
29.2290,0.08,0.12,-0.99,3.54,2.32,1.22
29.2450,0.07,0.12,-0.99,3.30,2.56,1.34
29.2620,0.07,0.12,-0.99,3.17,2.75,1.46
29.2770,0.07,0.12,-0.99,3.30,2.44,1.40
29.2940,0.08,0.12,-0.99,3.42,2.44,1.28
29.3110,0.08,0.12,-0.99,3.66,2.14,1.04
29.3270,0.05,0.12,-0.99,3.60,2.26,0.98
29.3420,0.07,0.12,-0.99,3.11,1.83,1.40
29.3580,0.07,0.12,-0.99,3.42,2.26,1.83
29.3730,0.07,0.12,-0.99,3.54,2.38,1.65
29.3780,0.08,0.12,-0.99,3.42,2.44,1.77
29.3930,0.07,0.12,-0.99,2.99,2.32,1.16
29.4180,0.08,0.12,-0.99,3.05,2.20,1.53
29.4180,0.07,0.12,-0.99,3.30,2.62,1.46
29.4480,0.07,0.12,-0.99,3.30,2.20,1.65
29.4640,0.08,0.12,-0.99,3.23,2.38,1.71
29.4740,0.10,0.12,-0.99,3.36,2.38,1.16
29.4830,0.09,0.12,-0.99,3.66,2.38,0.43
29.5050,0.08,0.12,-0.99,3.78,2.69,0.12
29.5220,0.06,0.12,-0.99,3.97,2.38,0.31
29.5380,0.05,0.12,-0.99,3.66,2.26,0.73
29.5550,0.06,0.12,-0.99,3.30,2.26,1.10
29.5560,0.07,0.12,-0.99,3.42,2.08,1.16
29.5870,0.07,0.12,-0.99,3.66,2.14,1.65
29.6030,0.07,0.12,-0.99,3.85,1.71,1.71
29.6180,0.08,0.12,-0.99,3.72,1.77,1.53
29.6350,0.08,0.12,-0.99,3.48,1.95,1.59
29.6520,0.08,0.12,-0.99,3.42,2.14,1.65
29.6670,0.08,0.12,-0.99,3.60,2.26,1.71
29.6840,0.08,0.12,-0.98,3.91,2.08,1.83
29.6990,0.08,0.12,-0.99,3.66,1.77,1.59
29.7150,0.07,0.12,-0.99,3.30,1.95,1.59
29.7220,0.07,0.12,-0.99,3.60,2.14,1.65
29.7390,0.07,0.12,-0.99,3.30,2.32,1.59
29.7620,0.08,0.12,-0.99,3.17,2.38,1.53
29.7750,0.07,0.12,-0.99,2.99,2.50,1.83
29.7870,0.06,0.11,-0.97,3.17,2.75,1.77
29.8100,0.08,0.13,-0.99,2.87,2.62,1.77
29.8270,0.07,0.12,-0.99,3.23,2.44,1.77
29.8420,0.07,0.12,-0.99,3.23,2.56,1.77
29.8580,0.07,0.12,-0.99,3.48,2.26,1.65
29.8740,0.07,0.12,-0.99,3.36,2.26,1.71
29.8770,0.07,0.12,-0.99,3.54,2.26,1.77
29.9050,0.07,0.12,-0.99,3.42,2.32,1.77
29.9090,0.07,0.12,-0.99,3.66,1.65,1.65
29.9250,0.07,0.12,-0.99,3.66,2.08,1.83
29.9470,0.07,0.12,-0.99,3.36,2.44,1.71
29.9640,0.07,0.12,-0.99,3.42,2.56,1.83
29.9800,0.07,0.12,-0.99,3.78,2.14,1.83
29.9970,0.07,0.12,-0.99,3.42,2.26,1.83
30.0130,0.07,0.12,-0.99,3.60,2.44,1.77
30.0300,0.08,0.12,-0.99,3.97,2.08,1.89
30.0460,0.08,0.12,-0.99,3.42,2.20,1.77
30.0620,0.07,0.12,-0.99,3.54,2.14,1.65
30.0780,0.08,0.12,-0.99,3.54,2.26,1.65
30.0940,0.07,0.12,-0.99,4.03,2.14,1.65
30.0970,0.07,0.12,-0.99,4.09,2.20,1.53
30.1130,0.07,0.11,-0.99,3.78,2.20,1.04
30.1360,0.08,0.12,-0.99,3.78,2.32,0.06
30.1520,0.07,0.11,-0.99,4.33,2.38,-0.67
30.1690,0.07,0.11,-0.99,4.70,2.50,-1.22
30.1850,0.07,0.12,-0.99,4.52,2.56,-1.89
30.2020,0.08,0.12,-0.99,4.33,2.87,-1.46
30.2200,0.07,0.12,-0.99,3.97,2.81,-0.92
30.2360,0.07,0.11,-0.99,4.76,2.69,-0.31
30.2510,0.07,0.13,-0.99,4.03,2.26,-0.18
30.2520,0.08,0.14,-0.99,3.78,2.56,-0.49
30.2760,0.08,0.14,-0.99,3.66,2.69,0.18
30.2850,0.08,0.13,-0.99,3.54,2.32,-0.06
30.3020,0.07,0.13,-0.99,3.72,2.32,-0.12
30.3180,0.07,0.13,-0.99,3.66,2.20,0.98
30.3410,0.07,0.11,-0.99,3.30,2.44,1.34
30.3570,0.08,0.13,-0.98,3.23,2.44,1.10
30.3760,0.07,0.13,-0.99,3.23,2.38,1.40
30.3900,0.07,0.12,-0.99,3.30,2.01,1.46
30.4070,0.07,0.12,-0.99,3.23,2.32,1.71
30.4230,0.07,0.11,-0.99,3.66,2.38,1.40
30.4250,0.07,0.12,-0.99,3.60,2.01,1.28
30.4550,0.07,0.12,-0.99,3.36,2.38,1.77
30.4570,0.07,0.12,-0.99,3.23,2.32,1.83
30.4760,0.07,0.13,-0.99,3.36,2.50,1.83
30.4960,0.07,0.12,-0.99,3.17,2.75,1.77
30.5130,0.07,0.12,-0.99,3.42,2.38,1.71
30.5300,0.08,0.12,-0.99,3.60,2.56,1.28
30.5450,0.08,0.13,-0.99,3.60,2.26,1.16
30.5620,0.08,0.12,-0.99,3.85,2.14,1.59
30.5780,0.07,0.11,-0.99,3.78,2.26,1.34
30.5940,0.07,0.11,-0.99,3.72,2.38,1.10
30.6090,0.07,0.12,-0.99,3.60,2.62,1.40
30.6240,0.08,0.13,-0.99,3.54,2.14,1.40
30.6380,0.08,0.13,-0.99,3.54,2.44,1.34
30.6550,0.07,0.11,-0.99,3.66,2.87,0.31
30.6620,0.07,0.11,-0.99,3.60,2.75,0.55
30.6790,0.07,0.11,-0.99,3.60,2.81,0.06
30.6950,0.07,0.12,-0.99,3.78,3.05,-0.12
30.7130,0.08,0.13,-0.99,3.11,2.87,0.43
30.7280,0.07,0.13,-0.99,3.54,2.50,-0.06
30.7460,0.07,0.12,-0.99,3.48,3.05,0.79
30.7610,0.08,0.12,-0.99,3.48,2.38,0.67
30.7800,0.07,0.12,-0.99,3.72,2.62,0.31
30.7830,0.08,0.15,-0.98,3.54,2.56,0.49
30.8000,0.07,0.13,-0.99,3.30,1.89,1.40
30.8150,0.07,0.12,-0.99,3.48,2.14,1.71
30.8310,0.07,0.11,-0.99,3.48,2.44,0.79
30.8540,0.07,0.12,-0.99,3.36,2.20,0.79
30.8710,0.07,0.13,-0.99,3.36,2.62,0.98
30.8870,0.07,0.12,-0.99,3.85,2.14,1.53
30.9060,0.08,0.12,-0.99,3.30,2.44,1.77
30.9210,0.07,0.12,-0.99,3.60,2.32,1.65
30.9360,0.07,0.11,-0.99,3.66,2.44,1.34
30.9530,0.08,0.12,-0.99,3.85,2.38,1.10
30.9700,0.07,0.12,-0.99,3.66,2.50,0.55
30.9780,0.07,0.13,-0.99,3.42,2.69,0.18
30.9880,0.07,0.13,-0.98,3.17,2.62,0.18
31.0170,0.08,0.12,-0.99,3.54,2.50,1.22
31.0330,0.07,0.12,-0.99,3.54,2.56,0.37
31.0370,0.07,0.10,-0.99,4.15,3.11,-0.67
31.0650,0.08,0.13,-0.99,3.66,2.56,-1.46
31.0810,0.07,0.13,-0.99,3.72,2.75,-0.98
31.0870,0.07,0.12,-0.99,3.30,2.93,-0.49
31.1120,0.07,0.14,-0.98,3.30,2.81,0.31
31.1200,0.07,0.13,-0.99,3.66,2.75,0.85
31.1380,0.07,0.12,-0.99,3.60,2.62,1.16
31.1540,0.07,0.11,-0.99,3.54,2.93,0.18
31.1700,0.08,0.11,-0.99,3.66,2.62,-0.24
31.1870,0.07,0.12,-0.99,3.23,2.99,-0.67
31.2040,0.07,0.14,-0.98,3.30,2.93,-0.37
31.2200,0.07,0.13,-0.99,3.78,2.62,0.61
31.2360,0.07,0.13,-0.99,3.85,2.62,0.49
31.2530,0.07,0.12,-0.99,3.91,2.38,0.49
31.2540,0.07,0.12,-0.99,3.78,2.69,0.43
31.2850,0.07,0.12,-0.99,4.09,2.69,0.43
31.2870,0.07,0.13,-0.99,3.72,2.44,-0.06
31.3040,0.08,0.13,-0.99,3.30,2.44,-0.24
31.3200,0.07,0.12,-0.99,3.85,2.50,0.18
31.3350,0.07,0.12,-0.99,4.03,2.44,0.06
31.3600,0.07,0.12,-0.99,3.97,2.69,-0.31
31.3790,0.07,0.12,-0.99,3.91,2.62,-0.67
31.3940,0.07,0.13,-0.99,3.78,2.44,-0.85
31.4100,0.07,0.12,-0.99,3.17,2.87,-0.61
31.4260,0.07,0.12,-0.99,3.42,3.05,-0.43
31.4270,0.07,0.13,-0.99,3.42,2.81,-0.06
31.4570,0.07,0.13,-0.99,3.78,2.44,-0.12
31.4730,0.07,0.13,-0.99,3.60,2.38,0.18
31.4880,0.08,0.12,-0.99,3.60,2.44,0.55
31.5050,0.07,0.12,-0.99,3.54,2.81,0.00
31.5210,0.07,0.13,-0.99,3.54,2.75,0.12
31.5370,0.07,0.13,-0.99,3.48,2.69,-0.31
31.5520,0.07,0.13,-0.99,3.66,2.69,-0.06
31.5680,0.07,0.12,-0.99,3.36,2.81,0.00
31.5790,0.07,0.12,-0.99,3.60,2.93,-0.24
31.5930,0.08,0.12,-0.99,3.48,2.81,-0.37
31.6110,0.07,0.12,-0.99,3.36,3.23,-0.92
31.6260,0.07,0.14,-0.98,3.17,2.99,-0.67
31.6430,0.07,0.13,-0.99,3.23,2.56,-0.67
31.6600,0.08,0.14,-0.99,3.48,2.56,0.37
31.6770,0.07,0.12,-0.99,3.42,2.87,0.55
31.6920,0.07,0.12,-0.99,3.36,2.50,0.12
31.6940,0.07,0.13,-0.99,3.05,2.93,0.55
31.7230,0.07,0.13,-0.99,3.30,2.62,1.16
31.7390,0.07,0.12,-0.99,2.99,2.75,1.77
31.7550,0.07,0.12,-0.99,3.11,2.56,1.89
31.7710,0.07,0.13,-0.99,2.99,2.44,1.95
31.7790,0.07,0.13,-0.99,2.75,2.32,2.38
31.7920,0.07,0.12,-0.99,3.17,2.32,2.56
31.8160,0.07,0.12,-0.99,3.23,2.50,2.26
31.8320,0.08,0.13,-0.99,3.36,2.26,2.38
31.8480,0.08,0.13,-0.98,3.05,2.20,2.01
31.8640,0.07,0.12,-0.99,3.42,2.62,2.26
31.8790,0.07,0.12,-0.99,3.48,2.38,2.32
31.8830,0.07,0.12,-0.99,3.48,2.14,2.56
31.9060,0.07,0.12,-0.99,2.93,2.56,2.56
31.9230,0.07,0.12,-0.99,3.42,2.20,2.69
31.9390,0.07,0.12,-0.99,3.78,2.01,2.38
31.9560,0.07,0.12,-0.99,3.36,1.95,2.62
31.9710,0.07,0.12,-0.99,3.17,1.95,2.50
31.9880,0.09,0.13,-0.99,3.23,2.38,2.87
32.0020,0.08,0.12,-0.99,3.48,1.89,2.44
32.0180,0.08,0.12,-0.99,3.17,2.20,2.01
32.0270,0.08,0.12,-0.99,3.30,2.44,1.77
32.0430,0.07,0.12,-0.99,3.66,2.08,1.77
32.0600,0.07,0.12,-0.99,3.60,1.89,1.71
32.0790,0.08,0.13,-0.99,3.60,2.14,1.95
32.0950,0.07,0.12,-0.99,3.66,2.01,1.77
32.0950,0.07,0.12,-0.99,3.91,2.44,1.28
32.1260,0.07,0.12,-0.99,4.15,2.32,0.85
32.1420,0.07,0.13,-0.99,3.66,1.89,0.73
32.1580,0.07,0.10,-0.99,3.54,2.08,1.28
32.1730,0.07,0.11,-0.99,3.72,2.50,1.16
32.1890,0.08,0.12,-0.99,4.03,2.50,0.37
32.1950,0.08,0.13,-0.99,3.85,2.44,-0.37
32.2210,0.07,0.12,-0.99,3.85,2.69,-0.73
32.2270,0.07,0.12,-0.99,3.78,2.56,0.43
32.2430,0.07,0.11,-0.99,3.66,2.20,0.61
32.2660,0.07,0.11,-0.99,3.85,2.26,0.37
32.2810,0.08,0.13,-0.99,3.97,2.20,-0.12
32.2850,0.07,0.13,-0.99,3.97,2.62,-0.12
32.3000,0.07,0.12,-0.99,3.91,2.26,0.24
32.3240,0.07,0.12,-0.99,3.78,2.44,0.37
32.3410,0.07,0.12,-0.99,3.60,2.44,0.49
32.3560,0.08,0.12,-0.99,3.54,2.75,0.67
32.3720,0.08,0.12,-0.99,3.85,2.26,-0.55
32.3890,0.07,0.13,-0.98,3.97,2.75,0.06
32.4050,0.07,0.14,-0.99,3.91,2.62,0.12
32.4220,0.08,0.12,-0.99,3.85,2.44,0.73
32.4380,0.08,0.12,-0.99,3.42,2.75,0.55
32.4530,0.07,0.13,-0.99,3.48,2.38,0.37
32.4680,0.07,0.13,-0.99,3.60,2.26,0.85
32.4840,0.08,0.12,-0.99,3.66,2.32,0.79
32.4910,0.07,0.12,-0.99,3.17,2.87,0.73
32.5070,0.07,0.12,-0.99,3.42,2.50,0.79
32.5300,0.07,0.12,-0.99,3.78,2.69,0.85
32.5460,0.08,0.15,-0.99,3.54,2.75,0.85
32.5610,0.07,0.13,-0.99,3.36,2.26,0.67
32.5640,0.08,0.12,-0.99,3.48,2.56,0.92
32.5800,0.08,0.12,-0.99,3.60,2.62,0.92
32.6050,0.07,0.12,-0.99,3.42,2.56,0.43
32.6210,0.07,0.12,-0.99,3.72,2.38,0.18
32.6380,0.07,0.12,-0.99,3.78,2.32,0.43
32.6550,0.08,0.12,-0.99,3.48,2.75,0.79
32.6710,0.08,0.13,-0.99,3.36,2.20,0.98
32.6860,0.07,0.13,-0.99,3.36,2.81,0.98
32.7020,0.07,0.12,-0.99,3.91,2.32,0.73
32.7050,0.07,0.12,-0.99,3.91,1.95,0.61
32.7220,0.07,0.13,-0.99,3.48,2.50,0.43
32.7390,0.07,0.12,-0.99,3.42,2.99,0.55
32.7670,0.07,0.12,-0.99,3.48,2.32,0.98
32.7800,0.07,0.12,-0.99,3.42,2.38,0.79
32.7880,0.07,0.12,-0.99,3.48,2.56,0.61
32.8040,0.07,0.13,-0.99,3.60,2.32,0.85
32.8250,0.07,0.13,-0.99,3.78,2.44,1.10
32.8420,0.07,0.13,-0.99,3.48,2.44,1.46
32.8580,0.07,0.12,-0.99,3.54,2.14,1.71
32.8750,0.07,0.12,-0.99,3.42,2.38,1.77
32.8920,0.07,0.12,-0.99,3.36,2.38,1.89
32.9080,0.07,0.13,-0.99,2.87,2.26,2.38
32.9230,0.07,0.12,-0.99,2.87,2.32,2.56
32.9380,0.07,0.12,-0.99,2.87,2.50,2.56
32.9540,0.07,0.12,-0.99,2.93,2.14,2.62
32.9700,0.07,0.12,-0.99,2.75,2.44,2.87
32.9860,0.08,0.13,-0.99,3.23,2.26,3.54
32.9920,0.08,0.12,-0.99,3.30,2.50,3.11
33.0080,0.08,0.13,-0.99,2.69,2.38,2.69
33.0320,0.08,0.13,-0.98,2.87,2.20,2.26
33.0470,0.07,0.11,-0.99,3.72,2.01,2.14
33.0480,0.07,0.12,-0.99,3.54,2.32,2.87
33.0790,0.07,0.12,-0.99,3.48,2.38,2.56
33.0820,0.07,0.12,-0.99,3.23,2.44,2.69
33.1100,0.07,0.12,-0.99,3.72,2.01,2.69
33.1260,0.07,0.12,-0.99,3.05,2.01,2.44
33.1310,0.07,0.13,-0.99,2.81,1.65,2.99
33.1490,0.07,0.12,-0.99,2.87,1.59,3.23
33.1650,0.07,0.12,-0.99,3.48,1.71,3.72
33.1870,0.08,0.13,-0.99,3.42,1.89,3.17
33.2040,0.08,0.12,-0.99,3.36,2.01,2.69
33.2190,0.08,0.12,-0.99,3.17,2.44,2.56
33.2370,0.07,0.11,-0.99,3.11,2.01,2.87
33.2520,0.08,0.13,-0.99,2.87,2.26,3.30
33.2530,0.09,0.13,-0.99,3.66,1.71,2.69
33.2820,0.08,0.13,-0.99,3.48,1.95,2.26
33.3000,0.07,0.13,-0.99,3.72,2.14,1.95
33.3160,0.07,0.12,-0.99,3.54,2.44,1.77
33.3320,0.07,0.12,-0.99,3.85,1.95,1.89
33.3370,0.08,0.12,-0.99,3.72,2.08,1.95
33.3530,0.07,0.12,-0.99,3.48,2.01,1.77
33.3760,0.07,0.12,-0.99,3.91,2.08,1.71
33.3930,0.07,0.11,-0.99,3.60,2.44,1.53
33.4110,0.07,0.13,-0.99,3.60,1.89,1.40
33.4270,0.07,0.12,-0.99,3.78,2.26,1.40
33.4420,0.07,0.13,-0.99,3.60,2.38,1.65
33.4570,0.08,0.12,-0.99,3.72,2.14,1.65
33.4730,0.08,0.12,-0.99,3.78,2.08,1.28
33.4890,0.07,0.11,-0.99,3.72,2.50,0.92
33.5040,0.07,0.11,-0.99,3.54,2.50,1.22
33.5100,0.07,0.12,-0.99,3.66,2.50,1.10
33.5260,0.07,0.13,-0.99,3.54,2.20,0.85
33.5500,0.07,0.12,-0.99,3.85,2.44,0.85
33.5660,0.07,0.12,-0.99,3.78,2.44,0.85
33.5670,0.07,0.12,-0.99,3.48,2.50,0.98
33.5830,0.07,0.13,-0.99,3.36,2.26,0.79
33.6140,0.07,0.13,-0.99,3.42,2.38,1.16
33.6160,0.07,0.12,-0.99,3.30,2.44,1.40
33.6340,0.07,0.12,-0.99,3.42,2.38,1.22
33.6620,0.08,0.12,-0.99,3.48,2.26,1.04
33.6670,0.07,0.13,-0.99,3.85,2.38,0.79
33.6820,0.07,0.13,-0.99,3.54,2.32,1.34
33.7070,0.07,0.13,-0.99,3.48,2.44,1.40
33.7230,0.07,0.12,-0.99,3.42,2.08,1.65
33.7390,0.08,0.12,-0.99,3.66,2.50,1.40
33.7540,0.08,0.12,-0.99,3.36,2.32,1.40
33.7560,0.07,0.12,-0.99,3.60,2.14,1.34
33.7830,0.08,0.12,-0.99,3.60,2.32,1.22
33.7950,0.08,0.12,-0.99,3.72,2.69,1.16
33.8110,0.07,0.12,-0.99,3.54,2.75,0.92
33.8280,0.07,0.12,-0.99,3.78,2.01,0.73
33.8450,0.07,0.11,-0.99,3.66,2.38,0.37
33.8610,0.07,0.12,-0.99,3.54,2.62,0.43
33.8780,0.07,0.13,-0.99,3.66,2.38,0.67
33.8960,0.07,0.13,-0.99,3.66,2.38,0.61
33.9120,0.08,0.12,-0.99,3.60,2.50,0.73
33.9280,0.07,0.12,-0.99,3.54,2.99,0.43
33.9440,0.07,0.12,-0.99,3.78,2.75,0.24
33.9460,0.07,0.13,-0.99,3.60,2.44,-0.12
33.9760,0.07,0.13,-0.99,3.91,2.56,-0.31
33.9830,0.07,0.14,-0.99,3.60,2.44,-0.12
33.9950,0.07,0.13,-0.99,3.60,2.93,0.67
34.0240,0.07,0.13,-0.99,3.66,2.62,0.98
34.0390,0.07,0.12,-0.99,3.72,2.20,0.98
34.0550,0.07,0.11,-0.99,3.91,2.62,0.61
34.0620,0.07,0.12,-0.99,3.54,2.56,-0.24
34.0850,0.07,0.13,-0.99,3.54,2.93,0.00
34.0950,0.07,0.14,-0.98,3.36,2.99,0.61
34.1120,0.07,0.13,-0.99,3.54,2.44,0.92
34.1290,0.07,0.12,-0.99,3.36,2.44,1.04
34.1460,0.07,0.12,-0.99,3.36,2.62,1.10
34.1630,0.07,0.12,-0.99,3.60,2.56,1.22
34.1780,0.07,0.13,-0.99,3.30,2.62,1.22
34.1830,0.08,0.14,-0.99,3.11,2.81,1.34
34.2100,0.07,0.12,-0.99,3.54,2.44,1.65
34.2120,0.07,0.12,-0.99,3.48,2.08,1.77
34.2290,0.07,0.12,-0.99,3.42,2.81,1.89
34.2510,0.07,0.13,-0.99,3.11,2.69,1.71
34.2680,0.07,0.13,-0.99,3.17,2.32,1.95
34.2840,0.07,0.12,-0.99,3.17,2.56,2.20
34.3010,0.07,0.12,-0.99,3.48,2.20,2.20
34.3180,0.07,0.12,-0.99,3.17,2.56,1.83
34.3340,0.08,0.13,-0.99,3.05,2.56,1.65
34.3510,0.07,0.13,-0.99,3.48,2.38,1.77
34.3680,0.08,0.13,-0.99,3.66,2.08,1.71
34.3840,0.07,0.13,-0.99,3.42,2.69,1.83
34.3850,0.07,0.12,-0.99,3.23,2.14,1.95
34.4010,0.07,0.11,-0.99,3.05,1.95,2.44
34.4180,0.07,0.12,-0.99,3.23,2.32,2.62
34.4350,0.08,0.12,-0.99,3.23,2.14,2.50
34.4630,0.08,0.13,-0.99,3.42,2.44,2.08
34.4740,0.07,0.13,-0.99,3.36,2.08,2.20
34.4900,0.07,0.12,-0.99,3.05,2.56,2.38
34.5070,0.07,0.12,-0.99,2.93,2.62,2.75
34.5250,0.07,0.12,-0.99,2.87,1.95,2.81
34.5400,0.08,0.12,-0.99,3.54,2.32,2.93
34.5560,0.08,0.14,-0.98,3.60,2.26,2.44
34.5580,0.09,0.15,-0.98,3.42,1.77,2.26
34.5840,0.07,0.12,-0.99,3.66,1.71,2.26
34.5900,0.08,0.12,-0.99,3.48,2.01,2.81
34.6120,0.08,0.12,-0.99,3.66,2.08,2.38
34.6300,0.08,0.13,-0.99,3.36,2.44,1.89
34.6460,0.07,0.12,-0.99,3.66,2.75,1.83
34.6630,0.07,0.12,-0.99,3.78,2.32,1.77
34.6790,0.07,0.13,-0.99,3.78,1.95,1.83
34.6950,0.07,0.12,-0.99,3.85,2.50,1.40
34.7120,0.08,0.12,-0.99,3.78,2.44,1.16
34.7130,0.08,0.13,-0.99,3.85,2.20,0.98
34.7440,0.07,0.12,-0.99,4.09,2.20,1.16
34.7600,0.07,0.12,-0.99,3.54,2.50,1.22
34.7760,0.07,0.12,-0.99,3.66,2.75,1.16
34.7920,0.07,0.12,-0.99,3.66,2.56,0.79
34.8080,0.07,0.12,-0.99,3.42,2.50,0.79
34.8230,0.07,0.12,-0.99,3.36,2.69,0.85
34.8290,0.07,0.12,-0.99,3.85,2.20,0.73
34.8450,0.08,0.13,-0.99,3.66,2.38,1.10
34.8660,0.08,0.13,-0.99,3.42,2.93,0.98
34.8840,0.08,0.13,-0.99,3.54,2.69,0.98
34.9000,0.07,0.12,-0.99,3.42,2.32,1.40
34.9160,0.07,0.12,-0.99,3.60,2.62,1.10
34.9320,0.07,0.13,-0.99,3.54,2.56,1.10
34.9320,0.07,0.13,-0.99,3.36,2.26,1.22
34.9490,0.07,0.12,-0.99,3.36,2.26,1.46
34.9660,0.07,0.12,-0.99,3.42,2.38,1.40
34.9850,0.07,0.12,-0.99,3.66,2.56,1.59
34.9990,0.07,0.13,-0.99,3.54,2.44,1.40
35.0210,0.07,0.12,-0.99,3.85,2.50,1.59
35.0370,0.08,0.12,-0.99,3.72,2.26,0.98
35.0540,0.08,0.13,-0.99,3.66,2.56,0.92
35.0700,0.07,0.13,-0.99,3.36,2.62,0.98
35.0880,0.07,0.12,-0.99,3.36,2.44,1.22
35.1040,0.08,0.11,-0.99,3.72,2.93,1.04
35.1210,0.07,0.13,-0.99,3.30,2.69,0.18
35.1370,0.07,0.14,-0.99,3.36,2.75,0.61
35.1540,0.07,0.12,-0.99,3.60,2.62,1.59
35.1700,0.08,0.11,-0.99,3.78,2.44,1.28
35.1870,0.08,0.11,-0.99,3.66,2.56,0.85
35.1890,0.07,0.13,-0.99,3.54,2.69,0.98
35.2040,0.07,0.12,-0.99,3.72,2.56,0.85
35.2350,0.07,0.12,-0.99,3.66,2.20,0.92
35.2500,0.07,0.11,-0.99,3.72,2.81,0.67
35.2660,0.08,0.14,-0.99,3.78,2.38,0.00
35.2830,0.08,0.13,-0.99,3.48,2.26,0.55
35.2880,0.07,0.13,-0.99,3.36,2.32,0.49
35.3030,0.07,0.13,-0.99,3.72,2.50,0.85
35.3190,0.07,0.13,-0.99,3.78,2.32,1.28
35.3430,0.07,0.12,-0.99,3.54,2.14,1.22
35.3600,0.07,0.12,-0.99,3.30,2.62,1.22
35.3760,0.08,0.12,-0.99,3.42,2.50,1.16
35.3920,0.08,0.13,-0.99,3.30,2.81,0.92
35.4080,0.07,0.13,-0.99,3.30,2.50,0.79
35.4230,0.07,0.13,-0.99,3.48,2.69,0.85
35.4390,0.07,0.12,-0.99,3.54,2.50,1.10
35.4540,0.07,0.12,-0.99,3.66,2.69,1.10
35.4700,0.07,0.12,-0.99,3.60,2.93,0.98
35.4860,0.07,0.12,-0.99,3.60,2.93,0.92
35.4930,0.08,0.12,-0.99,3.85,2.62,0.55
35.5090,0.07,0.13,-0.99,3.54,2.69,-0.06
35.5320,0.07,0.14,-0.99,3.42,2.44,0.49
35.5470,0.07,0.13,-0.99,3.42,2.26,0.85
35.5500,0.07,0.12,-0.99,3.72,2.62,1.40
35.5660,0.07,0.12,-0.99,3.72,1.83,1.65
35.5900,0.07,0.12,-0.99,3.60,2.44,1.22
35.6050,0.08,0.14,-0.99,3.23,2.44,0.79
35.6230,0.08,0.13,-0.99,3.30,2.26,0.79
35.6230,0.07,0.14,-0.99,2.99,2.75,1.16
35.6530,0.07,0.13,-0.99,3.36,2.87,1.53
35.6680,0.07,0.12,-0.99,3.42,1.59,1.46
35.6830,0.08,0.12,-0.99,3.17,2.81,1.59
35.6900,0.08,0.12,-0.99,3.23,2.50,1.34
35.7070,0.08,0.13,-0.99,3.42,2.75,1.22
35.7240,0.07,0.12,-0.99,3.23,2.50,1.28
35.7400,0.07,0.13,-0.99,3.48,2.56,1.53
35.7550,0.07,0.12,-0.99,3.54,2.01,1.22
35.7730,0.07,0.12,-0.99,3.30,2.26,1.46
35.7890,0.07,0.13,-0.99,3.23,2.50,1.59
35.8050,0.07,0.12,-0.99,3.30,2.44,1.59
35.8220,0.08,0.13,-0.99,3.36,2.50,1.77
35.8240,0.07,0.13,-0.99,3.30,2.69,1.59
35.8530,0.07,0.13,-0.99,3.17,2.50,1.65
35.8700,0.07,0.12,-0.99,3.48,2.44,1.65
35.8860,0.07,0.12,-0.99,3.48,1.89,1.71
35.9010,0.07,0.13,-0.99,3.42,1.83,1.71
35.9170,0.07,0.13,-0.99,3.48,2.20,1.53
35.9330,0.07,0.13,-0.99,3.23,2.38,1.65
35.9500,0.07,0.12,-0.99,3.54,2.08,1.53
35.9660,0.08,0.13,-0.99,3.36,2.14,1.89
35.9810,0.08,0.13,-0.99,3.36,2.44,1.83
35.9970,0.07,0.12,-0.99,3.11,2.38,1.77
36.0060,0.07,0.11,-0.99,3.30,2.62,1.89
36.0220,0.07,0.11,-0.99,3.05,2.44,1.77
36.0390,0.07,0.13,-0.99,2.93,2.38,1.65
36.0550,0.07,0.13,-0.99,3.05,2.26,1.89
36.0730,0.07,0.13,-0.99,2.81,2.44,1.71
36.0880,0.07,0.13,-0.99,2.87,2.87,1.71
36.1050,0.07,0.13,-0.99,3.05,2.20,1.89
36.1200,0.07,0.13,-0.99,3.48,2.14,2.08
36.1350,0.07,0.13,-0.99,3.36,2.32,1.95
36.1510,0.07,0.12,-0.99,2.93,2.32,1.95
36.1610,0.07,0.11,-0.99,3.11,2.32,2.69
36.1780,0.07,0.13,-0.99,3.11,2.44,2.69
36.1940,0.08,0.14,-0.98,2.99,2.32,2.50
36.2090,0.08,0.13,-0.99,3.17,2.20,2.32
36.2280,0.08,0.12,-0.99,3.17,2.01,2.44
36.2440,0.07,0.11,-0.99,3.66,2.14,2.38
36.2590,0.07,0.12,-0.99,3.17,2.38,2.50
36.2740,0.08,0.13,-0.99,2.99,2.32,2.62
36.2910,0.08,0.12,-0.99,3.54,2.44,2.56
36.3060,0.08,0.13,-0.99,3.78,2.32,1.65
36.3220,0.08,0.13,-0.99,3.42,2.20,1.53
36.3300,0.07,0.13,-0.99,3.42,2.62,1.40
36.3470,0.07,0.12,-0.99,3.72,2.32,1.46
36.3640,0.07,0.13,-0.99,3.36,2.62,2.01
36.3800,0.07,0.12,-0.99,3.54,1.95,1.89
36.3970,0.08,0.13,-0.99,3.11,2.44,1.89
36.4140,0.07,0.12,-0.99,3.78,1.77,1.53
36.4310,0.07,0.12,-0.99,3.42,2.14,1.34
36.4470,0.08,0.12,-0.99,3.60,2.69,1.22
36.4640,0.08,0.13,-0.99,4.09,2.50,1.04
36.4800,0.08,0.13,-0.99,3.97,2.44,0.73
36.4950,0.07,0.13,-0.99,3.48,2.38,1.10
36.5110,0.07,0.11,-0.99,3.72,2.44,1.46
36.5280,0.07,0.11,-0.99,3.72,2.14,1.16
36.5430,0.07,0.13,-0.99,3.66,2.62,0.92
36.5570,0.07,0.13,-0.99,3.78,2.44,0.73
36.5740,0.07,0.12,-0.99,3.85,2.56,0.67
36.5890,0.07,0.13,-0.99,3.54,2.38,1.16
36.5970,0.07,0.12,-0.99,3.85,1.95,1.71
36.6150,0.07,0.12,-0.99,3.66,2.20,1.71
36.6310,0.07,0.13,-0.99,3.48,2.38,1.71
36.6470,0.07,0.12,-0.99,3.36,2.50,1.77
36.6640,0.07,0.12,-0.99,3.23,2.26,1.46
36.6800,0.07,0.11,-0.99,3.60,2.50,1.46
36.6970,0.07,0.12,-0.99,3.60,2.56,1.46
36.7140,0.08,0.12,-0.99,3.60,2.56,1.22
36.7310,0.07,0.13,-0.99,3.42,2.38,0.92
36.7460,0.07,0.12,-0.99,3.42,2.87,0.98
36.7620,0.07,0.13,-0.99,3.36,2.26,0.92
36.7780,0.07,0.12,-0.99,3.60,2.44,1.10
36.7940,0.07,0.13,-0.99,3.66,2.38,1.10
36.7970,0.07,0.13,-0.99,3.66,2.26,1.04
36.8130,0.07,0.13,-0.99,3.42,2.69,1.22
36.8350,0.07,0.12,-0.99,3.48,2.69,1.46
36.8520,0.07,0.12,-0.99,3.66,2.56,1.40
36.8690,0.07,0.13,-0.99,3.48,2.56,1.28
36.8850,0.07,0.13,-0.99,3.48,2.38,1.28
36.9010,0.07,0.13,-0.99,3.66,2.26,1.83
36.9020,0.07,0.12,-0.99,3.36,2.62,1.89
36.9310,0.07,0.13,-0.99,3.48,2.38,1.71
36.9480,0.07,0.13,-0.99,3.05,2.50,1.65
36.9520,0.08,0.12,-0.98,2.87,2.20,1.77
36.9800,0.07,0.12,-0.99,3.23,2.26,1.83
36.9950,0.07,0.12,-0.99,3.60,2.14,1.83
37.0020,0.07,0.13,-0.99,3.48,2.38,1.89
37.0180,0.08,0.13,-0.99,2.99,2.62,1.59
37.0340,0.07,0.13,-0.99,3.17,2.20,1.77
37.0550,0.07,0.12,-0.99,3.23,2.75,1.89
37.0700,0.07,0.13,-0.99,3.36,2.93,1.83
37.0860,0.08,0.13,-0.99,2.93,2.50,1.65
37.1020,0.07,0.13,-0.99,2.50,2.50,1.77
37.1070,0.07,0.12,-0.99,2.50,2.62,1.83
37.1230,0.07,0.12,-0.99,3.42,2.38,1.65
37.1440,0.07,0.12,-0.99,3.30,1.77,1.83
37.1620,0.07,0.13,-0.99,3.42,2.26,1.89
37.1780,0.07,0.13,-0.99,2.99,2.56,2.01
37.1950,0.07,0.13,-0.99,3.23,2.14,3.36
37.2110,0.07,0.13,-0.99,2.38,2.20,3.91
37.2290,0.09,0.10,-0.98,2.56,2.44,3.78
37.2440,0.07,0.13,-0.99,4.33,2.69,1.71
37.2610,0.07,0.12,-0.99,3.36,2.93,1.89
37.2620,0.07,0.12,-0.99,3.54,2.93,1.89
37.2930,0.07,0.12,-0.99,4.33,2.50,1.95
37.3090,0.08,0.13,-0.99,4.94,2.20,2.87
37.3250,0.07,0.13,-0.99,3.97,2.32,2.08
37.3400,0.07,0.12,-0.98,3.66,2.62,1.71
37.3550,0.07,0.12,-0.99,3.30,2.81,1.89
37.3720,0.07,0.12,-0.99,3.36,2.75,1.83
37.3860,0.07,0.12,-0.99,3.54,2.62,1.89
37.4020,0.07,0.13,-0.99,3.42,2.81,1.89
37.4120,0.07,0.13,-0.99,3.60,2.50,1.95
37.4280,0.07,0.12,-0.99,3.42,2.44,1.89
37.4450,0.07,0.12,-0.99,3.48,2.26,1.77
37.4620,0.07,0.12,-0.99,3.48,2.14,1.65
37.4780,0.07,0.12,-0.99,3.60,2.20,1.77
37.4940,0.07,0.12,-0.99,3.36,2.38,1.89
37.5110,0.07,0.12,-0.99,3.72,2.38,1.77
37.5280,0.07,0.12,-0.99,3.42,2.75,2.01
37.5450,0.07,0.12,-0.98,3.54,2.44,1.89
37.5610,0.07,0.12,-0.99,3.54,2.44,1.71
37.5620,0.07,0.13,-0.99,3.97,2.32,1.77
37.5920,0.07,0.13,-0.99,4.46,2.32,1.77
37.6080,0.07,0.13,-0.99,3.72,2.56,1.71
37.6240,0.07,0.12,-0.99,3.42,2.50,1.89
37.6390,0.08,0.12,-0.99,3.30,2.20,1.77
37.6550,0.08,0.12,-0.99,3.54,2.32,1.89
37.6720,0.07,0.13,-0.99,3.72,2.20,1.89
37.6870,0.07,0.13,-0.99,3.66,1.95,1.65
37.7030,0.07,0.13,-0.99,3.42,2.56,1.83
37.7110,0.07,0.13,-0.99,3.42,2.20,1.83
37.7270,0.07,0.12,-0.99,2.99,2.50,1.71
37.7490,0.07,0.12,-0.99,3.72,2.69,1.83
37.7500,0.07,0.12,-0.99,3.85,2.26,1.77
37.7660,0.07,0.12,-0.99,3.42,2.44,1.77
37.7880,0.07,0.13,-0.99,3.78,2.50,1.77
37.7980,0.07,0.12,-0.99,4.09,2.50,1.53
37.8160,0.08,0.12,-0.99,4.09,2.20,1.04
37.8310,0.07,0.13,-0.99,3.78,2.50,0.37
37.8490,0.07,0.12,-0.99,3.66,2.38,0.73
37.8760,0.07,0.12,-0.99,3.60,2.32,0.85
37.8920,0.07,0.12,-0.99,3.36,2.32,0.43
37.8990,0.08,0.14,-0.99,3.42,2.32,1.40
37.9160,0.07,0.13,-0.99,3.54,2.38,1.46
37.9330,0.07,0.12,-0.99,3.54,2.50,1.77
37.9490,0.06,0.10,-0.99,3.85,2.69,1.28
37.9650,0.07,0.11,-0.99,3.66,2.50,0.73
37.9820,0.08,0.12,-0.99,3.54,2.44,0.85
37.9990,0.08,0.14,-0.99,3.66,2.32,0.61
38.0150,0.07,0.12,-0.99,3.30,2.56,-0.06
38.0320,0.08,0.13,-0.99,3.48,2.75,0.31
38.0480,0.07,0.12,-0.99,3.54,2.62,0.43
38.0490,0.07,0.12,-0.99,3.23,2.08,0.49
38.0660,0.07,0.12,-0.99,3.17,2.44,0.43
38.0880,0.08,0.12,-0.99,3.66,2.56,0.12
38.0990,0.07,0.13,-0.99,3.48,2.56,-0.55
38.1160,0.07,0.13,-0.99,3.66,2.50,-0.31
38.1330,0.07,0.12,-0.99,3.48,2.44,-0.31
38.1500,0.07,0.13,-0.99,3.11,2.69,0.06
38.1660,0.08,0.12,-0.99,3.66,2.20,0.79
38.1880,0.07,0.12,-0.99,3.78,2.56,0.18
38.1990,0.08,0.11,-0.99,3.85,2.32,-0.37
38.2160,0.07,0.13,-0.99,3.05,2.87,-1.28
38.2320,0.07,0.13,-0.99,3.17,2.75,-0.31
38.2480,0.07,0.13,-0.99,3.30,2.50,0.79
38.2660,0.07,0.12,-0.99,3.60,2.50,1.10
38.2820,0.07,0.12,-0.99,3.72,2.87,0.37
38.2980,0.07,0.12,-0.99,3.48,2.62,0.00
38.3140,0.07,0.13,-0.99,3.72,1.89,-0.24
38.3150,0.08,0.14,-0.99,3.66,2.62,-0.06
38.3460,0.07,0.13,-0.99,3.23,2.69,0.55
38.3490,0.07,0.12,-0.99,3.17,2.20,0.85
38.3650,0.07,0.11,-0.99,3.78,2.14,0.92
38.3880,0.07,0.11,-0.99,3.78,2.75,0.31
38.4040,0.08,0.13,-0.99,3.72,2.87,-0.12
38.4190,0.07,0.13,-0.99,4.09,2.50,0.12
38.4400,0.07,0.13,-0.99,3.42,2.44,0.55
38.4550,0.07,0.13,-0.99,3.66,2.20,1.10
38.4580,0.07,0.12,-0.99,3.72,2.44,1.40
38.4870,0.07,0.12,-0.99,3.54,2.38,1.04
38.5030,0.08,0.12,-0.99,3.60,2.62,1.04
38.5070,0.08,0.12,-0.99,3.66,2.44,0.73
38.5230,0.08,0.13,-0.99,3.66,2.75,0.61
38.5430,0.07,0.14,-0.98,3.60,2.32,0.31
38.5590,0.07,0.12,-0.99,3.66,2.20,1.10
38.5770,0.07,0.12,-0.99,3.66,1.89,0.98
38.5930,0.07,0.12,-0.99,3.54,2.38,0.49
38.6090,0.08,0.13,-0.99,3.66,2.50,0.18
38.6270,0.08,0.13,-0.99,3.66,2.75,0.00
38.6430,0.08,0.12,-0.99,3.66,2.44,0.43
38.6600,0.07,0.11,-0.99,3.54,2.50,0.24
38.6760,0.07,0.11,-0.99,3.48,2.44,-0.18
38.6920,0.07,0.12,-0.99,3.85,2.62,-1.10
38.6940,0.07,0.15,-0.98,3.54,2.50,-1.40
38.7100,0.07,0.14,-0.99,3.60,2.50,-0.18
38.7260,0.07,0.13,-0.99,3.48,2.44,0.85
38.7480,0.08,0.12,-0.99,3.42,2.01,0.67
38.7640,0.08,0.12,-0.99,3.36,2.62,0.24
38.7810,0.07,0.10,-0.99,3.78,2.56,-0.24
38.7990,0.08,0.12,-0.98,3.78,2.81,-1.59
38.8150,0.08,0.13,-0.99,3.91,2.87,-1.95
38.8320,0.07,0.15,-0.99,3.78,2.56,-0.98
38.8470,0.07,0.12,-0.99,3.72,2.56,-0.06
38.8660,0.07,0.11,-0.99,3.72,2.93,-0.73
38.8800,0.07,0.12,-0.99,3.42,2.75,-1.83
38.8970,0.07,0.13,-0.99,3.30,2.87,-1.77
38.9140,0.07,0.11,-0.99,3.42,2.87,-2.32
38.9300,0.07,0.10,-0.99,3.42,3.42,-3.30
38.9310,0.08,0.13,-0.99,3.72,3.78,-3.66
38.9480,0.08,0.17,-0.98,3.72,2.75,-2.26
38.9650,0.07,0.14,-0.99,3.85,2.44,0.55
38.9900,0.08,0.12,-0.99,3.54,2.08,1.04
38.9980,0.08,0.12,-0.99,3.54,2.08,0.24
39.0150,0.07,0.13,-0.99,3.60,2.69,0.43
39.0320,0.07,0.12,-0.99,3.66,2.50,0.43
39.0490,0.07,0.12,-0.99,3.30,2.81,0.18
39.0650,0.07,0.13,-0.99,3.23,2.38,0.37
39.0850,0.07,0.13,-0.99,3.42,2.26,0.55
39.1040,0.07,0.12,-0.99,3.48,2.69,0.73
39.1190,0.07,0.12,-0.99,3.60,2.56,0.37
39.1350,0.07,0.13,-0.98,3.23,2.87,-0.12
39.1530,0.08,0.12,-0.99,3.66,2.44,0.31
39.1680,0.07,0.12,-0.99,3.23,2.75,0.00
39.1690,0.07,0.13,-0.99,3.60,2.56,0.31
39.1900,0.08,0.11,-0.99,3.60,2.69,0.31
39.2160,0.08,0.11,-0.99,3.66,2.81,0.18
39.2310,0.07,0.12,-0.99,3.48,3.05,-0.67
39.2360,0.07,0.12,-0.99,3.11,2.99,-1.40
39.2520,0.07,0.12,-0.99,3.05,3.05,-1.77
39.2690,0.07,0.13,-0.99,3.48,2.93,-0.92
39.2900,0.07,0.13,-0.99,3.54,3.05,-1.46
39.3020,0.07,0.12,-0.99,3.36,2.87,-2.26
39.3180,0.07,0.11,-0.99,3.54,3.23,-2.44
39.3370,0.07,0.11,-0.99,3.78,2.62,-2.75
39.3530,0.07,0.13,-0.98,3.42,2.93,-2.99
39.3680,0.07,0.12,-0.99,3.66,2.69,-3.11
39.3850,0.07,0.12,-0.99,3.91,2.56,-3.91
39.4020,0.08,0.13,-0.99,4.15,2.99,-3.36
39.4180,0.08,0.14,-0.99,3.72,2.99,-2.50
39.4350,0.07,0.13,-0.99,3.72,2.81,-2.01
39.4510,0.08,0.14,-0.98,3.36,2.75,-0.92
39.4670,0.07,0.13,-0.99,3.85,2.99,0.18
39.4690,0.07,0.12,-0.99,3.66,2.44,0.24
39.4900,0.07,0.13,-0.99,3.36,2.56,0.31
39.5020,0.08,0.13,-0.99,3.66,2.44,0.18
39.5190,0.07,0.12,-0.99,3.60,2.62,0.00
39.5490,0.07,0.11,-0.99,3.54,2.62,-0.31
39.5570,0.07,0.13,-0.99,3.17,2.69,-0.55
39.5740,0.07,0.13,-0.99,3.23,2.38,-0.43
39.5900,0.07,0.13,-0.99,3.17,2.81,-0.06
39.6070,0.07,0.13,-0.99,2.99,2.62,0.43
39.6240,0.07,0.11,-0.99,3.36,2.44,0.73
39.6400,0.07,0.13,-0.99,3.11,2.62,0.98
39.6560,0.08,0.13,-0.99,3.23,2.44,1.10
39.6720,0.07,0.12,-0.99,3.48,2.32,1.71
39.6870,0.07,0.13,-0.99,3.36,2.20,1.77
39.7030,0.07,0.13,-0.99,3.23,1.89,1.71
39.7180,0.07,0.12,-0.99,3.23,1.95,1.77
39.7240,0.08,0.12,-0.99,3.17,2.69,1.95
39.7490,0.07,0.12,-0.99,3.54,1.95,1.65
39.7640,0.07,0.12,-0.99,3.23,2.44,1.40
39.7750,0.07,0.13,-0.99,3.30,2.56,1.34
39.7910,0.07,0.12,-0.99,3.17,2.32,1.46
39.8070,0.07,0.12,-0.99,3.30,2.20,2.14
39.8240,0.07,0.12,-0.99,3.48,2.20,2.01
39.8400,0.08,0.14,-0.99,3.11,2.50,1.83
39.8560,0.07,0.13,-0.99,3.42,2.38,2.08
39.8720,0.07,0.12,-0.99,3.54,2.14,2.26
39.8880,0.08,0.11,-0.99,3.66,2.32,1.65
39.9050,0.08,0.12,-0.99,3.60,2.81,1.16
39.9200,0.07,0.13,-0.99,3.36,2.38,0.79
39.9350,0.07,0.12,-0.99,2.99,2.56,0.98
39.9410,0.07,0.11,-0.99,3.42,2.26,1.34
39.9570,0.07,0.12,-0.99,3.42,2.26,1.59
39.9740,0.08,0.12,-0.99,3.36,2.56,1.71
39.9910,0.08,0.13,-0.99,3.48,2.62,1.28
40.0060,0.08,0.12,-0.99,3.42,2.44,0.61
40.0280,0.08,0.12,-0.99,3.72,2.81,0.18
40.0440,0.07,0.13,-0.99,3.54,2.75,0.55
40.0610,0.07,0.12,-0.99,3.60,2.14,0.49
40.0780,0.07,0.13,-0.99,3.60,2.44,0.18
40.0940,0.08,0.13,-0.99,3.54,2.62,0.18
40.1090,0.07,0.12,-0.99,3.48,2.87,-0.06
40.1260,0.07,0.12,-0.99,3.60,2.75,-0.24
40.1410,0.08,0.11,-0.99,3.78,2.62,-0.43
40.1570,0.08,0.12,-0.99,4.03,2.56,-0.98
40.1610,0.07,0.12,-0.99,4.03,2.87,-1.77
40.1770,0.08,0.13,-0.99,3.78,3.05,-1.46
40.1930,0.07,0.13,-0.99,3.66,2.75,-1.16
40.2160,0.07,0.13,-0.99,3.85,2.81,-0.73
40.2320,0.07,0.13,-0.99,3.66,2.62,-0.49
40.2490,0.07,0.11,-0.99,3.91,2.75,-0.24
40.2490,0.07,0.12,-0.99,3.97,2.87,-0.67
40.2810,0.08,0.12,-0.99,3.66,3.30,-0.98
40.2920,0.07,0.14,-0.98,3.42,2.75,-1.83
40.2990,0.07,0.13,-0.99,3.97,2.56,-0.79
40.3160,0.07,0.12,-0.99,3.30,2.87,-0.06
40.3330,0.07,0.12,-0.99,3.66,2.81,0.06
40.3490,0.07,0.11,-0.99,3.48,2.56,-0.12
40.3660,0.07,0.12,-0.99,3.48,2.81,-1.22
40.3820,0.07,0.13,-0.99,3.91,2.62,-2.08
40.4000,0.07,0.14,-0.99,4.03,2.75,-1.28
40.4160,0.08,0.14,-0.99,3.54,2.81,0.06
40.4330,0.07,0.13,-0.99,3.54,2.32,0.61
40.4490,0.07,0.11,-0.99,3.85,2.32,0.92
40.4660,0.07,0.12,-0.99,3.60,2.81,0.61
40.4830,0.08,0.12,-0.99,3.66,2.56,-0.12
40.4990,0.07,0.13,-0.99,3.23,3.05,-0.92
40.5150,0.07,0.14,-0.98,3.42,2.87,0.12
40.5310,0.07,0.13,-0.99,3.66,2.32,1.16
40.5470,0.07,0.12,-0.99,3.72,2.44,1.10
40.5630,0.07,0.11,-0.99,3.30,2.62,0.55
40.5780,0.08,0.11,-0.99,3.42,2.62,0.12
40.5920,0.07,0.12,-0.99,3.72,2.81,-0.85
40.6070,0.07,0.13,-0.99,3.48,2.87,-0.67
40.6160,0.07,0.15,-0.99,3.30,2.38,0.12
40.6320,0.08,0.14,-0.99,3.36,2.44,0.67
40.6490,0.07,0.12,-0.99,3.36,2.38,0.73
40.6660,0.07,0.11,-0.99,3.66,2.62,0.61
40.6830,0.07,0.11,-0.99,3.48,2.62,-0.24
40.7000,0.07,0.11,-0.99,3.48,2.75,-1.22
40.7170,0.07,0.13,-0.98,3.17,2.87,-1.59
40.7330,0.07,0.15,-0.98,3.60,2.69,-0.61
40.7490,0.07,0.13,-0.99,3.48,2.26,0.31
40.7650,0.07,0.12,-0.99,3.48,2.69,0.24
40.7810,0.07,0.11,-0.99,3.72,2.81,-0.43
40.7970,0.07,0.12,-0.98,3.23,2.26,-0.73
40.8000,0.08,0.12,-0.99,3.66,2.62,0.43
40.8170,0.08,0.12,-0.99,3.05,2.99,-0.31
40.8440,0.08,0.12,-0.99,2.93,2.75,0.00
40.8490,0.07,0.11,-0.99,3.11,2.93,-0.43
40.8670,0.07,0.11,-0.99,3.36,2.69,-0.12
40.8820,0.07,0.11,-0.99,3.23,2.87,-0.43
40.8990,0.07,0.12,-0.98,3.11,3.05,-0.85
40.9150,0.08,0.13,-0.99,3.60,3.05,-2.26
40.9330,0.07,0.13,-0.99,3.72,3.11,-2.20
40.9380,0.07,0.13,-0.99,3.66,2.93,-0.85
40.9640,0.07,0.14,-0.98,3.66,2.69,-0.24
40.9800,0.08,0.15,-0.98,3.85,2.38,0.92
40.9920,0.07,0.12,-0.99,3.72,2.38,1.46
41.0050,0.07,0.11,-0.99,3.23,2.44,1.59
41.0220,0.07,0.11,-0.99,3.66,2.32,1.34
41.0390,0.07,0.11,-0.99,3.42,2.87,0.12
41.0550,0.08,0.13,-0.99,3.30,2.81,0.12
41.0710,0.07,0.14,-0.99,3.54,2.62,0.18
41.0880,0.08,0.13,-0.99,3.66,2.26,0.98
41.1030,0.07,0.11,-0.99,3.48,2.50,1.16
41.1060,0.07,0.11,-0.99,3.54,2.50,0.79
41.1350,0.07,0.12,-0.99,3.54,2.32,1.53
41.1510,0.08,0.14,-0.98,3.17,2.20,1.65
41.1670,0.07,0.12,-0.99,3.54,2.01,1.53
41.1840,0.07,0.11,-0.99,3.54,2.56,1.10
41.1980,0.07,0.11,-0.99,3.78,2.44,0.55
41.2060,0.08,0.12,-0.99,3.42,2.87,-0.61
41.2290,0.08,0.14,-0.98,3.11,2.75,-0.67
41.2390,0.07,0.13,-0.99,3.66,2.44,0.00
41.2550,0.07,0.12,-0.99,3.72,2.93,-0.12
41.2720,0.07,0.12,-0.99,3.54,3.05,-0.18
41.2900,0.07,0.11,-0.99,3.30,3.11,-0.37
41.3060,0.08,0.11,-0.99,3.78,2.81,-0.67
41.3220,0.07,0.11,-0.99,3.97,2.87,-2.01
41.3390,0.07,0.13,-0.99,3.60,3.54,-2.99
41.3400,0.07,0.14,-0.99,4.15,2.62,-2.81
41.3710,0.07,0.13,-0.99,4.88,2.69,-1.71
41.3870,0.07,0.14,-0.98,4.52,2.87,-0.49
41.3920,0.08,0.15,-0.99,4.58,2.44,0.06
41.4190,0.07,0.12,-0.99,3.42,2.32,1.71
41.4340,0.07,0.12,-0.99,3.42,2.08,1.71
41.4510,0.07,0.12,-0.99,3.72,1.65,1.83
41.4670,0.07,0.12,-0.99,3.60,2.14,1.95
41.4830,0.07,0.12,-0.99,3.66,2.20,1.65
41.5000,0.07,0.12,-0.99,3.85,2.14,1.71
41.5160,0.07,0.12,-0.98,4.33,1.83,1.89
41.5320,0.08,0.12,-0.99,4.27,1.71,1.65
41.5460,0.08,0.11,-0.98,4.88,1.46,1.59
41.5560,0.07,0.13,-0.99,4.64,1.95,1.77
41.5730,0.08,0.12,-0.99,4.39,1.40,1.71
41.5880,0.08,0.13,-0.99,4.52,2.20,1.77
41.6060,0.08,0.13,-0.99,3.48,2.26,1.65
41.6220,0.08,0.13,-0.99,2.14,2.50,1.59
41.6380,0.08,0.12,-0.99,2.08,2.93,1.65
41.6550,0.10,0.13,-1.02,2.44,2.69,1.95
41.6560,0.07,0.13,-0.99,2.75,2.87,2.26
41.6880,0.07,0.13,-0.99,2.87,2.62,2.32
41.6930,0.07,0.12,-0.99,2.56,2.93,2.56
41.7060,0.07,0.12,-0.99,2.62,2.81,2.69
41.7340,0.07,0.12,-0.99,2.81,2.14,2.69
41.7510,0.07,0.12,-0.99,3.05,2.26,3.17
41.7550,0.08,0.12,-0.99,3.11,2.26,2.38
41.7720,0.07,0.12,-0.99,3.42,1.95,1.83
41.7930,0.07,0.13,-0.99,3.23,2.32,1.77
41.8060,0.07,0.12,-0.99,3.11,2.32,1.83
41.8260,0.07,0.13,-0.99,3.05,2.38,1.95
41.8420,0.07,0.13,-0.99,2.62,2.44,2.38
41.8580,0.07,0.13,-0.99,2.56,2.50,2.99
41.8740,0.08,0.12,-0.99,3.30,2.32,2.81
41.8880,0.07,0.12,-0.99,3.48,2.44,2.38
41.9050,0.07,0.13,-0.99,3.78,2.32,1.59
41.9090,0.07,0.13,-0.99,3.54,2.56,0.92
41.9380,0.07,0.12,-0.99,3.30,2.56,0.49
41.9540,0.08,0.12,-0.99,3.97,2.32,1.10
41.9700,0.08,0.12,-0.99,4.39,2.20,1.10
41.9850,0.06,0.13,-0.99,3.97,2.14,0.98
42.0000,0.06,0.13,-0.99,3.66,2.44,0.67
42.0150,0.07,0.13,-0.99,3.36,2.50,0.79
42.0250,0.08,0.12,-0.99,3.42,2.44,1.46
42.0420,0.07,0.12,-0.99,3.60,2.38,1.46
42.0600,0.06,0.13,-0.99,3.54,2.62,1.40
42.0760,0.07,0.12,-0.99,3.30,2.32,1.34
42.0920,0.07,0.12,-0.99,3.17,2.26,1.59
42.1080,0.08,0.12,-0.99,3.17,2.26,1.89
42.1090,0.08,0.12,-0.99,2.99,2.20,2.26
42.1250,0.08,0.12,-0.99,3.23,2.01,2.20
42.1540,0.07,0.12,-0.99,3.30,2.44,2.14
42.1700,0.07,0.12,-0.99,3.72,1.95,2.14
42.1850,0.08,0.12,-0.99,3.54,2.01,2.20
42.1940,0.08,0.12,-0.99,3.36,2.44,2.08
42.2090,0.08,0.13,-0.99,3.23,1.71,1.95
42.2250,0.08,0.12,-0.99,2.99,2.26,1.89
42.2480,0.06,0.12,-0.99,3.91,2.38,1.95
42.2590,0.07,0.12,-0.99,3.30,2.26,2.08
42.2750,0.08,0.13,-0.99,2.99,2.26,2.32
42.2940,0.08,0.13,-0.99,2.93,1.89,2.26
42.3090,0.07,0.12,-0.99,3.30,2.20,2.20
42.3250,0.07,0.12,-0.99,3.54,2.56,2.01
42.3410,0.08,0.13,-0.99,3.30,2.08,1.83
42.3560,0.08,0.13,-0.99,3.66,2.38,1.95
42.3580,0.08,0.13,-0.99,3.54,2.20,1.77
42.3770,0.07,0.13,-0.99,3.05,2.32,1.89
42.3940,0.07,0.13,-0.99,2.87,2.44,2.14
42.4090,0.08,0.12,-0.99,2.75,2.44,2.01
42.4360,0.08,0.12,-0.99,3.66,2.38,2.26
42.4420,0.08,0.13,-0.99,3.60,2.08,1.95
42.4580,0.08,0.12,-0.99,3.11,2.26,1.89
42.4800,0.07,0.12,-0.99,3.23,2.50,1.77
42.4970,0.06,0.12,-0.99,3.66,2.44,1.71
42.5130,0.08,0.13,-0.99,3.11,2.26,1.89
42.5290,0.07,0.12,-0.99,2.81,2.50,2.01
42.5470,0.08,0.12,-0.99,3.05,2.26,1.95
42.5620,0.08,0.12,-0.99,2.87,2.20,2.26
42.5780,0.07,0.12,-0.99,3.36,2.20,2.14
42.5940,0.08,0.12,-0.99,3.36,2.38,2.01
42.6090,0.07,0.12,-0.99,2.87,2.20,1.83
42.6130,0.07,0.12,-0.99,2.75,2.38,1.89
42.6290,0.07,0.12,-0.99,2.99,2.44,2.14
42.6530,0.07,0.12,-0.99,3.48,2.20,2.20
42.6690,0.07,0.13,-0.99,3.30,2.14,2.26
42.6860,0.07,0.12,-0.99,2.93,2.26,2.26
42.7020,0.07,0.12,-0.99,3.48,2.26,2.32
42.7180,0.06,0.12,-0.99,3.48,2.44,2.26
42.7360,0.07,0.12,-0.99,3.66,1.77,1.65
42.7510,0.08,0.12,-0.99,3.66,2.32,1.59
42.7520,0.08,0.12,-0.99,3.42,2.44,1.89
42.7690,0.07,0.12,-0.99,3.54,2.26,1.77
42.7950,0.08,0.13,-0.99,2.81,2.38,1.77
42.8140,0.08,0.12,-0.99,3.11,2.01,1.71
42.8300,0.07,0.12,-0.99,3.36,2.14,1.40
42.8360,0.07,0.12,-0.99,3.23,2.50,1.34
42.8530,0.07,0.12,-0.99,2.62,2.56,1.77
42.8700,0.07,0.12,-0.99,2.69,2.69,2.20
42.8850,0.08,0.12,-0.99,3.11,2.01,2.20
42.9010,0.07,0.12,-0.99,3.78,2.38,2.20
42.9200,0.07,0.13,-0.99,3.48,2.50,1.77
42.9350,0.07,0.12,-0.99,3.05,2.26,1.71
42.9430,0.07,0.12,-0.99,2.93,2.14,1.83
42.9650,0.07,0.12,-0.99,3.23,2.26,1.71
42.9770,0.07,0.13,-0.99,2.93,2.26,1.77
42.9950,0.07,0.12,-0.99,3.17,2.32,1.77
43.0090,0.08,0.11,-0.99,3.78,1.89,1.46
43.0260,0.08,0.12,-0.99,4.46,2.08,1.22
43.0430,0.08,0.12,-0.99,4.09,1.89,1.16
43.0590,0.08,0.12,-0.99,3.54,2.08,1.34
43.0750,0.08,0.12,-0.99,3.30,2.20,1.28
43.0910,0.08,0.12,-0.99,3.30,2.26,1.71
43.1060,0.07,0.12,-0.99,3.60,2.01,1.77
43.1220,0.08,0.12,-0.99,3.42,2.32,1.89
43.1260,0.08,0.12,-0.99,3.23,2.44,1.71
43.1410,0.08,0.12,-0.99,3.05,2.20,1.65
43.1670,0.08,0.12,-0.99,3.48,2.26,1.83
43.1670,0.07,0.12,-0.99,3.85,2.01,1.71
43.1950,0.07,0.12,-0.99,3.17,2.62,1.83
43.2000,0.08,0.12,-0.99,2.93,2.44,1.77
43.2240,0.08,0.12,-0.99,3.11,2.69,1.95
43.2400,0.08,0.12,-0.99,3.17,2.44,1.71
43.2580,0.07,0.12,-0.99,3.30,2.08,1.65
43.2760,0.07,0.12,-0.99,3.11,2.08,1.28
43.2900,0.07,0.12,-0.99,2.99,2.38,1.46
43.3060,0.08,0.12,-0.99,3.66,2.14,1.71
43.3220,0.08,0.12,-0.99,4.09,2.14,1.71
43.3370,0.07,0.12,-0.99,3.91,1.65,1.40
43.3540,0.07,0.12,-0.99,3.23,2.50,1.34
43.3580,0.07,0.12,-0.99,3.36,2.50,1.46
43.3740,0.07,0.11,-0.99,3.78,2.14,1.71
43.3980,0.08,0.12,-0.99,4.09,1.83,1.83
43.4160,0.08,0.12,-0.99,3.11,2.20,1.77
43.4310,0.08,0.12,-0.99,3.30,2.14,1.83
43.4490,0.07,0.12,-0.99,3.54,2.32,1.77
43.4650,0.08,0.13,-0.99,3.48,2.38,1.77
43.4810,0.08,0.13,-0.99,2.87,1.95,1.71
43.4960,0.08,0.12,-0.99,2.69,1.95,1.77
43.4980,0.08,0.11,-0.99,3.42,2.44,1.83
43.5150,0.07,0.12,-0.99,3.78,2.08,1.77
43.5310,0.07,0.12,-0.99,3.66,2.01,1.53
43.5560,0.07,0.12,-0.99,3.60,2.20,0.85
43.5720,0.08,0.13,-0.99,3.17,2.20,0.73
43.5730,0.08,0.12,-0.99,2.81,2.32,1.65
43.6040,0.07,0.12,-0.99,3.54,2.01,1.89
43.6070,0.07,0.12,-0.99,3.60,2.20,1.83
43.6350,0.08,0.12,-0.99,3.36,1.83,1.83
43.6500,0.08,0.12,-0.99,3.36,2.20,1.77
43.6570,0.08,0.12,-0.99,3.36,2.20,1.83
43.6800,0.07,0.12,-0.99,2.93,2.44,1.95
43.6910,0.07,0.12,-0.99,2.87,2.38,1.65
43.7060,0.07,0.12,-0.99,3.23,2.50,2.08
43.7230,0.07,0.12,-0.99,3.17,2.20,2.01
43.7390,0.07,0.12,-0.99,3.17,2.01,1.95
43.7550,0.07,0.12,-0.99,3.42,2.14,1.95
43.7610,0.07,0.12,-0.99,3.36,2.44,1.59
43.7780,0.07,0.12,-0.99,3.60,1.89,1.46
43.7960,0.07,0.12,-0.99,3.60,1.89,1.46
43.8150,0.07,0.12,-0.99,3.72,1.95,1.34
43.8310,0.08,0.12,-0.99,3.60,2.32,1.59
43.8480,0.07,0.12,-0.99,3.42,2.38,1.53
43.8650,0.07,0.12,-0.99,3.42,2.20,1.59
43.8820,0.09,0.12,-0.99,2.69,2.26,1.46
43.8970,0.08,0.12,-0.99,3.11,2.32,1.95
43.9140,0.07,0.12,-0.99,3.11,2.32,2.32
43.9300,0.07,0.12,-0.99,2.75,2.32,2.38
43.9460,0.08,0.12,-0.99,3.11,2.26,2.50
43.9470,0.08,0.12,-0.99,3.23,2.14,2.38
43.9780,0.08,0.12,-0.99,3.11,2.26,1.89
43.9810,0.07,0.12,-0.99,3.05,2.20,1.89
43.9980,0.07,0.12,-0.99,2.99,2.44,1.95
44.0150,0.07,0.12,-0.99,3.72,2.14,2.08
44.0310,0.07,0.12,-0.99,2.99,2.56,1.77
44.0520,0.08,0.12,-0.99,2.75,2.44,1.71
44.0690,0.07,0.12,-0.99,2.50,2.20,1.89
44.0860,0.07,0.12,-0.99,2.93,2.14,2.08
44.1030,0.07,0.12,-0.99,3.17,2.26,2.20
44.1190,0.07,0.12,-0.99,3.30,2.26,2.01
44.1360,0.07,0.12,-0.99,3.48,2.38,2.01
44.1370,0.08,0.12,-0.99,3.60,2.50,2.08
44.1530,0.08,0.12,-0.99,3.05,2.44,2.01
44.1700,0.08,0.12,-0.99,3.17,2.32,1.89
44.1970,0.08,0.11,-0.99,3.66,2.26,1.95
44.2040,0.08,0.12,-0.99,4.52,1.95,1.71
44.2190,0.07,0.12,-0.99,4.15,2.44,1.59
44.2360,0.08,0.12,-0.99,3.91,2.20,1.28
44.2520,0.08,0.12,-0.99,3.60,1.95,1.40
44.2740,0.08,0.12,-0.99,3.48,2.20,1.16
44.2910,0.07,0.12,-0.99,3.48,2.50,1.46
44.3080,0.07,0.12,-0.99,3.36,1.77,1.59
44.3250,0.07,0.12,-0.99,3.30,2.75,1.77
44.3400,0.07,0.12,-0.99,3.48,2.44,1.83
44.3550,0.08,0.12,-0.99,3.54,2.20,1.83
44.3570,0.08,0.12,-0.99,3.60,2.38,1.89
44.3870,0.08,0.12,-0.99,3.42,2.26,1.77
44.4030,0.08,0.12,-0.99,2.81,2.32,1.83
44.4200,0.08,0.12,-0.99,3.30,1.95,2.14
44.4360,0.07,0.12,-0.99,3.48,2.32,2.01
44.4510,0.07,0.12,-0.99,3.17,2.62,2.01
44.4670,0.07,0.12,-0.99,3.23,2.69,1.89
44.4830,0.08,0.12,-0.99,3.05,2.75,1.77
44.4990,0.08,0.12,-0.99,3.17,2.81,2.01
44.5070,0.07,0.12,-0.99,3.42,2.26,2.01
44.5250,0.07,0.12,-0.99,3.48,2.14,2.20
44.5410,0.08,0.12,-0.99,3.54,2.08,2.01
44.5570,0.07,0.12,-0.99,2.93,2.20,1.71
44.5740,0.08,0.12,-0.99,3.36,2.38,1.83
44.5900,0.07,0.12,-0.99,3.30,2.50,1.83
44.6050,0.07,0.12,-0.99,3.72,2.08,1.89
44.6210,0.08,0.12,-0.99,3.60,2.32,2.01
44.6370,0.08,0.12,-0.99,3.54,2.56,2.14
44.6400,0.08,0.12,-0.99,3.54,2.38,2.08
44.6580,0.08,0.12,-0.99,3.91,2.08,1.77
44.6870,0.08,0.12,-0.99,3.60,2.44,1.71
44.6980,0.08,0.12,-0.99,4.09,2.38,1.77
44.7060,0.08,0.12,-0.99,3.85,2.56,1.65
44.7280,0.08,0.12,-0.99,3.48,2.20,1.65
44.7460,0.07,0.12,-0.99,3.54,2.75,1.65
44.7610,0.07,0.12,-0.99,3.36,2.69,1.65
44.7790,0.08,0.12,-0.99,3.54,2.44,1.77
44.7940,0.07,0.12,-0.99,3.78,2.26,1.71
44.8110,0.07,0.12,-0.99,3.48,2.32,1.71
44.8280,0.07,0.12,-0.99,3.42,2.44,1.65
44.8430,0.08,0.12,-0.99,3.30,2.56,1.89
44.8600,0.08,0.12,-0.99,3.60,2.26,1.83
44.8610,0.07,0.12,-0.99,3.91,1.95,1.77
44.8910,0.08,0.12,-0.99,3.30,2.01,1.59
44.9070,0.07,0.12,-0.99,3.23,2.56,1.77
44.9210,0.07,0.12,-0.99,3.91,2.38,1.83
44.9380,0.08,0.12,-0.99,3.30,2.75,1.83
44.9450,0.07,0.12,-0.99,3.30,2.01,1.89
44.9610,0.07,0.12,-0.99,2.87,2.50,2.01
44.9780,0.07,0.12,-0.99,3.23,2.50,1.89
44.9980,0.07,0.12,-0.99,3.66,2.56,2.08
45.0150,0.07,0.12,-0.99,3.36,2.20,2.08
45.0310,0.08,0.12,-0.99,3.85,2.50,1.89
45.0340,0.08,0.12,-0.99,3.54,2.50,1.77
45.0500,0.07,0.12,-0.99,3.30,2.32,1.71
45.0670,0.08,0.12,-0.99,3.78,2.38,1.83
45.0830,0.08,0.12,-0.99,3.42,2.08,1.77
45.1080,0.08,0.12,-0.99,3.23,2.08,2.01
45.1170,0.07,0.12,-0.99,3.78,2.62,2.14
45.1340,0.07,0.12,-0.99,3.66,2.14,1.95
45.1500,0.08,0.12,-0.99,3.54,2.01,2.08
45.1670,0.08,0.12,-0.99,3.42,2.26,2.20
45.1830,0.08,0.12,-0.99,3.66,1.95,2.26
45.2010,0.07,0.13,-0.99,3.42,2.56,2.38
45.2170,0.07,0.13,-0.99,3.23,2.44,2.26
45.2330,0.07,0.12,-0.99,3.72,2.50,2.44
45.2480,0.07,0.12,-0.98,3.91,2.14,2.20
45.2630,0.08,0.12,-0.99,3.78,2.38,2.08
45.2730,0.08,0.12,-0.99,3.60,2.14,2.20
45.2880,0.07,0.12,-0.99,3.97,2.50,2.01
45.3100,0.08,0.12,-0.99,3.54,2.08,1.95
45.3260,0.08,0.12,-0.99,3.36,2.44,2.01
45.3420,0.08,0.12,-0.99,3.91,2.01,2.14
45.3580,0.08,0.12,-0.99,3.66,2.01,2.14
45.3740,0.08,0.13,-0.99,3.42,2.20,1.89
45.3890,0.08,0.12,-0.99,3.23,2.26,2.01
45.3980,0.08,0.12,-0.99,3.17,2.08,1.77
45.4130,0.08,0.12,-0.99,3.23,2.20,1.83
45.4290,0.08,0.12,-0.99,3.66,2.08,1.83
45.4460,0.08,0.12,-0.99,3.11,2.38,1.83
45.4630,0.08,0.12,-0.99,3.17,2.01,1.89
45.4790,0.07,0.12,-0.99,2.38,1.89,1.89
45.4970,0.07,0.11,-0.99,2.56,2.14,2.08
45.5120,0.07,0.12,-0.99,2.81,1.89,2.81
45.5300,0.08,0.13,-0.99,2.62,2.14,2.32
45.5460,0.08,0.12,-0.99,3.36,2.32,1.65
45.5620,0.08,0.12,-0.99,3.23,2.50,1.71
45.5780,0.08,0.12,-0.99,3.54,2.38,1.71
45.5940,0.08,0.12,-0.99,3.36,2.08,1.59
45.6100,0.08,0.12,-0.99,3.36,2.20,1.71
45.6260,0.08,0.12,-0.99,3.30,2.38,1.71
45.6420,0.08,0.12,-0.99,3.36,2.62,1.65
45.6580,0.08,0.12,-0.99,3.11,2.38,1.71
45.6740,0.08,0.12,-0.99,3.17,2.44,1.59
45.6890,0.08,0.12,-0.99,2.99,2.32,1.53
45.7040,0.08,0.12,-0.99,3.30,2.20,1.71
45.7130,0.08,0.12,-0.99,3.54,2.26,1.71
45.7290,0.08,0.12,-0.99,3.78,2.44,1.71
45.7520,0.07,0.12,-0.99,3.30,2.62,1.77
45.7670,0.08,0.12,-0.99,3.60,2.50,1.77
45.7840,0.08,0.13,-1.00,2.56,2.99,1.83
45.8000,0.07,0.12,-0.99,1.59,2.87,1.59
45.8160,0.08,0.12,-0.99,2.81,2.87,1.65
45.8320,0.08,0.11,-0.99,4.21,2.20,1.59
45.8480,0.07,0.12,-0.99,4.70,2.32,1.77
45.8530,0.08,0.12,-0.99,5.00,2.38,1.77
45.8680,0.08,0.12,-0.99,4.88,2.08,1.83
45.8930,0.07,0.12,-0.99,5.62,2.20,2.01
45.9090,0.07,0.12,-0.99,5.07,2.08,2.01
45.9260,0.07,0.12,-0.99,3.78,2.32,1.71
45.9420,0.07,0.12,-0.99,3.54,2.20,1.77
45.9440,0.07,0.12,-0.99,3.48,2.50,1.77
45.9600,0.08,0.12,-0.99,3.72,2.01,1.77
45.9860,0.08,0.12,-0.99,3.72,2.26,1.77
46.0010,0.08,0.12,-0.99,3.54,2.26,1.83
46.0170,0.08,0.12,-0.99,3.36,2.32,1.77
46.0370,0.08,0.12,-0.99,3.36,2.32,2.01
46.0520,0.08,0.12,-0.99,3.48,2.50,1.65
46.0670,0.07,0.12,-0.99,3.48,2.32,1.83
46.0840,0.07,0.12,-0.99,3.36,2.20,1.71
46.0990,0.07,0.12,-0.99,3.42,2.20,1.59
46.1020,0.08,0.13,-0.99,3.11,2.32,1.71
46.1320,0.07,0.12,-0.99,2.87,2.81,1.71
46.1480,0.07,0.12,-0.99,2.93,2.44,1.59
46.1620,0.08,0.12,-0.99,2.81,2.01,1.59
46.1680,0.08,0.12,-0.99,3.11,2.38,1.77
46.1840,0.08,0.12,-0.99,3.60,2.20,1.53
46.2060,0.08,0.13,-0.99,3.85,2.20,1.83
46.2230,0.07,0.12,-0.99,3.48,2.38,1.77
46.2230,0.08,0.12,-0.99,3.48,2.01,1.77
46.2540,0.08,0.12,-0.99,3.66,2.38,1.77
46.2700,0.08,0.12,-0.99,3.78,2.44,1.83
46.2860,0.08,0.12,-0.99,3.78,2.38,1.71
46.3020,0.07,0.12,-0.99,3.60,2.56,1.77
46.3050,0.07,0.12,-0.99,3.23,2.20,1.71
46.3330,0.07,0.12,-0.99,3.42,2.14,1.83
46.3450,0.07,0.12,-0.99,3.54,2.38,1.59
46.3610,0.07,0.12,-0.99,3.36,2.32,1.65
46.3780,0.07,0.12,-0.99,3.48,2.14,1.53
46.3960,0.08,0.12,-0.99,2.81,2.14,1.40
46.4120,0.07,0.12,-0.99,2.87,2.38,0.98
46.4270,0.06,0.12,-0.99,3.36,2.81,-0.24
46.4430,0.07,0.13,-0.99,3.23,2.75,-0.85
46.4450,0.07,0.13,-0.99,3.48,2.14,-0.18
46.4620,0.07,0.12,-0.99,3.72,2.32,0.00
46.4900,0.06,0.12,-0.99,3.66,2.26,0.18
46.4990,0.07,0.13,-0.99,3.78,2.26,-0.55
46.5110,0.07,0.13,-0.99,3.85,2.20,-0.18
46.5290,0.07,0.12,-0.99,3.48,2.38,0.06
46.5460,0.07,0.13,-0.99,3.54,2.08,0.37
46.5620,0.08,0.13,-0.99,3.30,2.38,1.40
46.5790,0.09,0.12,-0.99,3.05,2.14,1.77
46.5990,0.08,0.12,-0.99,3.23,2.08,1.65
46.6100,0.08,0.13,-0.99,3.85,2.20,1.46
46.6280,0.10,0.13,-0.99,3.17,2.01,1.71
46.6460,0.08,0.12,-0.99,2.62,2.62,2.14
46.6610,0.08,0.12,-0.99,3.42,2.32,1.89
46.6780,0.07,0.12,-0.99,3.91,2.14,1.77
46.6930,0.06,0.12,-0.99,3.91,2.38,1.65
46.7090,0.08,0.12,-0.99,3.05,2.44,1.28
46.7120,0.08,0.13,-0.99,2.87,2.26,1.46
46.7280,0.08,0.12,-0.99,2.44,2.08,1.65
46.7500,0.07,0.12,-0.99,3.48,2.20,1.71
46.7670,0.06,0.13,-0.99,3.78,2.08,1.59
46.7850,0.05,0.13,-0.99,3.85,1.89,1.46
46.8010,0.08,0.12,-0.99,3.30,2.26,1.34
46.8180,0.09,0.12,-0.99,3.36,2.44,1.10
46.8330,0.08,0.12,-0.99,3.54,2.32,1.34
46.8510,0.07,0.12,-0.99,3.17,2.08,1.59
46.8670,0.08,0.12,-0.99,2.87,2.20,1.95
46.8670,0.09,0.12,-0.99,3.42,2.38,1.83
46.8840,0.08,0.12,-0.99,3.60,2.32,1.77
46.9010,0.07,0.12,-0.99,3.36,2.38,1.77
46.9180,0.07,0.13,-0.99,3.05,2.14,1.71
46.9340,0.08,0.12,-0.99,2.93,2.26,1.71
46.9550,0.09,0.12,-0.99,2.87,2.44,1.71
46.9710,0.08,0.12,-0.99,3.11,2.14,1.65
46.9900,0.07,0.12,-0.99,3.05,2.26,1.59
47.0050,0.07,0.13,-0.99,3.36,2.08,1.10
47.0210,0.08,0.13,-0.99,3.66,2.20,1.10
47.0380,0.08,0.12,-0.99,3.42,2.56,1.04
47.0390,0.08,0.12,-0.99,3.17,2.93,0.98
47.0710,0.08,0.12,-0.99,3.42,2.62,1.16
47.0860,0.08,0.12,-0.99,3.05,2.38,1.34
47.1000,0.08,0.13,-0.99,3.36,2.50,1.34
47.1180,0.07,0.13,-0.99,3.78,2.50,1.34
47.1230,0.07,0.12,-0.99,3.60,2.14,1.40
47.1380,0.07,0.12,-0.99,3.85,2.01,1.28
47.1650,0.08,0.12,-0.99,4.03,1.77,1.40
47.1720,0.07,0.12,-0.99,3.85,2.14,1.59
47.1880,0.08,0.13,-0.99,3.85,1.83,1.46
47.2050,0.08,0.12,-0.99,2.99,2.20,1.65
47.2220,0.07,0.12,-0.99,3.72,2.14,1.89
47.2380,0.07,0.12,-0.99,3.85,2.50,1.77
47.2550,0.08,0.12,-0.99,3.54,2.26,1.71
47.2720,0.08,0.12,-0.99,3.30,2.14,1.77
47.2890,0.08,0.12,-0.99,3.17,2.50,1.83
47.3050,0.07,0.12,-0.99,3.11,2.08,2.01
47.3200,0.07,0.12,-0.99,3.60,1.77,2.08
47.3360,0.07,0.12,-0.99,3.30,2.20,2.01
47.3510,0.07,0.13,-0.99,3.11,1.89,1.95
47.3670,0.07,0.12,-0.99,3.23,1.77,1.89
47.3820,0.07,0.12,-0.99,3.97,1.71,2.14
47.3880,0.08,0.12,-0.99,2.93,2.44,2.26
47.4050,0.08,0.12,-0.99,2.99,2.08,2.20
47.4210,0.08,0.12,-0.99,3.17,1.89,2.50
47.4450,0.08,0.13,-0.99,3.05,1.89,2.62
47.4610,0.08,0.12,-0.99,2.69,2.08,2.69
47.4770,0.08,0.12,-0.99,2.81,2.26,2.69
47.4920,0.08,0.12,-0.99,3.36,1.77,2.50
47.5000,0.07,0.13,-0.99,3.17,1.89,2.44
47.5110,0.08,0.12,-0.99,2.93,2.01,2.62
47.5260,0.07,0.12,-0.99,2.56,1.89,2.62
47.5420,0.07,0.12,-0.99,3.30,1.95,2.87
47.5720,0.07,0.12,-0.99,2.75,1.71,2.69
47.5810,0.07,0.12,-0.99,2.87,2.32,2.93
47.6010,0.07,0.12,-0.99,2.62,2.26,2.99
47.6130,0.08,0.12,-0.99,2.93,2.20,2.93
47.6320,0.07,0.12,-0.99,3.23,2.08,2.62
47.6490,0.09,0.12,-0.99,3.11,2.38,2.69
47.6640,0.08,0.12,-0.99,3.11,2.38,2.38
47.6820,0.08,0.12,-0.99,2.99,2.44,2.44
47.6980,0.08,0.12,-0.99,3.54,1.83,2.32
47.7010,0.08,0.13,-0.99,3.23,2.08,2.62
47.7150,0.08,0.12,-0.99,2.81,2.01,2.44
47.7320,0.08,0.12,-0.99,3.30,2.01,2.38
47.7620,0.07,0.12,-0.99,3.97,1.71,2.14
47.7770,0.08,0.12,-0.99,3.54,1.83,2.20
47.7820,0.08,0.12,-0.99,2.93,2.26,2.14
47.8010,0.08,0.12,-0.99,2.99,1.89,1.95
47.8140,0.07,0.12,-0.99,3.42,1.83,2.01
47.8350,0.07,0.12,-0.99,3.17,2.08,1.95
47.8520,0.07,0.12,-0.99,3.30,1.95,2.01
47.8690,0.08,0.12,-0.99,3.48,2.14,1.95
47.8850,0.08,0.12,-0.99,3.48,2.38,2.01
47.9030,0.08,0.12,-0.99,3.72,1.95,1.89
47.9180,0.08,0.12,-0.99,3.54,2.32,1.95
47.9350,0.07,0.12,-0.99,3.42,2.14,1.95
47.9520,0.07,0.12,-0.99,3.48,2.08,1.77
47.9670,0.08,0.12,-0.99,3.11,2.20,1.83
47.9690,0.08,0.12,-0.99,3.97,2.38,1.71
47.9990,0.08,0.12,-0.99,3.48,1.89,1.65
