Timestamp, AccX, AccY, AccZ, GyroX, GyroY, GyroZ
0.0120,-0.04,0.10,-1.00,3.54,5.49,2.75
0.0180,-0.04,0.10,-1.00,3.11,5.19,2.62
0.0410,-0.04,0.10,-1.00,3.17,5.13,2.75
0.0560,-0.04,0.10,-1.00,2.93,4.64,2.50
0.0660,-0.04,0.10,-1.00,2.62,4.94,2.50
0.0850,-0.03,0.10,-1.00,2.87,4.82,2.69
0.1000,-0.03,0.10,-1.00,2.69,5.25,2.62
0.1160,-0.04,0.10,-1.00,2.75,5.13,2.69
0.1310,-0.04,0.10,-1.00,2.44,5.13,2.38
0.1460,-0.04,0.10,-1.00,2.75,4.88,2.56
0.1610,-0.04,0.10,-1.00,3.30,4.82,2.56
0.1760,-0.04,0.10,-1.00,3.78,4.27,2.50
0.1830,-0.04,0.10,-1.00,3.54,4.33,2.75
0.2000,-0.04,0.10,-1.00,3.17,4.39,2.56
0.2170,-0.04,0.10,-1.00,2.87,4.15,2.44
0.2340,-0.03,0.10,-1.00,3.05,4.21,2.62
0.2500,-0.04,0.10,-1.00,3.11,4.33,2.50
0.2660,-0.04,0.10,-1.00,3.11,4.76,2.62
0.2810,-0.04,0.10,-1.00,3.48,4.58,2.62
0.2960,-0.04,0.10,-1.00,3.54,4.52,2.62
0.3010,-0.04,0.10,-1.00,3.23,4.52,2.62
0.3170,-0.04,0.10,-1.00,3.36,4.21,3.17
0.3340,-0.04,0.10,-1.00,3.11,4.09,3.54
0.3510,-0.04,0.10,-1.00,3.11,3.78,3.66
0.3670,-0.04,0.10,-1.00,3.30,3.85,2.81
0.3840,-0.03,0.10,-1.00,3.30,4.33,2.56
0.4010,-0.04,0.10,-1.00,3.30,4.76,2.56
0.4160,-0.04,0.10,-1.00,3.30,4.27,2.62
0.4320,-0.04,0.10,-1.00,3.30,4.27,2.56
0.4470,-0.04,0.10,-1.00,2.87,4.09,2.56
0.4630,-0.04,0.10,-1.00,2.99,3.85,2.38
0.4670,-0.04,0.10,-1.00,3.11,4.27,2.62
0.4940,-0.04,0.10,-1.00,3.54,4.09,3.42
0.5090,-0.04,0.10,-1.00,3.66,4.15,4.21
0.5240,-0.04,0.10,-1.00,3.60,4.21,4.33
0.5350,-0.04,0.10,-1.00,3.23,3.85,4.33
0.5520,-0.04,0.10,-1.00,3.05,3.97,3.66
0.5680,-0.04,0.10,-1.01,3.48,4.21,3.30
0.5850,-0.04,0.10,-1.00,3.60,4.33,3.48
0.6010,-0.04,0.10,-1.00,3.42,4.46,3.72
0.6180,-0.04,0.10,-1.03,3.30,4.09,3.54
0.6350,-0.04,0.11,-1.00,3.17,4.03,3.66
0.6500,-0.04,0.11,-1.00,2.93,3.66,3.97
0.6530,-0.03,0.11,-1.00,2.93,3.72,5.43
0.6810,-0.05,0.08,-1.00,2.99,3.54,4.64
0.6850,-0.06,0.08,-1.00,2.87,3.97,3.60
0.7010,-0.04,0.10,-1.00,2.99,4.15,2.44
0.7260,-0.04,0.10,-1.00,2.93,4.33,2.62
0.7380,-0.04,0.10,-1.00,3.48,4.33,2.62
0.7540,-0.03,0.10,-1.00,3.42,3.91,2.62
0.7700,-0.05,0.09,-1.00,2.81,3.11,3.36
0.7880,-0.05,0.10,-1.00,3.54,3.42,2.44
0.8030,-0.04,0.10,-1.00,3.66,3.23,2.38
0.8120,-0.04,0.10,-1.00,3.60,3.17,2.38
0.8230,-0.04,0.10,-1.00,3.36,3.11,2.38
0.8490,-0.04,0.10,-1.00,2.93,3.48,2.32
0.8590,-0.04,0.10,-1.00,2.93,3.66,2.32
0.8760,-0.04,0.10,-1.01,3.05,4.21,2.56
0.8930,-0.04,0.10,-1.01,3.30,4.58,2.69
0.9090,-0.03,0.10,-1.00,3.36,4.46,2.62
0.9270,-0.04,0.10,-0.99,3.05,4.33,2.50
0.9280,-0.04,0.09,-0.99,2.62,4.39,2.44
0.9580,-0.04,0.09,-1.01,2.14,4.27,2.38
0.9730,-0.04,0.09,-1.01,2.99,4.58,2.50
0.9900,-0.04,0.10,-1.01,3.54,4.64,2.44
0.9940,-0.04,0.11,-1.00,3.48,4.27,2.50
1.0230,-0.04,0.10,-1.00,1.89,4.09,2.32
1.0270,-0.04,0.10,-1.00,3.30,4.52,2.44
1.0430,-0.04,0.10,-1.00,3.05,4.58,2.56
1.0590,-0.03,0.10,-1.00,3.17,4.94,2.50
1.0860,-0.03,0.10,-1.00,2.75,4.33,2.44
1.0970,-0.04,0.10,-1.00,2.50,4.15,2.56
1.1130,-0.03,0.12,-1.00,2.99,4.15,5.25
1.1310,-0.04,0.18,-1.07,-5.86,0.79,10.07
1.1480,-0.04,-0.05,-0.75,2.87,2.50,16.85
1.1640,-0.03,0.05,-0.91,0.00,2.56,20.63
1.1800,-0.03,0.10,-1.00,0.43,1.65,23.56
1.1950,-0.03,0.10,-0.99,0.79,0.61,25.70
1.2100,-0.02,0.09,-0.99,0.79,-0.24,27.40
1.2260,-0.03,0.08,-0.99,1.89,-0.06,23.62
1.2420,-0.03,0.08,-1.00,1.89,-0.18,20.69
1.2560,-0.04,0.08,-0.98,2.08,0.06,20.02
1.2640,-0.04,0.08,-0.99,2.87,-0.12,19.17
1.2880,-0.03,0.07,-0.98,3.11,-0.24,17.58
1.3040,-0.04,0.08,-0.98,4.46,-0.37,18.13
1.3150,-0.04,0.08,-1.00,5.37,-2.32,16.42
1.3310,-0.04,0.07,-1.00,4.88,-2.32,15.44
1.3480,-0.02,0.08,-1.07,3.85,-1.22,13.85
1.3640,-0.02,0.09,-1.07,2.50,2.62,9.22
1.3790,-0.03,0.10,-1.03,1.77,5.98,6.23
1.3860,-0.04,0.08,-0.99,1.10,6.47,5.25
1.4050,-0.04,0.09,-0.99,1.28,3.36,5.74
1.4210,-0.03,0.08,-0.99,1.16,2.38,6.23
1.4360,-0.02,0.08,-0.99,1.89,1.83,6.96
1.4530,-0.02,0.08,-0.99,2.75,2.69,7.45
1.4700,-0.03,0.08,-0.99,2.93,4.03,7.57
1.4860,-0.03,0.08,-0.99,3.17,3.85,8.24
1.5020,-0.04,0.09,-1.00,3.36,2.50,8.42
1.5180,-0.04,0.08,-1.01,3.36,1.22,8.18
1.5330,-0.03,0.08,-1.00,3.48,1.10,8.18
1.5360,-0.03,0.07,-1.00,3.54,1.46,7.75
1.5520,-0.03,0.08,-1.01,3.30,2.99,7.20
1.5740,-0.03,0.07,-1.01,3.23,3.17,6.84
1.5920,-0.04,0.09,-1.03,2.99,2.93,6.53
1.6070,-0.04,0.09,-1.03,2.93,1.10,5.62
1.6230,-0.04,0.09,-1.03,2.69,-1.71,4.39
1.6390,-0.03,0.08,-1.01,2.50,-2.81,3.66
1.6540,-0.01,0.07,-0.97,2.08,-0.92,3.66
1.6580,-0.01,0.06,-0.99,2.75,3.36,4.21
1.6730,-0.03,0.08,-1.01,3.23,4.15,3.91
1.6900,-0.02,0.08,-1.00,2.93,2.87,3.30
1.7130,-0.01,0.08,-1.00,3.11,3.78,3.05
1.7220,-0.01,0.08,-1.00,3.30,3.85,2.87
1.7380,-0.01,0.08,-1.00,3.23,3.48,2.81
1.7540,-0.01,0.08,-1.00,3.05,4.33,2.75
1.7750,-0.01,0.08,-1.00,3.23,3.91,2.50
1.7970,-0.01,0.08,-1.00,3.54,3.85,2.62
1.8080,-0.01,0.08,-1.00,3.42,3.72,2.50
1.8260,-0.02,0.08,-1.00,3.48,3.72,2.56
1.8410,-0.02,0.08,-1.00,3.72,4.03,2.56
1.8590,-0.01,0.08,-1.00,3.48,3.60,2.81
1.8750,-0.01,0.08,-1.00,3.66,3.48,3.17
1.8910,-0.01,0.08,-1.00,3.66,3.42,3.11
1.8920,-0.02,0.08,-1.00,3.36,3.54,3.11
1.9230,-0.02,0.08,-1.00,3.60,3.91,3.05
1.9250,-0.02,0.09,-1.00,3.54,3.91,3.11
1.9430,-0.02,0.09,-1.01,3.23,3.78,3.05
1.9710,-0.02,0.08,-1.01,3.23,3.78,2.99
1.9870,-0.02,0.08,-1.01,3.17,4.09,2.81
2.0030,-0.01,0.08,-1.01,3.11,4.15,2.87
2.0130,-0.02,0.08,-1.01,2.93,4.33,2.99
2.0350,-0.02,0.08,-1.00,3.11,4.03,3.05
2.0490,-0.02,0.08,-1.00,2.99,4.09,3.23
2.0650,-0.02,0.07,-1.00,2.99,3.97,3.17
2.0750,-0.01,0.07,-1.00,3.05,3.66,3.30
2.0910,-0.01,0.07,-1.00,3.30,3.66,3.05
2.1080,-0.01,0.08,-1.00,3.54,3.97,2.32
2.1240,-0.02,0.08,-1.00,3.30,4.21,2.26
2.1410,-0.02,0.08,-1.00,3.23,3.78,2.14
2.1580,-0.03,0.09,-1.01,3.11,4.03,2.26
2.1730,-0.02,0.08,-1.01,2.69,3.85,2.32
2.1890,-0.02,0.09,-1.01,2.32,4.09,2.20
2.2050,-0.01,0.09,-1.01,1.89,3.97,2.38
2.2210,-0.01,0.09,-1.01,1.40,4.58,2.44
2.2370,-0.01,0.08,-1.01,1.34,5.13,2.32
2.2410,-0.01,0.08,-1.00,0.92,5.00,2.38
2.2570,-0.01,0.07,-1.00,0.92,5.25,2.62
2.2790,-0.01,0.07,-0.99,1.22,5.13,2.81
2.2950,-0.02,0.07,-0.99,1.65,4.94,3.48
2.3130,-0.03,0.07,-0.99,2.14,4.15,4.03
2.3290,-0.02,0.07,-0.99,2.69,4.03,4.70
2.3450,-0.03,0.06,-1.00,2.87,3.17,4.82
2.3610,-0.02,0.07,-1.01,2.81,3.42,4.94
2.3760,-0.02,0.06,-1.01,2.56,3.54,4.58
2.3930,-0.02,0.07,-1.01,2.99,3.78,4.09
2.4090,-0.01,0.07,-1.01,3.23,3.85,3.66
2.4250,-0.01,0.07,-1.01,3.23,3.42,3.23
2.4410,-0.01,0.07,-1.01,3.23,3.78,3.11
2.4570,-0.01,0.07,-1.00,3.30,3.66,2.99
2.4730,-0.01,0.08,-1.00,3.30,4.03,2.87
2.4890,-0.01,0.08,-0.99,3.54,3.97,2.50
2.4960,-0.01,0.08,-0.99,3.66,3.91,2.38
2.5130,-0.01,0.08,-0.99,3.85,3.78,2.20
2.5340,-0.01,0.08,-0.99,3.91,4.09,2.20
2.5500,-0.01,0.09,-1.00,3.97,3.72,2.14
2.5660,-0.01,0.08,-1.00,3.97,3.60,2.32
2.5820,-0.01,0.08,-1.00,3.60,3.78,2.50
2.5960,-0.02,0.08,-1.00,3.97,3.78,2.69
2.6120,-0.02,0.08,-1.00,3.85,3.66,2.69
2.6260,-0.02,0.08,-1.00,3.97,3.78,3.11
2.6420,-0.02,0.08,-1.01,3.72,3.23,3.42
2.6560,-0.02,0.08,-1.01,3.36,3.30,3.54
2.6670,-0.02,0.08,-1.02,2.99,3.97,3.85
2.6840,-0.02,0.08,-1.02,2.99,3.91,4.09
2.7000,-0.02,0.08,-1.02,2.75,3.60,4.64
2.7170,-0.02,0.08,-1.01,2.81,3.72,5.43
2.7330,-0.01,0.07,-1.01,2.50,3.97,6.04
2.7500,-0.02,0.07,-1.01,2.26,3.66,5.98
2.7660,-0.02,0.07,-1.01,2.38,3.85,6.47
2.7820,-0.02,0.07,-1.00,2.75,3.36,6.59
2.7970,-0.02,0.06,-1.00,2.81,2.69,6.90
2.8130,-0.01,0.06,-1.00,3.23,2.56,7.08
2.8290,-0.02,0.06,-1.00,3.60,2.69,6.47
2.8450,-0.02,0.06,-1.00,3.78,3.30,5.49
2.8610,-0.02,0.07,-1.00,4.15,3.36,4.58
2.8760,-0.03,0.08,-1.00,4.52,3.72,3.72
2.8920,-0.03,0.09,-1.01,4.21,3.85,3.36
2.9080,-0.01,0.09,-1.02,3.78,3.78,2.62
2.9230,-0.01,0.10,-1.02,3.48,3.85,2.26
2.9340,-0.01,0.10,-1.01,2.93,4.15,2.44
2.9500,-0.01,0.09,-1.01,2.08,4.27,2.50
2.9670,-0.01,0.09,-1.00,1.83,4.76,2.44
2.9830,-0.00,0.08,-1.00,1.65,4.76,2.56
3.0000,-0.00,0.07,-1.00,1.59,4.82,2.56
3.0160,-0.00,0.07,-1.00,2.01,4.82,2.56
3.0310,-0.01,0.07,-1.00,1.83,5.13,2.62
3.0470,-0.01,0.07,-1.00,2.01,4.70,2.75
3.0500,-0.01,0.07,-1.00,2.26,4.82,2.81
3.0660,-0.01,0.06,-0.98,2.81,4.64,2.75
3.0880,-0.01,0.06,-0.98,3.42,5.80,3.05
3.1040,-0.01,0.07,-0.98,3.54,6.41,3.30
3.1210,-0.01,0.07,-1.00,3.66,6.10,3.54
3.1380,-0.02,0.07,-1.01,4.27,5.25,4.15
3.1540,-0.03,0.08,-1.02,4.39,3.30,4.33
3.1690,-0.02,0.08,-1.02,4.94,1.53,4.64
3.1860,-0.03,0.08,-1.01,4.76,0.98,4.21
3.2010,-0.03,0.08,-1.01,4.88,0.85,3.91
3.2140,-0.02,0.08,-1.01,4.82,1.71,3.23
3.2200,-0.02,0.08,-1.01,3.97,2.50,2.87
3.2490,-0.02,0.08,-1.01,3.54,3.78,2.69
3.2650,-0.01,0.08,-1.01,3.23,4.58,2.50
3.2800,-0.01,0.08,-1.01,2.93,4.70,2.75
3.2910,-0.01,0.08,-1.01,2.69,4.88,2.99
3.3080,-0.01,0.08,-1.01,2.62,4.46,3.48
3.3250,-0.01,0.07,-1.00,2.75,4.76,3.54
3.3410,-0.01,0.07,-0.99,2.81,5.07,3.97
3.3560,-0.02,0.07,-1.00,2.56,5.62,4.09
3.3590,-0.02,0.07,-1.01,3.05,4.52,3.72
3.3880,-0.01,0.07,-1.00,2.99,4.88,3.97
3.4040,-0.02,0.07,-1.00,3.23,5.25,4.15
3.4150,-0.03,0.08,-1.01,3.48,4.33,4.09
3.4350,-0.02,0.07,-1.01,3.54,3.42,4.21
3.4450,-0.02,0.07,-1.00,3.85,2.99,4.39
3.4620,-0.02,0.08,-1.01,3.54,3.42,4.27
3.4770,-0.02,0.08,-1.01,3.54,3.42,3.85
3.4950,-0.02,0.08,-1.01,3.36,3.48,3.48
3.5110,-0.02,0.08,-1.01,3.30,3.78,3.48
3.5280,-0.01,0.08,-1.00,2.99,4.21,2.99
3.5440,-0.02,0.07,-1.01,2.75,4.27,3.05
3.5610,-0.02,0.08,-1.00,2.99,3.66,2.75
3.5630,-0.02,0.08,-1.00,3.05,3.66,2.81
3.5930,-0.02,0.07,-1.00,3.54,2.93,2.69
3.6090,-0.01,0.07,-0.99,3.48,3.97,2.38
3.6250,-0.01,0.08,-1.00,3.54,4.70,2.56
3.6410,-0.01,0.08,-1.00,3.66,4.03,2.44
3.6560,-0.01,0.08,-1.01,3.97,3.78,2.50
3.6720,-0.01,0.08,-1.01,3.91,3.78,2.44
3.6790,-0.01,0.08,-1.01,3.54,3.66,2.56
3.6950,-0.01,0.08,-1.01,3.42,3.36,2.56
3.7170,-0.01,0.08,-1.01,3.17,3.97,2.44
3.7340,-0.01,0.07,-1.00,3.17,4.70,2.56
3.7500,-0.01,0.08,-0.99,3.42,5.49,2.32
3.7640,-0.01,0.07,-0.99,3.42,5.74,2.50
3.7790,-0.02,0.07,-0.99,3.78,6.53,2.93
3.7950,-0.02,0.08,-1.01,3.91,5.98,2.81
3.8010,-0.03,0.09,-1.03,3.78,5.00,2.69
3.8170,-0.03,0.08,-1.02,3.17,2.69,2.56
3.8370,-0.02,0.08,-1.00,3.17,2.87,2.69
3.8540,-0.01,0.08,-1.00,3.17,3.11,2.75
3.8700,-0.01,0.07,-0.99,2.87,2.81,2.93
3.8870,-0.01,0.07,-0.99,3.36,3.78,2.87
3.9030,-0.01,0.07,-0.99,3.36,4.39,3.05
3.9200,-0.01,0.09,-0.99,3.78,5.62,3.05
3.9370,-0.04,0.22,-0.98,3.54,4.64,8.79
3.9530,0.11,0.17,-1.00,-0.24,-0.73,34.67
3.9690,0.03,0.04,-1.03,2.32,-0.55,27.40
3.9850,0.01,0.03,-1.02,2.99,0.98,10.56
4.0010,-0.03,0.03,-1.02,2.87,2.50,0.49
4.0170,-0.05,0.03,-1.01,4.09,2.93,-1.71
4.0200,-0.05,0.04,-1.01,4.70,3.36,-2.62
4.0480,-0.04,0.05,-1.02,4.15,4.33,-1.95
4.0640,-0.04,0.05,-1.01,3.66,5.49,-0.18
4.0750,-0.04,0.05,-1.01,3.72,6.35,1.22
4.0910,-0.02,0.08,-1.00,4.21,7.02,2.44
4.1060,-0.05,0.10,-1.03,5.37,6.71,2.87
4.1270,-0.03,0.06,-1.02,-0.12,2.99,1.71
4.1300,-0.01,0.06,-1.00,-0.61,3.23,1.89
4.1590,-0.01,0.08,-1.01,3.85,3.97,2.26
4.1750,-0.02,0.07,-0.99,1.53,2.14,2.01
4.1920,-0.01,0.04,-0.97,3.78,2.99,2.50
4.2080,-0.03,0.05,-1.00,7.51,4.70,3.05
4.2230,-0.04,0.06,-1.01,1.89,3.72,0.92
4.2380,0.00,0.09,-0.99,0.06,2.81,0.98
4.2450,0.04,0.12,-0.98,4.88,4.27,2.75
4.2680,0.01,0.12,-1.03,5.62,4.76,2.87
4.2790,0.00,0.03,-0.98,-0.55,4.27,1.53
4.2990,-0.01,0.07,-1.00,4.94,5.68,2.44
4.3160,0.03,0.20,-1.03,8.24,6.84,2.99
4.3320,0.08,0.08,-0.95,-4.64,-0.06,16.60
4.3460,-0.05,0.01,-1.02,3.11,1.46,25.15
4.3620,-0.08,-0.03,-1.03,2.75,1.95,21.12
4.3780,-0.06,0.08,-1.01,7.81,5.00,7.32
4.3920,-0.02,0.09,-1.00,5.55,5.13,2.50
4.4070,-0.01,0.07,-1.00,5.68,4.33,2.26
4.4170,-0.02,0.02,-0.99,5.25,4.64,2.62
4.4330,-0.01,0.04,-0.99,8.42,5.98,5.19
4.4530,-0.02,0.08,-1.02,8.73,5.31,7.39
4.4560,-0.01,0.08,-1.01,3.11,2.14,11.78
4.4730,-0.01,0.10,-1.00,2.56,2.26,11.84
4.4910,-0.00,0.10,-1.00,3.05,3.42,8.79
4.5140,-0.00,0.11,-1.00,2.99,3.97,5.98
4.5290,-0.03,0.09,-1.00,2.87,4.46,5.00
4.5400,-0.03,0.10,-1.01,3.48,4.52,2.81
4.5550,-0.01,0.08,-1.01,2.81,4.21,2.38
4.5770,-0.01,0.08,-1.01,3.36,4.52,2.38
4.5930,-0.01,0.09,-1.02,3.97,5.31,2.69
4.6090,-0.02,0.08,-1.01,1.71,4.27,2.81
4.6240,-0.01,0.07,-1.01,3.05,4.09,3.17
4.6400,-0.01,0.10,-1.01,2.81,3.66,3.85
4.6560,0.02,0.06,-0.98,-1.22,2.26,4.46
4.6700,-0.02,0.07,-1.00,3.23,3.60,8.30
4.6850,-0.03,0.08,-1.00,1.77,3.23,6.90
4.6970,-0.01,0.10,-1.00,-2.20,2.08,6.47
4.7150,-0.00,0.06,-0.99,-3.97,1.28,9.34
4.7300,-0.04,0.05,-1.01,2.81,2.75,9.16
4.7460,-0.02,0.07,-1.01,5.43,4.58,3.91
4.7630,-0.01,0.07,-1.00,4.27,3.97,5.92
4.7790,-0.01,0.08,-1.01,4.15,4.09,7.69
4.7950,0.01,0.06,-1.01,4.03,3.48,9.77
4.8110,0.00,0.06,-1.00,4.46,2.87,14.47
4.8270,-0.01,0.11,-1.01,5.37,1.77,18.43
4.8420,0.01,0.09,-0.98,0.79,0.73,20.20
4.8590,0.02,0.09,-1.00,0.12,1.16,25.15
4.8750,0.00,0.15,-1.00,-3.36,-0.55,27.10
4.8910,-0.02,0.09,-0.99,-4.94,-1.89,30.03
4.9060,-0.05,0.04,-1.00,0.43,-0.12,27.59
4.9210,-0.09,0.02,-0.99,-4.15,0.85,13.43
4.9360,-0.01,0.07,-1.00,2.69,4.64,1.83
4.9510,-0.01,0.07,-1.01,3.36,3.72,2.08
4.9630,0.00,0.06,-1.01,3.11,3.72,1.83
4.9800,0.00,0.04,-0.99,5.62,4.70,2.14
4.9960,-0.02,0.01,-1.02,9.77,5.68,8.48
5.0130,0.01,0.05,-1.01,5.62,1.10,29.05
5.0290,0.05,0.04,-1.01,1.28,-0.98,37.60
5.0450,0.07,0.07,-1.00,-1.04,-1.40,32.17
5.0500,0.10,0.10,-0.98,-1.16,-0.18,12.45
5.0760,0.04,0.05,-1.01,-0.85,1.59,8.97
5.0910,-0.02,0.02,-0.98,-3.85,-0.18,12.02
5.1060,-0.01,0.06,-1.01,0.79,-0.12,22.95
5.1160,0.01,0.08,-0.99,-0.73,-2.50,40.10
5.1330,0.00,0.09,-1.01,-2.01,-5.07,63.48
5.1500,-0.02,0.12,-1.00,-3.72,-6.90,77.39
5.1650,-0.05,0.17,-0.99,-6.35,-11.96,113.28
5.1830,-0.03,0.16,-1.01,-7.69,-15.99,148.68
5.1990,0.09,0.07,-0.96,-10.86,-14.10,150.21
5.2140,-0.04,-0.03,-1.00,0.73,-6.10,91.61
5.2230,-0.22,-0.06,-1.05,4.27,0.67,26.49
5.2470,-0.07,-0.03,-1.01,3.30,4.70,0.00
5.2570,0.06,0.10,-0.98,3.85,4.82,-10.13
5.2730,0.00,0.08,-1.00,7.26,5.74,-14.40
5.2910,-0.01,0.02,-1.02,6.41,5.62,-10.01
5.3060,-0.01,0.03,-1.02,4.52,4.82,-3.17
5.3240,0.00,0.05,-1.00,5.13,4.21,1.28
5.3400,0.00,0.05,-1.01,4.94,4.03,0.67
5.3550,-0.03,0.05,-1.00,4.21,4.52,-2.01
5.3700,-0.01,0.06,-1.00,4.09,5.86,-4.88
5.3860,0.03,0.06,-1.00,3.54,6.10,-3.42
5.3960,0.04,0.07,-1.00,2.99,6.47,0.49
5.4180,0.02,0.05,-1.00,1.71,6.35,2.38
5.4300,-0.01,0.06,-1.00,1.04,6.84,2.56
5.4460,-0.01,0.07,-1.00,1.10,6.10,7.20
5.4640,-0.01,0.08,-1.01,1.10,5.31,14.10
5.4680,-0.01,0.05,-1.01,0.73,4.15,16.91
5.4960,0.01,0.03,-1.02,0.92,3.48,15.81
5.5120,0.01,0.03,-1.00,-0.12,3.85,9.70
5.5280,0.01,0.03,-1.00,2.38,4.27,6.04
5.5430,0.02,0.04,-1.00,6.10,4.39,3.36
5.5600,0.01,-0.00,-0.96,5.62,5.62,-1.34
5.5680,0.01,0.01,-1.00,8.91,5.43,-7.57
5.5840,0.03,0.03,-1.01,6.77,6.41,-12.57
5.6060,0.01,0.07,-1.00,4.09,6.47,-8.30
5.6230,-0.02,0.13,-1.00,3.05,4.70,-3.17
5.6390,0.01,0.08,-1.00,2.26,4.21,4.52
5.6390,0.01,0.08,-1.00,1.22,4.52,3.66
5.6570,-0.01,0.10,-1.00,-0.55,3.72,10.80
5.6730,-0.05,0.10,-1.01,0.00,1.95,25.70
5.6900,0.03,0.02,-1.00,-0.18,1.46,33.87
5.7160,0.05,-0.01,-1.00,1.28,3.54,19.71
5.7220,-0.00,-0.01,-1.02,3.91,4.52,7.57
5.7490,0.04,0.04,-1.01,3.72,5.92,-0.85
5.7560,-0.03,0.04,-1.00,4.70,6.53,-7.45
5.7730,-0.01,0.08,-1.02,5.25,4.70,-2.75
5.7890,0.00,0.07,-1.00,3.17,4.21,0.73
5.8060,0.00,0.06,-1.00,2.44,4.15,1.53
5.8240,-0.00,0.07,-1.00,2.26,4.27,2.69
5.8390,-0.00,0.10,-1.01,2.01,4.03,7.32
5.8550,0.01,0.06,-1.00,2.26,3.85,10.31
5.8570,0.05,-0.03,-1.01,2.75,4.52,6.29
5.8720,0.01,0.03,-1.00,2.75,4.64,0.61
5.8900,0.05,-0.01,-1.00,3.11,5.25,-1.65
5.9160,0.06,-0.02,-1.02,5.31,6.71,-20.45
5.9240,0.04,-0.03,-1.02,6.53,7.51,-45.47
5.9400,0.01,0.03,-1.00,6.35,9.16,-40.83
5.9560,-0.00,0.10,-0.99,4.09,10.74,-47.24
5.9730,-0.05,0.10,-1.00,4.39,10.19,-41.44
5.9890,-0.06,0.15,-1.00,5.49,6.41,-23.93
6.0060,-0.00,0.04,-0.99,3.72,3.91,-0.55
6.0300,0.00,0.11,-1.01,3.72,3.42,2.44
6.0390,-0.05,0.32,-0.94,2.62,0.67,24.66
6.0560,0.16,0.41,-0.94,2.93,-0.49,33.57
6.0730,0.11,0.10,-1.01,7.02,2.44,12.70
6.0900,-0.05,-0.20,-1.04,8.42,6.41,-9.16
6.1060,-0.18,-0.29,-1.06,5.74,8.48,-20.63
6.1260,-0.00,0.01,-1.01,3.05,5.19,-3.60
6.1420,0.01,0.06,-1.01,2.75,6.84,-13.73
6.1590,-0.01,0.07,-1.02,2.93,6.96,-14.53
6.1750,-0.10,0.07,-1.01,2.99,6.29,-11.41
6.1910,-0.12,0.06,-0.99,0.98,4.39,2.99
6.2070,-0.07,0.07,-1.00,1.71,3.23,13.98
6.2230,-0.03,0.08,-1.00,1.53,1.53,26.25
6.2390,0.05,0.08,-0.99,1.28,0.85,36.25
6.2560,0.11,0.05,-0.98,2.56,-0.06,35.64
6.2720,0.11,0.01,-1.01,5.86,1.34,14.47
6.2760,0.01,0.05,-1.01,7.75,3.17,2.01
6.2920,0.01,0.07,-1.00,3.11,4.39,1.28
6.3170,0.03,0.03,-0.98,2.32,5.19,-0.31
6.3310,-0.02,0.06,-0.99,3.78,5.55,-5.80
6.3470,-0.04,0.09,-1.01,3.66,5.43,-4.94
6.3630,0.00,0.06,-1.00,1.95,4.46,2.14
6.3790,-0.01,0.05,-1.01,2.50,4.21,2.32
6.3820,-0.09,0.03,-1.03,1.65,4.21,3.30
6.3970,-0.02,0.06,-1.04,-4.33,4.82,12.70
6.4260,0.01,0.03,-0.99,-11.84,4.46,18.68
6.4420,0.06,-0.01,-0.91,0.79,2.38,14.22
6.4570,0.03,0.08,-1.00,15.26,0.92,5.62
6.4690,0.02,0.11,-1.06,15.99,1.53,3.05
6.4850,0.01,0.04,-1.00,2.69,4.94,-0.06
6.5020,-0.01,0.07,-1.00,5.07,4.58,-2.44
6.5190,-0.00,0.06,-1.00,4.03,4.33,1.77
6.5350,-0.00,0.06,-1.01,3.30,4.39,2.32
6.5510,-0.00,0.07,-1.01,3.42,4.21,2.62
6.5680,-0.01,0.07,-1.00,2.99,3.42,7.26
6.5830,-0.01,0.05,-1.00,2.50,3.66,10.31
6.5990,0.00,0.06,-1.01,3.17,3.17,10.31
6.6140,0.04,0.02,-0.99,2.93,3.54,7.26
6.6280,0.01,0.06,-1.01,4.46,3.91,2.08
6.6440,0.02,0.05,-1.01,4.03,3.91,1.53
6.6600,0.01,0.05,-1.01,3.48,5.13,-4.52
6.6760,-0.00,0.07,-1.00,3.54,5.31,-5.86
6.6900,-0.00,0.08,-1.00,3.23,5.00,-4.03
6.7030,-0.01,0.07,-1.00,3.05,4.70,-0.92
6.7190,-0.01,0.05,-1.00,3.23,4.52,0.24
6.7350,-0.01,0.06,-1.00,3.11,4.03,2.26
6.7520,-0.01,0.08,-1.00,3.85,3.11,7.63
6.7690,-0.00,0.08,-1.01,3.23,2.93,11.29
6.7840,0.00,0.06,-1.00,2.99,2.56,15.01
6.8010,0.02,0.02,-1.00,3.36,3.05,13.12
6.8160,0.01,0.05,-1.01,3.78,3.54,4.15
6.8190,0.01,0.06,-1.00,3.17,4.64,2.01
6.8470,0.00,0.06,-1.00,3.36,4.52,2.14
6.8580,0.00,0.06,-1.01,3.11,4.33,2.01
6.8740,0.00,0.06,-1.00,2.81,4.15,2.08
6.8910,0.00,0.06,-1.01,2.44,4.76,1.71
6.9070,0.00,0.06,-1.01,2.01,4.39,1.83
6.9240,0.00,0.06,-1.01,1.04,4.33,2.14
6.9400,0.00,0.05,-1.00,-0.49,5.00,2.08
6.9570,0.00,0.05,-1.00,0.98,4.15,2.26
6.9730,-0.00,0.04,-0.98,2.08,4.03,3.36
6.9890,0.00,0.05,-1.01,9.03,2.99,3.60
7.0050,0.01,0.09,-1.04,9.22,3.97,2.38
7.0180,0.00,0.05,-1.00,3.36,4.15,2.32
7.0230,0.00,0.06,-1.00,6.04,3.85,2.20
7.0480,0.00,0.06,-1.00,5.37,3.48,2.26
7.0640,0.00,0.07,-1.02,5.13,3.42,2.26
7.0800,0.00,0.06,-1.01,3.72,3.97,2.14
7.0960,0.01,0.07,-1.00,3.48,3.72,2.14
7.0980,0.00,0.06,-1.00,2.32,4.27,2.14
7.1180,0.00,0.06,-1.00,2.50,4.27,2.26
7.1420,0.00,0.06,-1.01,2.69,4.15,2.62
7.1530,0.00,0.07,-1.00,1.95,4.09,3.36
7.1700,0.00,0.07,-1.00,1.71,4.33,5.86
7.1880,0.02,0.06,-0.99,1.34,4.21,6.47
7.2040,0.00,0.04,-1.00,2.26,4.82,3.54
7.2210,-0.02,0.05,-1.02,2.93,4.70,2.26
7.2360,0.00,0.06,-1.00,2.87,4.27,2.08
7.2510,0.00,0.07,-1.00,2.14,4.27,1.71
7.2680,-0.01,0.06,-1.00,0.37,4.58,2.26
7.2700,-0.02,0.06,-1.00,2.50,4.09,5.19
7.2850,-0.01,0.06,-1.00,4.03,3.72,6.90
7.3130,-0.01,0.07,-1.02,2.69,3.97,8.24
7.3240,-0.00,0.05,-0.99,0.55,3.72,11.11
7.3420,0.03,-0.01,-0.99,6.35,3.30,11.35
7.3570,0.02,0.05,-1.01,9.40,1.95,2.81
7.3730,0.00,0.05,-1.00,5.49,2.75,2.01
7.3890,-0.00,0.05,-0.99,5.25,3.97,1.65
7.4050,0.01,0.04,-1.00,4.46,4.39,-1.10
7.4210,0.02,0.06,-1.02,4.76,4.82,-6.53
7.4370,0.01,0.08,-1.01,4.21,5.07,-7.69
7.4530,-0.01,0.08,-1.00,2.01,5.43,-4.76
7.4570,-0.02,0.06,-1.00,0.92,4.70,-0.55
7.4720,-0.01,0.05,-1.00,1.65,4.21,1.95
7.4960,-0.00,0.05,-1.01,1.77,4.39,1.89
7.5130,-0.01,0.06,-1.01,1.89,4.03,2.26
7.5290,-0.02,0.08,-1.01,2.20,3.66,5.13
7.5440,-0.03,0.06,-0.99,1.40,3.30,11.29
7.5590,-0.02,0.06,-1.00,2.62,2.62,29.54
7.5750,0.03,0.03,-1.00,2.69,2.38,15.44
7.5900,0.02,0.05,-1.01,4.58,3.05,5.86
7.6070,0.01,0.07,-1.00,3.97,3.42,2.26
7.6190,0.01,0.06,-1.00,3.23,4.27,2.20
7.6280,0.02,0.04,-1.01,3.42,4.33,2.14
7.6530,0.04,0.02,-1.00,3.60,5.25,-6.10
7.6650,-0.02,0.06,-1.01,5.07,5.55,-12.82
7.6830,-0.02,0.09,-1.00,4.21,5.49,-10.68
7.6990,-0.01,0.08,-1.00,3.36,4.94,-2.75
7.7150,0.00,0.06,-1.00,2.26,4.33,2.20
7.7300,0.00,0.06,-1.01,2.32,4.21,2.32
7.7450,-0.01,0.07,-1.01,2.08,4.39,3.66
7.7620,-0.03,0.09,-1.01,2.20,3.54,10.68
7.7650,-0.02,0.08,-1.00,1.53,3.91,13.55
7.7810,-0.03,0.06,-1.00,2.93,2.87,19.78
7.8080,0.02,0.02,-1.02,3.91,1.40,25.88
7.8190,0.12,-0.00,-1.02,4.52,1.34,15.26
7.8360,0.02,0.00,-1.00,5.92,2.38,-0.18
7.8530,0.03,0.03,-0.98,7.87,4.03,-6.90
7.8690,0.01,0.10,-1.00,8.61,4.46,-10.13
7.8850,0.02,0.09,-1.01,2.99,6.10,-7.87
7.9010,0.01,0.06,-1.00,1.22,5.86,-4.33
7.9160,-0.01,0.08,-1.01,1.89,5.43,-4.70
7.9310,-0.03,0.07,-1.00,0.55,5.37,-1.77
7.9470,-0.01,0.06,-0.99,0.61,4.94,0.00
7.9530,-0.01,0.06,-1.00,2.01,4.94,-0.79
7.9780,-0.03,0.06,-1.01,2.44,4.03,4.21
7.9930,0.00,0.05,-1.01,2.62,3.23,10.62
8.0040,0.03,0.01,-1.00,2.75,3.11,8.79
8.0210,0.02,0.06,-1.01,4.27,3.91,2.44
8.0370,0.01,0.06,-1.00,3.60,4.52,2.20
8.0540,0.01,0.05,-1.00,3.72,4.64,2.08
8.0700,0.01,0.06,-1.02,3.54,4.70,0.06
8.0870,-0.01,0.07,-1.01,2.32,4.58,-0.55
8.1030,-0.00,0.06,-1.00,2.01,4.15,1.77
8.1190,0.00,0.06,-1.00,2.26,3.85,2.44
8.1350,0.00,0.06,-1.00,1.95,4.09,2.26
8.1510,-0.01,0.08,-1.00,2.38,3.91,4.03
8.1660,-0.00,0.06,-1.00,2.20,3.91,8.54
8.1710,0.01,0.04,-0.99,2.20,3.97,9.16
8.1860,0.02,0.04,-1.00,2.99,4.70,5.00
8.2090,0.00,0.04,-1.01,3.36,4.39,2.32
8.2260,0.00,0.04,-1.01,5.19,4.52,1.65
8.2430,0.01,0.04,-1.01,6.47,5.31,-4.15
8.2580,-0.02,0.08,-1.01,4.15,5.25,-7.26
8.2760,0.00,0.07,-1.01,4.03,3.72,-0.98
8.2920,0.01,0.06,-1.01,2.14,4.21,2.20
8.3090,0.00,0.06,-0.98,1.53,5.31,2.44
8.3250,-0.01,0.04,-0.97,0.79,6.41,2.50
8.3400,-0.02,0.04,-0.99,2.56,5.62,2.44
8.3550,0.01,0.26,-1.13,6.29,3.85,-0.92
8.3710,0.05,0.07,-1.02,5.92,4.70,-6.16
8.3760,-0.03,0.03,-1.00,5.00,5.43,-7.26
8.3920,0.10,-0.01,-1.01,4.76,5.00,-5.31
8.4140,0.08,-0.04,-1.01,3.91,6.84,-18.98
8.4300,-0.09,-0.14,-0.97,5.07,8.24,-32.84
8.4460,-0.04,0.01,-1.07,4.15,11.41,-59.69
8.4630,-0.04,0.11,-1.01,2.81,11.35,-65.00
8.4790,-0.05,0.25,-0.96,2.14,8.61,-32.47
8.4960,0.08,0.22,-0.96,1.40,3.85,5.37
8.5120,-0.04,0.13,-0.97,2.08,4.64,10.01
8.5280,-0.07,0.16,-1.00,2.01,0.31,35.71
8.5430,0.13,0.25,-0.98,2.99,-0.79,35.89
8.5590,0.10,0.18,-0.99,6.71,2.14,13.61
8.5740,0.04,-0.03,-1.02,9.28,4.27,2.99
8.5900,-0.14,-0.31,-1.08,7.14,5.92,-7.20
8.5960,-0.01,-0.03,-1.02,3.72,5.07,-3.36
8.6210,0.06,0.02,-1.01,1.59,7.57,-23.99
8.6370,0.00,0.06,-1.02,2.26,8.97,-33.02
8.6480,-0.10,0.06,-1.01,2.56,7.87,-28.56
8.6650,-0.04,0.12,-0.99,3.23,5.13,-7.81
8.6810,-0.00,0.13,-0.99,2.87,3.05,9.09
8.6980,-0.03,0.10,-1.01,3.23,1.59,20.20
8.7140,0.03,0.09,-1.00,2.87,0.06,33.51
8.7300,0.09,0.03,-1.01,4.15,0.92,23.86
8.7470,0.03,0.02,-1.00,4.76,3.78,2.69
8.7620,0.05,0.03,-1.01,5.37,4.58,0.12
8.7770,-0.03,0.05,-0.99,5.07,4.94,-4.09
8.7920,-0.02,0.02,-1.03,1.95,5.43,-13.00
8.8090,-0.09,-0.03,-1.02,1.16,6.29,-18.55
8.8240,-0.03,0.10,-1.00,0.98,4.33,-5.13
8.8400,0.07,0.23,-0.96,0.31,2.38,8.42
8.8550,-0.01,0.17,-0.98,0.73,3.05,13.24
8.8700,-0.02,0.08,-1.00,1.16,1.89,22.22
8.8810,-0.00,0.07,-1.02,1.04,1.22,29.24
8.8980,0.04,0.02,-1.00,0.98,1.28,30.09
8.9150,0.04,-0.03,-1.02,6.10,2.50,11.35
8.9300,0.03,0.01,-1.01,7.02,3.66,-0.92
8.9450,-0.01,0.05,-1.01,4.39,5.13,-7.08
8.9620,0.01,0.06,-1.00,4.39,5.98,-7.69
8.9770,-0.00,0.11,-0.99,3.78,5.68,-3.05
8.9940,-0.00,0.06,-1.00,3.60,5.07,2.26
9.0100,-0.00,0.06,-1.01,3.91,4.70,2.26
9.0250,-0.01,0.06,-1.01,3.48,4.33,2.08
9.0400,-0.01,0.06,-1.01,3.42,3.97,2.32
9.0550,-0.10,0.18,-0.99,2.50,3.30,4.52
9.0650,0.00,0.11,-0.99,1.83,-0.12,32.71
9.0800,0.07,-0.09,-1.03,3.85,1.71,22.71
9.1010,0.01,0.03,-1.02,4.46,4.21,-1.89
9.1160,0.00,0.06,-1.00,3.78,5.62,-9.03
9.1320,0.01,0.09,-0.99,3.60,5.55,-7.51
9.1480,0.00,0.06,-1.00,2.62,4.58,1.22
9.1630,-0.01,0.06,-1.00,3.23,5.55,2.32
9.1790,-0.00,0.06,-1.01,3.23,4.27,2.26
9.1940,0.00,0.06,-1.02,4.09,4.52,2.32
9.2090,-0.00,0.07,-1.01,3.91,4.46,2.26
9.2220,-0.01,0.07,-1.01,3.60,4.09,2.26
9.2360,-0.01,0.06,-1.01,3.11,3.17,2.20
9.2570,0.01,0.65,-0.84,-2.32,3.48,1.77
9.2730,0.17,0.10,-0.96,6.84,1.40,16.97
9.2890,-0.06,-0.23,-1.11,16.17,-1.22,10.01
9.3040,-0.22,-0.21,-1.08,1.83,9.52,-17.88
9.3200,-0.00,-0.07,-0.95,0.18,10.80,-34.85
9.3350,0.01,-0.03,-0.99,1.95,12.45,-49.44
9.3500,0.05,0.08,-1.01,1.53,12.63,-50.35
9.3570,0.04,0.10,-0.99,1.28,9.83,-45.84
9.3730,-0.00,0.08,-1.01,2.75,9.03,-29.79
9.3940,-0.24,0.29,-1.02,3.66,5.07,-12.39
9.4110,0.05,0.32,-1.00,-0.55,-1.95,43.76
9.4280,0.11,0.26,-0.98,-15.56,0.73,58.23
9.4430,0.04,0.10,-0.99,-16.66,1.40,57.86
9.4590,0.12,-0.08,-0.94,-10.19,2.26,42.79
9.4750,-0.13,-0.24,-1.05,9.40,3.42,7.81
9.4920,-0.01,0.00,-1.03,12.51,4.33,-10.31
9.5070,-0.03,0.05,-0.97,8.00,5.13,-14.47
9.5230,-0.05,0.11,-1.01,18.31,2.93,-5.80
9.5380,-0.02,0.13,-1.03,11.47,2.87,-3.30
9.5530,-0.01,0.08,-1.01,5.00,4.09,-0.12
9.5690,-0.02,0.07,-1.00,3.05,3.78,3.17
9.5840,-0.01,0.09,-1.01,4.94,2.75,7.63
9.5940,-0.03,0.12,-0.99,2.69,3.05,12.33
9.6120,-0.01,0.06,-1.00,3.66,3.05,15.56
9.6280,0.02,0.02,-1.00,4.15,2.75,12.88
9.6440,0.06,-0.01,-1.00,5.86,3.23,5.86
9.6600,-0.03,-0.01,-0.99,3.78,4.21,0.31
9.6610,-0.01,0.01,-1.01,4.15,4.88,-4.76
9.6910,0.02,0.11,-0.99,2.93,5.25,-7.81
9.7070,0.01,0.14,-0.99,3.11,4.94,-3.54
9.7230,0.00,0.08,-1.00,2.75,4.88,1.40
9.7380,-0.00,0.07,-1.00,2.69,4.88,2.32
9.7530,-0.00,0.06,-1.01,2.38,4.76,2.56
9.7680,-0.05,0.12,-1.01,1.65,3.11,10.74
9.7830,0.00,0.06,-0.99,0.12,0.79,31.31
9.7950,0.04,0.06,-1.00,2.08,0.00,32.29
9.8110,0.04,-0.10,-1.00,1.71,1.59,21.00
9.8270,-0.01,-0.04,-1.03,7.75,4.39,-9.83
9.8440,0.00,0.03,-1.01,2.75,8.24,-32.65
9.8610,-0.00,0.13,-1.00,3.42,9.70,-43.58
9.8780,-0.02,0.15,-0.98,4.09,8.48,-33.57
9.8930,-0.05,0.14,-0.99,3.54,6.10,-11.66
9.9090,-0.01,0.07,-0.99,2.75,4.94,2.87
9.9250,0.00,0.04,-1.01,3.11,4.46,4.64
9.9410,-0.03,0.24,-0.99,2.93,1.10,25.76
9.9560,0.06,0.11,-1.02,2.69,-2.50,49.93
9.9730,0.09,-0.05,-1.02,6.23,0.55,23.38
9.9880,-0.14,-0.20,-1.05,6.29,3.60,-0.79
10.0030,0.01,-0.04,-1.04,2.99,6.59,-16.78
10.0190,-0.07,-0.07,-1.02,2.75,10.01,-43.95
10.0340,-0.06,0.04,-1.01,2.32,10.44,-41.44
10.0440,-0.00,0.13,-0.98,1.77,9.28,-33.33
10.0620,0.02,0.23,-0.97,2.26,6.96,-16.78
10.0780,-0.00,0.20,-0.98,3.36,5.98,-7.02
10.0940,-0.03,0.09,-1.00,2.26,4.33,2.44
10.1110,-0.16,0.10,-1.01,2.32,2.26,15.44
10.1270,-0.02,0.09,-1.01,1.89,-1.46,43.95
10.1420,0.08,0.07,-0.99,1.22,-2.26,48.83
10.1580,0.11,0.00,-1.00,2.87,0.31,31.43
10.1740,0.04,-0.06,-1.03,3.97,3.72,4.39
10.1890,0.08,-0.01,-1.01,2.75,4.27,1.22
10.2060,0.03,0.02,-1.01,2.69,5.19,-4.21
10.2210,0.05,0.08,-0.99,2.14,4.03,3.72
10.2370,-0.15,0.17,-0.98,1.22,1.34,21.00
10.2450,-0.10,0.22,-0.99,1.65,1.71,20.20
10.2610,-0.08,0.13,-1.00,2.38,1.34,23.38
10.2830,-0.00,0.09,-1.00,2.38,0.37,28.14
10.3000,0.01,0.05,-1.01,2.69,1.34,22.52
10.3150,0.05,-0.07,-1.02,3.78,2.75,10.80
10.3310,0.04,0.01,-1.02,4.76,4.21,0.00
10.3330,0.03,-0.08,-1.02,4.09,6.77,-17.70
10.3630,0.01,-0.08,-1.03,3.23,7.26,-21.12
10.3780,-0.04,-0.03,-1.04,2.20,6.71,-14.95
10.3930,0.00,0.09,-1.00,0.79,5.43,-10.44
10.4040,0.00,0.12,-0.96,0.31,3.66,3.30
10.4230,-0.03,0.26,-0.98,0.00,2.01,17.70
10.4390,-0.04,0.22,-0.97,0.31,2.08,16.85
10.4550,0.00,0.17,-0.98,2.26,0.61,29.97
10.4710,-0.01,0.22,-0.97,2.32,-2.81,56.58
10.4870,0.12,0.26,-0.96,2.69,-3.91,61.58
10.5040,0.09,0.02,-1.01,6.16,-0.61,34.97
10.5050,-0.08,-0.24,-1.06,6.65,4.64,-2.32
10.5350,0.04,-0.10,-1.03,4.46,6.16,-9.03
10.5500,0.02,0.03,-1.01,4.15,7.39,-18.98
10.5670,0.01,0.05,-1.01,4.33,7.87,-23.74
10.5710,-0.03,0.06,-1.01,4.15,7.39,-19.78
10.5860,-0.03,0.08,-1.01,3.97,6.16,-12.15
10.6140,-0.04,0.09,-1.01,3.11,4.70,-1.77
10.6250,-0.02,0.08,-1.01,2.62,3.36,4.46
10.6400,0.00,0.04,-1.00,2.81,2.44,8.18
10.6590,0.01,0.03,-1.00,2.69,2.69,11.11
10.6750,0.05,0.01,-1.00,2.99,2.93,10.44
10.6920,0.02,-0.01,-1.01,2.93,4.58,-1.53
10.7080,-0.01,0.01,-1.01,2.81,5.49,-5.92
10.7230,0.03,0.08,-0.99,2.75,5.49,-8.06
10.7380,0.01,0.10,-1.00,2.87,5.98,-10.80
10.7520,-0.00,0.05,-1.01,3.30,6.96,-19.04
10.7640,-0.01,0.03,-1.02,2.32,6.77,-17.09
10.7800,-0.02,0.11,-1.00,0.67,3.97,0.24
10.7970,-0.05,0.15,-1.00,-0.79,2.81,10.68
10.8130,-0.05,0.22,-1.05,-9.28,3.60,13.37
10.8300,-0.12,0.09,-0.85,-15.99,3.11,24.72
10.8460,0.02,0.12,-0.98,21.73,-5.07,52.67
10.8610,0.03,0.10,-1.02,7.26,-3.91,55.05
10.8760,0.09,-0.04,-1.00,4.33,-2.69,46.94
10.8920,0.07,-0.12,-1.03,5.19,2.69,9.52
10.9080,0.03,-0.00,-1.03,5.74,3.66,-7.69
10.9250,0.06,0.01,-1.01,4.58,6.23,-17.27
10.9410,-0.01,0.04,-1.02,3.85,9.40,-35.71
10.9560,0.02,0.08,-1.00,2.69,8.79,-30.03
10.9710,0.02,0.10,-1.01,2.08,8.00,-21.85
10.9860,0.00,0.11,-1.01,1.28,5.00,-6.29
10.9960,0.01,0.13,-0.99,0.67,2.99,7.69
11.0120,0.02,0.12,-0.99,0.61,0.43,20.69
11.0330,-0.03,0.11,-0.99,0.55,-0.79,28.14
11.0490,-0.02,0.11,-0.98,0.79,-1.59,41.32
11.0650,0.04,0.01,-1.00,3.11,-1.16,38.94
11.0820,-0.09,-0.11,-1.04,4.52,3.11,11.17
11.0970,-0.00,0.02,-1.01,4.03,4.64,-2.56
11.1000,0.02,-0.01,-1.01,3.54,6.84,-17.33
11.1230,0.04,-0.02,-1.01,3.30,8.61,-25.63
11.1370,0.04,0.00,-1.02,2.26,8.06,-25.15
11.1540,0.01,0.01,-1.03,2.26,7.45,-19.65
11.1730,0.01,0.10,-1.01,0.67,5.00,-5.86
11.1880,0.03,0.21,-1.01,-1.16,2.56,14.34
11.2030,-0.01,0.21,-1.04,-13.06,5.25,11.60
11.2190,0.02,0.06,-1.00,-19.59,5.74,11.84
11.2360,0.01,0.11,-0.95,-17.70,2.26,33.26
11.2510,0.01,0.15,-0.95,-5.86,-0.92,48.65
11.2670,0.07,0.18,-0.94,6.59,-3.30,53.22
11.2830,0.03,0.12,-0.90,23.62,-3.91,46.75
11.2990,-0.05,0.06,-1.26,40.47,-4.21,30.03
11.3040,-0.04,-0.26,-1.05,4.52,2.20,15.81
11.3230,-0.04,-0.10,-1.08,4.03,4.15,1.77
11.3480,0.02,-0.08,-1.05,3.11,3.97,-1.34
11.3600,0.00,-0.05,-1.04,1.46,5.31,-8.18
11.3770,-0.00,0.05,-1.02,0.79,5.37,-8.79
11.3930,-0.00,0.11,-1.01,-0.73,5.80,-8.18
11.4100,0.05,0.15,-0.97,-1.40,5.37,-3.05
11.4250,0.04,0.09,-0.96,5.80,5.00,-6.65
11.4410,-0.04,0.05,-0.99,8.85,6.41,-14.77
11.4570,0.02,0.06,-0.99,5.19,7.63,-17.88
11.4720,0.03,0.05,-1.00,5.74,9.16,-28.26
11.4780,-0.01,0.01,-1.01,7.32,10.38,-36.50
11.4930,0.00,0.02,-1.01,7.32,11.90,-47.42
11.5190,0.01,0.01,-0.98,6.35,12.39,-50.72
11.5300,0.05,-0.04,-1.03,5.49,11.35,-44.92
11.5470,0.03,-0.02,-1.04,2.56,7.81,-27.71
11.5640,0.02,0.00,-1.04,0.12,4.39,-5.43
11.5800,0.04,0.15,-1.06,-1.95,2.38,8.12
11.5950,0.02,0.15,-1.03,-22.58,3.78,23.80
11.6100,0.06,0.06,-0.97,-29.24,3.91,27.53
11.6260,-0.01,0.09,-0.93,-14.89,2.75,23.44
11.6420,-0.03,0.12,-0.89,11.78,2.01,3.66
11.6580,0.04,0.03,-0.88,28.38,1.46,-14.10
11.6730,0.02,0.19,-1.16,54.69,1.53,-25.21
11.6880,-0.03,0.01,-0.96,8.18,9.83,-35.83
11.7030,-0.08,-0.06,-1.02,8.06,12.82,-57.56
11.7140,0.04,-0.04,-1.02,7.08,13.92,-60.24
11.7310,0.05,0.07,-1.02,5.37,12.21,-50.23
11.7470,0.04,0.17,-1.00,3.66,9.70,-30.21
11.7640,-0.01,0.20,-1.05,1.65,8.18,-17.82
11.7800,0.06,0.03,-0.98,-16.24,7.08,5.86
11.7970,0.05,0.04,-1.03,-12.08,2.93,22.71
11.8130,0.02,0.01,-0.96,-12.15,-0.06,36.07
11.8290,-0.02,0.01,-0.89,6.96,-2.81,41.50
11.8310,-0.10,0.08,-0.96,42.91,-4.58,24.41
11.8600,-0.06,0.05,-1.00,5.55,4.27,2.87
11.8750,0.00,0.07,-1.02,5.19,4.15,1.89
11.8910,0.01,0.03,-1.02,2.44,4.03,0.98
11.9060,-0.07,0.10,-0.93,3.36,7.32,-20.87
11.9210,0.03,0.02,-1.04,5.74,10.38,-33.69
11.9320,0.05,0.04,-1.02,3.78,6.41,-15.38
11.9490,0.02,0.09,-1.02,3.11,5.13,-4.94
11.9650,0.01,0.09,-1.05,0.73,4.70,1.22
11.9820,0.06,-0.11,-1.04,-13.61,6.29,1.89
11.9980,-0.04,-0.02,-1.05,-21.67,5.07,11.41
12.0140,-0.01,0.08,-0.95,-28.63,5.74,16.60
12.0230,-0.02,0.15,-0.88,-10.25,4.94,9.46
12.0450,-0.05,0.07,-0.89,18.68,2.32,0.98
12.0600,-0.02,0.11,-0.89,32.71,1.89,-3.05
12.0760,0.05,0.18,-1.15,56.70,-0.92,-6.77
12.0920,-0.01,0.01,-0.96,5.37,5.25,-2.01
12.1080,0.00,0.03,-1.02,5.31,5.13,-2.81
12.1250,-0.01,0.03,-1.01,4.27,5.37,-4.58
12.1330,0.00,0.02,-1.01,4.82,4.88,-1.65
12.1480,-0.00,0.09,-1.00,3.23,4.46,-1.10
12.1700,0.01,0.09,-1.00,3.66,5.25,-7.02
12.1860,0.02,0.09,-1.00,3.66,5.25,-7.57
12.2020,-0.00,0.11,-1.01,3.72,5.55,-7.63
12.2190,0.01,0.10,-1.00,4.27,5.86,-8.91
12.2350,0.03,0.05,-1.00,4.58,4.52,-1.28
12.2510,0.00,0.09,-1.00,3.42,3.91,4.27
12.2670,-0.00,0.04,-1.01,4.21,4.27,2.69
12.2820,-0.03,0.01,-1.01,3.60,3.78,6.47
12.2970,-0.03,0.03,-1.00,3.30,4.03,5.74
12.3120,-0.03,0.02,-1.00,2.99,4.76,0.67
12.3280,-0.04,0.04,-1.02,4.21,5.49,-4.39
12.3350,0.00,0.07,-1.00,2.87,5.25,-4.76
12.3510,0.06,-0.00,-1.02,1.10,5.49,-1.59
12.3730,0.00,0.03,-1.01,0.98,4.52,2.32
12.3890,0.00,0.03,-0.99,1.83,3.91,1.53
12.4050,0.01,-0.00,-1.02,3.17,5.00,-3.36
12.4220,-0.04,-0.07,-1.04,-1.53,5.49,-7.69
12.4380,-0.03,0.01,-1.01,-5.43,7.63,-12.33
12.4540,0.00,0.09,-1.01,-8.42,9.64,-19.65
12.4690,0.05,0.11,-0.94,-7.08,9.58,-23.68
12.4850,0.04,0.13,-0.91,10.44,6.35,-18.98
12.5010,0.02,0.13,-0.96,32.41,1.04,-1.22
12.5060,-0.04,0.03,-1.03,6.71,4.82,0.49
12.5230,-0.01,0.05,-1.00,5.68,4.21,2.50
12.5460,0.04,-0.01,-1.00,4.82,4.33,0.31
12.5610,-0.04,-0.19,-1.05,4.46,6.53,-15.08
12.5770,-0.05,-0.18,-1.07,2.81,6.53,-13.12
12.5920,0.03,0.03,-1.04,0.92,6.59,-15.44
12.6090,0.02,0.20,-1.12,-9.34,11.05,-31.31
12.6250,-0.00,0.11,-1.03,-37.41,14.53,-32.71
12.6420,-0.00,0.05,-0.94,-34.24,13.31,-30.46
12.6570,0.02,0.12,-0.97,-19.59,11.11,-26.86
12.6730,0.05,0.28,-0.97,-11.60,7.93,-15.93
12.6900,0.02,0.14,-0.96,-1.59,5.31,-2.56
12.7050,0.02,0.12,-0.93,14.16,1.46,10.86
12.7210,0.01,0.19,-0.93,36.38,-2.44,18.86
12.7280,-0.04,0.11,-0.91,55.97,-3.97,15.20
12.7440,-0.19,-0.05,-1.08,29.42,1.71,6.84
12.7660,-0.16,-0.13,-1.07,4.94,5.00,-4.46
12.7820,-0.04,0.02,-1.01,4.33,5.25,-7.08
12.7980,0.04,0.08,-1.00,3.97,7.02,-11.72
12.8150,0.06,0.06,-1.00,3.30,7.51,-14.10
12.8310,0.08,0.04,-1.03,3.85,8.36,-19.04
12.8480,0.01,0.07,-1.04,2.69,6.77,-12.02
12.8640,-0.04,0.00,-1.03,-4.46,8.00,-8.12
12.8800,-0.03,0.04,-1.00,-5.25,6.10,-0.61
12.8960,-0.03,0.04,-0.98,-0.85,4.94,2.01
12.9120,-0.02,0.04,-0.98,1.83,2.62,3.17
12.9230,-0.02,0.02,-0.96,11.35,1.28,5.43
12.9300,0.00,0.18,-1.14,21.67,0.67,5.37
12.9540,-0.07,-0.01,-1.02,5.55,3.30,5.98
12.9710,-0.04,-0.16,-1.05,4.82,5.98,-5.62
12.9870,-0.02,-0.09,-1.05,4.94,9.28,-28.56
13.0030,0.04,0.02,-1.04,4.82,10.93,-41.08
13.0190,0.02,0.09,-1.10,-2.01,15.32,-60.24
13.0360,-0.02,0.05,-1.04,-24.60,15.44,-44.13
13.0510,0.03,0.15,-0.98,-34.30,10.68,-12.39
13.0670,0.02,0.19,-0.95,-29.42,7.57,4.94
13.0830,-0.01,0.16,-0.95,-17.64,5.37,15.38
13.0990,-0.03,0.07,-0.94,-3.72,3.36,16.05
13.1150,-0.05,0.05,-0.94,16.11,-0.12,19.23
13.1240,-0.03,0.05,-0.89,35.58,-1.71,12.94
13.1360,-0.04,0.04,-0.90,65.80,-2.56,-4.21
13.1620,-0.00,0.29,-1.63,77.03,-2.81,-10.74
13.1740,-0.06,-0.01,-1.04,7.32,8.24,-18.01
13.1900,0.11,-0.00,-1.03,7.02,10.62,-34.85
13.2080,0.09,0.08,-1.03,6.77,10.62,-36.19
13.2240,0.01,0.11,-1.02,4.33,7.81,-24.23
13.2400,-0.01,0.13,-1.00,3.60,7.14,-15.01
13.2560,-0.06,0.08,-1.01,3.36,4.52,-5.00
13.2710,-0.06,0.08,-1.00,2.93,3.85,-0.85
13.2870,-0.04,0.08,-1.01,3.17,3.05,3.17
13.3020,-0.04,0.11,-1.00,3.23,2.50,7.14
13.3180,-0.06,0.07,-1.00,1.89,1.28,20.20
13.3330,-0.03,0.09,-1.00,1.89,-0.06,30.40
13.3490,-0.05,0.10,-1.00,1.53,0.12,32.84
13.3640,-0.04,0.13,-0.99,1.28,0.18,28.08
13.3800,0.01,0.25,-0.98,2.75,2.50,18.55
13.3900,0.07,0.16,-0.98,5.49,6.53,-7.69
13.4070,0.03,0.16,-0.99,6.29,7.26,-10.80
13.4250,0.03,0.15,-0.98,4.39,4.03,5.07
13.4410,0.06,0.13,-0.99,3.23,1.59,21.55
13.4570,0.05,-0.11,-1.02,1.83,1.46,23.25
13.4730,-0.09,-0.26,-1.07,2.26,1.89,15.50
13.4890,0.02,-0.02,-1.01,2.99,3.85,0.43
13.4910,0.01,0.02,-1.01,5.62,6.10,-15.56
13.5210,-0.07,-0.06,-1.04,5.49,7.81,-24.11
13.5250,-0.03,0.04,-1.02,3.36,5.98,-12.88
13.5510,-0.03,0.12,-1.01,2.50,4.94,-4.33
13.5670,-0.01,0.16,-1.00,1.77,4.46,4.33
13.5840,-0.04,0.21,-1.00,1.59,3.36,8.24
13.5920,-0.01,0.17,-0.99,-2.38,2.99,13.06
13.6070,-0.06,0.20,-1.00,-1.59,1.16,23.25
13.6290,-0.05,0.17,-0.97,-6.16,-1.34,46.08
13.6440,-0.02,0.14,-0.91,5.92,-2.87,50.11
13.6590,-0.06,0.05,-1.00,13.37,-3.30,44.19
13.6760,-0.07,-0.04,-1.01,1.59,-0.67,37.60
13.6910,0.01,0.00,-1.02,3.30,1.59,16.60
13.7070,0.02,0.00,-1.02,4.76,4.64,0.92
13.7230,0.04,0.03,-1.02,4.39,5.37,-3.97
13.7390,0.04,0.04,-1.01,4.09,5.00,-3.42
13.7550,0.01,0.06,-1.01,3.42,4.33,-0.31
13.7700,0.00,0.07,-1.01,3.17,4.03,2.20
13.7800,-0.02,0.08,-1.01,2.99,4.33,3.17
13.7960,-0.03,0.06,-1.01,2.69,3.97,5.74
13.8150,-0.01,0.05,-1.00,2.75,4.03,7.14
13.8300,0.01,0.02,-0.99,2.81,4.03,5.49
13.8350,-0.02,0.01,-1.00,3.48,5.43,-1.46
13.8510,0.00,-0.00,-1.01,3.48,5.98,-5.80
13.8700,-0.02,0.02,-1.02,4.21,7.20,-13.37
13.8870,0.02,0.08,-1.01,4.15,7.75,-19.04
13.9040,0.01,0.13,-1.00,4.03,8.24,-21.48
13.9200,0.03,0.17,-0.99,3.05,6.59,-13.79
13.9370,0.03,0.19,-0.98,2.44,5.68,-8.24
13.9530,-0.02,0.09,-1.01,-0.55,4.27,2.01
13.9690,-0.07,0.12,-1.01,-2.32,3.17,9.22
13.9850,-0.06,0.14,-0.99,-6.77,2.26,25.94
14.0000,-0.02,0.16,-0.96,-7.75,-0.06,43.27
14.0150,0.04,0.14,-0.89,7.39,-2.69,46.88
14.0240,-0.05,0.08,-0.98,17.94,-2.08,35.22
14.0360,-0.05,0.03,-0.99,3.78,0.73,23.86
14.0520,-0.02,0.02,-1.02,4.33,2.26,13.24
14.0750,0.03,0.01,-1.01,4.64,5.07,-1.77
14.0910,0.02,-0.05,-1.02,4.94,6.16,-8.79
14.1090,0.03,-0.03,-1.02,4.21,5.55,-5.31
14.1240,0.02,0.00,-1.01,2.93,4.46,0.79
14.1410,-0.00,0.06,-1.01,3.17,4.39,2.56
14.1580,0.00,0.01,-1.02,3.17,4.52,2.62
14.1740,-0.03,-0.02,-1.01,1.83,3.05,8.91
14.1900,-0.02,-0.03,-1.01,1.83,2.99,6.65
14.2060,-0.03,-0.05,-1.03,2.26,3.72,2.20
14.2220,-0.08,-0.05,-1.03,2.75,5.19,-7.51
14.2260,-0.07,-0.00,-1.02,3.36,7.02,-16.66
14.2530,-0.06,0.09,-1.00,4.64,9.09,-27.47
14.2610,-0.02,0.11,-1.00,5.43,10.62,-37.54
14.2770,0.03,0.20,-0.99,4.46,9.16,-27.77
14.2960,0.03,0.24,-1.01,2.01,6.77,-12.70
14.3130,0.07,0.29,-0.98,-2.75,5.74,-1.59
14.3290,-0.10,0.14,-0.96,-5.68,4.33,11.96
14.3460,-0.04,0.15,-1.00,-4.21,0.24,37.35
14.3610,-0.02,0.17,-1.01,-12.57,-1.22,57.31
14.3780,0.07,0.07,-0.91,-12.70,-2.99,67.50
14.3950,0.01,-0.08,-0.90,17.64,-5.43,57.01
14.4110,-0.07,-0.17,-1.03,20.32,-2.62,35.22
14.4260,-0.00,-0.07,-1.00,4.09,1.89,11.11
14.4300,-0.05,0.04,-1.01,5.19,3.05,-11.90
14.4460,-0.05,-0.00,-1.02,5.68,7.08,-28.50
14.4740,0.09,0.01,-1.02,6.84,11.29,-39.25
14.4840,0.10,0.06,-1.02,7.14,11.60,-46.33
14.5000,0.07,0.11,-1.00,5.92,10.99,-43.88
14.5180,-0.03,0.10,-1.01,5.19,9.58,-31.68
14.5340,0.01,0.09,-1.01,4.88,7.69,-17.33
14.5510,-0.03,0.08,-1.01,3.72,6.04,-10.01
14.5670,-0.05,0.10,-1.00,2.75,3.91,1.28
14.5830,-0.06,0.10,-1.00,1.95,2.81,8.91
14.5990,-0.04,0.11,-1.00,1.22,1.83,16.36
14.6150,-0.03,0.10,-0.99,1.04,0.00,27.16
14.6310,-0.06,0.05,-1.00,0.85,-0.61,33.63
14.6460,-0.02,0.05,-1.00,1.28,0.18,31.31
14.6610,-0.03,0.07,-1.00,1.28,0.12,28.87
14.6780,-0.02,0.07,-1.01,0.67,0.12,28.56
14.6920,0.01,0.07,-1.02,1.22,1.28,21.67
14.7070,0.01,0.11,-1.01,2.87,3.11,9.95
14.7170,0.00,0.09,-1.00,3.60,4.33,1.83
14.7330,-0.00,0.09,-1.00,3.36,4.09,5.62
14.7520,0.00,0.09,-1.00,2.75,2.93,11.35
14.7680,0.00,0.12,-1.00,2.26,1.83,20.14
14.7830,0.01,-0.04,-1.00,3.17,1.83,18.49
14.7990,0.01,-0.14,-0.99,4.09,3.11,7.32
14.8140,-0.04,-0.05,-1.00,3.72,5.07,-8.06
14.8250,-0.02,-0.10,-1.01,5.92,7.93,-23.62
14.8390,-0.10,-0.11,-1.04,8.97,12.33,-52.31
14.8570,-0.04,-0.02,-1.03,8.36,13.92,-58.90
14.8730,0.06,0.09,-1.01,7.26,13.12,-54.08
14.8890,0.04,0.16,-1.00,6.04,11.35,-42.36
14.9060,0.01,0.21,-0.99,4.33,7.69,-20.81
14.9230,0.02,0.27,-0.98,2.44,3.72,1.89
14.9380,0.01,0.20,-0.96,1.40,2.32,9.52
14.9530,-0.08,0.17,-0.99,1.34,1.16,21.85
14.9560,-0.05,0.18,-0.99,-1.53,-2.69,50.54
14.9720,0.00,0.21,-0.99,-4.15,-4.76,72.33
15.0010,0.02,0.08,-0.95,-3.66,-5.62,75.56
15.0160,-0.03,-0.02,-1.02,-0.18,-4.03,61.77
15.0270,-0.02,-0.11,-1.02,0.55,-2.20,30.64
15.0440,-0.07,-0.14,-1.03,5.13,4.88,-3.11
15.0610,-0.01,0.00,-1.01,7.81,10.56,-38.88
15.0780,0.02,-0.07,-1.03,10.93,15.87,-69.21
15.0930,0.04,-0.01,-1.02,10.56,16.30,-75.38
15.1090,0.08,0.10,-1.01,9.40,13.55,-59.57
15.1250,0.05,0.19,-0.99,6.96,9.28,-31.31
15.1410,0.03,0.22,-0.99,3.97,4.82,-4.15
15.1570,-0.02,0.08,-1.00,2.75,4.09,2.26
15.1730,-0.09,0.05,-1.02,1.40,2.32,12.27
15.1880,-0.03,0.14,-0.99,-2.38,-1.46,39.98
15.1940,-0.02,0.10,-1.00,-2.01,-2.01,47.61
15.2100,-0.02,0.06,-1.00,-0.61,-1.89,43.33
15.2330,0.00,0.02,-1.01,0.73,-0.67,32.84
15.2490,-0.04,0.03,-1.01,1.83,0.43,24.29
15.2650,-0.02,0.03,-1.00,3.60,3.91,4.39
15.2810,0.01,0.05,-1.01,4.82,6.41,-12.21
15.2840,0.04,0.03,-1.01,5.80,8.91,-26.49
15.2990,0.03,0.04,-1.02,6.53,9.09,-29.54
15.3280,0.01,0.09,-1.00,5.86,7.75,-21.55
15.3380,-0.01,0.11,-1.00,4.76,5.55,-7.45
15.3540,-0.02,0.10,-1.00,3.66,4.21,1.89
15.3710,-0.09,-0.02,-1.03,2.50,3.30,4.94
15.3880,-0.10,0.06,-1.02,0.06,1.40,16.72
15.4050,-0.08,0.06,-1.00,0.37,1.16,22.77
15.4210,-0.04,0.11,-0.99,1.77,1.28,22.46
15.4250,-0.05,0.11,-0.99,3.85,2.75,13.73
15.4390,-0.08,0.05,-0.99,4.64,3.85,5.19
15.4670,0.04,0.06,-1.01,7.02,7.02,-16.17
15.4830,0.08,0.05,-1.01,7.26,9.03,-27.65
15.4880,0.07,0.08,-1.01,6.71,7.93,-22.40
15.5140,0.05,0.09,-1.00,5.68,6.59,-12.39
15.5290,-0.01,0.09,-1.01,4.52,4.52,-2.87
15.5370,-0.02,0.08,-1.01,3.85,4.39,0.37
15.5560,-0.08,-0.01,-1.02,2.75,4.33,2.93
15.5700,-0.06,0.05,-1.00,1.28,2.75,10.44
15.5880,-0.11,-0.01,-1.02,2.26,2.62,11.17
15.6050,-0.10,0.04,-1.00,5.00,2.69,10.93
15.6210,-0.12,0.05,-0.98,7.20,3.05,5.74
15.6370,-0.08,0.09,-0.99,8.18,3.36,1.10
15.6530,0.03,0.15,-1.00,10.01,3.97,-3.72
15.6540,0.10,0.11,-0.99,6.84,6.23,-11.96
15.6720,0.20,0.13,-1.00,5.25,5.31,-6.71
15.6880,0.02,0.08,-1.02,2.26,4.64,1.89
15.7040,-0.01,0.08,-1.01,1.65,5.80,1.89
15.7250,0.02,0.06,-1.00,2.26,4.76,4.27
15.7410,0.03,0.05,-1.00,1.22,3.85,5.92
15.7580,-0.02,0.06,-0.99,0.00,3.78,5.37
15.7750,-0.06,0.07,-0.99,3.54,4.70,-2.81
15.7910,-0.04,0.08,-1.01,7.45,4.46,-6.16
15.8070,-0.03,0.08,-1.00,5.25,5.00,-7.57
15.8230,-0.02,0.08,-1.00,5.55,4.46,-5.68
15.8250,-0.01,0.06,-1.01,5.62,4.27,-7.93
15.8550,-0.01,0.01,-1.01,5.37,5.98,-13.73
15.8710,-0.01,0.01,-1.02,7.63,8.00,-26.31
15.8750,-0.01,0.01,-1.00,6.71,8.85,-28.99
15.9030,0.00,-0.05,-1.03,3.78,8.24,-18.74
15.9180,-0.00,0.05,-1.02,0.85,7.14,-9.28
15.9330,0.04,0.15,-0.96,-4.52,7.26,-3.91
15.9410,0.04,0.20,-1.01,-2.38,6.84,-3.72
15.9570,-0.01,0.21,-1.00,-8.79,6.41,2.75
15.9760,-0.05,0.27,-0.92,-11.60,3.48,18.98
15.9910,-0.06,0.22,-0.91,7.51,-0.43,25.76
16.0080,-0.01,0.30,-1.08,23.25,-3.72,29.11
16.0260,-0.09,-0.00,-1.06,9.09,0.73,10.74
16.0410,-0.14,-0.17,-1.06,9.89,4.21,-13.18
16.0570,-0.08,0.00,-1.04,8.73,5.49,-17.70
16.0730,-0.01,0.03,-1.02,6.84,10.38,-36.93
16.0900,0.04,0.02,-1.01,5.19,10.19,-29.85
16.1050,0.07,0.12,-0.98,1.71,6.65,-7.14
16.1210,-0.01,0.09,-0.99,-0.31,5.62,2.75
16.1370,-0.02,0.10,-1.00,1.53,3.91,10.07
16.1530,0.00,0.12,-0.99,1.04,1.77,23.62
16.1680,-0.00,0.06,-0.99,0.92,0.31,28.93
16.1830,0.00,0.03,-0.99,2.20,1.22,23.56
16.1910,-0.00,0.06,-1.01,4.33,3.54,7.63
16.2070,-0.03,0.05,-1.02,4.88,3.66,-0.49
16.2280,0.04,0.04,-1.02,5.00,5.13,-5.43
16.2300,0.01,0.07,-1.02,4.82,7.02,-15.56
16.2580,-0.03,0.08,-1.01,4.21,7.14,-16.60
16.2730,-0.04,0.10,-1.00,3.17,7.14,-13.98
16.2890,-0.07,0.11,-1.00,1.65,6.23,-4.39
16.3050,-0.03,0.08,-1.00,1.83,4.39,2.56
16.3130,-0.08,0.05,-1.02,0.00,3.05,9.64
16.3290,-0.09,0.09,-0.98,-0.55,0.55,28.38
16.3500,0.01,0.10,-0.99,3.42,-0.43,29.54
16.3670,-0.05,0.03,-1.02,8.42,0.31,14.04
16.3830,-0.01,0.06,-1.03,5.19,3.48,-0.49
16.3990,0.04,0.07,-1.02,2.93,5.68,-6.04
16.4150,-0.04,0.04,-1.00,1.65,7.87,-9.58
16.4310,0.03,0.09,-1.00,2.87,8.30,-17.88
16.4350,-0.02,0.13,-1.01,1.40,6.77,-9.77
16.4500,-0.03,0.11,-1.01,-2.26,5.74,1.10
16.4720,-0.04,0.07,-0.99,-1.04,5.13,2.01
16.4890,0.00,0.03,-0.99,2.44,4.27,1.53
16.5050,-0.00,0.04,-0.99,7.14,4.52,-5.62
16.5230,-0.04,0.03,-1.01,6.71,5.25,-4.94
16.5390,-0.17,-0.09,-1.02,7.08,3.23,5.74
16.5550,-0.06,0.12,-0.97,4.88,2.62,12.08
16.5560,0.06,0.21,-1.00,3.91,3.48,1.89
16.5870,0.05,0.23,-1.01,2.26,5.62,-2.14
16.5900,-0.01,0.11,-1.02,-2.69,6.77,1.59
16.6180,0.04,0.20,-0.98,-2.81,5.43,6.16
16.6340,-0.05,0.08,-0.98,-0.67,3.97,6.10
16.6490,-0.05,-0.02,-1.01,4.27,2.56,8.36
16.6560,-0.03,-0.04,-1.03,5.31,2.38,4.52
16.6720,-0.02,0.04,-0.98,6.53,2.50,1.53
16.6960,-0.03,-0.02,-1.02,7.39,3.97,-3.78
16.7060,-0.07,-0.02,-1.03,6.47,6.65,-16.05
16.7210,-0.06,0.08,-1.00,5.49,6.04,-11.05
16.7390,-0.05,0.10,-0.97,4.03,6.23,-6.35
16.7560,0.03,0.22,-0.95,1.53,6.10,-3.11
16.7710,0.09,0.22,-1.02,0.79,4.82,4.82
16.7890,-0.02,0.16,-1.03,-3.78,3.72,13.98
16.8050,0.00,0.16,-0.95,-3.60,2.20,23.62
16.8210,-0.05,-0.03,-0.98,5.49,0.24,25.63
16.8380,0.00,-0.06,-1.04,11.41,-1.34,19.23
16.8540,-0.05,0.00,-1.04,8.97,1.46,1.10
16.8690,0.03,0.00,-1.02,7.32,6.04,-13.24
16.8720,0.01,0.02,-1.02,5.62,8.79,-24.29
16.8880,0.03,0.09,-1.01,2.26,9.95,-23.93
16.9060,0.02,0.19,-0.98,-3.78,8.61,-9.28
16.9270,-0.01,0.23,-0.99,-4.46,7.08,2.14
16.9490,-0.04,0.13,-1.01,-9.03,6.77,4.76
16.9560,-0.08,0.11,-1.00,-9.89,4.52,13.49
16.9720,-0.10,0.12,-0.98,-5.19,1.28,24.60
16.9880,-0.01,0.09,-0.94,1.10,0.06,31.25
17.0080,-0.02,0.09,-0.93,20.75,-1.77,22.64
17.0270,-0.10,0.01,-1.15,31.01,-1.83,7.08
17.0430,-0.03,0.03,-1.01,9.09,2.32,3.23
17.0580,0.00,0.06,-1.02,8.79,2.56,-3.42
17.0750,0.01,0.14,-1.03,6.35,4.88,-4.58
17.0760,0.05,0.08,-1.01,4.21,5.49,-3.85
17.1070,0.00,0.07,-1.01,1.16,5.25,0.98
17.1230,-0.02,0.08,-1.00,0.49,5.80,1.95
17.1270,-0.02,0.08,-0.99,1.40,6.04,2.08
17.1550,-0.03,0.06,-1.00,2.62,5.31,0.61
17.1700,-0.04,0.07,-1.01,4.64,3.78,0.12
17.1750,-0.02,0.09,-1.01,4.27,3.66,0.24
17.1910,-0.03,0.09,-1.00,3.97,3.85,1.77
17.2190,-0.04,0.07,-0.99,4.09,3.48,2.32
17.2270,-0.03,0.07,-1.00,7.75,1.46,2.20
17.2490,-0.04,0.15,-1.00,12.51,-0.92,1.83
17.2580,0.01,0.06,-1.00,3.54,5.49,-6.16
17.2740,-0.00,0.08,-1.01,0.49,5.43,0.00
17.2950,-0.00,0.08,-1.01,-1.28,6.65,1.40
17.3110,-0.02,0.05,-1.00,-2.14,7.32,1.16
17.3260,-0.01,-0.03,-1.01,0.85,6.77,0.49
17.3410,-0.03,0.00,-1.03,1.71,5.43,0.00
17.3560,-0.06,0.04,-1.01,0.49,5.25,-0.55
17.3710,-0.06,0.09,-1.00,2.32,4.64,-1.40
17.3860,-0.05,0.16,-0.98,4.03,4.94,-4.82
17.3960,0.00,0.19,-0.98,5.80,4.15,-4.94
17.4130,0.00,0.13,-1.00,5.07,3.36,0.06
17.4300,-0.04,0.20,-0.99,2.26,4.27,2.81
17.4460,0.01,0.25,-0.96,3.54,5.13,3.17
17.4620,0.06,0.21,-0.98,3.72,5.13,4.39
17.4770,-0.04,0.04,-1.02,0.92,2.99,16.60
17.4940,-0.06,-0.01,-1.01,-0.55,0.73,28.99
17.5090,-0.05,-0.11,-1.03,2.75,0.49,21.85
17.5250,-0.02,0.00,-1.04,5.37,3.17,1.22
17.5300,-0.02,-0.04,-1.03,5.00,6.35,-13.67
17.5460,-0.08,-0.08,-1.04,4.21,6.65,-17.40
17.5670,-0.11,-0.04,-1.03,3.23,6.96,-16.66
17.5840,0.01,0.16,-0.99,2.32,6.29,-10.38
17.6010,0.05,0.24,-0.99,4.27,5.80,-12.45
17.6160,0.00,0.27,-1.01,3.48,6.10,-4.39
17.6330,0.05,0.23,-0.97,0.85,4.70,10.44
17.6490,0.03,0.28,-0.97,0.98,2.32,25.82
17.6650,-0.03,0.24,-0.98,2.14,-0.67,32.71
17.6800,-0.04,-0.05,-1.02,1.10,-0.49,36.38
17.6960,-0.05,-0.14,-1.03,2.81,0.98,25.27
17.7120,-0.06,-0.06,-1.01,8.12,1.34,7.02
17.7260,0.00,0.09,-1.01,11.41,2.62,-11.96
17.7350,-0.00,0.09,-1.01,10.01,4.82,-17.94
17.7510,-0.00,0.07,-1.00,4.88,6.84,-18.07
17.7720,-0.01,0.11,-0.99,-0.18,8.48,-13.24
17.7890,-0.02,0.13,-0.97,-6.53,10.13,-4.64
17.8050,-0.03,0.10,-1.01,0.92,5.43,0.85
17.8200,-0.03,0.09,-1.00,0.18,5.13,2.26
17.8370,-0.02,0.12,-0.99,1.22,3.72,6.04
17.8530,-0.03,0.07,-1.02,2.69,2.56,10.56
17.8690,-0.02,0.07,-1.02,3.30,2.93,8.54
17.8860,-0.02,0.03,-0.99,4.09,3.60,5.19
17.9010,-0.03,0.07,-1.00,8.18,2.56,1.34
17.9050,-0.07,0.06,-1.01,6.96,3.17,-2.14
17.9280,-0.03,0.07,-1.00,10.19,2.32,-2.56
17.9480,0.02,0.16,-1.00,10.93,0.98,1.22
17.9640,-0.02,0.11,-1.00,-0.49,6.04,3.17
17.9750,-0.03,0.13,-0.99,-3.23,6.71,7.45
17.9930,-0.02,0.12,-1.00,-3.11,4.58,17.15
18.0080,-0.04,0.11,-1.01,-0.55,1.83,23.62
18.0260,-0.05,0.07,-1.00,-0.73,1.40,25.21
18.0270,-0.02,-0.02,-1.01,1.89,1.59,16.97
18.0570,-0.00,0.03,-1.01,2.69,2.93,3.42
18.0740,0.04,-0.00,-1.00,4.94,3.60,-1.53
18.0890,-0.08,-0.06,-1.03,9.40,7.02,-24.48
18.1050,-0.04,0.06,-1.00,7.20,8.48,-27.89
18.1100,0.08,0.20,-0.98,4.88,9.89,-26.55
18.1370,0.09,0.31,-0.97,4.88,8.00,-14.28
18.1440,-0.01,0.17,-1.01,2.69,6.96,4.03
18.1590,0.07,0.28,-0.97,1.65,2.01,22.40
18.1800,0.03,0.23,-0.99,0.67,0.06,28.81
18.1970,-0.13,-0.09,-1.04,-0.12,0.85,28.69
18.2130,-0.07,-0.12,-1.02,0.92,1.83,23.01
18.2290,-0.01,0.05,-1.01,4.46,3.23,3.78
18.2460,0.01,-0.01,-0.99,8.97,3.60,-7.63
18.2630,-0.02,-0.06,-1.03,15.32,3.30,-20.94
18.2780,-0.06,-0.01,-1.04,18.25,5.86,-39.79
18.2940,-0.06,0.05,-1.04,-5.37,13.31,-20.57
18.3100,0.02,0.29,-0.95,-9.64,9.22,1.28
18.3260,0.04,0.33,-0.98,0.00,5.00,2.69
18.3420,-0.01,0.22,-1.00,0.55,2.81,13.55
18.3580,0.05,0.29,-0.94,1.28,-0.85,32.29
18.3730,-0.05,-0.00,-1.04,7.87,-1.65,29.97
18.3890,-0.11,-0.20,-1.06,4.33,2.32,13.73
18.4060,-0.05,-0.05,-1.03,5.37,3.60,3.66
18.4210,0.00,0.03,-1.01,6.71,4.39,-9.46
18.4370,-0.03,0.02,-1.02,20.32,1.28,-22.22
18.4530,-0.04,0.09,-1.02,22.16,2.62,-31.92
18.4680,-0.02,0.09,-1.02,-0.06,11.72,-24.66
18.4800,0.03,0.23,-0.98,-16.54,14.04,1.89
18.4960,-0.01,0.22,-0.89,-17.64,13.18,4.94
18.5130,0.01,0.15,-0.98,-0.12,5.49,5.07
18.5280,0.02,0.24,-0.98,-1.16,1.59,25.33
18.5430,-0.05,0.20,-1.00,-2.14,-1.59,38.09
18.5600,-0.07,-0.10,-1.00,-0.12,-1.10,38.09
18.5620,-0.04,-0.11,-1.02,2.38,1.46,17.70
18.5780,-0.01,-0.06,-0.96,9.58,1.46,1.65
18.6070,-0.03,0.00,-1.02,8.61,2.87,-5.37
18.6220,-0.05,0.01,-1.02,10.99,5.37,-19.59
18.6330,-0.04,0.08,-1.00,13.49,3.66,-16.85
18.6500,0.02,0.17,-0.98,5.55,5.25,-7.45
18.6660,0.02,0.20,-0.99,1.46,5.80,-2.93
18.6820,0.01,0.14,-1.00,-1.34,6.23,2.56
18.6990,-0.04,0.08,-1.00,-6.23,8.00,4.09
18.7150,-0.02,0.16,-0.99,-0.49,3.66,11.23
18.7310,0.01,0.08,-0.98,1.59,3.30,13.18
18.7470,-0.02,0.01,-1.04,2.38,3.72,12.21
18.7620,-0.01,0.06,-1.02,0.43,5.00,0.92
18.7770,0.02,0.06,-0.97,0.79,5.62,-4.03
18.7940,-0.06,0.03,-0.99,8.73,4.46,-6.71
18.8090,-0.05,0.06,-1.01,8.42,4.21,-8.00
18.8260,-0.03,0.11,-0.99,5.86,5.62,-10.93
18.8410,-0.02,0.10,-1.00,6.71,2.87,-1.28
18.8560,-0.02,0.10,-1.01,4.21,2.75,2.14
18.8660,-0.07,0.10,-1.00,0.73,4.82,3.48
18.8830,-0.04,0.09,-1.00,1.89,3.11,9.34
18.8990,0.00,0.06,-1.00,2.32,2.93,8.97
18.9160,-0.02,0.05,-1.00,4.15,3.36,5.00
18.9330,-0.02,0.06,-1.01,5.80,3.48,-0.37
18.9500,-0.01,0.06,-1.01,4.76,6.65,-8.97
18.9660,-0.06,0.04,-1.03,2.81,9.70,-20.63
18.9820,-0.03,0.07,-1.00,5.68,10.13,-32.29
18.9980,-0.02,0.08,-1.01,6.47,8.85,-27.22
19.0140,0.02,0.17,-0.99,4.27,6.41,-9.28
19.0290,0.01,0.14,-0.99,2.93,4.33,3.11
19.0440,-0.02,0.14,-1.00,2.75,4.21,5.13
19.0500,-0.02,0.15,-1.00,1.10,0.67,24.60
19.0650,-0.01,0.22,-0.98,-2.08,-2.44,40.65
19.0860,-0.06,-0.03,-1.02,0.61,-1.53,35.10
19.1030,-0.03,-0.05,-1.02,2.62,2.20,13.06
19.1200,0.00,0.03,-1.01,3.30,3.72,1.16
19.1360,0.01,0.03,-1.01,3.97,4.64,-2.26
19.1530,-0.03,-0.01,-1.03,4.39,7.08,-13.49
19.1690,-0.08,0.01,-1.02,3.66,7.63,-17.03
19.1850,0.00,0.14,-1.00,3.42,7.57,-14.10
19.2010,0.04,0.23,-0.97,2.99,5.74,-5.31
19.2170,-0.02,0.10,-1.00,3.42,4.58,-0.12
19.2290,-0.03,0.09,-1.00,2.62,4.27,2.26
19.2350,-0.02,0.06,-1.00,2.69,4.21,3.48
19.2590,-0.02,0.07,-1.00,3.36,4.27,2.87
19.2750,-0.01,0.05,-1.00,3.72,4.76,1.65
19.2910,-0.00,0.02,-1.00,4.15,5.86,-6.59
19.3080,-0.05,0.02,-1.01,6.53,8.00,-22.77
19.3250,-0.05,0.06,-1.02,6.71,9.83,-31.49
19.3400,-0.03,0.13,-1.00,4.09,8.91,-24.66
19.3570,-0.02,0.16,-0.99,3.23,6.53,-10.93
19.3730,-0.01,0.24,-0.98,3.36,4.94,1.16
19.3890,-0.06,0.14,-1.00,0.55,3.72,4.64
19.4050,-0.05,0.16,-0.99,0.06,0.85,19.47
19.4080,-0.01,0.26,-0.97,0.73,-0.61,30.21
19.4290,0.06,0.08,-0.98,3.23,-1.71,36.50
19.4480,-0.05,-0.13,-1.04,5.98,-0.92,23.86
19.4650,-0.03,-0.03,-1.02,5.37,3.05,5.19
19.4810,-0.00,0.04,-1.02,3.66,7.45,-10.31
19.4980,0.01,-0.00,-1.03,6.04,8.24,-18.19
19.5150,-0.02,0.10,-1.00,1.40,8.18,-12.63
19.5310,-0.02,0.17,-0.98,2.56,6.59,-7.87
19.5470,-0.05,0.18,-1.00,3.48,5.00,-1.83
19.5630,-0.03,0.12,-1.00,2.44,4.33,4.09
19.5790,-0.03,0.11,-0.99,2.20,2.01,12.45
19.5950,-0.02,0.06,-1.00,3.23,1.22,14.10
19.6100,-0.03,0.05,-1.01,5.31,2.75,3.30
19.6150,-0.01,0.08,-1.01,4.15,3.54,1.95
19.6310,-0.02,0.05,-1.01,3.78,4.52,-0.37
19.6570,-0.00,0.05,-1.01,4.82,7.26,-15.01
19.6680,-0.01,0.09,-1.01,4.88,8.67,-25.02
19.6850,-0.03,0.13,-1.00,3.91,8.48,-19.78
19.7010,-0.03,0.15,-1.00,2.62,6.90,-7.32
19.7160,-0.03,0.11,-0.99,0.67,5.37,2.62
19.7350,-0.05,0.11,-1.00,0.43,3.72,9.77
19.7510,-0.05,0.13,-0.99,0.43,2.20,16.42
19.7670,-0.05,0.18,-0.99,-0.12,-0.37,29.48
19.7830,0.04,0.10,-0.99,2.26,-2.14,37.41
19.7990,-0.06,-0.08,-1.03,5.00,0.31,17.70
19.8030,-0.01,0.07,-1.02,5.13,2.69,1.77
19.8180,-0.01,0.06,-1.01,4.15,5.07,-3.60
19.8380,-0.02,0.07,-1.01,4.64,6.04,-7.93
19.8540,-0.01,0.08,-1.00,4.58,7.26,-13.73
19.8720,-0.02,0.10,-1.00,4.39,6.59,-11.05
19.8880,-0.04,0.14,-1.00,2.99,5.55,-4.94
19.9060,-0.03,0.10,-1.00,0.61,5.43,2.14
19.9060,-0.03,0.14,-0.99,1.53,3.30,5.98
19.9370,-0.01,0.17,-0.99,2.14,2.08,11.41
19.9390,-0.01,0.09,-1.00,3.17,1.65,11.90
19.9690,-0.03,0.02,-1.02,3.66,2.69,6.96
19.9840,0.00,0.09,-1.02,5.07,3.85,-0.61
19.9900,0.02,0.05,-1.01,5.68,4.46,-3.72
20.0180,-0.06,-0.00,-1.02,7.93,5.55,-13.67
20.0290,-0.02,0.06,-1.01,13.06,5.74,-24.35
20.0380,-0.01,0.14,-1.01,3.36,7.87,-14.53
20.0540,-0.04,0.19,-0.97,-1.71,6.47,4.58
20.0750,-0.05,0.14,-0.99,0.67,3.17,7.02
20.0920,-0.03,0.14,-1.00,1.83,2.62,11.29
20.1100,-0.03,0.13,-1.00,-0.61,0.55,24.41
20.1260,-0.05,0.16,-0.99,-2.14,-0.43,33.39
20.1420,-0.02,0.01,-1.00,0.92,-0.06,28.38
20.1570,-0.02,-0.01,-1.02,3.36,2.50,8.42
20.1730,-0.01,0.06,-1.01,2.38,3.91,1.22
20.1900,-0.02,-0.02,-1.00,3.91,4.52,-1.83
20.2050,-0.03,0.03,-1.03,9.89,6.84,-22.83
20.2220,-0.04,0.06,-1.03,6.77,8.48,-27.77
20.2370,0.00,0.20,-0.98,1.40,5.92,-5.25
20.2540,-0.00,0.18,-0.98,2.01,4.52,3.11
20.2590,-0.04,0.11,-0.99,2.75,3.42,5.62
20.2740,-0.03,0.07,-1.00,2.26,1.83,12.82
20.2970,-0.02,0.06,-1.01,2.62,2.69,7.81
20.3130,-0.01,0.06,-1.01,4.03,3.36,2.87
20.3280,-0.05,-0.08,-1.03,3.54,6.04,-7.75
20.3310,-0.05,-0.06,-1.03,3.54,9.22,-23.74
20.3470,-0.04,0.02,-1.03,2.56,11.05,-34.91
20.3770,-0.06,0.08,-0.98,-1.53,11.66,-33.94
20.3920,-0.06,0.16,-0.99,-6.53,12.63,-35.64
20.4080,0.03,0.45,-0.91,-6.47,7.02,-10.07
20.4240,0.01,0.32,-1.04,-4.46,5.74,1.28
20.4350,0.08,0.43,-0.88,1.34,1.34,25.39
20.4520,0.09,0.50,-0.90,16.48,-4.27,44.07
20.4690,-0.11,0.22,-1.06,16.42,-10.13,68.24
20.4850,0.06,-0.29,-1.02,3.48,-11.29,92.10
20.5020,-0.07,-0.35,-1.03,16.97,-14.59,65.06
20.5170,-0.21,-0.50,-1.12,22.89,-8.54,18.92
20.5340,-0.01,-0.12,-1.05,13.85,8.42,-39.37
20.5500,-0.05,-0.13,-1.08,10.38,16.05,-65.37
20.5520,-0.09,-0.15,-1.25,-34.97,35.10,-55.42
20.5820,0.12,0.44,-1.07,-10.80,10.68,-11.72
20.5970,0.11,0.43,-0.95,-39.92,12.94,-11.47
20.6060,-0.02,0.28,-0.96,-28.08,9.64,-3.91
20.6230,-0.02,0.33,-0.87,-17.52,3.97,23.38
20.6400,0.05,0.29,-0.78,16.54,-2.56,38.45
20.6580,-0.06,0.08,-0.89,61.77,-5.68,19.65
20.6730,-0.19,-0.29,-1.27,69.40,-6.53,11.84
20.6910,-0.06,-0.12,-1.03,4.39,1.53,8.12
20.7070,-0.01,0.05,-1.04,8.73,1.10,0.92
20.7220,-0.04,0.03,-1.01,17.88,-0.92,-8.00
20.7390,-0.04,0.02,-1.01,20.14,1.95,-24.72
20.7540,0.01,0.11,-1.02,0.92,11.11,-22.64
20.7570,0.04,0.18,-1.01,-17.58,16.78,-6.04
20.7880,0.04,0.28,-0.97,0.43,4.94,6.59
20.8040,-0.03,0.17,-0.99,1.77,3.23,14.47
20.8060,-0.05,0.24,-0.98,0.06,0.98,28.32
20.8370,-0.03,0.11,-0.99,0.73,-2.62,41.08
20.8530,-0.08,-0.06,-1.03,4.27,-1.53,28.75
20.8560,0.00,-0.02,-1.02,5.49,0.37,12.82
20.8720,0.05,0.07,-1.00,8.61,0.49,3.72
20.8940,-0.04,0.01,-1.00,14.22,-0.12,0.31
20.9100,0.02,0.14,-1.05,25.70,-1.10,-19.53
20.9270,0.01,0.05,-0.99,2.14,9.95,-19.23
20.9430,0.01,0.07,-1.01,4.09,7.87,-14.83
20.9610,-0.01,0.19,-1.00,-8.79,12.33,-8.73
20.9770,-0.01,0.24,-0.99,-12.33,11.84,1.71
20.9940,-0.05,0.14,-0.99,-2.87,6.16,6.16
21.0090,-0.05,0.19,-0.97,-0.18,1.71,17.21
21.0250,-0.05,0.04,-1.00,2.32,0.18,23.74
21.0410,-0.05,-0.01,-1.02,3.91,0.92,16.60
21.0570,-0.03,0.05,-1.02,4.09,2.50,5.37
21.0730,0.00,0.05,-1.02,3.60,3.36,0.67
21.0890,-0.04,0.05,-1.00,6.77,2.38,1.59
21.1050,-0.06,-0.00,-1.00,14.95,0.49,-6.23
21.1200,-0.00,0.08,-1.02,22.16,0.73,-24.23
21.1350,0.02,0.18,-1.02,-1.95,9.58,-12.27
21.1510,-0.01,0.23,-0.99,-12.82,11.78,4.64
21.1660,-0.04,0.13,-1.03,-7.57,9.40,3.97
21.1770,-0.04,0.12,-0.99,-0.55,4.27,9.22
21.1950,-0.05,0.16,-0.99,-2.56,2.75,20.14
21.2100,-0.08,0.10,-1.00,-3.78,1.28,30.03
21.2260,-0.03,0.01,-0.99,-0.61,0.61,33.94
21.2420,-0.02,0.01,-0.99,6.04,0.92,14.77
21.2570,0.02,0.02,-1.00,7.81,1.89,3.97
21.2720,-0.04,0.05,-1.01,9.52,2.01,0.92
21.2880,-0.00,0.04,-0.99,12.63,2.44,-9.95
21.2980,0.02,0.12,-1.01,18.55,1.16,-17.03
21.3150,0.02,0.10,-1.01,4.94,6.41,-10.93
21.3330,0.02,0.13,-1.00,0.79,7.14,-5.43
21.3480,0.00,0.14,-1.00,-8.85,10.01,0.55
21.3650,-0.03,0.12,-1.00,0.06,5.13,3.36
21.3800,-0.05,0.09,-1.01,0.55,4.64,5.19
21.3970,-0.07,0.05,-1.01,1.83,4.15,4.76
21.4120,-0.01,0.06,-1.02,3.54,3.66,1.46
21.4270,-0.02,0.07,-1.02,2.62,5.00,-6.29
21.4440,-0.01,0.08,-1.02,2.32,5.98,-12.15
21.4590,-0.03,0.09,-0.98,0.85,6.65,-12.15
21.4650,-0.07,0.07,-0.99,7.81,4.52,-5.31
21.4800,-0.03,0.13,-0.99,5.00,3.78,-3.54
21.5030,-0.06,0.12,-0.99,0.92,4.64,2.69
21.5190,-0.02,0.19,-0.98,0.49,2.99,12.51
21.5370,-0.07,0.13,-1.01,2.99,1.34,15.75
21.5380,-0.08,0.10,-1.01,2.01,0.73,22.03
21.5530,-0.07,0.04,-1.00,0.24,-1.53,33.94
21.5820,-0.03,-0.08,-1.01,4.58,-1.40,23.50
21.5860,-0.01,-0.02,-1.03,6.10,1.04,3.48
21.6040,0.03,0.05,-1.02,3.66,4.58,-5.49
21.6270,0.02,0.01,-1.01,2.26,6.29,-14.65
21.6370,-0.01,-0.00,-1.02,1.77,8.48,-18.07
21.6530,-0.01,0.07,-0.99,1.28,9.46,-22.28
21.6700,0.07,0.21,-0.97,3.36,8.73,-19.59
21.6860,0.00,0.23,-0.99,4.39,7.45,-9.89
21.7030,-0.03,0.18,-1.01,3.66,6.10,1.89
21.7180,-0.02,0.18,-0.98,1.04,5.25,5.62
21.7340,-0.02,0.23,-0.98,2.08,2.08,16.78
21.7490,0.00,0.26,-0.97,2.50,-0.85,28.87
21.7630,-0.06,-0.06,-1.03,2.93,-1.10,26.43
21.7780,-0.15,-0.23,-1.05,4.03,0.18,18.55
21.7860,-0.07,-0.04,-1.00,5.43,1.04,9.16
21.8030,-0.04,0.01,-1.01,8.79,0.37,1.10
21.8200,0.02,0.07,-1.01,10.31,1.53,-2.56
21.8370,0.02,0.10,-1.01,1.59,5.62,-2.26
21.8550,0.02,0.13,-1.02,-6.04,8.85,1.65
21.8700,0.01,0.12,-0.99,2.14,4.64,3.72
21.8860,0.00,0.10,-1.01,0.61,4.88,3.05
21.9030,-0.03,0.12,-1.01,1.46,4.09,5.25
21.9180,-0.04,0.10,-1.00,1.46,4.03,5.92
21.9350,-0.06,0.08,-1.01,2.93,3.91,5.00
21.9380,-0.03,0.08,-1.00,3.60,3.48,2.44
21.9530,-0.01,0.09,-1.01,5.13,2.32,2.20
21.9690,-0.01,0.08,-1.01,4.52,3.17,2.26
21.9910,-0.02,0.09,-1.00,5.80,2.87,2.14
22.0070,-0.04,0.09,-1.00,4.27,3.48,1.71
22.0240,-0.02,0.09,-0.99,3.05,3.91,1.53
22.0400,-0.03,0.09,-1.00,2.99,4.33,2.62
22.0570,-0.02,0.08,-1.00,3.85,3.54,3.78
22.0750,-0.02,0.08,-1.01,4.39,3.48,4.03
22.0900,-0.02,0.06,-1.00,4.82,2.62,3.17
22.0920,-0.05,0.05,-1.02,6.16,2.56,3.85
22.1230,-0.02,0.09,-1.00,1.65,4.82,4.03
22.1320,0.01,0.10,-0.99,2.87,3.91,3.54
22.1550,-0.02,0.08,-1.02,3.36,5.13,-2.93
22.1710,-0.00,0.15,-1.00,2.01,5.49,-2.08
22.1870,-0.02,0.09,-1.00,0.12,5.31,1.83
22.2030,-0.02,0.08,-1.00,-0.37,5.19,2.14
22.2190,-0.01,0.08,-0.99,0.31,5.00,1.89
22.2350,-0.04,0.04,-1.01,6.84,4.09,-1.10
22.2510,-0.03,0.06,-1.00,7.51,3.42,1.83
22.2570,-0.01,0.01,-1.00,8.48,3.78,-2.14
22.2730,-0.02,-0.02,-1.01,13.12,3.54,-12.82
22.2950,-0.01,0.06,-1.03,10.68,3.36,-11.96
22.3120,-0.03,0.12,-1.01,-2.01,8.73,-7.32
22.3290,-0.01,0.20,-0.98,-1.65,8.73,-8.42
22.3440,-0.05,0.21,-0.99,1.34,6.29,-3.36
22.3600,-0.04,0.11,-0.99,-0.61,6.10,1.04
22.3770,-0.03,0.16,-1.00,-1.16,4.33,5.74
22.3930,0.01,0.27,-0.97,-0.61,2.56,15.20
22.4090,0.03,0.26,-0.97,0.55,1.10,22.95
22.4250,-0.00,-0.02,-1.00,2.20,0.85,22.71
22.4410,-0.18,-0.30,-1.07,7.93,2.08,12.08
22.4570,-0.06,-0.03,-1.05,10.56,1.59,-0.18
22.4730,-0.05,-0.04,-1.05,11.29,5.13,-16.97
22.4890,0.00,0.13,-1.01,5.13,4.76,-4.82
22.5050,0.03,0.24,-0.96,-2.38,6.65,2.99
22.5210,0.02,0.15,-1.01,2.01,4.64,2.87
22.5360,-0.03,0.10,-0.99,0.61,5.37,2.69
22.5450,-0.03,0.11,-1.00,0.06,3.91,8.36
22.5610,-0.01,0.17,-0.99,-1.34,2.69,15.99
22.5820,-0.04,0.05,-1.00,0.98,2.44,15.63
22.5980,-0.03,-0.03,-1.02,2.01,3.11,11.78
22.6130,-0.02,0.00,-0.99,3.78,3.78,2.81
22.6280,-0.02,0.01,-0.99,4.58,4.46,0.06
22.6430,-0.01,-0.02,-1.02,7.51,6.35,-13.79
22.6590,-0.05,-0.02,-1.03,6.29,8.67,-26.37
22.6740,-0.02,0.11,-1.01,4.52,9.46,-27.40
22.6890,-0.00,0.16,-0.99,3.36,8.48,-20.45
22.7000,-0.00,0.24,-0.98,3.05,7.26,-14.53
22.7170,-0.04,0.15,-1.01,1.65,5.49,-1.89
22.7340,-0.03,0.15,-1.00,-0.06,4.52,5.49
22.7500,-0.00,0.23,-0.97,-1.34,2.08,18.49
22.7670,-0.01,0.24,-0.97,1.89,-0.49,28.99
22.7830,0.00,0.10,-0.98,2.20,-2.44,40.22
22.7990,-0.12,-0.26,-1.07,3.91,-0.73,28.93
22.8150,-0.03,-0.23,-1.03,4.03,2.50,5.86
22.8310,-0.01,-0.06,-1.03,6.53,3.36,-3.91
22.8470,-0.05,-0.04,-1.04,6.53,7.69,-21.12
22.8630,-0.02,0.07,-1.00,3.60,8.85,-22.71
22.8780,0.03,0.18,-0.99,4.39,8.00,-18.07
22.8940,0.00,0.24,-0.97,3.54,5.80,-7.20
22.9110,-0.04,0.11,-1.00,2.14,4.82,2.01
22.9170,-0.04,0.13,-1.00,2.81,2.75,7.02
22.9330,-0.03,0.15,-0.99,0.67,1.04,18.92
22.9570,-0.01,0.16,-0.98,0.85,0.12,23.74
22.9720,-0.03,0.03,-1.01,4.88,0.24,20.26
22.9880,-0.02,0.02,-1.02,4.39,1.59,8.85
23.0040,0.01,0.04,-1.00,3.17,4.09,-0.31
23.0210,-0.01,0.06,-1.03,7.69,3.23,0.79
23.0370,-0.03,0.02,-1.01,7.39,5.92,-13.85
23.0530,-0.05,-0.02,-1.01,5.62,8.85,-22.16
23.0690,0.01,0.11,-1.01,2.38,5.86,-6.65
23.0840,0.01,0.16,-1.00,1.28,5.55,-3.78
23.0890,-0.02,0.22,-1.00,1.16,5.00,-0.98
23.1040,-0.04,0.14,-1.00,0.24,4.33,3.60
23.1270,-0.07,0.14,-0.98,-0.92,3.97,4.46
23.1440,-0.04,0.17,-0.99,-2.62,0.37,29.85
23.1600,0.05,0.09,-0.93,2.99,-3.05,43.76
23.1770,-0.02,0.07,-1.06,7.45,-1.10,23.56
23.1920,-0.02,-0.01,-1.01,6.59,0.43,0.12
23.2090,0.01,0.08,-1.02,6.35,2.75,2.01
23.2250,-0.01,0.03,-1.01,5.74,3.91,-1.46
23.2410,-0.01,0.11,-1.01,17.70,-1.40,-0.37
23.2570,-0.01,0.09,-1.01,9.03,2.20,-0.12
23.2730,-0.01,0.10,-1.00,4.52,3.85,2.20
23.2890,-0.02,0.10,-1.01,1.95,4.76,2.38
23.3050,0.00,0.15,-1.01,-1.89,6.16,2.32
23.3210,-0.01,0.11,-1.00,-6.29,5.98,12.39
23.3370,-0.03,0.06,-0.99,-1.34,2.44,19.41
23.3530,-0.03,0.03,-1.00,2.87,1.22,10.50
23.3670,-0.01,0.09,-1.00,6.59,1.34,4.27
23.3830,0.00,0.11,-1.01,-0.12,5.07,1.95
23.3940,-0.01,0.08,-1.00,-0.79,5.86,1.95
23.4110,-0.01,0.10,-1.00,4.76,4.52,-0.43
23.4270,-0.05,0.05,-1.00,5.74,2.99,-0.12
23.4450,-0.04,0.07,-1.00,9.58,1.40,0.55
23.4490,-0.00,0.11,-1.01,10.25,0.31,1.95
23.4670,-0.01,0.09,-1.01,4.27,3.60,2.26
23.4920,-0.04,0.08,-0.99,5.07,3.42,2.44
23.5060,-0.01,0.09,-1.00,7.57,1.95,2.44
23.5220,-0.01,0.09,-1.00,5.07,3.30,2.26
23.5370,-0.03,0.10,-1.01,5.13,3.17,2.08
23.5490,-0.01,0.09,-1.00,3.23,3.85,1.10
23.5660,-0.00,0.10,-1.00,2.38,5.00,0.73
23.5820,-0.02,0.09,-1.00,1.40,5.92,-1.22
23.5990,-0.01,0.08,-1.00,-0.18,6.96,-2.32
23.6150,-0.03,0.05,-1.00,3.42,6.53,-7.39
23.6310,-0.01,0.05,-1.00,2.75,6.65,-12.27
23.6460,-0.00,0.07,-1.01,4.15,6.65,-13.55
23.6620,-0.01,0.09,-1.01,0.61,7.51,-8.18
23.6780,-0.03,0.12,-1.01,-1.10,7.08,-2.69
23.6940,-0.04,0.16,-0.99,0.67,5.68,0.85
23.7100,-0.03,0.11,-1.00,3.42,4.21,2.69
23.7270,-0.03,0.09,-1.01,3.97,3.60,2.32
23.7350,-0.02,0.12,-0.99,4.09,3.05,4.33
23.7480,-0.01,0.16,-1.00,5.49,1.04,17.64
23.7700,-0.03,0.05,-0.99,0.92,1.89,20.45
23.7890,-0.01,0.03,-1.01,10.25,0.24,6.59
23.8040,0.00,0.09,-1.00,7.14,1.83,1.89
23.8200,-0.02,0.08,-1.01,2.99,5.62,-2.08
23.8360,-0.00,0.03,-1.01,2.93,7.32,-10.86
23.8520,-0.02,0.09,-1.01,1.77,8.54,-17.33
23.8670,-0.01,0.13,-1.00,-3.66,9.46,-9.52
23.8830,-0.04,0.17,-0.99,-3.97,8.67,-4.39
23.8880,-0.03,0.09,-1.00,0.12,5.25,2.08
23.9030,-0.02,0.13,-1.01,2.08,3.72,5.31
23.9240,0.01,0.23,-0.98,1.65,1.89,16.72
23.9410,0.02,0.11,-0.98,2.81,0.61,22.83
23.9580,-0.06,-0.06,-1.03,5.62,0.43,17.76
23.9750,-0.05,-0.05,-1.02,7.32,0.79,9.22
23.9910,0.00,0.09,-1.00,7.26,2.20,3.60
24.0070,-0.00,0.08,-1.01,3.30,4.46,1.83
24.0240,-0.01,0.06,-1.02,0.55,6.16,-1.40
24.0400,-0.02,0.04,-1.02,2.20,5.62,-3.42
24.0420,-0.02,0.13,-1.00,1.53,5.25,-3.42
24.0710,-0.02,0.15,-1.00,2.87,4.70,-0.98
24.0870,-0.03,0.09,-0.99,2.75,4.21,2.14
24.1040,-0.04,0.08,-0.99,3.78,3.36,3.85
24.1200,-0.01,0.15,-1.02,4.39,2.26,8.97
24.1340,-0.01,0.12,-1.00,1.46,2.81,15.99
24.1500,-0.01,0.12,-1.00,1.89,2.32,17.58
24.1570,-0.02,0.08,-1.00,1.53,1.71,20.45
24.1730,-0.02,0.05,-1.00,2.01,1.53,19.96
24.1940,-0.03,0.04,-1.00,3.91,0.98,16.91
24.2110,-0.03,0.06,-1.01,6.53,0.79,13.24
24.2260,-0.05,0.03,-1.00,8.73,1.28,3.54
24.2420,0.02,0.10,-1.01,10.86,1.16,-2.50
24.2580,0.00,0.08,-1.01,1.65,5.31,-0.37
24.2740,-0.02,0.08,-1.01,2.50,5.55,-1.53
24.2900,-0.02,0.11,-1.00,2.69,5.62,-2.75
24.3060,-0.03,0.09,-1.00,3.36,4.15,1.95
24.3220,-0.02,0.09,-1.01,3.72,3.42,2.44
24.3390,-0.02,0.09,-1.01,2.93,3.60,2.56
24.3440,-0.03,0.10,-1.01,2.38,3.78,2.87
24.3610,-0.00,0.08,-1.01,2.14,4.27,3.42
24.3770,-0.01,0.09,-1.00,1.83,4.76,3.36
24.3960,-0.02,0.08,-1.00,2.56,4.39,3.97
24.4130,-0.02,0.09,-1.00,3.30,4.58,2.26
24.4290,-0.04,0.06,-1.00,3.23,4.64,2.20
24.4440,-0.01,0.07,-1.01,6.77,2.69,0.18
24.4600,-0.02,0.09,-1.00,3.91,4.58,-2.87
24.4770,-0.01,0.11,-1.00,3.05,5.74,-4.52
24.4920,-0.01,0.12,-1.00,3.66,4.94,-1.65
24.5080,-0.02,0.08,-1.00,0.67,5.68,2.01
24.5240,-0.02,0.08,-1.00,2.01,4.58,2.44
24.5390,-0.02,0.09,-1.00,2.75,4.27,2.81
24.5560,-0.02,0.08,-1.00,3.05,4.15,3.42
24.5720,-0.02,0.08,-1.00,4.70,3.72,2.38
24.5890,-0.01,0.10,-1.01,5.92,2.62,2.14
24.6050,-0.01,0.10,-1.01,3.78,3.72,2.14
24.6130,-0.01,0.10,-1.00,2.75,4.33,1.95
24.6370,-0.02,0.08,-1.00,0.92,5.55,2.08
24.6510,-0.02,0.08,-1.00,2.56,4.46,2.08
24.6670,-0.02,0.06,-1.01,4.64,3.97,1.22
24.6840,-0.05,-0.04,-0.99,5.43,5.43,-5.25
24.7000,-0.03,0.05,-1.02,9.64,4.88,-14.77
24.7170,-0.02,0.09,-1.00,3.23,6.16,-7.20
24.7330,-0.00,0.15,-0.99,1.04,7.08,-4.82
24.7490,-0.01,0.19,-0.98,0.06,7.08,-1.46
24.7650,-0.03,0.11,-1.00,-3.54,8.06,2.56
24.7670,-0.02,0.10,-1.00,-1.95,5.55,9.34
24.7830,0.02,0.24,-0.98,-2.69,2.56,20.26
24.8060,0.01,0.20,-0.99,-0.43,1.59,21.67
24.8240,-0.05,0.06,-1.00,0.55,0.92,24.84
24.8410,-0.04,-0.11,-1.02,1.59,0.43,26.25
24.8570,-0.03,-0.01,-1.02,4.94,2.14,6.84
24.8720,-0.00,0.03,-1.00,5.37,4.21,-4.58
24.8890,-0.01,0.04,-1.02,10.68,5.37,-16.42
24.9050,-0.01,0.08,-1.01,12.45,5.62,-24.66
24.9210,-0.02,0.13,-1.01,5.25,5.68,-10.13
24.9230,-0.03,0.19,-0.98,0.00,6.04,0.00
24.9520,-0.03,0.10,-1.00,-1.16,5.98,2.62
24.9560,-0.02,0.11,-1.00,-1.71,4.70,6.90
24.9720,-0.04,0.11,-1.00,-0.31,3.30,11.90
25.0000,-0.04,0.11,-1.01,0.92,2.08,18.62
25.0160,-0.05,0.10,-1.00,0.73,1.22,23.07
25.0270,0.00,0.03,-1.00,0.92,-0.37,29.91
25.0430,-0.02,0.00,-1.01,4.09,-0.06,21.79
25.0600,0.02,0.03,-0.98,6.96,0.24,10.50
25.0750,0.01,0.12,-1.00,8.97,0.67,4.03
25.0950,-0.01,0.10,-1.00,6.77,2.69,2.69
25.1100,-0.01,0.10,-1.00,5.07,2.87,2.50
25.1270,-0.01,0.09,-1.00,2.99,4.15,2.26
25.1430,-0.02,0.11,-0.99,1.71,4.94,2.81
25.1480,-0.02,0.08,-1.00,2.38,2.87,11.41
25.1630,-0.02,0.08,-1.00,2.93,2.81,10.56
25.1860,-0.02,0.06,-1.01,3.17,3.42,6.71
25.2020,-0.02,0.06,-1.01,4.46,3.78,2.93
25.2190,-0.02,0.08,-1.00,6.96,2.62,2.01
25.2350,-0.01,0.09,-1.01,7.08,2.81,0.98
25.2520,-0.01,0.09,-1.01,4.64,4.15,-2.56
25.2690,-0.01,0.10,-1.00,4.21,5.25,-3.11
25.2850,-0.01,0.09,-1.00,3.66,5.31,-2.93
25.3010,-0.00,0.08,-1.00,3.66,5.07,-3.48
25.3160,-0.01,0.11,-1.00,2.69,5.19,-2.38
25.3200,-0.02,0.10,-1.00,0.85,5.49,1.59
25.3490,-0.02,0.08,-1.00,1.71,5.00,2.32
25.3650,-0.02,0.08,-1.00,3.60,3.97,2.32
25.3800,-0.01,0.06,-1.00,4.46,3.85,1.77
25.3950,-0.02,0.08,-1.01,5.80,3.48,0.49
25.4020,-0.02,0.01,-1.03,8.73,3.17,-5.07
25.4200,-0.00,0.12,-1.01,10.01,4.82,-16.05
25.4400,0.00,0.14,-1.00,4.88,5.62,-9.22
25.4520,-0.01,0.14,-1.00,0.12,6.53,1.22
25.4680,-0.03,0.09,-1.00,1.77,5.25,2.69
25.4880,-0.02,0.10,-1.00,2.56,4.33,3.54
25.5050,-0.02,0.10,-1.00,2.44,3.23,6.71
25.5210,-0.01,0.10,-1.00,0.85,3.11,11.29
25.5370,-0.02,0.12,-1.00,-2.69,3.78,14.77
25.5530,-0.02,-0.01,-1.00,0.06,3.05,14.47
25.5690,-0.01,0.08,-1.00,4.76,2.44,2.32
25.5850,-0.01,0.07,-1.00,5.25,2.81,1.83
25.6010,-0.02,0.06,-1.00,7.20,3.48,-3.91
25.6170,-0.02,0.10,-1.00,8.06,4.52,-9.83
25.6220,-0.00,0.08,-1.02,6.16,5.31,-8.42
25.6400,-0.01,0.14,-1.00,3.91,6.29,-6.35
25.6600,-0.02,0.11,-1.00,1.28,5.80,0.79
25.6770,-0.02,0.10,-1.00,0.79,5.31,2.32
25.6930,-0.02,0.11,-1.01,1.83,4.52,3.11
25.7110,-0.01,0.12,-1.00,0.55,3.85,7.39
25.7270,-0.04,0.10,-1.00,-2.01,4.46,12.21
25.7430,-0.03,0.07,-1.00,13.92,3.78,12.02
25.7580,-0.01,0.06,-1.00,2.62,3.36,7.26
25.7610,-0.01,0.07,-0.99,3.60,3.91,2.26
25.7770,-0.01,0.06,-1.01,7.45,3.05,0.18
25.8000,-0.01,0.07,-1.01,5.00,5.62,-7.69
25.8160,0.01,0.06,-1.00,4.33,6.10,-7.57
25.8330,-0.01,0.11,-1.00,3.30,6.16,-7.87
25.8490,-0.02,0.15,-1.00,0.24,7.51,-4.21
25.8660,-0.03,0.12,-1.00,-3.54,8.12,1.34
25.8830,-0.04,0.08,-1.00,-2.87,7.39,2.38
25.8990,-0.02,0.10,-1.00,1.16,4.27,5.68
25.9150,-0.03,0.11,-1.00,-0.92,3.23,13.37
25.9310,-0.03,0.09,-1.00,-0.06,1.83,20.14
25.9400,-0.02,0.04,-1.00,2.01,1.71,17.09
25.9630,-0.01,0.04,-1.00,3.48,2.75,9.77
25.9790,-0.01,0.06,-1.01,4.39,3.72,2.93
25.9950,-0.01,0.08,-1.00,3.97,4.09,2.32
26.0040,-0.01,0.06,-1.00,6.65,3.36,1.89
26.0200,-0.01,0.10,-1.00,7.32,4.27,-6.84
26.0400,-0.02,0.09,-1.01,2.75,6.47,-9.16
26.0550,-0.03,0.09,-1.00,0.92,6.53,-3.48
26.0750,-0.02,0.08,-1.00,2.38,5.13,-0.43
26.0910,-0.01,0.07,-1.01,3.30,4.52,-0.73
26.1060,-0.02,0.06,-1.01,3.72,4.58,-2.32
26.1230,-0.03,0.07,-1.01,3.72,4.82,-3.23
26.1380,-0.03,0.09,-1.01,4.09,5.25,-3.66
26.1550,-0.04,0.12,-1.00,3.78,5.07,-1.59
26.1590,-0.03,0.10,-1.00,2.01,5.07,-0.12
26.1740,-0.02,0.08,-1.00,1.89,4.82,1.89
26.1960,-0.02,0.08,-1.00,2.75,4.39,2.01
26.2130,-0.02,0.07,-1.00,3.23,4.39,2.20
26.2290,-0.02,0.09,-1.00,4.39,3.48,2.26
26.2450,-0.02,0.09,-1.00,4.21,3.36,2.26
26.2640,-0.02,0.08,-1.00,4.58,3.05,2.32
26.2800,-0.01,0.09,-1.01,4.94,3.11,2.14
26.2950,-0.01,0.08,-1.00,3.54,3.85,2.01
26.3100,0.01,0.06,-1.00,2.93,4.70,0.73
26.3270,-0.00,-0.01,-0.98,0.18,7.02,-3.36
26.3430,0.01,0.06,-1.02,2.44,6.23,-8.12
26.3490,-0.02,0.12,-1.01,2.87,6.35,-10.25
26.3640,-0.03,0.13,-1.01,2.81,6.35,-8.73
26.3850,-0.05,0.14,-1.00,2.01,5.74,-3.42
26.4020,-0.05,0.10,-0.99,1.40,4.76,1.95
26.4170,-0.04,0.10,-1.00,2.44,2.87,7.08
26.4340,-0.03,0.12,-1.00,2.69,1.95,13.49
26.4510,-0.03,0.12,-1.00,3.36,1.10,18.01
26.4670,-0.02,0.02,-1.01,3.36,1.53,16.66
26.4820,-0.02,0.01,-1.01,5.80,2.81,5.98
26.4850,0.00,0.09,-1.01,7.02,2.14,2.01
26.5000,-0.01,0.08,-1.01,4.03,4.15,1.83
26.5240,-0.01,0.03,-1.00,1.95,6.23,-2.56
26.5400,-0.00,0.07,-1.00,1.16,6.77,-5.31
26.5570,-0.01,0.11,-1.00,1.71,6.23,-4.88
26.5740,-0.02,0.11,-1.00,1.22,5.98,-3.42
26.5890,-0.02,0.11,-1.00,1.16,5.00,-0.98
26.6080,-0.03,0.10,-1.00,1.71,4.27,0.18
26.6230,-0.06,0.05,-1.01,4.09,3.48,2.14
26.6400,-0.02,0.08,-1.01,5.43,3.23,2.38
26.6570,-0.01,0.09,-1.00,5.31,2.99,2.20
26.6720,-0.01,0.09,-1.00,4.33,4.03,2.26
26.6880,0.02,0.04,-1.01,4.33,4.03,1.59
26.7050,-0.02,0.06,-1.00,3.97,4.88,-4.46
26.7200,0.01,0.08,-1.01,2.56,6.04,-6.10
26.7360,0.00,0.10,-1.01,1.77,6.29,-4.88
26.7510,-0.01,0.12,-1.00,1.28,5.74,-3.91
26.7660,-0.04,0.14,-1.00,1.04,5.25,-1.59
26.7820,-0.03,0.13,-0.99,0.92,4.94,2.20
26.7900,-0.04,0.14,-0.98,0.31,3.85,6.59
26.8060,-0.01,0.17,-0.98,1.59,1.95,14.83
26.8260,0.00,0.12,-0.98,3.11,0.85,19.17
26.8410,-0.11,-0.13,-1.04,5.31,1.16,14.95
26.8460,-0.01,0.08,-1.02,6.16,3.11,3.30
26.8620,-0.02,0.04,-1.00,4.88,4.46,0.31
26.8890,-0.02,0.01,-1.03,5.43,5.43,-8.42
26.9040,-0.03,0.02,-1.02,4.15,5.98,-12.82
26.9160,-0.02,0.12,-1.01,2.26,6.96,-12.02
26.9330,-0.01,0.18,-0.99,1.89,6.59,-7.87
26.9490,-0.04,0.14,-1.01,1.34,5.19,-0.31
26.9660,-0.04,0.10,-0.99,0.61,4.64,2.69
26.9810,0.01,0.17,-0.98,1.28,2.38,13.24
26.9970,0.01,0.18,-0.98,2.62,0.61,20.45
27.0130,0.00,0.15,-0.98,1.83,0.31,24.41
27.0280,-0.08,-0.04,-1.03,5.00,0.61,20.94
27.0430,-0.05,-0.06,-1.01,4.88,1.89,13.73
27.0490,-0.01,0.04,-1.02,7.75,2.32,1.77
27.0650,-0.01,0.06,-1.02,10.86,2.99,-7.69
27.0870,-0.01,0.04,-1.01,7.75,6.90,-18.49
27.1050,-0.02,0.05,-1.02,5.31,8.85,-14.59
27.1210,-0.00,0.12,-1.00,-3.36,10.13,-10.38
27.1380,-0.01,0.17,-0.98,2.32,5.92,-5.31
27.1540,-0.00,0.11,-1.00,0.18,5.43,2.08
27.1700,-0.02,0.11,-1.00,0.73,3.97,6.47
27.1870,-0.04,0.13,-1.00,1.40,2.93,11.29
27.2020,-0.03,0.13,-1.00,0.61,1.71,18.68
27.2040,-0.03,0.01,-1.02,3.30,1.71,14.89
27.2340,-0.02,0.06,-1.00,4.15,4.09,3.05
27.2500,0.01,0.03,-1.00,4.76,4.82,-1.28
27.2540,-0.00,0.02,-1.01,5.68,5.92,-13.24
27.2700,-0.05,0.02,-1.02,4.94,6.53,-16.11
27.2910,-0.05,0.05,-1.02,2.01,7.39,-16.48
27.3090,-0.01,0.14,-1.01,-0.49,7.87,-14.53
27.3260,0.00,0.24,-0.99,-1.83,6.59,-5.74
27.3410,-0.03,0.09,-0.99,-4.82,6.16,2.01
27.3570,0.03,0.10,-0.97,-1.95,3.30,12.08
27.3740,0.03,0.16,-0.99,-2.50,2.01,19.84
27.3900,0.02,0.13,-0.95,2.93,-0.06,26.55
27.3920,-0.02,0.04,-1.01,12.33,-0.12,18.49
27.4220,-0.13,-0.05,-1.09,13.06,1.95,6.16
27.4380,0.05,0.08,-1.00,6.90,4.46,-0.98
27.4540,-0.01,0.04,-1.01,5.55,5.43,-9.77
27.4590,-0.05,0.06,-1.01,5.43,6.23,-16.85
27.4870,-0.02,0.10,-1.01,4.70,6.77,-17.09
27.5020,-0.03,0.11,-1.01,2.81,6.77,-12.27
27.5090,-0.02,0.13,-1.01,0.92,6.23,-6.65
27.5240,-0.00,0.12,-1.00,-0.61,4.88,1.34
27.5440,-0.01,0.12,-0.99,0.00,3.30,8.42
27.5610,0.00,0.08,-0.98,1.95,1.65,15.08
27.5770,-0.05,0.05,-1.00,4.09,1.59,11.47
27.5930,-0.07,0.02,-1.02,5.31,3.30,7.69
27.6090,0.00,0.08,-1.00,4.64,4.27,2.20
27.6250,-0.01,0.08,-1.01,6.29,4.46,-4.39
27.6400,0.04,0.06,-1.00,4.39,5.55,-12.02
27.6560,0.07,0.08,-0.97,2.93,8.12,-27.22
27.6730,-0.01,0.08,-1.05,4.64,9.95,-39.25
27.6890,0.03,0.07,-1.02,0.61,10.50,-35.52
27.7050,0.02,0.09,-1.05,-6.90,8.79,-19.84
27.7210,-0.02,0.07,-1.00,-18.01,6.77,-2.01
27.7370,-0.08,0.10,-0.98,-17.82,5.62,10.68
27.7530,-0.12,0.10,-0.97,-12.33,4.03,14.77
27.7680,-0.18,0.07,-0.94,0.55,1.89,20.75
27.7780,-0.13,0.06,-0.97,18.25,-0.37,21.30
27.7950,-0.04,0.09,-0.99,22.22,-0.67,17.33
27.8110,-0.00,0.07,-1.04,26.43,-1.22,9.52
27.8280,-0.00,0.07,-1.03,11.23,1.59,3.78
27.8440,-0.02,0.08,-1.01,6.71,3.30,0.92
27.8620,-0.02,0.08,-1.03,5.92,3.78,-0.73
27.8780,-0.04,0.07,-1.01,3.91,5.13,-5.86
27.8940,-0.04,0.08,-1.00,3.23,5.43,-5.98
27.9090,0.00,0.09,-1.00,3.42,4.94,-2.93
27.9250,-0.04,0.07,-1.01,3.66,3.72,1.89
27.9300,-0.06,0.06,-1.01,4.21,3.30,5.25
27.9560,-0.09,0.04,-1.00,4.39,2.81,6.65
27.9630,-0.09,0.05,-1.00,4.46,2.75,7.45
27.9790,-0.04,0.07,-1.00,4.52,3.42,4.46
27.9980,-0.01,0.10,-1.01,3.97,4.33,0.43
28.0150,0.04,0.14,-0.99,2.93,4.88,0.00
28.0320,0.04,0.15,-0.99,2.08,5.19,-0.12
28.0480,0.04,0.15,-0.99,1.28,4.52,2.26
28.0630,-0.03,0.12,-1.00,0.85,4.21,3.17
28.0790,-0.04,0.12,-1.00,1.65,4.15,3.91
28.0950,-0.05,0.13,-1.00,1.89,4.27,5.55
28.1100,-0.03,0.07,-1.00,4.03,2.75,8.73
28.1260,-0.05,0.04,-1.01,6.04,1.89,9.95
28.1430,-0.04,0.04,-1.01,5.19,2.26,8.36
28.1580,-0.02,0.05,-1.01,3.97,3.30,6.29
28.1750,-0.01,0.05,-1.01,4.21,3.54,3.97
28.1910,0.01,0.06,-1.01,3.66,3.78,2.50
28.2060,0.01,0.10,-1.01,2.87,4.58,1.34
28.2210,0.02,0.13,-1.00,1.65,5.00,1.28
28.2320,0.01,0.12,-1.00,0.85,4.88,2.14
28.2490,-0.02,0.09,-1.00,1.04,4.03,3.11
28.2650,-0.04,0.08,-1.00,1.10,4.39,4.46
28.2820,-0.02,0.09,-1.00,0.31,4.39,5.13
28.2970,-0.07,0.08,-0.99,-1.89,4.46,5.80
28.3140,-0.07,0.10,-0.99,0.43,3.72,8.79
28.3290,-0.04,0.09,-1.00,4.94,2.75,9.70
28.3450,-0.03,0.07,-0.99,5.49,2.99,8.06
28.3600,-0.00,0.09,-1.01,5.43,2.62,6.90
28.3740,-0.01,0.09,-1.01,5.07,2.56,6.53
28.3910,0.01,0.09,-1.01,4.15,3.23,6.23
28.3980,0.01,0.08,-1.01,3.11,3.36,5.68
28.4160,0.00,0.08,-1.00,2.32,4.03,4.33
28.4310,0.01,0.07,-1.00,2.26,4.27,3.97
28.4530,0.00,0.08,-1.00,1.83,4.39,3.54
28.4680,-0.01,0.08,-1.00,1.34,4.46,3.54
28.4840,-0.02,0.09,-1.00,-0.06,5.13,3.36
28.4870,-0.03,0.09,-1.01,0.18,4.76,3.91
28.5030,-0.04,0.07,-0.99,-2.62,4.88,5.25
28.5310,-0.02,0.08,-0.99,3.85,3.48,5.68
28.5430,-0.02,0.08,-1.03,10.86,2.81,2.08
28.5570,-0.03,0.09,-1.01,9.16,3.30,0.67
28.5740,-0.01,0.09,-1.01,5.43,3.48,1.34
28.5900,-0.02,0.08,-1.01,4.27,3.66,2.14
28.5920,-0.03,0.09,-1.01,3.42,3.66,2.99
28.6210,-0.03,0.09,-1.02,3.30,3.54,5.13
28.6250,-0.03,0.09,-1.00,3.17,3.78,6.04
28.6530,-0.02,0.10,-1.00,1.65,3.11,10.99
28.6580,-0.01,0.11,-1.01,0.37,2.69,17.15
28.6740,-0.01,0.11,-1.02,-2.08,1.65,24.60
28.6910,-0.01,0.11,-1.02,-5.19,1.40,30.27
28.7070,-0.02,0.08,-0.94,-7.81,1.04,34.18
28.7280,-0.00,0.05,-0.93,-0.79,0.06,33.39
28.7440,-0.01,0.01,-1.05,12.15,-0.55,20.08
28.7580,0.02,-0.03,-1.00,3.54,2.38,10.99
28.7740,0.02,0.06,-1.03,6.65,3.17,2.08
28.7890,0.01,0.04,-1.00,5.49,5.80,-8.00
28.7960,0.01,0.06,-1.02,4.15,6.90,-15.63
28.8120,0.04,0.07,-1.01,2.69,6.77,-13.31
28.8320,0.03,0.08,-1.01,0.43,6.10,-6.23
28.8490,0.00,0.11,-1.01,-1.83,5.92,-5.00
28.8660,-0.03,0.12,-1.01,-3.05,5.55,-3.72
28.8820,-0.05,0.12,-1.01,-4.94,5.68,-1.71
28.8990,-0.06,0.10,-1.00,-6.65,5.49,2.50
28.9150,-0.05,0.09,-1.00,-5.55,4.76,5.68
28.9310,-0.05,0.10,-1.00,-4.52,3.66,9.58
28.9480,-0.02,0.06,-0.99,-3.85,3.36,11.72
28.9650,-0.11,-0.12,-0.92,7.14,2.38,7.20
28.9810,0.03,0.05,-1.03,32.53,-0.18,1.89
28.9960,0.00,0.03,-1.10,22.58,3.05,-16.48
29.0100,0.00,0.02,-1.01,9.83,8.79,-35.89
29.0260,-0.02,0.01,-1.03,8.48,9.89,-38.70
29.0440,0.00,0.03,-1.02,3.66,8.67,-26.31
29.0580,0.00,0.14,-1.02,1.04,7.69,-15.14
29.0740,0.00,0.15,-0.99,-1.46,6.84,-8.73
29.0890,-0.03,0.15,-1.01,-4.82,6.96,-6.04
29.1060,-0.01,0.15,-1.02,-10.74,6.35,1.04
29.1160,-0.04,0.12,-1.00,-16.24,5.80,7.57
29.1320,-0.04,0.12,-0.94,-11.17,4.88,8.91
29.1490,-0.03,0.09,-0.92,3.30,4.03,1.28
29.1660,-0.07,0.06,-0.90,27.89,2.26,-8.85
29.1830,-0.11,-0.02,-1.04,35.71,1.89,-13.12
29.1990,0.01,0.04,-1.06,20.32,2.44,-6.10
29.2140,-0.01,0.03,-1.03,10.44,4.70,-12.02
29.2310,-0.05,-0.01,-1.03,6.41,6.04,-16.30
29.2470,-0.05,0.01,-1.04,1.83,5.98,-6.84
29.2630,-0.06,0.08,-1.02,-3.36,5.25,3.85
29.2790,-0.05,0.15,-1.01,-7.39,4.88,9.64
29.2950,-0.01,0.19,-0.94,-8.42,4.27,13.79
29.3090,-0.00,0.18,-0.93,-2.62,3.48,13.24
29.3240,-0.02,0.09,-0.99,11.17,1.65,5.98
29.3390,-0.04,0.13,-1.03,12.88,1.95,5.31
29.3540,-0.00,0.15,-1.01,7.57,3.60,2.01
29.3660,0.01,0.15,-1.00,4.46,5.07,-4.03
29.3820,0.02,0.10,-1.00,5.80,5.19,-7.51
29.3990,0.00,0.07,-1.00,4.94,6.23,-11.78
29.4170,-0.04,0.03,-1.01,5.74,5.86,-11.66
29.4330,-0.03,0.04,-1.02,4.46,5.00,-4.39
29.4480,-0.05,0.10,-1.00,2.50,4.21,0.49
29.4640,-0.07,0.13,-0.99,3.23,3.60,4.70
29.4800,-0.10,0.19,-0.98,4.09,2.26,13.00
29.4960,-0.12,0.16,-0.98,5.37,2.14,12.39
29.5100,-0.10,0.18,-1.00,4.52,1.46,15.99
29.5260,-0.07,0.17,-0.99,3.11,0.18,26.98
29.5410,-0.03,0.04,-1.01,3.36,-0.79,32.10
29.5580,-0.03,-0.01,-1.02,3.48,0.18,24.72
29.5720,0.00,-0.03,-1.01,2.08,3.05,13.55
29.5830,0.02,-0.01,-1.01,2.14,3.72,6.41
29.5990,0.06,0.04,-1.00,2.20,4.70,3.54
29.6150,0.08,0.05,-1.01,2.93,5.49,-1.16
29.6310,0.07,0.07,-1.01,2.56,5.13,-0.61
29.6500,0.03,0.06,-1.01,2.81,4.94,1.77
29.6660,-0.01,0.07,-1.00,2.38,4.88,2.20
29.6810,-0.02,0.08,-1.00,2.56,4.94,3.30
29.6830,-0.02,0.11,-1.00,2.56,4.09,6.90
29.6990,0.01,0.09,-0.99,1.16,2.87,14.65
29.7280,-0.03,0.06,-1.01,2.87,2.56,12.45
29.7430,-0.03,0.07,-1.01,1.71,3.60,9.34
29.7540,-0.03,0.09,-1.01,0.06,3.72,8.06
29.7700,-0.02,0.10,-0.97,-1.95,4.46,9.03
29.7880,-0.02,0.11,-1.04,-3.66,4.64,9.95
29.8040,-0.01,0.09,-0.98,-8.79,5.25,11.54
29.8200,0.01,0.10,-0.97,-3.48,3.30,12.39
29.8350,0.04,0.14,-0.96,11.72,0.85,7.20
29.8510,-0.11,-0.06,-1.11,23.80,0.31,-6.23
29.8650,-0.18,-0.17,-1.05,13.24,2.81,-1.83
29.8820,0.01,-0.03,-1.00,9.34,3.85,-6.23
29.8990,-0.07,-0.21,-1.07,10.86,7.20,-29.97
29.9050,-0.07,-0.09,-1.06,1.53,9.46,-27.10
29.9200,0.02,0.11,-1.01,-2.69,11.41,-29.48
29.9430,-0.01,0.20,-1.06,-4.82,11.41,-27.89
29.9580,-0.03,0.20,-1.06,-23.86,10.25,-9.46
29.9750,-0.05,0.17,-1.07,-44.80,8.06,17.88
29.9920,-0.05,0.16,-1.03,-67.26,9.22,37.72
30.0080,-0.09,0.17,-0.95,-72.27,9.46,41.26
30.0250,-0.03,0.28,-0.84,-47.06,7.45,42.48
30.0410,0.03,0.31,-0.88,-9.40,2.50,50.84
30.0560,0.10,0.31,-0.72,23.44,-0.73,35.58
30.0730,0.05,0.18,-0.71,107.12,-9.09,6.35
30.0890,-0.20,-0.20,-2.02,166.44,-15.56,-30.94
30.1050,-0.07,-0.30,-1.03,-0.12,3.30,17.21
30.1190,-0.00,-0.05,-1.04,14.89,-1.89,3.48
30.1340,0.08,0.06,-1.05,15.75,-0.55,-6.71
30.1510,0.08,0.05,-1.01,-5.49,11.11,-6.96
30.1590,-0.01,0.10,-1.02,-3.60,9.58,-3.66
30.1820,-0.01,0.08,-1.00,-5.13,8.97,-1.04
30.1970,-0.01,0.10,-1.00,0.12,5.07,0.98
30.2080,-0.05,0.11,-1.01,0.37,4.76,3.11
30.2250,-0.07,0.10,-1.01,0.79,4.39,3.85
30.2420,-0.04,0.11,-1.00,0.67,4.15,4.76
30.2580,0.01,0.12,-0.97,1.77,2.62,11.23
30.2740,0.01,0.12,-0.99,6.53,2.81,5.19
30.2900,-0.04,-0.05,-1.00,7.51,3.30,-1.04
30.3060,-0.01,0.02,-1.00,8.73,2.20,-0.12
30.3230,0.03,-0.00,-1.01,13.49,3.78,-15.69
30.3390,0.03,0.01,-1.03,10.38,8.36,-34.42
30.3540,-0.00,0.05,-1.03,-0.67,12.57,-31.31
30.3700,-0.05,0.01,-1.02,-5.13,13.31,-24.35
30.3850,-0.02,0.16,-1.00,0.37,7.93,-15.14
30.4010,-0.04,0.20,-0.99,-0.37,7.26,-7.87
30.4150,-0.06,0.20,-1.00,-2.56,5.55,2.32
30.4260,-0.08,0.13,-0.99,-6.41,5.68,4.76
30.4440,-0.09,0.09,-0.95,-5.74,5.19,5.25
30.4580,-0.03,0.04,-0.97,5.92,1.22,13.73
30.4770,-0.01,0.09,-1.02,13.61,-0.18,8.79
30.4810,-0.00,0.05,-1.02,8.91,2.14,1.59
30.5080,-0.00,0.09,-1.01,6.90,3.11,2.14
30.5140,-0.01,0.07,-1.01,4.64,4.64,1.59
30.5300,-0.01,0.05,-1.02,3.36,6.10,-3.78
30.5520,-0.02,0.05,-1.01,1.40,5.86,-2.26
30.5710,-0.02,0.09,-1.00,0.18,5.43,-0.92
30.5850,-0.04,0.10,-1.00,-0.12,4.94,2.75
30.6010,-0.03,0.11,-1.00,-0.85,4.21,6.53
30.6170,-0.03,0.08,-0.99,1.89,3.60,5.74
30.6330,-0.02,0.08,-1.00,4.70,2.69,4.09
30.6430,-0.02,0.08,-1.00,5.31,2.56,3.72
30.6510,-0.01,0.07,-1.00,5.92,3.17,2.93
30.6730,-0.01,0.08,-1.00,6.16,4.03,2.08
30.6910,-0.02,0.04,-1.02,5.49,5.07,-1.71
30.7060,-0.04,0.07,-1.00,4.33,5.62,-5.62
30.7220,-0.03,0.12,-1.00,2.62,6.04,-4.52
30.7390,-0.04,0.10,-1.01,2.38,4.52,1.77
30.7550,-0.03,0.11,-1.01,1.28,4.15,4.39
30.7570,-0.02,0.08,-1.00,1.04,3.85,7.32
30.7860,-0.02,0.07,-1.01,2.08,3.60,5.98
30.8010,-0.05,-0.02,-1.01,3.23,3.72,2.32
30.8060,-0.09,-0.03,-1.04,1.53,4.76,1.34
30.8330,-0.01,0.06,-0.98,2.87,5.68,-4.46
30.8440,-0.03,0.05,-1.01,4.27,6.47,-11.35
30.8560,0.00,0.11,-0.99,2.93,6.96,-13.49
30.8720,0.01,0.15,-0.99,3.11,6.59,-13.18
30.8900,0.01,0.21,-0.98,3.36,5.25,-7.02
30.9060,-0.00,0.16,-1.01,3.54,4.03,13.85
30.9230,-0.07,0.13,-1.00,3.11,3.48,3.54
30.9300,-0.06,0.21,-0.99,3.36,1.71,17.82
30.9530,-0.04,0.22,-0.98,2.44,0.37,33.26
30.9680,-0.01,0.05,-0.98,3.97,-1.77,40.95
30.9800,-0.03,-0.05,-1.02,5.49,-1.95,38.27
30.9960,0.00,-0.15,-1.02,3.11,0.92,18.86
31.0120,-0.01,-0.03,-1.04,2.01,4.76,0.55
31.0290,0.01,-0.12,-1.05,-2.50,10.62,-20.08
31.0460,-0.12,-0.16,-1.09,-11.72,14.47,-38.39
31.0620,-0.04,0.02,-1.08,-25.82,12.70,-32.10
31.0780,-0.01,0.10,-1.05,-40.77,10.19,-32.29
31.0930,0.02,0.12,-0.86,-43.15,6.41,-31.56
31.0960,0.11,0.41,-0.95,-9.03,6.53,-15.01
31.1120,-0.01,0.13,-1.03,-0.79,4.88,-1.65
31.1390,-0.05,0.19,-1.00,1.04,3.23,12.94
31.1540,0.03,0.43,-0.95,7.39,0.92,35.46
31.1660,0.05,0.40,-0.90,12.02,1.22,50.48
31.1820,0.17,0.12,-0.71,47.49,-0.61,54.32
31.2000,-0.09,-0.01,-1.76,102.48,-15.63,36.93
31.2160,-0.16,-0.55,-1.05,-2.99,2.69,28.14
31.2320,-0.00,-0.02,-1.08,11.90,0.67,-0.49
31.2480,-0.02,-0.15,-1.06,0.67,12.94,-38.02
31.2640,0.02,0.06,-1.02,-1.46,11.05,-31.74
31.2800,0.01,0.07,-1.02,-2.56,10.56,-35.28
31.2950,-0.03,0.11,-1.02,-8.18,10.19,-30.52
31.3110,0.01,0.25,-0.99,-14.40,8.00,-17.82
31.3270,-0.04,0.24,-0.96,-15.32,7.02,-2.20
31.3410,-0.08,0.10,-0.95,-4.70,4.46,8.12
31.3560,-0.08,0.08,-0.99,7.81,1.53,15.50
31.3710,-0.05,0.08,-0.99,9.28,0.79,21.48
31.3820,0.03,0.13,-0.93,15.87,0.06,18.55
31.3990,-0.02,0.04,-1.09,29.48,-0.12,3.30
31.4160,0.01,0.03,-1.04,13.37,2.20,-0.73
31.4330,-0.00,0.04,-1.00,6.35,4.58,-3.42
31.4480,-0.02,0.01,-1.02,7.45,6.04,-16.36
31.4650,-0.02,0.03,-1.02,6.53,7.57,-28.81
31.4810,-0.01,0.09,-1.02,5.86,7.51,-29.36
31.4960,-0.03,0.15,-1.01,3.05,6.41,-18.07
31.5120,-0.02,0.18,-1.02,1.04,5.74,-2.26
31.5270,-0.06,0.15,-1.01,0.67,4.21,8.91
31.5420,-0.05,0.18,-1.01,-3.54,3.23,27.95
31.5580,-0.00,0.23,-0.95,-8.73,2.87,43.40
31.5660,0.06,0.28,-0.92,-4.76,1.77,47.18
31.5820,0.06,0.16,-0.95,6.84,-1.34,49.93
31.6030,-0.06,-0.20,-1.06,10.13,-3.11,45.29
31.6210,-0.11,-0.17,-1.04,5.19,-1.10,33.45
31.6360,-0.01,0.04,-1.03,6.35,2.87,1.53
31.6530,0.00,-0.00,-1.00,6.04,5.86,-13.12
31.6540,-0.03,-0.00,-1.04,6.47,7.39,-25.33
31.6840,-0.02,0.11,-1.01,2.01,7.87,-21.18
31.6870,-0.02,0.17,-0.99,1.59,6.65,-12.51
31.7030,-0.05,0.18,-0.99,2.20,5.43,-1.53
31.7200,-0.04,0.11,-1.00,-0.43,4.76,1.83
31.7450,-0.04,0.07,-1.00,1.53,3.17,8.85
31.7520,-0.03,0.08,-1.00,2.99,2.08,12.70
31.7780,0.01,0.02,-1.00,3.30,2.50,12.39
31.7890,-0.04,0.04,-1.03,6.59,2.93,2.93
31.8050,-0.05,-0.06,-1.01,4.46,5.00,-3.05
31.8260,-0.02,-0.02,-1.03,4.33,6.53,-13.18
31.8420,-0.04,0.01,-1.03,2.87,8.73,-27.53
31.8580,-0.02,0.08,-1.00,0.49,9.64,-33.81
31.8730,-0.04,0.11,-1.01,1.04,7.63,-31.13
31.8790,-0.05,0.16,-1.01,-1.16,4.58,-18.62
31.8940,-0.02,0.21,-0.96,-3.54,2.32,-2.44
31.9180,-0.03,0.19,-0.99,1.10,1.59,12.15
31.9340,-0.05,0.20,-1.00,2.93,2.75,24.05
31.9510,-0.05,0.18,-1.00,-2.26,2.99,45.10
31.9680,-0.03,0.21,-0.97,-4.76,2.75,52.86
31.9840,0.03,0.16,-0.92,-1.04,0.98,53.71
32.0000,0.02,0.04,-1.00,10.38,-1.28,42.42
32.0160,0.01,-0.09,-0.99,12.63,-0.12,23.86
32.0320,0.00,-0.14,-1.05,5.92,3.48,-0.43
32.0480,0.02,0.06,-1.03,-1.16,4.82,0.49
32.0660,0.11,0.05,-1.00,-0.37,6.29,-2.01
32.0820,-0.05,0.05,-1.03,6.16,6.23,-17.40
32.0970,-0.05,0.06,-1.01,5.37,5.92,-13.79
32.1120,-0.05,0.10,-1.02,4.94,4.70,-2.93
32.1180,-0.06,0.12,-1.00,3.91,4.03,2.69
32.1340,-0.05,0.16,-0.98,-0.79,4.09,8.91
32.1570,-0.03,0.21,-1.02,1.71,0.49,31.62
32.1730,-0.00,0.17,-0.97,-6.71,0.43,45.78
32.1890,0.01,0.18,-0.96,-3.91,-0.73,46.45
32.1920,0.01,0.15,-0.98,-0.92,-1.28,42.24
32.2070,0.02,0.11,-0.98,-0.55,-1.10,40.77
32.2300,0.03,0.04,-0.99,5.43,-2.44,37.54
32.2470,-0.05,-0.04,-1.02,10.19,-1.34,23.93
32.2620,-0.10,-0.06,-1.06,10.38,0.73,11.72
32.2830,-0.09,-0.04,-1.00,6.59,1.53,6.53
32.2850,-0.09,0.01,-1.02,6.71,1.46,4.88
32.3120,-0.05,0.03,-1.01,7.75,1.46,6.04
32.3270,-0.00,0.09,-0.99,8.18,-0.06,12.08
32.3360,-0.00,0.09,-1.02,7.45,-1.34,21.42
32.3520,0.00,0.05,-1.01,-0.79,2.62,24.23
32.3710,-0.01,-0.05,-1.02,3.72,1.04,19.96
32.3880,-0.03,-0.05,-1.02,5.55,1.89,10.07
32.4050,-0.00,0.00,-1.01,2.01,7.20,-5.92
32.4200,0.01,0.01,-1.02,2.20,10.86,-26.12
32.4360,0.01,0.05,-1.01,5.07,11.66,-41.02
32.4460,0.02,0.11,-1.00,4.88,12.27,-45.78
32.4540,-0.03,0.12,-1.00,3.42,10.93,-37.66
32.4820,-0.06,0.12,-0.99,4.88,8.48,-25.51
32.4930,-0.06,0.13,-0.99,4.88,7.20,-17.58
32.5100,-0.06,0.16,-1.00,4.15,4.33,-1.77
32.5270,-0.05,0.09,-0.99,3.36,3.66,3.11
32.5420,-0.06,0.09,-1.02,2.75,0.61,19.10
32.5590,-0.02,0.11,-1.00,-0.67,-0.61,35.64
32.5760,0.00,0.11,-1.00,-0.92,-1.16,38.57
32.5810,0.02,0.04,-1.00,0.06,-0.73,25.63
32.5970,-0.02,0.00,-0.99,3.17,2.69,12.39
32.6190,0.00,0.02,-1.01,1.77,5.68,-2.01
32.6370,0.02,0.08,-1.03,0.79,7.39,-10.25
32.6520,0.02,0.05,-1.03,-1.28,8.30,-13.49
32.6690,-0.06,0.05,-0.94,-0.18,6.90,-13.85
32.6860,-0.02,0.13,-1.05,13.55,3.78,-10.25
32.7010,-0.04,0.09,-0.99,6.53,5.00,-8.85
32.7030,-0.05,0.10,-1.00,8.00,3.91,-6.90
32.7190,-0.07,0.02,-1.01,5.19,3.17,-2.56
32.7470,-0.02,0.03,-0.99,2.75,2.69,2.69
32.7530,-0.03,0.07,-1.02,0.92,3.48,9.03
32.7700,-0.01,0.09,-1.00,0.06,3.11,8.73
32.7850,-0.02,0.09,-1.00,1.34,3.54,5.62
32.8030,-0.00,0.12,-1.00,0.37,4.21,6.23
32.8260,-0.00,0.13,-1.00,0.24,4.70,5.25
32.8360,-0.01,0.14,-1.02,-3.30,5.68,5.55
32.8520,-0.01,0.17,-0.98,-8.48,5.25,10.74
32.8690,0.05,0.18,-0.96,-5.74,2.56,25.82
32.8860,0.05,0.16,-0.96,-3.48,0.00,33.26
32.8870,0.14,0.24,-0.88,2.26,-1.22,35.34
32.9020,0.03,0.12,-1.02,28.75,-5.62,36.56
32.9200,-0.02,-0.01,-1.03,21.18,-12.57,48.46
32.9500,-0.01,-0.02,-1.05,21.55,-15.93,60.06
32.9530,-0.14,0.00,-1.03,-4.70,3.54,70.98
32.9710,-0.01,0.10,-0.99,21.36,-3.85,60.97
32.9860,-0.10,0.13,-1.17,46.08,9.52,41.69
33.0030,-0.03,0.17,-1.21,52.55,26.92,35.52
33.0190,-0.05,0.11,-1.15,13.06,48.10,42.30
33.0360,-0.03,0.04,-1.00,-4.70,61.52,45.59
33.0520,-0.00,0.07,-0.78,-44.37,87.46,52.43
33.0720,-0.06,0.11,-0.73,-41.50,81.67,36.13
33.0890,-0.01,0.10,-0.73,1.53,16.11,1.71
33.1060,-0.13,-0.00,-0.68,10.62,-29.91,-15.38
33.1220,-0.16,-0.06,-0.75,3.91,-31.62,-21.36
33.1390,-0.18,-0.16,-0.99,-16.72,-112.98,-37.96
33.1550,-0.05,0.28,-1.50,-7.75,-102.36,-27.40
33.1730,-0.07,0.02,-1.02,-21.36,3.05,-7.32
33.1880,0.01,0.06,-1.11,14.53,10.44,-5.31
33.2040,-0.03,0.04,-1.04,25.70,26.67,-1.95
33.2060,-0.07,0.08,-1.04,20.51,31.92,-3.78
33.2370,-0.07,0.07,-0.98,-3.66,41.87,-0.85
33.2530,-0.05,0.05,-0.91,-20.51,31.98,1.22
33.2690,0.01,0.09,-0.83,-6.53,-10.68,-6.35
33.2720,-0.06,0.03,-0.88,-3.66,-51.94,-30.03
33.2880,-0.17,0.03,-0.80,-27.16,-36.01,-27.04
33.3110,0.01,0.05,-0.88,8.54,7.57,-23.01
33.3280,0.13,0.06,-1.07,10.38,9.16,-28.32
33.3460,0.04,0.10,-1.02,9.22,8.42,-29.60
33.3610,0.03,0.12,-1.00,6.65,8.42,-23.56
33.3770,-0.04,0.10,-0.99,4.58,7.02,-12.45
33.3920,-0.00,0.08,-0.99,4.15,5.55,-5.00
33.4080,-0.01,0.07,-0.99,3.91,5.19,-4.09
33.4110,-0.01,0.03,-1.00,5.07,5.25,-5.25
33.4260,-0.01,0.01,-1.01,6.96,6.29,-13.55
33.4550,-0.06,-0.02,-1.02,7.20,6.90,-23.56
33.4650,-0.08,-0.02,-1.07,7.32,7.14,-27.59
33.4800,-0.13,-0.07,-1.07,0.61,9.64,-26.98
33.5030,-0.13,-0.02,-1.10,-5.07,10.25,-25.88
33.5040,-0.10,-0.05,-1.12,-29.79,14.10,-25.76
33.5350,-0.10,-0.01,-1.08,-51.03,15.38,-20.14
33.5500,0.04,0.19,-0.92,-45.23,13.49,-16.30
33.5530,0.02,0.33,-0.93,-23.38,9.28,-10.68
33.5690,0.11,0.45,-0.77,-1.04,2.56,18.25
33.5970,0.21,0.56,-0.76,41.14,-4.82,44.31
33.6080,0.29,0.30,-0.91,96.56,-14.40,50.54
33.6240,0.16,-0.20,-1.07,30.82,-13.98,46.51
33.6410,0.05,-0.27,-1.04,26.49,-9.58,15.63
33.6580,-0.30,-0.38,-1.08,2.81,7.32,-8.06
33.6730,-0.08,-0.18,-1.03,3.36,10.13,-19.59
33.6890,-0.00,-0.09,-1.07,2.93,16.72,-51.45
33.7060,-0.05,-0.18,-0.91,-27.53,29.36,-53.71
33.7220,-0.01,0.17,-1.12,-8.24,13.49,-41.08
33.7380,0.01,0.29,-0.96,-38.02,12.70,-19.71
33.7530,0.01,0.30,-0.88,-28.32,7.14,7.26
33.7680,-0.03,0.18,-0.93,-15.01,5.13,15.01
33.7840,-0.06,0.22,-0.93,4.58,-1.65,38.64
33.7990,0.03,0.28,-0.95,14.77,-6.10,65.37
33.8080,0.02,0.14,-0.92,20.87,-8.06,73.00
33.8230,0.05,-0.05,-1.07,45.29,-10.13,54.08
33.8440,-0.10,-0.17,-1.19,41.26,-7.87,27.59
33.8600,-0.16,-0.22,-1.05,8.06,4.27,-8.54
33.8760,-0.04,-0.09,-1.03,18.49,5.37,-36.93
33.8810,-0.07,-0.08,-1.06,15.63,14.47,-72.33
33.8970,-0.00,-0.06,-1.05,-3.85,22.46,-69.15
33.9180,0.04,0.11,-1.00,1.89,13.92,-44.25
33.9350,0.05,0.18,-0.99,-0.06,12.76,-35.10
33.9510,0.01,0.25,-0.98,1.16,8.79,-17.15
33.9670,0.00,0.28,-0.97,0.85,4.09,6.59
33.9850,-0.05,0.14,-0.99,2.50,1.95,12.76
34.0000,-0.01,0.11,-0.99,2.01,0.85,18.80
34.0170,0.00,0.08,-1.00,3.30,1.83,15.63
34.0330,0.01,0.07,-1.01,3.54,2.69,10.68
34.0480,-0.02,0.09,-1.01,3.23,3.97,6.16
34.0510,-0.01,0.10,-1.00,2.87,4.09,6.04
34.0660,-0.00,0.13,-0.98,4.52,3.85,7.08
34.0950,-0.03,0.14,-0.98,4.70,3.60,5.31
34.1110,-0.04,0.07,-1.01,5.19,3.48,4.03
34.1210,-0.04,0.07,-1.01,3.23,3.60,8.85
34.1380,-0.02,0.16,-1.00,0.92,2.44,17.40
34.1550,0.06,0.22,-0.98,0.98,0.37,25.70
34.1730,-0.01,0.09,-1.00,0.37,-2.01,39.55
34.1880,-0.02,0.03,-1.01,-0.12,-3.48,45.72
34.2060,-0.03,-0.17,-1.03,2.08,-2.44,37.17
34.2210,-0.06,-0.14,-1.04,3.85,3.85,-0.43
34.2380,-0.09,-0.22,-1.06,7.93,10.44,-43.33
34.2500,-0.18,-0.16,-1.07,5.37,17.09,-71.53
34.2700,-0.09,0.06,-1.03,0.98,16.54,-62.99
34.2720,0.04,0.28,-0.95,-4.33,12.45,-37.41
34.3020,0.18,0.41,-0.93,7.20,6.96,-20.63
34.3170,0.16,0.25,-1.03,4.46,3.60,1.46
34.3330,-0.08,0.18,-0.97,0.43,3.48,10.25
34.3480,0.02,0.26,-0.94,2.32,0.37,34.85
34.3560,-0.01,0.20,-0.99,6.29,-2.93,47.06
34.3790,0.07,0.18,-0.98,0.18,-5.43,67.69
34.3940,0.03,-0.06,-1.03,5.49,-6.16,57.56
34.4050,-0.04,-0.16,-1.06,4.39,-2.32,36.99
34.4220,-0.14,-0.27,-1.06,3.17,1.28,19.10
34.4380,0.00,-0.09,-1.02,3.85,7.75,-15.20
34.4550,-0.07,-0.04,-1.03,4.33,12.39,-49.19
34.4560,-0.07,0.05,-1.01,2.62,12.70,-46.39
34.4880,0.01,0.18,-0.99,3.54,9.40,-30.46
34.5030,-0.03,0.19,-1.00,4.82,7.45,-19.23
34.5200,-0.03,0.26,-0.98,3.30,4.58,-2.93
34.5220,-0.01,0.17,-1.00,2.75,3.23,5.55
34.5520,-0.07,0.15,-1.01,-0.18,1.53,23.68
34.5670,-0.05,0.15,-0.99,-2.56,0.37,32.53
34.5830,0.03,0.06,-0.98,1.40,-0.37,34.91
34.5980,0.00,-0.02,-1.03,4.58,1.16,16.97
34.6100,0.02,0.00,-0.98,3.85,4.46,0.79
34.6260,0.00,0.05,-1.02,6.59,5.19,-5.98
34.6430,-0.04,0.00,-1.01,6.35,6.71,-12.57
34.6580,-0.03,0.05,-1.01,8.42,7.20,-23.74
34.6740,-0.01,0.11,-1.00,7.57,8.00,-26.73
34.6900,-0.00,0.16,-1.00,4.09,6.96,-13.31
34.7050,-0.03,0.09,-0.99,0.37,6.04,1.40
34.7210,-0.01,0.11,-0.99,0.92,5.37,6.84
34.7360,-0.03,0.14,-0.98,1.77,2.99,11.23
34.7500,-0.00,0.11,-1.00,0.79,1.22,22.64
34.7640,-0.03,-0.02,-1.03,1.71,1.53,18.62
34.7800,0.05,0.03,-1.02,1.28,4.52,3.11
34.7960,0.10,-0.00,-1.02,2.38,7.14,-17.70
34.8130,0.04,-0.04,-1.01,2.56,8.73,-31.31
34.8290,-0.12,-0.09,-1.05,1.89,9.46,-32.96
34.8450,-0.14,-0.04,-1.08,-3.11,8.54,-21.42
34.8600,-0.02,0.15,-1.04,-17.82,9.16,-9.03
34.8760,-0.01,0.30,-0.95,-25.27,10.01,-8.67
34.8920,-0.02,0.35,-0.94,-14.10,7.75,-1.28
34.8970,-0.05,0.21,-0.86,-10.13,5.62,8.48
34.9120,0.08,0.45,-0.88,18.68,-2.01,38.45
34.9340,0.10,0.45,-0.90,28.63,-4.70,49.44
34.9510,-0.09,-0.01,-0.96,44.13,-9.77,66.83
34.9670,-0.02,-0.09,-1.01,14.34,-12.15,87.46
34.9830,-0.04,-0.24,-1.06,2.93,-6.47,65.80
35.0000,-0.13,-0.43,-1.06,3.11,1.89,14.77
35.0170,0.00,-0.13,-1.06,7.81,7.69,-28.87
35.0330,-0.12,-0.16,-1.06,4.58,16.48,-68.79
35.0490,-0.13,0.02,-1.05,1.77,13.12,-54.69
35.0660,0.01,0.13,-1.03,-1.77,11.41,-36.25
35.0820,0.08,0.30,-0.99,-13.37,11.66,-32.59
35.0840,0.05,0.33,-0.89,-12.63,9.77,-19.59
35.1130,-0.04,0.14,-1.02,-0.37,5.43,-1.71
35.1280,-0.02,0.21,-0.94,-0.67,3.11,15.08
35.1380,0.02,0.28,-0.93,8.91,-1.34,31.86
35.1550,0.02,0.24,-0.94,20.08,-3.78,42.42
35.1710,-0.02,0.07,-1.04,23.25,-4.82,45.65
35.1880,0.04,0.11,-1.00,10.56,-4.09,48.10
35.2040,0.04,0.05,-1.03,6.35,-3.60,42.05
35.2210,0.00,-0.09,-1.03,5.25,-0.67,24.23
35.2380,-0.18,-0.22,-1.09,5.31,3.72,-0.24
35.2550,-0.13,-0.10,-1.02,6.23,5.98,-14.65
35.2710,-0.07,0.02,-1.03,20.63,5.68,-49.32
35.2890,-0.11,-0.07,-1.06,4.94,12.02,-46.33
35.3040,0.00,0.12,-0.98,-11.05,13.85,-18.01
35.3200,0.06,0.28,-0.96,-1.22,7.14,-8.85
35.3350,0.07,0.28,-0.96,0.00,4.64,1.77
35.3510,-0.00,0.15,-0.99,0.00,3.97,5.49
35.3660,-0.03,0.13,-1.02,1.71,2.14,14.53
35.3710,-0.02,0.11,-1.01,-1.59,1.04,28.20
35.3870,0.02,0.14,-0.99,-0.73,0.24,35.03
35.4080,0.02,0.14,-1.00,2.99,-0.49,33.45
35.4240,0.03,0.12,-0.99,3.97,-0.61,31.68
35.4410,0.03,-0.00,-1.01,4.88,-0.18,27.22
35.4590,-0.04,-0.07,-1.03,4.88,3.30,10.38
35.4740,-0.01,0.03,-1.00,4.03,5.37,0.43
35.4900,-0.02,0.02,-0.98,4.39,6.65,-7.63
35.5050,-0.04,0.01,-1.02,10.13,6.16,-20.14
35.5220,-0.06,0.05,-1.03,10.62,8.67,-37.11
35.5380,-0.06,0.03,-1.03,6.65,9.83,-36.99
35.5540,-0.03,0.11,-1.01,4.03,9.09,-18.55
35.5690,0.02,0.24,-0.98,1.83,6.35,-10.56
35.5850,-0.01,0.10,-1.00,1.28,4.82,-0.12
35.5920,-0.05,0.06,-0.99,2.20,3.85,3.05
35.6080,-0.02,0.07,-1.01,4.70,2.38,2.87
35.6300,-0.03,0.04,-1.01,3.23,4.33,2.32
35.6470,-0.01,0.05,-1.02,2.99,5.55,-2.62
35.6630,-0.03,0.01,-1.02,2.81,6.90,-8.18
35.6790,-0.04,0.03,-1.01,1.40,8.18,-12.63
35.6940,0.01,0.15,-0.96,-0.98,6.53,-4.52
35.7090,0.00,0.20,-0.99,2.08,5.55,0.67
35.7250,0.00,0.11,-0.98,-2.81,5.92,4.09
35.7410,-0.03,0.10,-0.98,0.73,2.20,15.26
35.7570,-0.01,0.13,-1.00,3.30,1.46,19.78
35.7720,-0.01,0.14,-0.99,3.11,-0.18,26.00
35.7870,-0.01,0.03,-1.01,7.69,-0.55,21.06
35.8020,-0.11,-0.09,-1.02,9.28,1.83,-0.31
35.8140,-0.05,0.02,-1.01,6.59,3.91,-9.34
35.8310,-0.05,0.04,-1.02,7.08,7.08,-24.78
35.8470,-0.03,0.07,-1.01,3.23,7.45,-16.11
35.8640,-0.02,0.10,-1.00,1.89,5.98,-5.55
35.8810,-0.01,0.15,-1.00,1.16,5.80,13.43
35.8980,0.03,0.20,-0.97,0.61,3.72,6.23
35.9130,-0.03,0.13,-1.01,1.65,3.30,10.93
35.9280,0.00,0.12,-0.99,0.49,1.77,21.91
35.9440,-0.01,-0.01,-1.01,2.56,1.16,20.26
35.9590,-0.02,0.05,-1.01,6.04,3.23,5.49
35.9750,-0.02,0.03,-1.02,4.88,4.39,-2.38
35.9910,-0.08,-0.05,-1.03,4.58,5.37,-4.46
36.0070,-0.07,0.00,-1.02,2.50,6.10,-3.42
36.0140,-0.01,0.12,-0.99,0.12,6.16,-1.65
36.0300,0.03,0.21,-0.97,2.14,5.55,0.79
36.0530,0.05,0.24,-0.98,3.54,4.21,4.76
36.0540,-0.04,0.13,-1.00,1.89,4.46,6.10
36.0850,-0.03,0.18,-0.97,1.16,2.08,21.73
36.0870,0.03,0.23,-0.98,3.05,-0.67,27.71
36.1170,0.02,0.24,-0.99,5.55,-1.40,31.86
36.1320,0.05,0.05,-1.01,4.94,-3.23,37.11
36.1370,-0.13,-0.19,-1.06,5.31,-0.92,24.35
36.1530,-0.06,-0.07,-1.01,5.00,1.16,9.40
36.1740,-0.06,-0.05,-1.05,20.75,-1.22,-13.37
36.1910,-0.12,-0.06,-1.04,4.52,10.68,-29.24
36.2060,-0.02,0.05,-1.02,0.55,12.51,-27.77
36.2250,0.07,0.24,-1.00,-6.71,15.63,-28.20
36.2250,0.03,0.27,-0.98,3.30,8.24,-18.98
36.2550,0.04,0.20,-0.95,-1.40,6.10,0.92
36.2710,0.00,0.23,-0.98,3.60,4.52,-1.59
36.2870,-0.02,0.17,-0.99,4.21,2.75,8.54
36.3040,0.01,0.22,-0.99,2.38,0.18,27.83
36.3200,0.03,0.21,-0.99,0.67,-2.32,42.85
36.3240,-0.02,0.03,-1.01,0.85,-3.60,49.93
36.3510,-0.09,-0.20,-1.03,2.38,-3.66,50.54
36.3680,-0.09,-0.16,-1.07,6.96,-2.75,27.59
36.3830,-0.04,-0.03,-1.01,5.43,4.27,-5.00
36.3980,-0.06,-0.00,-1.03,19.23,1.95,-26.98
36.4100,-0.13,-0.04,-1.04,16.54,7.69,-47.61
36.4270,-0.08,0.04,-1.03,8.42,10.56,-39.61
36.4440,0.03,0.14,-1.00,0.43,14.04,-13.00
36.4600,0.10,0.30,-0.94,-13.55,14.10,-5.62
36.4750,0.04,0.20,-0.98,-4.21,7.75,1.46
36.4770,-0.01,0.11,-0.99,0.00,4.27,8.79
36.5060,-0.01,0.09,-0.98,1.28,3.05,14.34
36.5220,-0.03,0.00,-1.01,3.54,3.17,9.40
36.5370,-0.04,0.02,-1.00,4.15,3.78,4.76
36.5530,-0.02,0.08,-1.01,4.64,4.09,1.95
36.5610,0.01,0.04,-1.01,3.60,4.94,-3.54
36.5760,-0.03,0.06,-1.02,3.48,6.59,-10.99
36.5980,-0.04,0.09,-1.01,1.04,6.47,-6.47
36.6150,-0.04,0.13,-0.99,0.98,4.15,2.99
36.6310,-0.01,0.12,-1.00,2.56,3.05,5.37
36.6470,-0.01,0.11,-1.01,2.81,3.85,2.81
36.6630,-0.04,0.08,-1.00,1.46,3.78,2.56
36.6800,-0.04,0.12,-1.01,3.60,2.38,10.62
36.6950,0.00,0.09,-0.99,1.95,1.71,18.74
36.7110,-0.02,0.03,-1.00,4.88,2.87,10.13
36.7270,-0.02,0.04,-1.01,4.94,3.17,2.62
36.7420,-0.02,0.08,-1.01,3.91,3.72,2.01
36.7580,-0.02,0.08,-1.00,4.70,3.60,2.20
36.7740,-0.02,0.08,-1.00,4.46,4.03,2.14
36.7880,-0.02,0.08,-1.00,4.09,4.21,2.26
36.8040,-0.02,0.09,-1.01,3.66,4.21,2.26
36.8150,-0.02,0.09,-1.01,3.23,4.15,2.20
36.8310,-0.02,0.09,-1.01,2.56,4.21,2.50
36.8480,-0.02,0.09,-1.01,2.20,4.52,3.36
36.8650,-0.03,0.11,-1.01,1.89,4.21,6.23
36.8810,-0.01,0.09,-1.00,0.92,4.09,12.63
36.8970,-0.02,0.07,-1.01,0.43,3.66,13.92
36.9140,-0.02,0.06,-1.01,-0.37,4.39,11.60
36.9160,-0.03,0.06,-1.01,0.31,4.76,7.45
36.9460,-0.03,0.07,-0.99,1.53,4.64,2.56
36.9610,-0.02,0.09,-1.01,4.88,4.09,2.26
36.9760,-0.02,0.09,-1.00,3.36,3.54,1.71
36.9870,-0.02,0.09,-1.00,2.81,3.66,1.89
37.0040,-0.01,0.07,-1.00,2.38,4.15,2.26
37.0190,-0.01,0.08,-1.00,2.08,4.82,2.20
37.0360,-0.02,0.07,-0.99,2.20,4.94,1.95
37.0530,-0.01,0.08,-1.00,2.81,4.58,2.01
37.0680,-0.01,0.09,-1.00,0.55,5.31,2.56
37.0850,-0.04,0.11,-0.97,1.77,4.09,4.94
37.1000,-0.03,0.21,-1.02,9.64,0.37,20.08
37.1150,-0.01,0.16,-0.99,6.47,-0.24,27.83
37.1320,0.02,-0.01,-0.99,5.86,-1.10,28.32
37.1380,-0.03,0.04,-1.03,3.85,-2.56,36.19
37.1640,-0.02,0.04,-1.02,2.81,-0.37,24.96
37.1790,-0.04,0.04,-1.02,0.37,3.60,9.89
37.1880,-0.03,0.05,-0.99,1.65,3.72,2.26
37.2030,-0.03,0.09,-1.01,3.17,4.03,2.20
37.2190,-0.03,0.06,-1.00,1.16,4.82,2.50
37.2410,0.06,0.03,-1.03,5.43,3.60,2.75
37.2520,-0.09,0.19,-0.93,-4.27,4.46,10.74
37.2720,-0.01,0.13,-0.99,-0.61,1.46,30.64
37.2870,-0.05,0.08,-1.00,1.04,2.32,22.03
37.3030,-0.06,-0.02,-1.01,1.16,3.11,19.35
37.3180,-0.01,-0.02,-0.99,3.54,2.75,12.27
37.3340,-0.01,0.06,-1.07,11.47,1.59,0.06
37.3420,-0.01,0.07,-1.00,8.61,3.72,-9.40
37.3570,0.00,0.13,-0.99,8.61,3.60,-7.45
37.3810,-0.02,0.10,-0.98,0.00,6.53,-2.56
37.3960,-0.02,0.08,-0.98,-1.10,5.25,2.01
37.4120,-0.02,-0.00,-0.98,2.08,4.82,2.32
37.4280,-0.19,0.27,-1.03,1.34,6.77,-13.06
37.4310,0.05,0.25,-1.03,8.97,-2.32,18.86
37.4520,-0.03,0.09,-0.97,-9.95,4.82,25.63
37.4690,0.01,0.12,-1.00,-0.73,1.16,27.47
37.4860,0.02,0.07,-0.98,0.67,2.69,19.47
37.5010,-0.04,-0.07,-1.02,2.01,4.39,10.56
37.5190,0.00,0.03,-1.02,3.97,4.70,-1.34
37.5350,-0.02,0.08,-1.03,3.23,6.23,-10.99
37.5510,-0.02,0.11,-1.01,1.65,6.29,-8.42
37.5660,-0.03,0.11,-1.01,1.16,5.31,-2.44
37.5810,-0.01,0.10,-1.01,0.24,4.76,2.62
37.5970,-0.06,0.08,-0.98,-2.81,4.58,5.55
37.6030,-0.03,0.08,-0.99,1.28,2.69,13.85
37.6180,-0.03,0.07,-0.99,2.20,1.89,17.40
37.6410,-0.03,0.06,-0.99,3.42,1.59,18.80
37.6570,0.02,0.04,-1.01,5.00,1.22,18.37
37.6740,0.03,0.03,-1.00,4.21,3.72,5.92
37.6900,0.04,0.04,-1.01,5.49,4.09,-15.38
37.7060,-0.03,0.05,-1.03,7.20,5.37,-10.25
37.7230,-0.02,0.08,-1.01,5.13,5.98,-10.44
37.7380,-0.03,0.16,-1.05,7.93,3.60,-4.52
37.7540,-0.01,0.08,-1.01,3.36,3.97,2.38
37.7690,-0.02,0.08,-1.01,2.75,3.85,2.32
37.7850,-0.04,0.09,-1.01,2.38,3.72,3.66
37.8010,-0.09,0.07,-1.01,2.44,2.50,12.27
37.8160,-0.07,0.02,-1.00,2.81,1.34,18.43
37.8230,0.02,0.10,-1.00,3.17,1.53,19.10
37.8410,0.05,0.07,-0.99,2.81,2.81,10.38
37.8570,-0.01,0.07,-1.00,3.48,3.54,2.93
37.8740,-0.01,0.08,-1.00,3.36,3.78,2.08
37.8920,-0.00,0.08,-1.00,3.17,4.21,1.77
37.9070,-0.01,0.05,-1.00,2.93,4.64,0.49
37.9230,-0.02,0.07,-1.00,3.72,5.68,-5.37
37.9380,-0.01,0.10,-1.03,2.87,5.19,-5.19
37.9530,-0.01,0.07,-1.00,0.37,5.55,-2.93
37.9580,-0.00,0.07,-1.01,2.32,5.31,-2.32
37.9840,-0.02,0.08,-1.01,1.95,4.94,-2.32
37.9990,-0.03,0.09,-1.01,3.05,4.64,-0.37
38.0140,-0.02,0.07,-1.00,2.62,4.33,2.20
38.0240,-0.02,0.07,-1.01,4.33,3.60,2.50
38.0410,-0.02,0.07,-1.00,5.37,2.93,2.50
38.0570,-0.02,0.06,-1.02,8.06,2.75,2.44
38.0740,-0.01,0.03,-1.00,4.39,4.03,1.10
38.0900,-0.02,0.03,-1.00,9.52,3.91,-9.28
38.1070,0.00,0.03,-1.02,10.38,3.91,-12.51
38.1230,-0.02,0.07,-1.01,-4.58,10.01,-9.03
38.1380,0.00,0.13,-1.00,1.77,5.37,-2.38
38.1540,-0.02,0.13,-1.00,1.59,4.52,2.50
38.1690,-0.03,0.11,-1.01,1.10,4.27,3.72
38.1850,-0.03,0.09,-0.99,-0.24,4.27,5.55
38.2020,-0.03,0.06,-1.01,1.83,3.85,5.31
38.2070,-0.04,0.04,-1.02,1.34,3.48,7.57
38.2230,-0.08,0.09,-0.99,2.87,2.56,11.66
38.2490,-0.02,0.09,-0.98,8.00,1.95,10.62
38.2600,0.00,0.07,-1.00,5.74,3.97,0.55
38.2760,-0.00,0.04,-1.00,5.92,4.64,-3.48
38.2930,-0.02,0.04,-1.01,16.91,0.98,-10.19
38.3090,-0.02,0.05,-1.01,17.40,2.81,-20.39
38.3260,0.00,0.08,-1.01,9.40,5.98,-18.74
38.3420,0.01,0.09,-1.01,-5.07,10.50,-5.92
38.3580,0.02,0.14,-1.01,-16.42,13.00,6.10
38.3730,-0.01,0.13,-1.01,1.71,4.70,4.03
38.3880,-0.03,0.08,-1.01,0.18,5.31,2.50
38.4030,-0.04,0.07,-0.98,-2.08,5.19,2.69
38.4190,-0.03,0.12,-1.00,0.37,2.26,13.31
38.4340,0.03,0.06,-0.99,0.24,1.34,20.32
38.4440,-0.04,-0.02,-0.98,4.64,1.89,9.22
38.4590,-0.03,-0.01,-1.03,9.28,4.15,-6.16
38.4780,-0.06,-0.04,-1.04,1.71,7.08,-12.82
38.4950,-0.03,0.01,-1.01,-0.92,7.08,-7.26
38.5110,-0.00,0.13,-0.99,2.14,5.13,-0.85
38.5280,-0.01,0.13,-0.99,2.99,4.82,-2.14
38.5450,-0.00,0.16,-0.98,5.98,4.33,0.67
38.5610,-0.01,0.10,-1.00,4.33,3.97,3.85
38.5770,-0.03,0.11,-1.00,3.36,3.85,5.37
38.5930,-0.02,0.10,-0.99,1.65,3.30,13.67
38.6080,-0.01,0.11,-1.00,1.10,2.93,15.14
38.6230,0.01,0.10,-1.00,1.53,3.54,10.86
38.6290,0.01,0.07,-0.99,-0.31,4.94,0.79
38.6530,-0.01,0.05,-0.99,2.01,5.37,-3.05
38.6680,-0.04,0.03,-1.01,3.60,4.46,-2.93
38.6840,-0.07,0.03,-1.00,3.42,3.66,-0.31
38.7000,-0.04,0.07,-1.00,5.13,2.08,3.36
38.7170,-0.04,0.09,-0.99,6.47,1.04,9.09
38.7330,-0.02,0.10,-1.03,7.20,0.79,10.68
38.7480,-0.02,0.10,-1.01,3.23,2.14,11.23
38.7630,-0.01,0.08,-1.01,2.56,2.26,14.53
38.7680,0.01,0.02,-1.02,2.69,2.75,12.76
38.7960,-0.01,0.08,-1.02,3.48,4.39,2.69
38.8110,-0.01,0.09,-1.02,1.16,4.82,1.83
38.8210,-0.01,0.09,-1.02,-0.31,5.19,1.22
38.8360,-0.00,0.07,-1.01,-0.98,5.43,-0.73
38.8590,-0.03,0.09,-1.01,-2.93,6.23,-3.17
38.8740,-0.04,0.04,-0.96,-3.66,5.00,1.10
38.8910,-0.04,0.11,-1.01,15.01,0.31,10.74
38.9060,0.01,0.13,-0.95,1.65,2.14,15.69
38.9220,-0.01,0.11,-1.01,5.98,2.08,12.63
38.9370,-0.01,0.06,-1.01,2.87,2.08,13.31
38.9530,-0.02,0.05,-1.01,3.30,2.44,12.02
38.9700,-0.03,0.02,-1.02,3.78,2.44,10.80
38.9860,-0.03,0.04,-1.01,3.11,3.05,7.26
39.0010,-0.01,0.05,-1.00,2.50,3.54,7.75
39.0160,-0.02,0.05,-1.00,4.33,4.21,3.30
39.0310,-0.02,0.03,-1.01,4.15,5.19,-1.10
39.0420,-0.02,0.06,-1.01,3.97,7.02,-12.33
39.0580,-0.02,0.06,-1.01,3.60,7.51,-14.28
39.0750,-0.03,0.06,-1.02,0.67,6.47,-8.18
39.0910,-0.01,0.11,-1.00,0.18,5.62,-1.59
39.1070,-0.01,0.12,-0.98,1.16,4.39,0.49
39.1230,-0.03,0.08,-1.00,2.75,3.48,3.11
39.1400,-0.02,0.08,-1.00,2.87,2.50,9.70
39.1550,-0.02,0.07,-1.00,3.66,1.83,13.43
39.1710,0.00,0.06,-0.99,3.97,2.01,12.45
39.1880,-0.01,0.06,-1.02,5.62,2.62,7.02
39.2040,-0.02,0.06,-1.01,3.36,3.97,2.69
39.2200,-0.02,0.07,-1.00,3.48,4.52,2.08
39.2260,-0.02,0.07,-1.01,3.05,4.58,2.26
39.2410,-0.02,0.08,-1.01,1.95,4.46,2.08
39.2640,-0.02,0.07,-1.01,0.79,4.27,2.38
39.2810,-0.02,0.07,-1.00,1.46,4.09,2.14
39.2960,-0.02,0.07,-1.01,1.59,4.46,2.38
39.3130,-0.02,0.07,-1.00,1.83,4.27,3.30
39.3280,-0.01,0.05,-0.99,2.38,4.09,4.94
39.3440,-0.02,0.05,-0.99,2.81,4.15,3.11
39.3590,-0.02,0.07,-1.01,2.81,4.33,2.01
39.3650,-0.02,0.03,-1.00,1.40,4.39,1.95
39.3800,-0.02,0.06,-1.00,2.32,3.85,1.89
39.4030,-0.01,0.07,-1.01,3.42,3.54,2.01
39.4190,-0.01,0.07,-1.00,2.32,3.91,1.77
39.4360,-0.01,0.06,-1.01,2.99,3.91,2.26
39.4530,-0.00,0.07,-1.00,2.62,4.76,1.83
39.4690,-0.01,0.09,-0.98,7.14,4.21,-0.49
39.4850,-0.03,0.07,-1.03,7.57,3.72,-2.26
39.5010,-0.03,0.07,-1.02,3.54,4.27,0.55
39.5180,-0.02,0.08,-1.00,3.11,4.09,2.81
39.5330,-0.03,0.11,-1.01,4.46,3.66,5.68
39.5490,-0.01,0.10,-1.00,3.23,3.66,7.69
39.5640,-0.01,0.09,-0.99,2.81,3.05,10.50
39.5700,-0.01,0.06,-1.00,4.21,2.81,10.56
39.5940,0.01,0.02,-1.00,1.34,4.64,3.48
39.6030,-0.04,-0.02,-0.99,1.34,5.13,-2.26
39.6200,0.01,0.05,-1.01,3.30,4.58,-0.43
39.6360,-0.03,0.05,-0.99,1.89,6.16,-6.96
39.6530,-0.01,0.10,-1.04,7.81,3.17,-0.98
39.6700,-0.01,0.06,-1.00,3.60,4.27,2.08
39.6870,-0.02,0.08,-1.02,4.33,4.21,1.95
39.7020,-0.02,0.08,-0.98,2.01,4.33,2.99
39.7040,-0.02,0.13,-1.01,5.80,3.23,11.47
39.7340,-0.00,0.14,-1.00,3.05,1.59,16.91
39.7370,-0.01,0.09,-1.03,5.43,0.31,21.24
39.7660,-0.02,0.03,-1.02,1.77,1.10,20.69
39.7820,-0.02,-0.05,-0.99,1.34,3.97,7.26
39.7990,-0.02,0.06,-1.00,3.23,3.91,1.28
39.8040,-0.02,0.07,-1.01,3.17,3.97,1.71
39.8300,-0.01,0.07,-1.00,3.30,4.03,2.20
39.8480,-0.01,0.04,-1.00,3.91,3.72,1.16
39.8630,-0.01,0.06,-1.00,6.65,4.64,-4.09
39.8690,-0.03,0.12,-1.00,2.93,4.94,-0.24
39.8850,-0.02,0.08,-0.95,-3.54,5.74,7.14
39.9070,-0.02,0.10,-1.00,2.20,1.83,17.33
39.9240,-0.01,0.06,-0.99,0.06,2.87,16.42
39.9410,-0.03,-0.02,-1.01,2.69,3.85,4.03
39.9580,-0.02,0.03,-1.01,4.88,4.09,-4.03
39.9740,-0.00,0.08,-1.01,7.51,5.07,-12.88
39.9890,-0.01,0.07,-1.00,5.13,6.96,-14.04
40.0050,-0.01,0.10,-1.00,4.94,6.04,-10.31
40.0210,-0.01,0.09,-1.00,2.62,6.16,-1.34
40.0380,-0.02,0.06,-1.00,2.69,4.82,2.01
40.0530,-0.05,0.04,-1.01,2.81,3.54,5.07
40.0700,-0.10,0.10,-1.00,2.38,2.08,11.11
40.0750,0.03,0.10,-1.00,5.25,-0.06,17.27
40.0900,0.02,0.05,-1.00,9.16,-0.06,9.22
40.1120,-0.01,0.07,-1.00,13.37,-0.79,2.44
40.1290,0.01,0.12,-1.01,4.94,3.66,1.34
40.1460,-0.02,0.04,-1.01,5.55,4.58,-2.69
40.1620,0.00,0.01,-1.01,5.49,5.62,-9.46
40.1780,0.03,0.07,-1.00,3.30,5.80,-6.16
40.1930,-0.01,0.08,-1.00,0.06,6.59,-1.89
40.2100,-0.04,0.12,-0.99,-5.62,8.67,5.68
40.2250,-0.09,0.08,-0.94,-10.07,9.58,12.08
40.2400,-0.06,0.15,-1.00,15.26,4.27,9.28
40.2540,-0.02,0.07,-1.01,4.15,1.89,5.98
40.2700,-0.04,0.06,-1.02,9.95,-0.67,5.80
40.2850,-0.02,0.03,-1.01,12.15,-0.55,0.92
40.2960,-0.04,0.05,-1.01,13.18,1.71,-9.70
40.3120,-0.01,0.07,-1.01,10.50,4.58,-12.88
40.3280,0.05,0.13,-0.98,2.75,6.71,-6.65
40.3460,0.06,0.16,-0.99,2.01,5.25,0.79
40.3610,-0.01,0.09,-1.01,-6.10,8.67,2.08
40.3760,-0.02,0.09,-1.01,-8.06,9.95,2.81
40.3840,0.01,0.08,-0.98,-6.10,7.87,6.16
40.4010,0.01,0.14,-1.00,0.73,2.69,12.57
40.4170,0.02,0.08,-1.00,0.18,2.26,16.85
40.4340,-0.02,-0.01,-1.02,0.92,2.69,13.55
40.4520,-0.02,-0.04,-1.02,2.38,4.82,0.79
40.4680,-0.03,-0.03,-1.01,2.75,5.43,-5.31
40.4840,-0.07,-0.03,-1.01,3.78,4.82,-6.59
40.4990,-0.10,-0.02,-1.04,4.82,4.33,-4.09
40.5150,-0.09,0.04,-1.03,1.89,3.78,5.25
40.5310,-0.05,0.13,-0.99,0.61,3.05,14.89
40.5470,0.03,0.22,-0.97,1.04,1.59,17.94
40.5630,0.05,0.19,-0.98,2.44,2.26,11.05
40.5780,-0.07,0.07,-0.99,1.77,4.15,2.93
40.5940,-0.02,0.09,-1.01,2.26,3.23,9.89
40.6100,-0.01,0.08,-1.01,1.65,3.05,12.63
40.6170,0.01,0.05,-1.00,1.04,3.30,11.11
40.6320,-0.01,0.05,-1.01,1.59,4.64,3.05
40.6550,-0.02,0.06,-1.01,0.24,4.64,0.79
40.6710,-0.02,0.03,-0.97,0.49,4.64,1.95
40.6860,-0.03,0.04,-0.99,6.10,2.20,2.56
40.7030,-0.01,0.10,-1.03,7.75,2.26,2.62
40.7180,-0.02,0.09,-1.01,3.11,3.30,5.00
40.7330,-0.01,0.08,-1.00,2.56,3.05,8.91
40.7400,-0.01,0.06,-1.00,2.44,2.93,8.12
40.7550,-0.02,0.03,-1.01,2.81,3.97,3.72
40.7790,-0.02,0.04,-1.01,3.23,4.39,2.01
40.7940,-0.01,0.06,-1.00,2.99,4.15,2.01
40.8100,0.03,0.07,-1.00,2.81,5.00,-1.10
40.8250,-0.00,0.08,-1.01,-0.06,6.59,-8.54
40.8420,-0.02,0.08,-0.99,-2.01,7.02,-9.95
40.8580,-0.05,0.06,-0.98,2.20,5.68,-6.59
40.8730,-0.06,0.04,-0.99,10.44,3.60,-2.38
40.8890,-0.02,0.10,-1.06,12.33,1.71,3.85
40.9050,-0.01,0.06,-1.00,3.72,3.30,6.41
40.9130,-0.00,0.04,-1.01,4.58,3.54,4.88
40.9290,-0.00,0.06,-1.01,5.86,4.03,2.20
40.9500,0.04,0.02,-1.01,4.64,5.68,-3.54
40.9560,-0.02,0.00,-1.02,3.11,7.87,-16.05
40.9680,-0.07,0.00,-1.03,2.01,8.73,-21.73
40.9860,-0.07,0.04,-1.04,0.61,8.06,-10.86
41.0140,-0.04,0.13,-1.05,-12.27,8.00,-4.27
41.0190,-0.03,0.15,-1.00,-26.86,7.69,4.82
41.0350,-0.04,0.09,-0.88,-24.96,5.43,13.37
41.0570,-0.05,0.03,-0.88,19.41,-1.46,24.66
41.0730,-0.03,0.22,-1.00,53.53,-8.36,45.47
41.0900,0.05,0.20,-0.91,2.69,-1.04,33.87
41.1070,0.09,0.16,-0.99,6.53,0.18,21.85
41.1230,0.06,-0.07,-1.01,8.24,0.92,11.11
41.1390,-0.09,-0.13,-1.14,29.11,-3.91,-15.20
41.1550,-0.01,0.03,-1.02,0.37,5.62,-1.65
41.1710,-0.02,0.06,-1.01,2.75,7.51,-14.59
41.1870,-0.05,0.01,-1.01,-3.60,13.73,-28.50
41.2040,-0.13,-0.00,-1.08,-4.88,17.15,-43.09
41.2190,0.02,0.13,-1.01,7.51,6.16,-13.24
41.2340,0.10,0.26,-0.98,3.54,2.62,10.56
41.2490,0.01,0.16,-1.00,2.93,3.30,8.73
41.2640,-0.02,0.11,-1.00,3.48,3.30,10.93
41.2740,-0.00,0.11,-1.01,0.61,3.23,16.24
41.2900,0.01,0.06,-1.00,0.92,2.75,17.03
41.3060,-0.01,0.01,-1.01,1.83,4.03,6.16
41.3280,-0.01,0.06,-1.01,2.01,5.07,0.55
41.3440,-0.01,0.07,-1.02,-0.18,6.16,-2.56
41.3600,-0.02,0.06,-1.00,-1.22,6.16,-3.60
41.3760,-0.06,0.08,-1.01,-0.12,5.86,-1.46
41.3790,-0.04,0.04,-0.97,0.24,5.00,0.98
41.3950,-0.02,0.09,-1.02,9.77,2.01,2.99
41.4220,-0.07,0.12,-1.00,4.39,2.26,7.26
41.4380,0.00,0.13,-1.02,7.87,0.85,13.61
41.4500,0.01,0.02,-1.01,3.66,2.87,7.69
41.4650,-0.00,-0.02,-1.02,5.62,2.99,0.18
41.4850,-0.02,0.04,-1.03,5.86,3.05,-0.67
41.4880,-0.01,0.03,-1.01,3.54,5.98,-8.42
41.5170,-0.03,0.04,-1.02,3.36,7.20,-14.22
41.5330,-0.05,0.04,-0.99,-0.37,7.81,-13.24
41.5490,-0.02,0.11,-1.00,3.11,5.19,-1.59
41.5650,0.03,0.14,-1.00,3.54,3.36,4.82
41.5790,-0.04,0.10,-1.01,2.56,4.03,4.15
41.5940,-0.02,0.10,-1.01,2.14,3.91,8.36
41.6050,-0.01,0.09,-1.00,2.14,3.48,10.01
41.6210,0.01,0.05,-1.00,1.22,3.48,10.99
41.6380,-0.01,0.07,-1.01,3.97,4.33,2.08
41.6560,-0.03,0.08,-0.99,1.53,5.62,-1.28
41.6700,0.00,0.13,-1.05,8.91,2.81,2.50
41.6870,-0.02,0.04,-0.97,0.67,4.64,2.62
41.7030,-0.01,0.03,-0.97,2.69,4.58,3.23
41.7190,-0.02,0.04,-0.98,4.03,3.30,6.41
41.7340,-0.02,0.10,-0.98,4.64,3.54,3.72
41.7500,-0.05,0.18,-1.01,8.18,0.73,17.52
41.7650,0.02,0.23,-0.97,13.67,-6.90,39.06
41.7710,0.16,0.29,-0.98,21.24,-9.52,32.47
41.7860,0.11,0.09,-0.98,2.01,4.76,2.99
41.8070,-0.03,-0.14,-1.05,3.54,7.14,-13.12
41.8240,-0.10,-0.23,-1.08,4.52,7.39,-16.24
41.8410,-0.04,0.08,-1.01,1.46,5.86,-3.48
41.8570,-0.02,0.11,-1.01,-0.31,5.92,-1.83
41.8580,-0.00,0.12,-1.04,-17.33,14.40,1.53
41.8890,-0.07,0.00,-0.99,-9.46,9.83,0.12
41.9050,-0.03,-0.06,-1.08,4.82,5.00,-5.74
41.9210,-0.09,0.08,-1.05,4.15,4.03,-0.06
41.9380,-0.00,0.26,-0.97,-4.82,3.05,19.90
41.9540,-0.01,0.20,-0.97,0.98,2.38,17.40
41.9690,0.02,0.11,-0.99,3.78,1.34,21.42
41.9840,0.03,0.02,-1.01,4.46,1.65,14.65
41.9990,0.01,0.00,-1.02,3.30,3.60,2.99
42.0140,0.00,0.06,-1.00,1.65,4.27,2.14
42.0240,0.00,0.09,-0.99,1.53,4.64,-0.31
42.0410,-0.02,0.06,-1.00,3.60,4.27,-1.65
42.0580,-0.03,0.03,-1.01,3.78,3.97,0.12
42.0750,-0.04,0.01,-1.00,4.82,3.23,0.31
42.0900,-0.00,0.04,-1.02,8.12,2.08,1.53
42.1060,-0.02,0.00,-1.02,6.16,4.58,-6.84
42.1210,-0.00,0.08,-1.01,3.48,4.27,-0.61
42.1370,-0.02,0.10,-1.00,3.60,4.39,-0.43
42.1530,-0.00,0.08,-1.01,5.31,4.09,0.55
42.1690,-0.00,0.05,-1.01,4.09,4.88,-4.09
42.1850,-0.00,0.09,-1.01,3.42,5.98,-8.18
42.2000,-0.00,0.09,-1.01,3.17,6.59,-8.06
42.2160,-0.02,0.10,-1.00,3.23,5.92,-5.98
42.2310,-0.02,0.07,-1.00,3.11,5.00,-2.20
42.2470,-0.05,0.10,-1.00,3.48,4.39,0.06
42.2610,-0.03,0.08,-0.99,3.17,3.60,2.69
42.2740,-0.03,0.14,-1.00,6.65,-0.73,17.03
42.2890,-0.01,0.14,-1.00,8.06,-3.42,30.27
42.3090,-0.01,0.09,-0.99,5.68,-1.53,26.31
42.3240,0.01,-0.00,-1.04,10.68,-1.77,15.69
42.3410,-0.00,0.01,-1.02,3.85,3.48,4.15
42.3560,0.03,-0.04,-1.02,6.10,5.68,-11.23
42.3710,-0.03,0.00,-1.03,6.90,8.06,-25.33
42.3870,-0.04,0.02,-1.03,2.75,9.34,-24.29
42.4020,-0.04,0.09,-1.04,-9.95,14.16,-15.87
42.4110,-0.00,0.20,-0.92,-11.47,8.06,4.03
42.4290,0.05,0.27,-0.99,4.39,3.17,6.35
42.4450,-0.04,0.13,-1.00,2.81,2.62,9.52
42.4610,0.01,0.15,-0.99,1.65,1.53,21.91
42.4780,0.04,0.14,-1.00,2.44,1.53,21.73
42.4940,0.05,0.12,-1.00,2.32,0.79,25.27
42.5110,0.05,0.09,-1.00,1.46,-0.06,27.04
42.5270,-0.01,-0.02,-1.02,3.11,0.73,19.84
42.5420,-0.08,-0.08,-1.03,4.46,3.91,1.53
42.5570,0.00,0.05,-1.00,3.23,5.00,-2.26
42.5600,-0.02,0.08,-1.00,3.05,5.31,-4.03
42.5900,-0.05,0.05,-1.00,3.42,5.19,-4.70
42.6050,-0.04,0.01,-1.01,4.70,5.37,-6.96
42.6160,-0.07,0.05,-1.01,5.68,5.80,-10.62
42.6340,-0.05,0.08,-0.99,11.60,1.71,-6.35
42.6490,-0.03,0.11,-1.03,16.17,-2.87,5.31
42.6660,0.01,0.08,-1.00,4.21,3.60,5.74
42.6810,0.01,0.06,-1.01,6.04,3.42,1.71
42.6970,0.00,0.05,-1.01,6.53,5.37,-7.81
42.7120,-0.02,0.02,-1.02,6.71,5.92,-12.39
42.7270,-0.01,0.05,-1.01,5.00,6.53,-13.24
42.7430,0.01,0.14,-1.00,3.36,6.35,-11.54
42.7580,0.03,0.18,-1.00,-7.87,11.47,-7.75
42.7650,-0.05,0.07,-0.96,-13.55,12.33,-2.75
42.7870,0.03,0.12,-1.00,0.67,5.07,1.16
42.8020,0.03,0.11,-1.00,0.24,4.33,1.77
42.8210,0.01,0.13,-1.00,1.28,3.23,10.62
42.8360,-0.02,0.12,-0.99,1.34,-0.06,26.49
42.8520,-0.07,0.04,-1.01,2.01,-1.71,36.38
42.8690,-0.05,0.00,-1.02,2.99,-0.43,32.78
42.8840,-0.01,-0.01,-1.00,-0.49,2.26,19.53
42.9010,0.00,0.06,-1.02,4.46,4.09,2.99
42.9160,0.03,0.05,-1.01,3.78,4.82,-3.48
42.9310,0.01,0.07,-1.00,4.52,5.37,-7.45
42.9460,-0.00,0.09,-1.02,4.88,5.31,-10.86
42.9610,-0.02,0.09,-1.00,2.20,6.10,-8.73
42.9760,-0.04,0.09,-1.00,3.36,5.49,-4.33
42.9870,-0.04,0.07,-1.00,2.93,5.25,-1.83
43.0020,-0.02,0.06,-1.01,3.30,4.46,1.34
43.0210,-0.01,0.07,-1.01,3.17,3.97,2.62
43.0250,-0.02,0.09,-1.00,3.85,3.66,4.52
43.0410,0.00,0.05,-1.00,3.97,2.87,9.70
43.0680,-0.01,0.07,-1.01,5.49,3.85,3.42
43.0790,-0.01,0.07,-1.01,4.58,4.27,1.95
43.0950,0.02,0.04,-1.00,3.60,4.94,-0.73
43.1140,0.02,0.05,-1.02,3.17,6.04,-9.40
43.1290,-0.04,0.03,-1.01,2.75,7.20,-18.07
43.1450,-0.07,0.04,-1.01,4.94,7.87,-22.34
43.1610,-0.06,0.09,-1.00,3.30,7.93,-16.36
43.1760,-0.05,0.10,-0.99,3.11,6.53,-8.79
43.1910,0.01,0.12,-1.00,2.56,3.36,6.84
43.2070,-0.05,0.07,-1.00,2.75,3.60,5.80
43.2120,-0.05,0.09,-1.00,3.17,2.38,15.32
43.2280,0.01,0.13,-1.00,2.93,-0.49,30.58
43.2500,0.02,0.13,-1.00,0.98,-1.04,35.22
43.2660,0.02,0.05,-1.00,1.10,15.01,28.44
43.2830,0.01,-0.01,-1.02,3.60,1.22,18.86
43.3000,0.03,0.06,-1.03,5.37,4.03,0.85
43.3170,0.02,0.08,-1.01,3.05,5.62,-7.63
43.3180,-0.01,0.08,-1.00,1.95,6.65,-13.12
43.3470,-0.04,0.08,-1.00,2.32,6.65,-11.23
43.3630,-0.05,0.08,-1.00,3.11,5.37,-4.58
43.3790,-0.03,0.10,-1.00,2.87,4.15,1.83
43.3840,-0.02,0.06,-1.00,3.36,3.72,2.38
43.3990,-0.05,0.07,-1.00,3.66,3.66,2.81
43.4200,-0.02,0.07,-1.01,3.36,3.48,8.79
43.4360,0.02,0.06,-0.99,3.85,2.75,11.35
43.4540,0.00,0.06,-1.00,4.88,3.66,4.27
43.4700,-0.00,0.07,-1.01,4.09,4.39,1.95
43.4860,0.01,0.07,-1.01,2.69,4.82,-0.73
43.5040,-0.00,0.08,-1.00,1.04,5.13,-1.65
43.5190,-0.01,0.10,-1.00,1.46,4.88,-2.69
43.5350,-0.02,0.10,-0.99,2.44,5.13,-3.36
43.5510,-0.02,0.10,-1.00,3.60,4.21,-0.85
43.5580,-0.03,0.07,-1.01,3.17,3.11,4.76
43.5810,-0.04,0.05,-1.01,2.69,2.81,10.56
43.5970,-0.02,0.05,-1.01,2.99,2.56,12.33
43.6030,-0.02,0.04,-1.00,2.44,2.50,13.49
43.6190,0.01,0.01,-1.00,2.62,3.11,9.83
43.6400,-0.01,0.07,-1.00,5.43,3.48,2.38
43.6580,-0.05,0.02,-1.01,5.37,4.21,2.01
43.6730,-0.03,0.06,-1.01,5.68,4.70,-1.40
43.6900,-0.02,0.08,-1.01,6.35,4.21,-4.27
43.7060,-0.01,0.11,-1.00,7.39,3.23,-2.32
43.7220,-0.01,0.08,-1.00,-0.92,5.43,3.23
43.7380,-0.02,0.09,-1.01,2.32,3.48,5.07
43.7540,-0.01,0.08,-1.00,1.65,3.66,7.32
43.7700,-0.01,0.09,-1.00,1.95,3.36,10.99
43.7860,-0.00,0.07,-1.00,2.44,2.56,13.37
43.7920,0.02,0.03,-1.01,3.36,2.26,9.46
43.8070,0.01,0.03,-1.00,4.09,2.81,2.44
43.8310,-0.01,0.07,-1.01,5.00,2.87,1.95
43.8470,-0.06,0.06,-1.00,4.94,3.85,0.49
43.8630,-0.05,0.00,-1.00,13.98,1.40,-4.70
43.8790,0.01,0.09,-1.00,7.20,4.64,-5.68
43.8950,0.00,0.10,-1.00,4.09,4.27,0.37
43.9110,0.00,0.10,-1.00,3.30,3.11,5.31
43.9260,-0.01,0.09,-1.00,2.26,3.72,6.96
43.9410,0.00,0.10,-1.00,2.14,3.60,7.45
43.9560,0.00,0.10,-1.00,1.04,3.78,8.79
43.9700,0.01,0.08,-1.00,0.98,3.54,8.97
43.9850,0.01,0.09,-1.01,-3.60,6.29,6.96
43.9970,-0.02,0.08,-0.99,-6.71,7.69,8.61
44.0130,-0.05,0.11,-0.98,-0.06,3.91,10.50
44.0310,0.02,0.17,-1.06,11.47,-2.01,14.28
44.0470,-0.02,0.04,-1.01,-5.49,5.55,16.60
44.0630,-0.01,0.03,-1.01,-0.67,2.56,20.02
44.0790,-0.00,0.04,-1.01,0.37,3.36,14.53
44.0960,0.00,0.04,-1.01,1.46,3.05,10.38
44.1110,0.01,0.03,-1.01,3.05,3.54,5.43
44.1270,-0.00,0.06,-1.00,3.23,3.85,2.87
44.1420,-0.01,0.06,-1.00,3.17,4.15,2.01
44.1570,0.00,0.05,-1.00,3.05,4.70,-0.67
44.1740,-0.02,0.07,-1.01,3.72,5.13,-5.43
44.1900,-0.03,0.08,-1.00,4.94,4.15,-3.11
44.2040,-0.01,0.08,-1.00,4.46,3.72,1.04
44.2140,-0.04,0.08,-1.00,3.72,3.66,3.54
44.2290,-0.01,0.09,-1.01,3.23,3.91,6.16
44.2510,-0.00,0.07,-1.01,2.14,3.66,9.46
44.2590,0.00,0.06,-1.01,1.71,3.42,9.77
44.2680,0.01,0.04,-1.01,1.77,3.72,7.08
44.2860,-0.00,0.06,-1.01,2.44,4.15,2.81
44.3130,-0.01,0.07,-1.01,2.38,4.33,2.20
44.3190,-0.01,0.06,-1.00,2.44,4.64,2.26
44.3450,-0.01,0.06,-1.01,2.38,4.70,2.26
44.3590,-0.01,0.07,-1.01,2.32,4.46,2.14
44.3770,0.00,0.07,-1.00,2.69,4.27,2.20
44.3850,0.00,0.08,-1.00,3.11,4.64,-1.22
44.4010,-0.03,0.06,-1.00,3.11,4.76,-1.40
44.4170,-0.03,0.09,-1.01,3.23,3.91,3.66
44.4370,-0.02,0.09,-1.00,1.83,3.60,10.68
44.4520,-0.01,0.05,-1.00,1.28,3.36,12.08
44.4690,0.01,0.01,-1.01,2.14,3.36,9.70
44.4860,-0.00,0.05,-1.01,3.85,4.15,2.08
44.5020,0.01,0.05,-1.00,3.54,4.70,-0.49
44.5180,-0.00,0.05,-1.00,4.52,5.25,-6.47
44.5340,0.00,0.06,-1.00,4.82,5.98,-9.89
44.5490,-0.02,0.08,-1.01,5.19,6.35,-10.74
44.5590,-0.03,0.08,-1.01,5.19,5.31,-5.68
44.5820,-0.04,0.10,-1.00,3.36,3.85,1.46
44.5890,-0.03,0.10,-1.01,3.54,3.30,3.17
44.6060,-0.02,0.08,-1.01,2.08,3.30,10.25
44.6240,-0.02,0.09,-0.99,1.10,2.56,16.05
44.6400,0.02,0.08,-0.99,0.61,2.08,16.17
44.6570,0.03,0.05,-1.00,1.59,3.36,11.96
44.6730,0.02,-0.00,-1.01,2.26,4.52,8.36
44.6890,-0.02,0.04,-1.01,4.46,4.76,0.43
44.7050,0.00,0.05,-1.01,3.78,4.27,-1.34
44.7210,-0.01,0.06,-1.00,4.33,5.13,-5.86
44.7370,0.00,0.06,-1.01,4.64,5.25,-7.93
44.7520,-0.02,0.08,-1.01,4.33,5.31,-9.22
44.7680,-0.02,0.08,-1.01,4.27,5.13,-5.80
44.7730,-0.02,0.09,-1.00,3.72,4.76,-3.17
44.7890,-0.01,0.07,-1.00,3.11,4.88,1.53
44.8110,-0.00,0.07,-1.00,2.87,4.64,2.38
44.8280,-0.00,0.06,-1.00,3.05,4.33,4.09
44.8450,-0.01,0.06,-1.00,3.17,3.85,4.88
44.8610,-0.01,0.07,-1.00,3.17,4.03,4.15
44.8780,-0.01,0.06,-1.01,2.87,3.78,3.36
44.8940,-0.01,0.07,-1.00,2.69,3.72,1.89
44.9090,0.01,0.07,-1.01,2.81,4.03,0.79
44.9240,0.02,0.08,-1.00,2.87,4.76,-0.98
44.9410,0.04,0.08,-1.00,2.93,5.07,-2.93
44.9560,0.08,0.09,-0.99,2.99,5.55,-3.54
44.9720,0.06,0.11,-1.00,0.85,3.85,1.34
44.9780,0.01,0.11,-1.00,-1.65,2.50,11.11
44.9940,-0.02,0.07,-1.00,-0.49,2.75,11.17
45.0170,-0.08,0.01,-1.01,0.49,3.17,6.84
45.0330,-0.13,-0.00,-1.02,2.38,4.58,-3.23
45.0490,-0.10,0.04,-1.01,3.54,5.49,-5.98
45.0590,-0.06,0.07,-1.01,3.30,4.88,-2.32
45.0680,-0.01,0.06,-1.01,3.11,3.66,1.89
45.0840,-0.01,0.06,-1.01,2.93,3.54,2.20
45.0990,-0.01,0.05,-1.01,2.87,3.97,2.20
45.1270,-0.01,0.06,-1.01,3.42,3.78,2.26
45.1380,-0.01,0.06,-1.01,4.03,3.54,2.14
45.1550,0.05,0.05,-1.00,4.39,4.33,-1.28
45.1720,-0.00,0.03,-1.01,4.82,5.13,-8.30
45.1880,-0.01,0.04,-1.01,5.07,6.29,-14.34
45.2050,-0.02,0.05,-1.01,5.49,7.08,-17.82
45.2210,-0.03,0.07,-1.00,5.43,7.08,-16.72
45.2370,-0.03,0.09,-1.01,4.76,6.23,-13.49
45.2530,-0.02,0.09,-1.01,4.03,5.37,-6.29
45.2690,-0.03,0.09,-1.01,3.54,4.70,-0.98
45.2850,-0.02,0.07,-1.00,2.56,4.27,2.38
45.3000,-0.04,0.08,-1.00,2.81,3.97,4.82
45.3040,-0.03,0.08,-1.00,2.32,2.26,12.15
45.3200,-0.03,0.08,-1.00,1.95,0.98,16.42
45.3430,-0.02,0.08,-1.00,1.53,0.73,18.86
45.3600,0.00,0.04,-1.00,1.10,0.61,20.02
45.3760,0.03,0.01,-1.00,2.32,1.59,10.44
45.3910,-0.00,0.06,-1.01,4.33,2.56,2.01
45.3940,-0.03,0.02,-1.01,4.15,3.60,1.16
45.4090,-0.01,0.02,-1.01,5.31,5.49,-7.08
45.4360,-0.00,0.04,-1.00,6.10,7.45,-15.93
45.4470,-0.01,0.09,-1.00,6.35,7.75,-16.66
45.4630,0.00,0.13,-1.00,5.31,6.35,-8.06
45.4800,-0.01,0.12,-1.00,4.94,5.25,0.24
45.4970,-0.02,0.07,-1.00,2.93,4.03,2.20
45.5140,-0.06,0.06,-1.01,2.62,4.03,3.11
45.5300,-0.00,0.08,-1.01,2.87,3.60,8.61
45.5460,0.02,0.07,-1.00,2.56,3.23,9.64
45.5610,0.00,0.04,-1.00,2.87,3.60,5.62
45.5760,-0.01,0.06,-1.00,3.60,4.39,2.20
45.5920,0.00,0.05,-1.00,3.91,4.76,0.00
45.6070,0.00,0.04,-1.00,4.15,5.00,-2.44
45.6210,-0.00,0.05,-1.01,5.07,6.04,-7.39
45.6370,-0.03,0.07,-1.00,5.00,6.41,-9.40
45.6470,-0.03,0.09,-1.01,4.64,5.68,-4.52
45.6640,-0.02,0.09,-1.01,3.72,4.46,1.34
45.6800,-0.02,0.07,-1.01,3.36,3.97,2.44
45.6970,-0.10,0.02,-1.02,2.87,3.97,4.76
45.7130,-0.04,0.06,-1.01,2.87,2.69,14.53
45.7300,-0.01,0.07,-1.00,2.32,1.89,19.47
45.7360,0.05,0.09,-1.00,2.69,2.08,16.91
45.7610,0.05,0.09,-1.00,3.54,3.60,7.63
45.7690,0.02,0.09,-1.00,3.60,4.03,4.09
45.7900,0.01,0.04,-1.00,3.23,5.00,0.98
45.8060,-0.02,0.06,-1.00,4.46,5.74,-6.35
45.8220,-0.03,0.08,-1.00,4.52,5.37,-6.71
45.8390,-0.03,0.09,-1.00,3.97,4.82,-1.71
45.8400,-0.01,0.07,-1.00,2.56,3.91,2.32
45.8710,-0.07,0.06,-1.01,2.69,3.97,3.05
45.8870,-0.00,0.07,-1.00,3.05,3.66,7.02
45.9040,-0.00,0.08,-1.00,2.08,3.54,9.89
45.9200,-0.00,0.09,-1.00,1.59,2.93,13.49
45.9360,0.00,0.04,-1.00,1.89,3.36,12.88
45.9520,-0.01,0.06,-1.01,3.54,3.78,4.33
45.9610,-0.01,0.06,-1.01,3.54,3.85,2.14
45.9720,-0.01,0.06,-1.00,3.05,4.27,1.22
