Timestamp, AccX, AccY, AccZ, GyroX, GyroY, GyroZ
0.0150,0.07,0.13,-0.99,1.89,4.52,2.14
0.0300,0.08,0.13,-0.99,2.93,3.78,2.01
0.0450,0.08,0.13,-0.99,2.87,3.60,2.01
0.0600,0.08,0.13,-0.99,2.87,3.48,2.08
0.0750,0.08,0.13,-0.99,2.93,3.60,2.14
0.0840,0.09,0.14,-1.00,2.87,3.42,1.95
0.1010,0.08,0.13,-1.00,3.11,3.05,2.01
0.1170,0.08,0.13,-0.99,3.05,3.48,2.20
0.1330,0.08,0.13,-0.99,3.48,3.54,2.20
0.1500,0.08,0.13,-0.99,3.23,3.72,2.38
0.1670,0.08,0.13,-0.99,3.54,3.48,2.26
0.1670,0.08,0.13,-0.99,3.91,3.48,2.20
0.1970,0.08,0.14,-0.99,3.54,2.93,2.08
0.2130,0.08,0.13,-0.99,2.87,3.23,1.89
0.2270,0.08,0.13,-0.99,2.81,2.99,2.01
0.2380,0.08,0.13,-0.99,2.99,3.11,2.01
0.2510,0.08,0.13,-0.99,3.66,2.93,2.01
0.2670,0.08,0.13,-0.99,4.33,2.93,2.14
0.2830,0.08,0.13,-0.99,4.03,3.17,2.32
0.3000,0.08,0.14,-0.99,3.54,3.48,1.89
0.3170,0.08,0.13,-0.99,3.17,3.48,2.01
0.3330,0.08,0.13,-0.99,2.99,3.11,1.95
0.3380,0.08,0.13,-0.99,3.30,3.48,2.08
0.3510,0.08,0.13,-0.99,4.03,3.11,2.26
0.3810,0.08,0.13,-0.99,3.54,3.23,2.26
0.3970,0.08,0.14,-1.00,3.91,2.99,2.20
0.4120,0.08,0.14,-1.00,1.71,3.11,1.95
0.4270,0.08,0.14,-1.00,1.04,3.48,1.95
0.4420,0.08,0.13,-0.99,1.59,3.78,1.95
0.4500,0.07,0.13,-0.99,2.44,3.66,2.08
0.4670,0.08,0.13,-1.00,1.95,3.36,1.95
0.4840,0.08,0.13,-0.99,2.87,3.17,2.32
0.5000,0.08,0.13,-0.99,2.38,3.48,2.32
0.5170,0.08,0.13,-1.00,1.89,2.81,2.14
0.5330,0.07,0.13,-0.99,1.40,2.87,2.62
0.5500,0.07,0.13,-0.99,2.08,2.75,4.27
0.5670,0.08,0.12,-0.99,3.42,2.38,4.03
0.5830,0.07,0.13,-0.98,4.09,2.75,2.08
0.5850,0.09,0.14,-1.00,3.54,2.32,1.89
0.6000,0.08,0.13,-0.99,1.95,3.11,1.83
0.6170,0.10,0.18,-0.98,2.01,3.91,2.01
0.6380,0.08,0.12,-0.96,0.67,4.82,2.26
0.6500,0.07,0.12,-0.98,1.04,4.21,2.26
0.6730,0.08,0.12,-1.00,3.60,2.87,4.03
0.6900,0.08,0.14,-1.00,5.00,2.62,1.95
0.7060,0.08,0.13,-0.99,3.60,3.72,2.20
0.7220,0.08,0.14,-1.00,4.52,3.54,2.20
0.7380,0.08,0.14,-1.00,2.81,3.72,2.08
0.7400,0.08,0.12,-0.99,1.16,3.54,1.83
0.7560,0.08,0.12,-0.99,2.20,3.72,1.95
0.7800,0.08,0.13,-0.99,3.54,3.11,2.32
0.7960,0.08,0.13,-0.99,3.97,2.87,5.13
0.8130,0.08,0.13,-1.00,2.87,2.87,5.92
0.8290,0.07,0.13,-0.99,2.99,2.99,6.23
0.8470,0.07,0.14,-1.00,3.30,2.38,7.81
0.8630,0.08,0.13,-0.99,2.26,2.62,8.42
0.8790,0.08,0.12,-0.99,3.23,2.38,8.18
0.8950,0.08,0.13,-0.99,3.66,2.69,7.93
0.9120,0.08,0.13,-0.99,2.93,2.87,8.12
0.9270,0.08,0.12,-0.99,2.14,2.99,7.20
0.9430,0.09,0.10,-0.99,2.81,3.60,4.82
0.9590,0.08,0.13,-0.99,3.42,3.05,2.26
0.9750,0.08,0.12,-0.99,2.20,3.42,1.95
0.9900,0.08,0.13,-0.99,3.30,3.54,2.08
1.0050,0.08,0.13,-1.00,3.85,3.17,2.01
1.0130,0.07,0.12,-0.99,3.54,3.36,2.08
1.0290,0.08,0.13,-1.00,4.88,2.69,2.20
1.0500,0.08,0.13,-0.99,4.15,2.44,2.08
1.0670,0.08,0.13,-0.99,4.15,2.81,2.14
1.0840,0.08,0.13,-0.99,4.27,2.87,2.14
1.1000,0.08,0.14,-1.00,4.46,3.05,2.20
1.1160,0.08,0.14,-1.00,2.20,3.42,2.01
1.1320,0.08,0.12,-0.99,0.37,3.78,1.83
1.1390,0.08,0.13,-0.99,2.32,3.23,1.95
1.1500,0.08,0.12,-0.99,3.42,3.11,2.08
1.1780,0.08,0.13,-0.99,5.19,2.75,2.14
1.1890,0.08,0.13,-0.99,4.64,2.81,2.20
1.2050,0.08,0.14,-0.99,3.72,3.60,2.20
1.2210,0.08,0.13,-0.99,2.38,3.36,2.08
1.2390,0.08,0.13,-0.99,2.14,3.72,1.95
1.2450,0.08,0.13,-0.99,2.69,3.54,2.20
1.2690,0.08,0.13,-0.99,2.44,3.36,2.08
1.2770,0.08,0.13,-0.99,3.66,3.42,2.01
1.2930,0.08,0.13,-0.99,2.87,3.42,1.83
1.3160,0.08,0.13,-0.99,3.60,3.30,1.89
1.3310,0.08,0.13,-0.99,2.26,3.42,1.95
1.3490,0.08,0.13,-0.99,3.23,3.85,2.08
1.3650,0.08,0.13,-0.99,3.42,3.66,2.26
1.3820,0.08,0.13,-0.99,3.42,3.42,2.08
1.3970,0.08,0.15,-0.99,4.03,3.72,2.32
1.4140,0.08,0.13,-0.99,5.00,3.66,2.26
1.4150,0.08,0.13,-0.99,4.15,3.11,2.08
1.4390,0.07,0.13,-0.99,3.54,3.30,2.01
1.4490,0.08,0.13,-0.99,2.99,3.23,2.14
1.4650,0.08,0.13,-0.99,3.54,3.11,2.14
1.4800,0.08,0.13,-1.00,3.85,3.48,2.14
1.5080,0.08,0.12,-0.99,3.17,3.30,-0.18
1.5190,0.07,0.14,-0.99,3.60,3.05,0.85
1.5360,0.07,0.14,-0.99,3.54,3.60,1.65
1.5520,0.08,0.13,-1.00,2.14,3.30,1.89
1.5700,0.08,0.12,-0.99,1.83,3.30,1.65
1.5860,0.08,0.13,-0.99,3.54,3.11,2.08
1.6010,0.08,0.13,-0.99,3.66,3.36,2.20
1.6170,0.08,0.13,-1.00,2.38,3.78,2.14
1.6200,0.07,0.13,-0.99,1.40,4.03,2.01
1.6390,0.07,0.12,-0.99,2.38,3.60,1.95
1.6540,0.07,0.13,-0.99,2.99,3.48,2.08
1.6690,0.07,0.13,-0.99,3.72,3.17,2.20
1.6850,0.08,0.13,-0.99,3.97,2.62,1.95
1.7140,0.08,0.13,-0.99,3.72,3.48,2.01
1.7290,0.08,0.13,-0.99,2.93,2.81,2.14
1.7400,0.08,0.13,-0.99,3.60,3.05,2.56
1.7560,0.08,0.13,-0.99,4.33,2.99,2.81
1.7730,0.08,0.13,-0.99,3.97,2.81,2.87
1.7910,0.07,0.13,-0.99,3.85,3.23,2.87
1.8060,0.07,0.14,-1.00,2.38,2.99,2.08
1.8220,0.07,0.13,-0.99,1.16,3.85,2.08
1.8380,0.07,0.12,-0.99,2.56,3.66,2.01
1.8550,0.08,0.13,-0.99,4.03,3.17,2.26
1.8560,0.08,0.13,-1.00,4.09,3.11,2.08
1.8720,0.08,0.13,-0.99,3.66,3.72,2.20
1.8940,0.08,0.13,-1.00,2.87,3.48,2.14
1.9100,0.07,0.13,-0.99,0.43,3.78,2.44
1.9280,0.07,0.12,-0.99,1.95,3.66,2.69
1.9440,0.08,0.12,-0.99,3.91,2.99,2.50
1.9620,0.08,0.13,-1.00,4.58,2.50,2.62
1.9780,0.07,0.13,-0.99,3.42,3.30,2.87
1.9940,0.07,0.13,-0.99,2.56,3.66,2.69
2.0090,0.07,0.13,-0.99,0.98,3.54,2.20
2.0250,0.07,0.12,-0.99,1.59,3.91,2.62
2.0400,0.07,0.12,-0.99,4.03,3.23,3.60
2.0440,0.07,0.13,-1.00,4.03,2.81,3.11
2.0590,0.08,0.13,-0.99,2.93,2.87,3.85
2.0830,0.08,0.13,-0.99,1.89,3.11,4.27
2.1000,0.08,0.12,-0.99,1.83,2.87,3.23
2.1170,0.07,0.12,-0.99,2.69,2.87,3.17
2.1330,0.07,0.12,-1.00,3.78,2.99,2.81
2.1500,0.07,0.13,-0.99,3.97,3.17,2.75
2.1660,0.07,0.13,-0.99,3.23,3.66,2.87
2.1840,0.08,0.12,-0.99,1.46,3.30,2.44
2.1990,0.07,0.12,-0.99,2.14,3.17,2.26
2.2140,0.07,0.12,-0.99,3.11,3.05,2.26
2.2310,0.07,0.13,-1.00,3.36,3.30,2.69
2.2460,0.07,0.14,-0.99,2.81,3.54,4.03
2.2500,0.08,0.13,-0.99,1.77,3.66,5.00
2.2670,0.07,0.12,-1.00,1.53,3.66,4.09
2.2830,0.07,0.12,-0.99,1.34,3.72,3.30
2.3000,0.07,0.13,-0.99,3.66,2.99,3.36
2.3160,0.07,0.13,-0.99,4.39,2.38,3.48
2.3370,0.08,0.13,-1.00,3.91,2.32,3.66
2.3540,0.07,0.13,-1.00,2.20,3.05,4.33
2.3550,0.07,0.12,-1.00,-0.06,4.09,4.21
2.3710,0.07,0.12,-0.99,-0.55,4.33,4.15
2.4000,0.07,0.11,-0.99,0.73,3.54,3.91
2.4050,0.07,0.11,-1.00,2.26,2.62,3.11
2.4330,0.07,0.12,-0.99,2.56,2.32,2.26
2.4490,0.07,0.13,-0.99,2.99,3.23,2.14
2.4650,0.07,0.12,-0.99,2.99,3.05,2.26
2.4810,0.07,0.12,-1.00,3.36,2.50,2.14
2.4970,0.08,0.12,-1.00,2.87,3.17,2.75
2.5120,0.07,0.12,-0.99,2.50,3.72,2.81
2.5210,0.07,0.12,-0.99,2.44,3.54,2.20
2.5400,0.07,0.12,-0.99,2.81,3.78,2.50
2.5540,0.07,0.12,-0.99,3.23,3.30,2.56
2.5710,0.07,0.12,-0.99,3.72,2.69,2.08
2.5880,0.07,0.13,-1.00,3.11,2.26,2.01
2.6040,0.07,0.12,-0.99,2.50,3.17,2.26
2.6210,0.07,0.12,-0.99,2.50,3.30,2.26
2.6370,0.07,0.12,-0.99,3.60,2.87,2.56
2.6540,0.08,0.12,-0.99,3.78,3.11,2.81
2.6700,0.07,0.12,-0.99,2.93,3.23,2.93
2.6850,0.07,0.12,-0.99,3.11,3.17,3.05
2.7010,0.07,0.13,-0.99,3.97,2.99,3.72
2.7170,0.07,0.13,-1.00,3.66,3.23,3.66
2.7320,0.08,0.13,-0.99,2.44,3.48,4.03
2.7400,0.07,0.11,-1.00,2.81,2.87,3.42
2.7530,0.07,0.11,-1.00,1.77,3.23,2.87
2.7760,0.07,0.11,-0.99,1.59,3.66,2.56
2.7930,0.07,0.12,-1.00,2.50,3.17,2.87
2.8100,0.07,0.12,-1.00,1.77,3.23,2.50
2.8260,0.07,0.12,-0.99,1.46,3.91,2.75
2.8420,0.07,0.11,-0.99,2.01,3.91,2.87
2.8570,0.07,0.12,-0.99,2.87,3.17,2.26
2.8720,0.07,0.12,-1.00,4.21,2.93,2.14
2.8890,0.07,0.13,-1.00,3.78,2.87,2.38
2.9050,0.07,0.12,-0.99,3.17,3.23,2.93
2.9090,0.07,0.11,-0.99,3.17,2.87,2.87
2.9370,0.07,0.11,-0.99,3.91,2.32,2.50
2.9520,0.08,0.11,-1.00,4.09,2.56,2.26
2.9590,0.07,0.12,-1.00,4.21,2.44,1.83
2.9750,0.07,0.12,-0.99,4.21,3.05,2.20
2.9950,0.07,0.13,-1.00,3.17,3.05,2.87
3.0110,0.07,0.13,-0.99,2.14,3.30,3.78
3.0280,0.07,0.12,-0.99,1.95,3.17,4.09
3.0450,0.07,0.11,-1.00,2.01,3.48,3.72
3.0620,0.07,0.11,-0.99,2.20,3.48,2.99
3.0770,0.07,0.10,-0.99,2.87,2.99,2.81
3.0940,0.07,0.11,-0.99,3.48,2.99,2.14
3.1100,0.07,0.12,-1.00,3.97,2.50,1.95
3.1260,0.07,0.12,-1.00,2.69,2.81,2.14
3.1410,0.07,0.12,-0.99,2.01,3.66,2.32
3.1570,0.07,0.12,-0.99,3.54,3.60,3.11
3.1720,0.07,0.12,-1.00,2.50,3.54,3.05
3.1880,0.07,0.12,-0.99,2.38,3.36,3.17
3.2040,0.07,0.11,-0.99,3.60,3.05,2.50
3.2190,0.07,0.11,-1.00,4.15,2.32,2.08
3.2280,0.07,0.12,-1.00,3.66,3.36,2.20
3.2460,0.07,0.13,-0.99,2.20,3.85,2.87
3.2620,0.07,0.12,-0.99,2.81,3.78,4.03
3.2800,0.07,0.12,-0.99,2.56,3.60,4.09
3.2950,0.07,0.11,-1.00,2.32,2.87,3.78
3.3110,0.07,0.11,-1.00,2.32,3.66,3.36
3.3280,0.07,0.11,-1.00,1.89,3.97,3.11
3.3440,0.07,0.11,-0.99,2.62,3.66,2.69
3.3600,0.07,0.11,-0.99,2.75,3.17,2.32
3.3760,0.07,0.11,-0.99,3.11,2.87,1.89
3.3910,0.07,0.11,-1.00,3.97,2.93,2.38
3.3950,0.07,0.12,-1.00,3.85,3.23,2.56
3.4110,0.07,0.12,-0.99,4.09,3.42,2.50
3.4320,0.07,0.13,-1.00,3.72,2.99,2.69
3.4490,0.07,0.12,-0.99,2.93,3.17,3.48
3.4650,0.07,0.12,-0.99,3.54,2.69,3.54
3.4810,0.07,0.11,-0.99,3.42,2.38,2.81
3.5000,0.07,0.11,-0.99,3.72,2.32,2.75
3.5010,0.07,0.11,-1.00,5.07,2.93,3.23
3.5310,0.07,0.11,-1.00,4.88,2.56,2.56
3.5470,0.07,0.12,-1.00,4.21,3.17,2.20
3.5500,0.07,0.13,-1.00,3.60,3.72,2.62
3.5660,0.07,0.13,-0.99,2.56,3.54,2.99
3.5890,0.07,0.12,-0.99,2.87,2.99,3.17
3.6060,0.07,0.12,-1.00,2.93,2.93,2.81
3.6210,0.07,0.11,-1.00,2.50,3.36,2.75
3.6380,0.07,0.11,-0.99,2.56,3.54,2.50
3.6550,0.07,0.12,-0.99,3.42,3.78,1.89
3.6710,0.07,0.13,-1.00,3.60,2.99,2.81
3.6870,0.07,0.13,-1.00,2.26,3.91,3.78
3.7040,0.07,0.11,-0.99,1.46,3.54,4.15
3.7190,0.07,0.11,-0.98,2.20,2.26,4.27
3.7340,0.07,0.11,-0.99,3.66,2.26,3.97
3.7500,0.07,0.11,-1.01,4.70,2.32,3.17
3.7650,0.07,0.12,-1.00,3.11,3.23,2.56
3.7720,0.07,0.12,-0.99,3.30,3.66,2.81
3.7870,0.07,0.12,-0.99,3.66,3.11,3.05
3.8090,0.07,0.12,-0.99,2.93,2.87,2.44
3.8260,0.07,0.12,-0.98,3.23,2.44,2.50
3.8430,0.07,0.12,-0.99,4.33,2.01,2.69
3.8590,0.07,0.12,-1.00,4.09,2.44,2.26
3.8750,0.07,0.12,-1.00,3.54,3.17,2.62
3.8910,0.07,0.13,-0.99,3.72,3.30,3.78
3.9070,0.07,0.12,-1.00,3.78,3.11,4.64
3.9220,0.07,0.11,-1.00,3.05,2.56,4.03
3.9380,0.07,0.11,-0.99,3.42,2.38,3.42
3.9540,0.07,0.11,-1.00,3.17,2.50,3.17
3.9590,0.07,0.12,-1.00,3.23,2.99,2.75
3.9750,0.07,0.12,-0.99,3.17,3.36,2.69
3.9970,0.07,0.12,-0.99,2.14,3.11,2.75
4.0140,0.07,0.11,-0.99,3.30,2.93,3.66
4.0320,0.07,0.12,-0.99,3.91,2.62,2.99
4.0470,0.07,0.12,-1.00,3.85,2.50,2.93
4.0630,0.07,0.12,-0.99,3.30,2.81,2.69
4.0790,0.07,0.12,-1.00,3.17,2.81,2.56
4.0810,0.07,0.11,-1.00,2.81,3.05,2.38
4.1110,0.07,0.12,-0.99,3.54,3.05,2.56
4.1140,0.07,0.12,-1.00,3.97,2.87,2.50
4.1420,0.07,0.12,-1.00,4.09,2.93,2.75
4.1470,0.07,0.12,-0.99,3.30,3.42,2.62
4.1700,0.07,0.12,-0.99,2.75,2.75,2.81
4.1870,0.07,0.12,-0.99,3.78,2.20,2.87
4.2030,0.07,0.12,-0.99,4.52,2.87,3.91
4.2200,0.07,0.12,-1.00,4.15,2.56,3.11
4.2220,0.07,0.11,-1.00,3.17,3.17,3.17
4.2420,0.07,0.12,-0.99,2.01,3.54,3.17
4.2670,0.07,0.12,-0.99,1.77,3.36,2.75
4.2820,0.07,0.11,-0.99,1.95,3.11,2.44
4.2980,0.07,0.12,-0.99,3.05,2.87,2.26
4.3140,0.07,0.13,-1.00,3.11,2.99,2.44
4.3290,0.07,0.12,-1.00,1.95,3.30,3.05
4.3450,0.07,0.12,-0.99,2.08,3.66,2.99
4.3530,0.07,0.12,-0.99,3.11,3.23,2.50
4.3700,0.07,0.12,-1.00,3.42,2.99,2.93
4.3870,0.07,0.12,-1.00,3.36,3.30,2.93
4.4040,0.07,0.12,-0.99,3.05,3.11,2.69
4.4210,0.07,0.12,-1.00,3.17,3.36,2.20
4.4370,0.07,0.12,-0.99,2.69,3.48,2.26
4.4530,0.07,0.12,-0.99,2.69,2.69,2.20
4.4690,0.07,0.13,-1.00,3.48,2.99,2.01
4.4700,0.07,0.13,-1.00,2.99,3.72,2.56
4.5000,0.07,0.13,-0.99,2.93,3.60,2.93
4.5150,0.07,0.12,-1.00,2.87,3.36,3.17
4.5310,0.07,0.11,-0.99,1.53,3.36,3.30
4.5470,0.08,0.11,-0.99,2.87,3.54,3.23
4.5620,0.07,0.11,-0.99,3.36,2.93,2.93
4.5770,0.07,0.11,-0.99,3.97,2.56,2.62
4.5930,0.07,0.11,-1.00,3.30,2.62,2.75
4.6040,0.07,0.12,-1.00,2.99,3.30,2.69
4.6190,0.07,0.13,-1.00,2.62,4.33,2.93
4.6370,0.07,0.13,-0.99,2.26,4.09,3.30
4.6540,0.07,0.12,-0.99,2.50,3.66,3.54
4.6710,0.07,0.11,-1.00,2.93,3.23,4.03
4.6870,0.07,0.11,-1.00,2.62,3.36,3.30
4.7010,0.07,0.12,-0.99,2.20,3.17,3.05
4.7170,0.07,0.11,-0.99,2.01,2.93,3.42
4.7330,0.07,0.10,-0.99,3.54,2.50,2.44
4.7480,0.07,0.11,-1.00,4.64,2.08,2.26
4.7540,0.07,0.12,-1.00,5.37,2.69,2.38
4.7810,0.07,0.12,-1.00,3.54,3.42,2.69
4.7970,0.07,0.12,-1.00,2.81,3.48,2.62
4.8120,0.07,0.12,-0.99,3.23,2.75,2.50
4.8270,0.07,0.12,-1.00,4.39,2.20,2.56
4.8370,0.07,0.12,-1.00,3.72,2.81,2.20
4.8540,0.07,0.13,-1.00,2.93,3.05,2.62
4.8700,0.07,0.12,-0.99,2.75,3.36,3.23
4.8870,0.07,0.12,-0.99,3.30,3.48,2.81
4.9040,0.07,0.11,-1.00,3.91,3.42,2.87
4.9210,0.07,0.12,-1.00,3.17,3.11,2.87
4.9370,0.07,0.12,-1.00,3.42,2.81,2.93
4.9540,0.08,0.12,-0.99,3.30,3.42,2.75
4.9700,0.07,0.12,-0.99,4.33,3.30,2.69
4.9870,0.08,0.12,-0.99,4.64,2.38,3.60
4.9890,0.07,0.12,-1.00,4.09,2.44,3.30
5.0040,0.07,0.12,-1.00,2.87,3.23,2.75
5.0350,0.07,0.12,-0.99,2.38,3.66,2.87
5.0510,0.08,0.12,-0.99,3.48,3.30,3.11
5.0670,0.07,0.12,-0.99,4.03,2.75,2.62
5.0820,0.07,0.12,-1.00,4.76,2.44,2.99
5.0990,0.07,0.12,-1.00,4.21,2.69,3.54
5.1040,0.07,0.12,-1.00,3.42,2.93,3.36
5.1200,0.07,0.12,-1.00,2.08,3.48,2.99
5.1430,0.08,0.12,-0.99,1.34,3.85,3.42
5.1570,0.07,0.12,-0.99,2.81,3.30,3.17
5.1730,0.07,0.11,-1.00,3.54,2.87,3.17
5.1900,0.07,0.12,-1.00,3.11,4.15,3.05
5.2060,0.07,0.12,-1.00,2.01,4.64,2.99
5.2230,0.07,0.12,-0.99,2.08,4.88,2.75
5.2400,0.07,0.12,-0.99,2.87,3.17,2.62
5.2560,0.07,0.12,-0.99,2.81,2.44,2.75
5.2710,0.07,0.12,-1.00,3.17,2.32,2.99
5.2860,0.07,0.11,-0.99,3.97,2.81,3.11
5.3020,0.07,0.11,-1.00,4.27,2.87,2.87
5.3170,0.07,0.12,-1.00,4.09,2.87,2.20
5.3330,0.07,0.12,-1.00,2.93,3.11,2.08
5.3480,0.07,0.13,-1.00,2.14,3.11,2.62
5.3640,0.07,0.13,-0.99,2.08,2.75,3.54
5.3730,0.07,0.12,-0.99,2.81,3.05,3.66
5.3910,0.07,0.11,-1.00,3.91,2.87,3.66
5.4070,0.07,0.11,-1.00,3.36,3.36,3.36
5.4230,0.07,0.11,-1.00,2.99,3.05,2.56
5.4430,0.07,0.11,-1.00,2.75,3.11,2.38
5.4590,0.07,0.12,-0.99,2.87,3.66,2.08
5.4760,0.07,0.11,-0.99,2.99,3.91,2.20
5.4920,0.07,0.12,-0.99,4.27,3.30,2.01
5.5090,0.07,0.12,-1.00,3.30,2.93,2.01
5.5250,0.07,0.12,-1.00,1.83,3.30,1.77
5.5400,0.07,0.12,-0.99,1.46,3.78,2.44
5.5550,0.07,0.11,-0.99,2.93,3.48,2.26
5.5730,0.08,0.11,-1.00,4.33,2.38,2.14
5.5760,0.08,0.12,-1.00,5.62,3.30,1.89
5.5920,0.08,0.13,-1.00,4.09,3.30,1.83
5.6130,0.07,0.13,-1.00,2.20,3.91,2.08
5.6290,0.06,0.12,-0.99,0.49,3.97,3.11
5.6460,0.07,0.11,-0.98,1.95,3.23,3.11
5.6640,0.08,0.11,-1.00,4.76,2.08,2.20
5.6800,0.07,0.13,-1.00,4.82,2.69,2.32
5.6960,0.07,0.13,-0.99,3.30,3.36,2.87
5.7130,0.07,0.12,-1.00,2.81,3.30,3.78
5.7300,0.07,0.11,-0.99,3.17,2.69,2.62
5.7450,0.07,0.11,-0.99,4.21,2.20,2.01
5.7600,0.08,0.13,-1.00,5.25,2.50,2.01
5.7630,0.07,0.13,-1.00,2.62,2.93,1.95
5.7780,0.07,0.12,-0.99,0.85,3.48,1.95
5.8010,0.08,0.11,-0.99,3.91,3.78,2.08
5.8170,0.07,0.12,-1.00,3.91,3.17,2.08
5.8340,0.07,0.12,-0.99,3.54,3.66,2.32
5.8510,0.07,0.11,-0.99,3.11,3.05,2.38
5.8670,0.07,0.11,-0.99,3.66,1.89,1.95
5.8830,0.07,0.12,-0.99,5.55,2.20,1.83
5.9000,0.08,0.12,-1.00,6.04,2.38,1.65
5.9020,0.08,0.13,-1.00,4.09,2.81,1.34
5.9330,0.08,0.10,-0.99,2.20,3.42,1.83
5.9440,0.07,0.12,-0.99,2.08,2.99,1.89
5.9650,0.07,0.11,-0.99,4.39,2.62,1.95
5.9670,0.07,0.12,-0.99,6.71,1.59,2.20
5.9840,0.08,0.13,-0.99,8.00,1.83,2.26
6.0000,0.08,0.13,-1.00,6.65,2.01,2.14
6.0220,0.08,0.13,-0.99,4.39,2.93,2.14
6.0390,0.08,0.13,-1.00,4.21,2.69,2.01
6.0560,0.08,0.12,-0.99,4.46,2.20,1.95
6.0720,0.08,0.12,-0.99,5.49,2.01,2.01
6.0870,0.08,0.13,-0.99,5.68,2.01,2.01
6.1030,0.08,0.13,-1.00,5.19,2.26,2.20
6.1050,0.08,0.13,-0.99,4.39,2.56,1.95
6.1210,0.08,0.13,-0.99,4.03,2.38,1.89
6.1440,0.08,0.13,-0.99,4.15,2.44,1.95
6.1600,0.08,0.13,-0.99,4.94,2.44,2.08
6.1770,0.08,0.13,-1.00,5.80,2.14,2.01
6.1930,0.08,0.13,-0.99,4.94,2.81,2.20
6.2090,0.08,0.13,-0.99,4.64,2.87,2.08
6.2250,0.08,0.14,-0.99,4.52,3.05,2.14
6.2410,0.08,0.13,-0.99,3.66,3.11,2.01
6.2560,0.08,0.13,-0.99,3.42,3.23,2.01
6.2710,0.08,0.14,-0.99,3.05,3.72,2.20
6.2860,0.08,0.13,-0.99,2.32,2.99,1.83
6.3010,0.08,0.13,-0.99,2.62,2.87,2.08
6.3170,0.08,0.13,-0.99,3.36,2.62,2.01
6.3260,0.08,0.14,-0.99,4.09,3.30,2.01
6.3450,0.08,0.14,-0.99,1.89,3.48,2.01
6.3620,0.08,0.15,-0.99,3.05,3.36,2.26
6.3770,0.08,0.13,-0.99,1.28,3.60,1.83
6.3770,0.08,0.13,-1.00,1.28,3.05,1.89
6.3950,0.08,0.13,-0.99,3.23,3.30,2.14
6.4220,0.08,0.13,-0.99,4.03,2.93,2.20
6.4380,0.08,0.13,-0.99,4.46,3.48,2.26
6.4540,0.08,0.13,-0.99,4.33,3.60,2.20
6.4690,0.08,0.13,-0.99,3.11,3.48,2.14
6.4850,0.08,0.13,-0.99,2.62,3.91,2.20
6.4930,0.08,0.13,-0.99,3.42,3.85,2.50
6.5090,0.08,0.13,-0.99,4.09,3.97,2.32
6.5310,0.08,0.14,-1.00,3.66,3.48,2.26
6.5470,0.08,0.14,-1.00,1.89,3.97,2.20
6.5630,0.08,0.10,-0.98,0.24,4.03,1.89
6.5790,0.07,0.11,-0.98,1.77,4.39,2.20
6.5820,0.07,0.13,-1.00,3.17,3.42,2.01
6.5970,0.07,0.13,-1.00,4.27,3.11,2.08
6.6130,0.09,0.11,-0.98,4.52,3.30,2.01
6.6410,0.08,0.14,-0.99,4.09,2.81,2.20
6.6510,0.08,0.13,-0.99,3.30,3.48,1.89
6.6700,0.08,0.13,-0.99,3.60,3.11,2.01
6.6840,0.08,0.13,-0.99,4.21,3.30,2.14
6.7020,0.07,0.16,-0.99,7.02,3.97,2.81
6.7180,0.07,0.12,-0.99,2.93,3.48,2.26
6.7340,0.07,0.14,-1.00,3.30,3.17,2.14
6.7500,0.08,0.13,-0.99,2.50,3.05,1.89
6.7530,0.08,0.13,-0.99,2.56,3.17,2.01
6.7820,0.08,0.13,-0.99,2.38,3.17,1.95
6.7990,0.08,0.13,-0.99,2.93,2.99,2.14
6.8130,0.08,0.13,-0.99,2.44,2.75,1.95
6.8190,0.08,0.13,-0.99,2.44,3.42,2.01
6.8350,0.08,0.13,-0.99,2.20,3.60,2.14
6.8510,0.08,0.13,-0.99,2.38,3.23,2.01
6.8680,0.07,0.12,-0.98,3.30,3.36,2.26
6.8850,0.08,0.14,-1.00,4.09,3.66,2.20
6.9010,0.07,0.13,-0.99,2.56,3.66,2.01
6.9180,0.08,0.13,-1.00,3.17,3.36,2.08
6.9340,0.08,0.13,-0.99,3.48,3.17,2.08
6.9490,0.08,0.13,-0.99,3.11,3.48,2.01
6.9650,0.08,0.13,-0.99,3.23,3.60,2.14
6.9810,0.08,0.13,-0.99,3.36,3.17,2.08
6.9960,0.08,0.13,-0.99,3.30,3.42,2.08
7.0120,0.08,0.13,-0.99,3.11,3.48,2.08
7.0270,0.08,0.13,-0.99,3.30,3.11,1.89
7.0420,0.07,0.13,-0.99,3.23,2.99,2.14
7.0510,0.08,0.13,-0.99,3.30,2.81,2.14
7.0690,0.08,0.13,-0.99,3.54,2.99,2.01
7.0860,0.08,0.13,-0.99,3.42,2.93,1.95
7.1030,0.08,0.13,-0.99,3.48,2.99,1.89
7.1170,0.08,0.13,-0.99,3.60,3.30,2.14
7.1330,0.08,0.13,-0.99,3.48,2.99,2.14
7.1460,0.08,0.13,-0.99,3.17,3.17,2.08
7.1580,0.08,0.13,-0.99,3.36,3.17,1.95
7.1750,0.08,0.13,-0.99,3.23,3.17,2.14
7.1910,0.08,0.13,-0.99,3.30,3.66,2.08
7.2090,0.07,0.13,-0.99,3.54,3.78,2.08
7.2250,0.08,0.13,-0.99,2.44,3.17,1.95
7.2410,0.08,0.13,-0.99,3.30,2.87,2.14
7.2560,0.08,0.13,-0.99,3.05,3.30,2.08
7.2710,0.08,0.13,-0.99,3.48,3.17,2.08
7.2760,0.08,0.13,-0.99,3.48,3.05,1.95
7.2910,0.08,0.12,-0.98,3.30,2.87,2.01
7.3140,0.08,0.13,-0.99,3.05,2.81,2.14
7.3310,0.08,0.14,-0.99,3.85,3.42,2.01
7.3470,0.08,0.13,-0.99,2.69,2.87,1.89
7.3640,0.08,0.13,-0.99,2.93,2.81,2.08
7.3650,0.08,0.13,-0.99,3.42,3.23,1.89
7.3970,0.08,0.13,-0.99,2.99,3.23,2.01
7.3980,0.08,0.13,-1.00,3.17,3.36,1.95
7.4280,0.08,0.13,-0.99,2.32,3.42,2.14
7.4310,0.08,0.13,-0.99,3.60,3.17,2.14
7.4480,0.08,0.13,-0.99,4.70,2.99,2.01
7.4640,0.08,0.14,-0.99,4.52,3.30,2.08
7.4810,0.08,0.13,-0.99,2.26,3.05,1.89
7.4960,0.08,0.13,-1.00,3.91,3.78,2.01
7.5170,0.08,0.13,-0.99,2.81,3.54,2.01
7.5350,0.08,0.12,-0.99,3.17,3.17,2.26
7.5510,0.08,0.13,-0.99,4.94,3.23,2.26
7.5680,0.08,0.13,-0.99,5.13,3.23,2.32
7.5850,0.08,0.14,-1.00,5.43,3.23,2.26
7.6010,0.08,0.14,-0.99,3.30,3.54,2.20
7.6180,0.08,0.14,-1.00,1.04,3.72,1.89
7.6350,0.08,0.12,-0.99,0.31,3.23,1.65
7.6510,0.08,0.13,-0.99,4.15,2.93,2.08
7.6670,0.08,0.13,-0.99,4.27,2.81,2.08
7.6680,0.08,0.14,-1.00,3.11,3.05,2.01
7.6860,0.08,0.13,-1.00,2.20,3.05,1.95
7.7150,0.08,0.13,-0.99,2.14,3.54,1.95
7.7310,0.08,0.13,-0.99,2.14,3.23,2.08
7.7470,0.08,0.13,-0.99,2.62,3.48,2.75
7.7630,0.08,0.13,-0.99,2.81,3.11,2.32
7.7800,0.07,0.13,-0.99,3.66,3.60,2.50
7.7950,0.07,0.14,-1.00,3.23,3.30,3.78
7.8100,0.08,0.13,-0.99,2.56,2.99,3.72
7.8180,0.08,0.13,-0.99,1.71,3.17,3.05
7.8330,0.08,0.13,-0.99,2.26,3.36,3.17
7.8550,0.08,0.13,-0.99,4.03,3.05,4.21
7.8710,0.08,0.13,-0.99,3.23,3.66,3.11
7.8870,0.08,0.13,-1.00,2.50,3.17,2.20
7.9020,0.07,0.12,-0.99,3.36,3.05,1.95
7.9160,0.07,0.13,-0.99,3.85,3.05,1.71
7.9310,0.08,0.13,-1.00,3.42,3.05,1.95
7.9470,0.08,0.13,-0.99,2.26,3.48,1.83
7.9620,0.07,0.14,-0.99,1.53,3.42,2.38
7.9730,0.08,0.12,-0.99,3.36,3.42,2.56
7.9890,0.08,0.13,-0.99,2.81,3.11,1.46
8.0050,0.08,0.13,-0.99,3.11,2.62,1.65
8.0230,0.07,0.13,-0.99,3.72,3.42,1.34
8.0400,0.08,0.13,-0.99,2.14,3.91,1.83
8.0560,0.08,0.13,-0.99,2.01,3.85,1.53
8.0710,0.07,0.13,-1.00,2.38,3.48,1.10
8.0880,0.07,0.13,-0.99,2.56,3.66,1.77
8.1040,0.07,0.14,-0.99,2.44,3.72,2.99
8.1200,0.07,0.14,-0.99,2.87,3.11,3.72
8.1340,0.07,0.14,-0.99,3.42,3.23,3.72
8.1500,0.08,0.12,-1.00,3.60,2.81,2.87
8.1650,0.08,0.11,-0.99,3.66,2.87,2.32
8.1810,0.07,0.12,-1.00,4.58,2.50,2.08
8.1960,0.07,0.13,-0.99,2.50,3.11,2.01
8.2110,0.08,0.13,-0.99,2.62,2.50,1.95
8.2230,0.08,0.13,-1.00,2.81,3.23,2.20
8.2390,0.08,0.13,-1.00,2.32,3.78,2.14
8.2560,0.07,0.13,-0.99,1.95,3.30,2.08
8.2720,0.08,0.13,-0.99,2.56,3.36,1.71
8.2880,0.07,0.12,-0.99,2.99,3.36,1.59
8.3040,0.08,0.13,-0.99,3.05,2.81,1.71
8.3060,0.07,0.13,-0.99,2.69,2.75,1.59
8.3210,0.07,0.14,-1.00,2.32,3.36,1.46
8.3500,0.07,0.14,-0.99,2.62,4.03,1.89
8.3660,0.07,0.13,-0.99,2.62,3.66,2.87
8.3770,0.07,0.13,-0.99,3.60,3.48,3.42
8.3930,0.07,0.12,-0.99,3.85,3.54,3.78
8.4100,0.08,0.12,-1.00,4.21,3.48,3.78
8.4260,0.08,0.13,-0.99,2.08,4.03,2.81
8.4420,0.08,0.12,-0.99,1.22,3.85,2.62
8.4590,0.07,0.12,-0.99,1.71,3.05,1.59
8.4750,0.08,0.12,-0.99,3.05,3.36,1.77
8.4900,0.07,0.13,-1.00,3.66,3.11,1.83
8.4930,0.08,0.13,-1.00,3.48,2.75,1.83
8.5080,0.07,0.12,-0.99,3.30,2.69,2.44
8.5310,0.07,0.13,-0.99,3.36,3.17,2.56
8.5490,0.07,0.13,-1.00,2.56,3.17,2.38
8.5660,0.07,0.14,-0.99,2.93,3.17,2.32
8.5800,0.07,0.14,-0.99,3.91,3.23,3.60
8.5990,0.07,0.13,-1.00,3.11,3.36,4.21
8.6140,0.07,0.13,-1.00,1.89,3.05,3.78
8.6300,0.07,0.12,-0.99,1.34,3.42,3.66
8.6470,0.08,0.11,-0.99,1.28,3.42,3.11
8.6490,0.08,0.12,-0.99,2.38,3.54,2.62
8.6780,0.07,0.12,-0.99,3.85,3.17,2.75
8.6800,0.07,0.13,-0.99,3.48,3.05,2.69
8.6980,0.08,0.13,-1.00,3.17,2.44,2.56
8.7140,0.07,0.12,-0.99,2.75,2.62,2.93
8.7290,0.07,0.12,-1.00,3.85,2.38,2.87
8.7510,0.07,0.12,-0.99,3.66,2.87,2.69
8.7680,0.07,0.13,-1.00,3.42,3.78,3.17
8.7870,0.08,0.13,-0.99,3.54,3.11,3.30
8.8020,0.07,0.12,-0.99,2.99,3.11,2.87
8.8190,0.07,0.12,-0.99,3.30,2.81,2.62
8.8340,0.07,0.12,-1.00,3.23,3.05,2.75
8.8510,0.07,0.12,-0.99,1.95,3.60,2.69
8.8530,0.07,0.12,-0.99,2.08,3.72,2.62
8.8830,0.07,0.12,-0.99,2.69,3.91,2.81
8.8980,0.07,0.13,-0.99,3.91,2.93,3.05
8.9140,0.07,0.13,-1.00,3.11,3.11,3.11
8.9200,0.08,0.13,-0.99,2.93,3.66,3.72
8.9370,0.08,0.12,-0.99,3.36,3.30,3.97
8.9530,0.07,0.12,-0.99,3.30,2.81,3.78
8.9710,0.07,0.12,-1.00,3.97,2.56,3.54
8.9870,0.07,0.11,-1.00,4.09,2.81,3.48
9.0040,0.07,0.11,-1.00,3.91,2.44,2.81
9.0200,0.07,0.13,-0.99,3.85,3.17,2.56
9.0370,0.07,0.13,-0.99,4.09,3.60,2.99
9.0530,0.07,0.13,-0.99,3.30,2.87,3.23
9.0700,0.07,0.12,-1.00,2.50,3.11,2.56
9.0870,0.08,0.12,-0.99,2.14,3.23,2.32
9.1030,0.07,0.12,-0.99,3.42,3.30,2.08
9.1200,0.08,0.13,-0.99,4.33,3.60,2.14
9.1350,0.07,0.13,-0.99,4.21,3.66,2.44
9.1510,0.07,0.13,-0.99,3.54,3.66,3.05
9.1660,0.07,0.13,-1.00,3.11,3.11,2.56
9.1830,0.07,0.12,-0.99,1.95,2.99,2.87
9.1980,0.07,0.13,-0.99,2.75,2.87,3.17
9.2130,0.07,0.13,-0.99,3.54,2.87,3.78
9.2290,0.08,0.12,-0.99,3.30,3.17,3.17
9.2450,0.08,0.13,-0.99,2.93,3.54,2.93
9.2590,0.07,0.13,-0.99,3.36,3.23,3.54
9.2700,0.08,0.12,-1.00,2.62,3.30,2.69
9.2870,0.07,0.12,-0.99,2.14,2.93,1.89
9.3040,0.07,0.12,-1.00,2.93,2.81,2.26
9.3190,0.07,0.12,-0.99,3.23,2.81,2.69
9.3360,0.07,0.12,-0.99,4.27,2.87,3.17
9.3540,0.07,0.13,-0.99,3.85,3.11,2.81
9.3690,0.07,0.13,-0.99,2.99,3.17,2.81
9.3870,0.07,0.13,-0.99,2.32,3.42,2.32
9.4030,0.07,0.12,-0.99,2.81,3.05,2.69
9.4190,0.07,0.11,-0.99,3.48,3.48,2.01
9.4210,0.07,0.13,-0.99,4.33,3.42,2.26
9.4510,0.07,0.13,-1.00,3.85,2.62,1.89
9.4670,0.08,0.13,-1.00,1.95,2.99,2.01
9.4820,0.07,0.13,-0.98,2.14,3.42,1.65
9.4970,0.07,0.12,-1.00,4.27,3.05,1.59
9.5120,0.07,0.13,-1.00,3.85,3.30,2.93
9.5290,0.07,0.13,-0.99,2.56,2.99,2.99
9.5460,0.08,0.12,-0.99,3.11,3.11,2.93
9.5610,0.08,0.13,-1.00,3.30,2.69,2.81
9.5700,0.07,0.14,-0.99,3.66,3.48,3.42
9.5860,0.07,0.14,-0.99,3.42,3.48,4.52
9.6040,0.07,0.13,-0.99,3.66,3.17,4.46
9.6200,0.07,0.12,-1.00,2.26,2.87,4.39
9.6370,0.07,0.12,-0.99,1.40,2.93,3.91
9.6520,0.07,0.11,-0.99,2.56,3.42,3.60
9.6660,0.08,0.12,-0.99,2.93,3.17,2.87
9.6820,0.08,0.12,-1.00,3.17,3.11,2.93
9.6970,0.07,0.12,-0.99,3.60,3.60,3.11
9.7120,0.07,0.13,-0.99,2.56,3.48,2.81
9.7240,0.08,0.13,-0.99,3.36,2.75,3.42
9.7390,0.07,0.12,-0.99,3.42,2.93,3.97
9.7590,0.07,0.12,-0.99,3.23,2.81,3.91
9.7750,0.07,0.12,-1.00,3.17,3.17,3.48
9.7900,0.07,0.12,-0.99,2.81,3.66,3.42
9.8050,0.07,0.13,-0.99,2.44,3.30,3.23
9.8210,0.07,0.13,-0.99,2.26,3.23,3.11
9.8370,0.08,0.13,-0.99,2.62,3.17,3.66
9.8520,0.07,0.12,-0.99,3.05,3.48,3.54
9.8670,0.07,0.13,-0.99,2.93,3.23,3.17
9.8830,0.07,0.12,-0.99,2.75,2.81,3.54
9.8930,0.07,0.12,-0.99,2.81,2.44,3.30
9.9090,0.07,0.12,-1.00,3.11,3.05,3.23
9.9270,0.07,0.13,-0.99,3.17,3.30,4.15
9.9450,0.07,0.13,-0.99,3.05,3.30,4.27
9.9600,0.07,0.13,-0.99,2.75,3.60,4.15
9.9760,0.07,0.12,-0.99,3.05,3.42,3.72
9.9930,0.07,0.11,-0.99,4.03,2.81,2.81
10.0080,0.07,0.12,-1.00,3.91,2.87,2.08
10.0250,0.07,0.13,-1.00,3.91,3.48,2.75
10.0400,0.07,0.13,-0.99,2.87,3.23,3.30
10.0550,0.07,0.13,-0.99,2.75,2.81,3.23
10.0590,0.07,0.13,-0.99,3.30,2.62,3.11
10.0850,0.07,0.12,-0.99,3.30,2.93,3.23
10.1000,0.07,0.11,-0.99,3.85,3.11,2.99
10.1150,0.07,0.13,-1.00,3.60,3.48,2.50
10.1270,0.07,0.13,-1.00,2.99,3.48,3.11
10.1450,0.07,0.13,-0.99,2.81,3.42,3.36
10.1610,0.08,0.13,-0.99,2.20,3.42,3.91
10.1760,0.08,0.12,-0.99,3.54,2.56,3.85
10.1920,0.07,0.12,-1.00,3.72,2.81,3.23
10.2090,0.07,0.12,-1.00,3.30,3.23,3.42
10.2250,0.07,0.12,-0.99,3.60,3.11,3.60
10.2410,0.07,0.12,-0.99,3.72,2.69,3.17
10.2560,0.07,0.13,-1.00,3.54,2.75,3.05
10.2710,0.07,0.13,-0.99,3.23,3.23,3.30
10.2870,0.07,0.13,-0.99,3.42,3.54,4.21
10.3030,0.07,0.12,-1.00,3.48,2.75,4.09
10.3190,0.07,0.12,-1.00,2.99,2.50,3.66
10.3330,0.08,0.12,-1.00,2.69,3.11,3.36
10.3440,0.07,0.12,-1.00,3.11,3.85,3.78
10.3590,0.07,0.12,-0.99,2.99,4.27,3.78
10.3770,0.07,0.12,-0.99,2.44,3.48,3.66
10.3940,0.07,0.12,-0.99,2.14,2.81,3.23
10.4100,0.07,0.12,-0.99,2.26,2.81,2.99
10.4270,0.07,0.12,-0.99,3.91,2.44,2.99
10.4440,0.07,0.13,-1.00,4.15,2.69,3.23
10.4590,0.07,0.13,-0.99,3.11,3.60,3.97
10.4750,0.08,0.13,-0.99,3.54,2.50,4.03
10.4910,0.07,0.12,-1.00,3.72,2.14,3.91
10.4930,0.07,0.11,-1.00,2.50,2.93,3.36
10.5210,0.07,0.12,-0.99,2.99,3.30,3.36
10.5370,0.07,0.13,-0.99,3.66,3.42,3.66
10.5520,0.07,0.13,-0.99,3.60,2.56,3.85
10.5680,0.07,0.12,-0.99,2.87,3.05,3.54
10.5830,0.07,0.12,-0.99,2.38,3.05,3.72
10.5930,0.07,0.12,-1.00,2.75,3.36,3.36
10.6110,0.07,0.13,-0.99,2.93,3.42,3.23
10.6260,0.07,0.12,-0.99,2.87,3.36,3.42
10.6430,0.07,0.12,-0.99,3.30,2.99,2.69
10.6600,0.07,0.13,-1.00,3.78,2.87,3.30
10.6760,0.07,0.13,-0.99,3.54,3.23,3.66
10.6920,0.07,0.13,-1.00,3.36,3.17,3.91
10.7060,0.07,0.13,-0.99,2.38,2.87,3.78
10.7210,0.07,0.12,-0.99,3.60,2.56,3.97
10.7370,0.07,0.11,-0.99,3.78,3.11,3.30
10.7540,0.07,0.12,-1.00,4.64,2.44,3.11
10.7690,0.08,0.13,-1.00,5.13,2.99,4.33
10.7760,0.08,0.13,-0.99,3.66,3.85,4.39
10.7920,0.07,0.13,-0.99,1.53,3.17,3.30
10.8160,0.07,0.12,-0.99,1.77,2.14,3.23
10.8320,0.07,0.11,-1.00,2.08,2.32,3.11
10.8480,0.07,0.12,-0.99,2.87,3.30,3.05
10.8640,0.07,0.12,-0.99,2.69,3.60,2.81
10.8810,0.07,0.13,-0.99,2.08,3.85,2.87
10.8960,0.07,0.13,-0.99,2.38,3.36,3.05
10.8990,0.07,0.12,-0.99,2.87,2.75,3.11
10.9150,0.07,0.12,-1.00,4.39,2.38,3.23
10.9380,0.07,0.12,-1.00,4.21,2.81,2.81
10.9550,0.07,0.12,-0.99,3.54,3.42,2.75
10.9730,0.07,0.13,-0.99,4.39,2.99,3.17
10.9890,0.08,0.12,-0.99,4.76,2.69,3.48
11.0050,0.07,0.12,-1.00,5.37,2.75,3.36
11.0210,0.07,0.12,-1.00,4.82,3.36,3.05
11.0370,0.07,0.13,-0.99,4.58,2.93,3.36
11.0520,0.07,0.14,-0.99,3.72,2.87,4.33
11.0670,0.07,0.13,-0.99,2.26,2.99,4.64
11.0840,0.07,0.12,-1.00,2.56,2.32,4.15
11.0900,0.07,0.12,-0.99,1.65,3.66,3.97
11.1160,0.07,0.12,-0.99,1.53,3.72,3.54
11.1220,0.07,0.11,-0.99,2.38,3.60,3.48
11.1380,0.07,0.11,-1.00,3.54,3.17,2.93
11.1600,0.07,0.12,-0.99,3.17,2.87,1.83
11.1770,0.07,0.13,-1.00,3.48,2.44,1.71
11.1920,0.07,0.12,-1.00,1.65,3.42,1.95
11.2090,0.07,0.13,-0.99,2.93,3.48,1.83
11.2250,0.07,0.11,-0.99,3.91,2.38,2.44
11.2420,0.07,0.12,-1.00,3.85,2.08,1.83
11.2570,0.08,0.13,-1.00,3.91,2.87,2.20
11.2730,0.07,0.13,-1.00,3.48,3.23,2.38
11.2880,0.07,0.13,-0.99,3.11,3.36,3.05
11.3030,0.07,0.13,-0.99,2.44,3.54,3.42
11.3180,0.07,0.13,-0.99,2.26,3.17,3.42
11.3270,0.07,0.12,-1.00,2.87,2.99,3.48
11.3430,0.07,0.12,-1.00,3.05,2.69,3.36
11.3660,0.08,0.11,-1.00,2.69,3.17,3.23
11.3760,0.07,0.12,-0.99,2.50,3.66,2.75
11.3920,0.07,0.12,-0.99,3.78,3.05,2.75
11.4140,0.07,0.12,-1.00,3.05,3.30,2.75
11.4290,0.07,0.13,-0.99,2.14,3.66,2.56
11.4470,0.08,0.13,-0.99,1.89,3.17,2.75
11.4630,0.07,0.12,-0.99,2.87,2.87,3.05
11.4800,0.07,0.12,-0.99,3.72,3.11,2.99
11.4800,0.07,0.13,-0.99,3.23,2.99,3.23
11.5100,0.07,0.12,-0.99,3.17,2.56,3.23
11.5130,0.07,0.12,-1.00,2.81,2.62,3.11
11.5420,0.07,0.12,-0.99,2.14,3.42,3.85
11.5530,0.07,0.12,-0.99,3.23,3.30,3.72
11.5630,0.07,0.12,-0.99,4.09,3.36,3.30
11.5790,0.07,0.13,-1.00,3.85,2.99,3.78
11.6000,0.07,0.13,-1.00,1.95,2.62,3.66
11.6160,0.08,0.12,-0.99,2.20,2.20,3.36
11.6330,0.08,0.12,-0.99,3.60,3.17,3.66
11.6490,0.08,0.12,-0.99,3.97,3.48,4.03
11.6660,0.08,0.12,-1.00,3.78,3.23,3.72
11.6810,0.07,0.12,-0.99,2.08,3.85,3.66
11.6830,0.07,0.12,-1.00,1.77,2.81,3.42
11.7130,0.07,0.11,-0.99,1.77,3.05,4.15
11.7160,0.07,0.11,-1.00,2.38,3.05,2.99
11.7330,0.07,0.11,-1.00,2.75,3.23,2.75
11.7610,0.07,0.11,-0.99,3.36,2.87,2.62
11.7660,0.07,0.13,-0.99,3.11,2.99,2.38
11.7820,0.07,0.13,-0.99,2.93,3.48,2.69
11.8060,0.07,0.12,-0.99,2.99,3.60,3.05
11.8220,0.07,0.12,-0.99,3.42,2.87,2.14
11.8380,0.08,0.12,-1.00,4.09,3.05,2.26
11.8540,0.07,0.12,-0.99,4.15,2.75,2.32
11.8700,0.07,0.12,-1.00,3.36,2.69,2.75
11.8860,0.07,0.13,-0.99,1.71,3.30,3.48
11.8880,0.07,0.13,-0.99,2.26,3.17,3.91
11.9160,0.07,0.12,-0.99,4.33,2.87,3.91
11.9320,0.07,0.10,-1.00,3.91,2.62,3.72
11.9390,0.07,0.11,-1.00,2.56,2.81,2.56
11.9640,0.07,0.11,-0.99,2.44,3.05,2.44
11.9710,0.07,0.12,-1.00,2.87,2.44,2.26
11.9870,0.07,0.12,-0.99,3.17,3.17,2.26
12.0090,0.08,0.12,-0.99,3.66,3.48,2.75
12.0260,0.07,0.12,-1.00,3.17,2.99,2.32
12.0440,0.07,0.12,-0.99,3.23,2.93,2.38
12.0590,0.07,0.12,-1.00,3.85,2.75,2.56
12.0750,0.07,0.12,-0.99,3.72,2.93,2.81
12.0910,0.07,0.11,-1.00,3.48,3.54,2.44
12.1070,0.07,0.12,-1.00,3.60,3.11,2.14
12.1230,0.07,0.13,-0.98,2.50,3.66,2.50
12.1380,0.07,0.12,-1.00,4.46,2.50,2.99
12.1540,0.07,0.12,-1.00,4.09,2.87,3.30
12.1580,0.07,0.12,-1.00,3.66,3.30,3.60
12.1790,0.08,0.12,-1.00,2.81,3.05,3.23
12.1950,0.07,0.12,-0.99,2.75,3.17,3.17
12.2120,0.07,0.13,-0.99,2.87,3.17,3.30
12.2290,0.07,0.12,-1.00,3.85,2.62,3.60
12.2450,0.08,0.11,-1.00,3.60,3.30,3.42
12.2620,0.08,0.11,-0.99,3.30,3.36,2.99
12.2790,0.07,0.12,-0.99,3.72,3.60,2.20
12.2950,0.07,0.12,-1.00,3.78,3.17,2.14
12.3110,0.07,0.12,-0.99,3.36,3.42,2.56
12.3270,0.07,0.13,-0.99,4.09,2.75,3.05
12.3430,0.08,0.13,-0.99,4.70,2.81,4.09
12.3540,0.08,0.13,-0.99,4.52,3.11,4.46
12.3610,0.07,0.13,-1.00,3.36,3.05,4.52
12.3850,0.07,0.13,-0.99,1.28,3.91,4.46
12.4020,0.07,0.12,-1.00,0.31,3.48,3.78
12.4180,0.07,0.12,-0.99,0.00,3.48,3.30
12.4360,0.07,0.11,-0.99,3.78,2.81,3.78
12.4510,0.07,0.12,-1.00,4.64,2.87,3.91
12.4670,0.07,0.12,-1.00,3.54,3.36,3.85
12.4830,0.07,0.12,-0.99,1.95,3.05,3.78
12.4980,0.07,0.11,-0.99,2.69,2.93,3.48
12.5000,0.07,0.11,-0.99,3.48,2.99,3.05
12.5180,0.07,0.12,-1.00,3.91,2.69,2.44
12.5450,0.07,0.12,-0.99,3.48,2.44,1.83
12.5550,0.07,0.12,-0.99,3.54,2.44,1.95
12.5670,0.07,0.12,-0.99,3.30,2.87,1.83
12.5900,0.08,0.12,-1.00,4.39,2.08,1.89
12.6060,0.07,0.12,-1.00,3.05,2.81,1.83
12.6210,0.07,0.12,-1.00,2.32,2.87,1.83
12.6370,0.07,0.12,-0.99,1.95,2.69,1.83
12.6530,0.07,0.11,-0.98,3.91,1.89,1.89
12.6700,0.07,0.12,-0.99,5.92,1.83,2.26
12.6850,0.08,0.13,-1.00,6.41,1.83,2.20
12.6910,0.08,0.12,-1.00,4.88,2.44,2.20
12.7060,0.07,0.12,-0.99,4.82,2.75,2.14
12.7270,0.08,0.13,-1.00,5.31,3.11,2.20
12.7430,0.08,0.13,-1.00,4.33,3.17,2.26
12.7600,0.06,0.13,-1.00,3.42,4.21,2.69
12.7770,0.09,0.11,-0.98,3.54,2.87,2.69
12.7950,0.07,0.12,-1.00,5.74,1.83,2.32
12.8100,0.09,0.12,-0.98,3.91,3.05,3.17
12.8270,0.08,0.12,-0.99,4.46,2.75,2.20
12.8430,0.08,0.13,-0.99,5.19,2.56,2.01
12.8600,0.07,0.12,-0.99,5.37,2.87,2.14
12.8760,0.08,0.13,-0.99,6.47,2.93,2.32
12.8920,0.08,0.13,-1.00,7.39,2.69,2.38
12.9080,0.08,0.14,-1.00,6.47,3.11,2.32
12.9230,0.08,0.14,-1.00,5.55,2.99,2.20
12.9380,0.08,0.13,-1.00,3.36,3.30,2.08
12.9530,0.07,0.15,-0.99,2.75,3.17,1.95
12.9700,0.08,0.12,-0.98,3.48,2.75,2.08
12.9850,0.08,0.13,-0.99,4.70,3.48,2.38
13.0010,0.08,0.14,-1.00,4.03,2.99,2.20
13.0160,0.08,0.14,-1.00,1.28,2.93,2.01
13.0270,0.07,0.08,-0.91,-6.29,2.99,1.46
13.0430,0.09,0.14,-1.01,3.11,2.32,1.95
13.0610,0.08,0.13,-0.99,1.77,3.23,1.77
13.0770,0.08,0.13,-1.00,2.32,3.42,2.01
13.0930,0.08,0.13,-1.00,3.17,3.48,2.08
13.0950,0.08,0.13,-0.99,3.66,3.54,1.95
13.1240,0.08,0.13,-0.99,3.66,4.21,2.38
13.1400,0.09,0.13,-0.96,8.12,3.66,2.62
13.1540,0.08,0.13,-0.97,3.66,4.09,2.26
13.1700,0.08,0.13,-0.98,3.85,3.60,2.26
13.1860,0.09,0.13,-0.99,2.99,2.99,1.95
13.2030,0.08,0.13,-0.99,3.66,3.17,2.01
13.2180,0.07,0.13,-1.00,2.87,3.23,2.08
13.2340,0.07,0.13,-0.99,3.23,2.93,2.08
13.2500,0.08,0.13,-0.99,3.17,3.30,1.95
13.2600,0.07,0.13,-0.99,3.36,3.17,2.14
13.2760,0.08,0.13,-0.99,3.23,3.36,2.14
13.2980,0.08,0.13,-0.99,3.54,2.56,2.01
13.3150,0.08,0.13,-0.99,3.17,3.30,2.14
13.3320,0.08,0.13,-0.99,3.17,3.17,2.08
13.3470,0.08,0.13,-0.99,3.23,3.23,2.08
13.3640,0.08,0.13,-0.99,3.36,3.48,2.14
13.3800,0.08,0.13,-0.99,3.17,3.05,2.01
13.3960,0.08,0.13,-0.99,3.23,3.23,2.01
13.4120,0.08,0.13,-0.99,3.36,2.75,1.95
13.4300,0.08,0.13,-0.99,3.36,2.87,1.95
13.4300,0.08,0.13,-0.99,3.30,3.05,2.14
13.4600,0.08,0.13,-0.99,3.36,3.05,2.08
13.4680,0.08,0.13,-0.99,3.42,3.05,1.89
13.4850,0.08,0.13,-0.99,3.23,2.81,1.95
13.5020,0.08,0.13,-0.99,3.17,3.23,2.14
13.5180,0.07,0.13,-0.99,3.36,2.62,2.08
13.5340,0.08,0.13,-0.99,3.30,2.69,2.01
13.5520,0.08,0.13,-0.99,3.42,2.87,2.08
13.5680,0.08,0.13,-0.98,3.60,3.54,2.20
13.5840,0.08,0.13,-0.99,6.53,3.60,2.38
13.5990,0.08,0.14,-1.00,7.14,3.60,2.44
13.6160,0.08,0.14,-1.00,4.15,3.36,2.26
13.6320,0.08,0.13,-0.99,3.30,3.23,2.20
13.6470,0.08,0.13,-0.99,3.72,2.75,2.08
13.6640,0.08,0.13,-0.99,3.78,2.93,2.14
13.6790,0.08,0.13,-0.99,5.13,2.93,2.38
13.6950,0.08,0.14,-0.97,2.08,3.23,1.89
13.7110,0.08,0.14,-1.00,5.25,3.05,2.32
13.7270,0.08,0.13,-1.00,1.46,3.85,1.89
13.7430,0.08,0.14,-0.99,2.75,3.36,1.89
13.7570,0.07,0.13,-0.99,1.28,3.66,2.01
13.7690,0.07,0.13,-0.99,2.50,3.42,2.01
13.7840,0.08,0.13,-0.99,2.69,3.60,2.08
13.8060,0.07,0.13,-0.99,2.81,3.36,2.01
13.8210,0.07,0.13,-0.99,3.54,3.60,2.26
13.8370,0.08,0.13,-0.99,3.91,2.99,2.26
13.8410,0.08,0.13,-1.00,3.85,3.11,2.14
13.8580,0.08,0.14,-0.99,3.48,2.99,2.01
13.8730,0.08,0.14,-0.99,2.87,3.23,2.14
13.8960,0.08,0.13,-0.99,1.83,3.30,2.08
13.9150,0.08,0.13,-0.99,2.38,3.66,2.01
13.9290,0.08,0.13,-0.99,2.93,3.36,2.01
13.9470,0.07,0.13,-0.99,3.36,3.42,2.14
13.9630,0.07,0.13,-1.00,3.66,3.11,2.08
13.9790,0.08,0.13,-0.99,3.91,3.11,2.20
13.9810,0.07,0.13,-0.99,3.05,3.30,2.08
13.9960,0.08,0.13,-0.99,2.50,2.81,2.01
14.0140,0.08,0.13,-0.99,2.87,2.75,2.08
14.0300,0.08,0.13,-0.99,3.66,2.99,2.01
14.0570,0.08,0.13,-0.99,3.72,3.23,2.01
14.0680,0.08,0.14,-1.00,2.56,3.42,1.95
14.0840,0.08,0.13,-0.99,-0.61,4.52,1.83
14.1010,0.08,0.12,-0.99,-0.92,4.21,1.77
14.1180,0.07,0.12,-0.98,1.16,3.85,1.89
14.1350,0.07,0.13,-0.99,4.33,3.05,2.20
14.1510,0.08,0.13,-0.99,4.52,2.93,2.20
14.1690,0.08,0.13,-0.99,2.69,3.48,1.95
14.1840,0.07,0.13,-1.00,1.46,3.60,2.01
14.2010,0.08,0.13,-1.00,1.34,3.42,1.95
14.2170,0.07,0.12,-0.99,1.34,3.36,2.01
14.2340,0.07,0.12,-0.99,2.75,3.72,2.14
14.2490,0.07,0.12,-1.00,6.29,3.36,0.79
14.2650,0.07,0.14,-0.99,4.09,3.91,2.14
14.2820,0.07,0.14,-1.00,0.85,3.78,1.95
14.2970,0.08,0.14,-0.99,-0.61,3.72,0.92
14.3130,0.07,0.14,-0.99,2.81,2.14,2.01
14.3290,0.07,0.12,-0.99,3.05,2.93,3.60
14.3450,0.08,0.12,-0.99,2.50,3.36,3.42
14.3570,0.08,0.11,-1.00,2.50,3.36,3.11
14.3670,0.08,0.11,-1.00,2.75,3.78,2.56
14.3900,0.07,0.13,-0.99,2.87,3.60,2.14
14.4070,0.07,0.13,-0.99,2.56,3.42,2.08
14.4230,0.07,0.13,-0.99,3.97,2.69,1.34
14.4380,0.07,0.13,-0.99,3.60,3.30,2.99
14.4540,0.08,0.12,-0.99,3.05,3.54,2.81
14.4700,0.07,0.12,-0.99,2.62,3.48,2.14
14.4850,0.07,0.12,-0.99,2.75,3.36,2.14
14.5010,0.08,0.13,-0.99,3.23,3.23,1.89
14.5170,0.07,0.13,-0.99,2.81,3.23,1.77
14.5250,0.07,0.13,-0.99,4.09,3.42,3.05
14.5420,0.07,0.13,-0.99,4.15,3.30,3.78
14.5580,0.08,0.14,-0.99,5.25,3.05,4.33
14.5770,0.08,0.13,-1.00,4.64,2.62,3.48
14.5930,0.08,0.13,-1.00,2.87,3.11,2.01
14.6100,0.07,0.13,-0.99,2.69,3.36,3.11
14.6260,0.07,0.13,-0.99,3.66,3.11,4.82
14.6410,0.07,0.12,-0.99,3.54,3.17,5.00
14.6560,0.07,0.11,-1.00,2.99,3.54,3.23
14.6710,0.07,0.11,-1.00,2.14,2.75,2.38
14.6870,0.07,0.11,-1.00,2.01,3.17,1.77
14.7030,0.07,0.12,-0.99,2.75,3.42,1.77
14.7120,0.07,0.13,-1.00,3.54,3.48,2.08
14.7350,0.07,0.13,-0.99,2.32,3.78,2.01
14.7450,0.07,0.13,-0.99,1.59,3.11,1.89
14.7620,0.07,0.12,-0.99,1.95,2.75,2.14
14.7790,0.08,0.13,-1.00,2.50,2.75,1.83
14.7950,0.07,0.12,-0.99,2.01,2.93,1.65
14.8120,0.07,0.13,-0.99,2.62,2.87,2.01
14.8280,0.07,0.13,-0.99,2.32,3.05,2.01
14.8440,0.07,0.14,-0.99,3.17,3.30,2.75
14.8600,0.08,0.13,-0.99,4.15,2.99,4.09
14.8760,0.07,0.12,-1.00,3.23,3.17,3.36
14.8920,0.07,0.12,-1.00,0.55,3.66,2.87
14.8950,0.07,0.12,-0.99,0.00,3.78,2.69
14.9110,0.07,0.12,-0.99,1.40,3.36,2.69
14.9320,0.07,0.11,-0.98,3.11,3.54,3.60
14.9490,0.07,0.12,-1.00,4.64,2.56,2.81
14.9660,0.07,0.12,-0.99,4.64,2.62,3.05
14.9840,0.07,0.12,-1.00,3.85,2.56,2.32
15.0000,0.07,0.12,-1.00,1.34,3.85,1.71
15.0150,0.07,0.13,-0.99,0.24,3.97,2.32
15.0150,0.07,0.12,-0.98,1.53,3.60,3.78
15.0330,0.07,0.12,-0.99,3.91,2.93,4.09
15.0610,0.07,0.12,-1.00,3.54,2.32,2.87
15.0660,0.07,0.11,-1.00,2.75,2.87,2.62
15.0810,0.08,0.11,-0.99,2.69,3.11,2.44
15.1060,0.07,0.11,-0.99,3.30,3.23,2.08
15.1230,0.07,0.12,-1.00,3.60,2.93,2.20
15.1380,0.07,0.12,-0.99,3.17,3.17,2.56
15.1540,0.07,0.12,-0.99,2.75,3.17,2.75
15.1700,0.07,0.12,-0.99,3.05,2.81,2.50
15.1860,0.07,0.12,-1.00,4.46,2.20,2.20
15.1900,0.07,0.12,-1.00,3.60,3.17,2.14
15.2050,0.07,0.12,-1.00,2.87,3.36,1.65
15.2340,0.07,0.13,-0.99,2.26,2.99,2.32
15.2450,0.07,0.13,-0.99,3.11,2.75,2.50
15.2610,0.07,0.12,-0.99,3.66,2.87,3.11
15.2770,0.08,0.11,-1.00,3.48,3.48,3.05
15.2940,0.08,0.11,-1.00,1.89,3.66,1.46
15.3120,0.07,0.12,-1.00,1.71,3.48,1.16
15.3280,0.07,0.12,-0.99,2.38,3.48,1.77
15.3440,0.07,0.12,-0.99,3.54,3.05,2.56
15.3600,0.07,0.12,-1.00,4.03,2.87,3.23
15.3620,0.07,0.13,-1.00,2.08,2.99,3.54
15.3780,0.08,0.11,-0.99,1.65,2.69,3.60
15.3990,0.08,0.11,-0.99,2.38,2.93,2.08
15.4170,0.07,0.11,-0.99,2.32,3.23,1.59
15.4330,0.07,0.11,-1.00,3.78,2.50,1.89
15.4490,0.07,0.12,-0.99,3.66,2.50,2.32
15.4670,0.07,0.12,-0.99,3.17,3.05,2.44
15.4830,0.07,0.12,-0.99,4.09,2.75,2.14
15.5000,0.08,0.12,-1.00,4.03,2.93,1.95
15.5160,0.07,0.13,-1.00,3.11,3.48,2.14
15.5330,0.07,0.13,-0.99,2.32,3.60,3.11
15.5500,0.07,0.12,-0.99,2.69,2.62,3.78
15.5670,0.07,0.12,-1.00,1.89,2.99,2.93
15.5670,0.07,0.12,-0.99,1.89,3.30,2.87
15.5960,0.07,0.12,-0.99,2.38,3.30,2.99
15.6000,0.07,0.11,-0.99,3.66,2.75,3.72
15.6280,0.07,0.12,-1.00,4.09,2.62,2.99
15.6440,0.07,0.12,-1.00,2.62,3.05,2.93
15.6580,0.07,0.12,-0.99,2.14,3.42,3.05
15.6670,0.08,0.12,-0.99,2.81,3.42,3.05
15.6830,0.07,0.12,-1.00,3.05,2.99,2.87
15.7000,0.07,0.12,-0.99,3.42,3.17,2.93
15.7160,0.07,0.12,-0.99,4.46,2.38,3.66
15.7340,0.07,0.12,-1.00,3.60,2.93,2.62
15.7500,0.07,0.12,-0.99,2.87,3.05,2.99
15.7650,0.08,0.12,-0.99,2.87,3.05,3.05
15.7820,0.07,0.11,-1.00,2.69,2.99,2.56
15.7980,0.07,0.12,-0.99,2.75,3.30,2.81
15.8000,0.07,0.11,-0.99,3.97,3.05,3.60
15.8300,0.07,0.11,-1.00,3.36,3.11,2.38
15.8450,0.07,0.12,-0.99,2.93,3.42,1.83
15.8590,0.07,0.12,-0.99,3.17,2.62,2.08
15.8650,0.07,0.12,-1.00,3.48,2.20,2.38
15.8880,0.07,0.12,-1.00,2.75,2.93,2.38
15.9050,0.07,0.13,-0.99,1.77,3.30,2.87
15.9210,0.07,0.13,-0.99,2.20,3.11,3.36
15.9390,0.07,0.13,-0.99,3.17,2.75,3.30
15.9540,0.07,0.12,-0.99,3.66,2.20,3.36
15.9680,0.07,0.11,-0.99,3.85,2.50,3.78
15.9720,0.07,0.11,-1.00,3.36,3.11,3.11
15.9880,0.07,0.12,-1.00,1.95,3.91,2.99
16.0110,0.07,0.12,-0.99,1.89,3.66,3.30
16.0280,0.08,0.11,-0.99,3.23,3.17,3.30
16.0440,0.07,0.12,-0.99,3.78,2.56,2.81
16.0610,0.07,0.12,-1.00,4.21,2.75,2.87
16.0770,0.07,0.12,-1.00,3.48,2.69,2.44
16.0950,0.07,0.12,-1.00,2.44,3.42,2.62
16.1100,0.07,0.12,-0.99,2.56,3.66,3.36
16.1250,0.07,0.12,-1.00,2.62,3.36,2.62
16.1410,0.07,0.12,-0.99,2.50,3.11,2.75
16.1440,0.07,0.12,-0.99,2.69,3.36,3.23
16.1600,0.07,0.13,-0.99,2.93,3.23,3.54
16.1870,0.07,0.13,-1.00,3.17,2.99,4.03
16.1980,0.07,0.12,-0.99,2.44,3.11,4.09
16.2140,0.07,0.12,-1.00,2.01,3.48,3.48
16.2320,0.07,0.11,-0.99,2.81,3.42,3.30
16.2470,0.07,0.11,-1.00,2.38,2.69,2.50
16.2640,0.07,0.12,-0.99,2.81,2.69,2.75
16.2650,0.07,0.12,-0.99,3.36,2.81,3.72
16.2970,0.07,0.12,-0.99,4.15,2.62,4.09
16.3120,0.07,0.12,-1.00,4.64,3.05,4.21
16.3140,0.07,0.11,-1.00,3.30,3.23,3.85
16.3300,0.07,0.11,-0.99,2.99,3.05,3.17
16.3540,0.07,0.11,-1.00,2.81,2.62,2.38
16.3700,0.07,0.11,-1.00,3.48,3.11,2.93
16.3880,0.07,0.11,-0.99,2.87,3.66,3.17
16.4040,0.07,0.12,-1.00,3.36,3.11,3.60
16.4200,0.07,0.11,-0.99,2.87,3.60,3.42
16.4360,0.07,0.11,-1.00,2.93,3.05,2.44
16.4500,0.07,0.11,-0.99,3.17,2.69,1.65
16.4660,0.07,0.12,-1.00,3.48,3.30,1.59
16.4820,0.07,0.12,-1.00,3.23,3.36,1.89
16.4880,0.07,0.12,-1.00,2.08,3.48,2.08
16.5040,0.07,0.12,-0.99,2.14,3.36,2.75
16.5270,0.07,0.12,-1.00,3.66,3.42,2.56
16.5420,0.07,0.11,-1.00,2.81,3.42,2.75
16.5580,0.07,0.11,-1.00,2.08,3.91,2.14
16.5740,0.07,0.12,-0.99,1.83,3.60,2.26
16.5770,0.07,0.11,-0.99,2.14,3.36,2.26
16.5930,0.07,0.11,-1.00,3.17,3.17,2.20
16.6080,0.07,0.11,-1.00,3.05,3.42,1.89
16.6300,0.07,0.11,-1.00,3.23,3.42,2.01
16.6470,0.07,0.12,-0.99,2.99,3.30,1.77
16.6630,0.07,0.12,-0.99,3.36,2.69,1.53
16.6800,0.07,0.12,-1.00,5.07,2.56,0.49
16.6960,0.07,0.13,-1.00,3.30,2.99,0.79
16.7120,0.07,0.12,-0.99,1.95,4.03,1.46
16.7260,0.07,0.11,-0.99,3.66,2.87,2.38
16.7300,0.07,0.11,-0.99,4.15,2.56,2.38
16.7580,0.08,0.10,-1.00,5.98,2.08,1.83
16.7730,0.08,0.12,-1.00,4.88,2.20,1.71
16.7890,0.07,0.12,-1.00,3.85,3.30,2.32
16.7970,0.07,0.12,-1.00,2.44,3.72,2.14
16.8130,0.07,0.12,-1.00,1.95,3.66,2.01
16.8290,0.07,0.12,-0.99,2.44,3.60,2.87
16.8510,0.07,0.11,-1.00,3.17,3.05,3.78
16.8670,0.07,0.12,-0.99,2.81,3.36,2.69
16.8830,0.07,0.12,-0.99,3.11,3.23,3.17
16.8990,0.07,0.12,-1.00,3.91,3.23,2.87
16.9160,0.08,0.12,-1.00,3.72,2.93,2.56
16.9320,0.07,0.13,-1.00,2.93,3.17,2.32
16.9480,0.07,0.12,-0.99,1.95,3.97,2.32
16.9640,0.07,0.11,-0.99,3.48,3.36,2.26
16.9680,0.07,0.11,-1.00,4.94,2.50,2.81
16.9840,0.07,0.12,-1.00,4.58,2.14,2.44
17.0070,0.07,0.12,-1.00,3.05,2.81,2.26
17.0240,0.07,0.12,-1.00,1.83,3.72,1.77
17.0400,0.07,0.11,-0.99,1.22,4.09,2.08
17.0560,0.07,0.11,-0.99,2.99,3.23,1.59
17.0720,0.07,0.11,-1.00,3.54,2.93,1.46
17.0860,0.07,0.11,-1.00,3.30,2.75,1.65
17.1020,0.07,0.12,-0.99,2.99,3.66,1.83
17.1180,0.07,0.12,-0.99,2.62,3.78,1.53
17.1340,0.07,0.11,-1.00,2.87,4.27,0.73
17.1490,0.07,0.12,-1.00,2.26,3.91,0.37
17.1650,0.07,0.11,-0.99,1.65,3.36,1.95
17.1810,0.07,0.11,-0.99,3.36,3.36,2.01
17.1900,0.07,0.12,-1.00,3.78,3.05,1.95
17.2060,0.07,0.12,-1.00,3.48,3.54,1.04
17.2230,0.07,0.11,-0.99,3.17,3.54,1.95
17.2400,0.07,0.11,-0.99,5.13,2.93,2.50
17.2570,0.07,0.12,-1.00,5.55,2.44,2.50
17.2720,0.07,0.13,-1.00,5.00,2.62,2.38
17.2870,0.07,0.13,-0.99,3.78,3.60,2.38
17.2910,0.07,0.12,-0.99,3.60,3.36,2.56
17.3070,0.07,0.12,-1.00,4.27,3.23,2.69
17.3230,0.07,0.11,-0.99,4.46,2.81,3.23
17.3450,0.08,0.11,-0.99,4.21,2.81,2.38
17.3620,0.07,0.11,-1.00,3.91,2.69,1.89
17.3780,0.08,0.12,-0.99,3.66,2.81,1.40
17.3950,0.08,0.11,-1.00,2.99,2.62,1.34
17.4110,0.07,0.12,-1.00,3.17,3.05,1.83
17.4270,0.07,0.11,-0.99,4.03,3.23,2.14
17.4430,0.07,0.12,-1.00,5.25,2.99,2.32
17.4600,0.07,0.12,-1.00,4.46,2.75,2.14
17.4620,0.07,0.12,-1.00,3.97,2.32,1.89
17.4780,0.07,0.12,-1.00,3.72,2.38,1.95
17.5000,0.07,0.12,-0.99,3.97,2.87,2.08
17.5160,0.07,0.13,-1.00,3.60,2.69,2.26
17.5330,0.07,0.13,-1.00,1.65,3.66,2.93
17.5500,0.07,0.12,-0.99,1.53,3.72,2.99
17.5660,0.08,0.11,-0.99,2.62,3.72,3.11
17.5840,0.07,0.12,-1.00,2.93,3.42,2.50
17.6000,0.07,0.13,-1.00,2.32,4.21,3.11
17.6170,0.07,0.12,-0.98,2.08,4.15,3.78
17.6330,0.07,0.12,-1.00,3.78,3.36,3.48
17.6330,0.07,0.12,-0.99,2.99,2.93,3.17
17.6620,0.07,0.12,-0.99,3.66,2.75,3.23
17.6670,0.06,0.12,-1.00,3.60,2.99,2.69
17.6840,0.07,0.11,-0.99,3.11,2.81,2.81
17.7120,0.07,0.11,-1.00,3.97,2.81,2.38
17.7280,0.07,0.11,-0.99,3.66,3.05,2.56
17.7330,0.07,0.12,-0.99,3.78,2.81,2.20
17.7500,0.07,0.13,-1.00,3.66,2.87,2.56
17.7670,0.08,0.12,-0.99,3.05,3.42,3.17
17.7830,0.08,0.11,-1.00,2.44,3.11,3.30
17.8030,0.08,0.11,-1.00,2.62,3.48,2.81
17.8190,0.07,0.11,-1.00,2.75,3.48,2.62
17.8350,0.07,0.12,-0.99,2.38,4.03,2.32
17.8510,0.07,0.13,-0.99,2.93,3.54,2.01
17.8650,0.07,0.13,-0.99,3.48,3.23,3.97
17.8710,0.07,0.12,-1.00,3.72,3.05,4.33
17.8860,0.07,0.12,-1.00,2.38,3.36,3.85
17.9080,0.07,0.12,-0.99,2.26,3.23,3.85
17.9240,0.07,0.12,-1.00,2.69,3.36,4.09
17.9410,0.08,0.11,-0.99,2.56,3.30,4.15
17.9560,0.08,0.11,-1.00,3.60,2.81,3.60
17.9710,0.07,0.12,-0.99,3.17,3.05,3.66
17.9860,0.07,0.12,-0.99,3.36,2.99,3.97
18.0010,0.07,0.11,-1.00,3.42,2.75,4.09
18.0160,0.07,0.11,-1.00,1.28,3.48,2.99
18.0250,0.07,0.11,-0.99,1.89,3.72,2.75
18.0420,0.07,0.11,-0.99,2.62,3.42,2.99
18.0620,0.07,0.11,-1.00,3.42,3.66,3.42
18.0750,0.07,0.11,-1.00,2.87,3.78,2.75
18.0910,0.07,0.12,-0.99,1.22,3.30,1.89
18.1080,0.07,0.11,-0.99,1.89,2.93,1.89
18.1240,0.07,0.12,-1.00,4.09,2.81,1.89
18.1400,0.07,0.12,-1.00,3.97,3.30,2.14
18.1550,0.07,0.13,-1.00,3.66,3.30,1.77
18.1710,0.07,0.13,-0.99,2.44,3.66,2.14
18.1870,0.07,0.13,-0.99,3.17,3.54,2.50
18.2030,0.08,0.12,-0.99,4.21,3.05,3.66
18.2190,0.07,0.12,-1.00,4.03,2.62,3.60
18.2350,0.07,0.11,-1.00,3.72,3.17,4.09
18.2500,0.07,0.11,-1.00,1.89,3.60,2.87
18.2650,0.07,0.11,-0.99,1.95,3.48,2.44
18.2750,0.07,0.11,-0.99,2.81,3.42,2.20
18.2910,0.07,0.11,-0.99,3.30,3.23,2.87
18.3090,0.07,0.11,-1.00,3.85,2.87,2.38
18.3240,0.07,0.12,-1.00,3.48,2.75,2.20
18.3420,0.07,0.12,-1.00,2.50,3.48,2.69
18.3580,0.07,0.12,-0.99,2.08,3.54,2.93
18.3730,0.07,0.12,-0.99,3.23,3.23,3.11
18.3900,0.07,0.12,-1.00,4.33,2.87,2.87
18.4050,0.07,0.13,-1.00,3.17,3.60,3.17
18.4200,0.07,0.13,-0.98,2.32,3.91,3.60
18.4350,0.07,0.13,-1.00,3.54,2.62,5.31
18.4520,0.07,0.12,-1.00,3.66,2.81,5.68
18.4680,0.07,0.11,-1.00,2.93,3.30,4.46
18.4750,0.07,0.11,-1.00,2.20,3.48,3.36
18.4910,0.07,0.11,-1.00,1.40,3.66,2.69
18.5140,0.07,0.11,-0.99,1.71,3.78,3.05
18.5300,0.07,0.11,-0.99,4.33,2.87,2.69
18.5460,0.07,0.11,-1.00,4.09,3.48,2.93
18.5480,0.07,0.12,-1.00,2.44,3.66,2.38
18.5640,0.07,0.11,-0.99,2.75,3.36,2.08
18.5930,0.07,0.12,-0.99,3.54,2.99,1.65
18.5970,0.07,0.13,-1.00,3.48,3.11,1.89
18.6130,0.07,0.13,-0.99,3.72,3.48,3.60
18.6280,0.07,0.13,-0.99,4.15,3.30,4.03
18.6510,0.07,0.12,-0.99,3.72,2.99,4.03
18.6690,0.07,0.12,-1.00,3.23,2.81,3.54
18.6860,0.07,0.11,-1.00,2.99,2.32,3.48
18.7020,0.07,0.11,-1.00,2.99,2.81,3.91
18.7180,0.07,0.11,-0.99,3.23,3.05,4.09
18.7350,0.07,0.12,-1.00,3.85,3.36,4.03
18.7500,0.07,0.12,-0.99,2.99,3.72,4.21
18.7660,0.07,0.12,-1.00,2.93,2.93,3.48
18.7810,0.07,0.11,-0.99,2.81,3.11,3.78
18.7980,0.07,0.12,-1.00,2.99,2.87,3.05
18.8140,0.07,0.11,-1.00,3.78,3.36,3.11
18.8300,0.07,0.11,-0.97,3.05,3.48,3.36
18.8450,0.07,0.11,-0.99,2.32,3.78,3.72
18.8510,0.07,0.12,-0.99,2.20,3.48,2.99
18.8670,0.08,0.12,-1.00,2.81,3.17,2.69
18.8890,0.07,0.12,-1.00,2.26,3.42,2.62
18.9050,0.07,0.12,-0.99,3.17,3.05,3.54
18.9230,0.07,0.11,-0.99,3.23,3.05,3.42
18.9380,0.07,0.11,-0.99,3.42,3.23,2.81
18.9540,0.07,0.12,-1.00,3.97,2.99,2.62
18.9690,0.07,0.12,-0.99,4.39,2.38,3.23
18.9850,0.07,0.12,-1.00,3.78,2.69,3.54
18.9890,0.07,0.12,-1.00,2.75,3.91,3.85
19.0160,0.07,0.12,-0.99,2.56,3.30,3.23
19.0320,0.07,0.12,-0.99,3.30,3.17,3.72
19.0470,0.07,0.12,-0.99,3.78,2.69,4.09
19.0560,0.07,0.12,-1.00,4.21,2.32,4.46
19.0720,0.07,0.12,-1.00,2.99,3.72,4.46
19.0880,0.07,0.11,-0.99,2.81,3.36,3.66
19.1080,0.07,0.11,-0.99,3.54,3.42,2.75
19.1240,0.07,0.11,-0.99,3.42,3.11,2.38
19.1390,0.07,0.11,-1.00,4.70,2.75,2.38
19.1420,0.07,0.13,-1.00,4.82,2.26,2.08
19.1690,0.07,0.13,-1.00,2.87,3.05,2.69
19.1770,0.07,0.13,-0.99,1.34,3.97,4.64
19.1930,0.08,0.12,-0.98,2.87,3.11,3.78
19.2100,0.07,0.12,-0.99,3.78,2.69,4.15
19.2260,0.07,0.11,-1.00,4.64,2.38,4.21
19.2430,0.07,0.11,-1.00,4.21,2.69,2.81
19.2600,0.07,0.14,-1.00,4.33,2.99,2.81
19.2760,0.07,0.14,-0.99,3.85,2.87,7.26
19.2930,0.08,0.11,-0.99,3.66,2.26,6.59
19.3090,0.07,0.10,-0.99,3.78,2.38,3.17
19.3270,0.07,0.11,-0.99,4.33,2.50,1.22
19.3420,0.07,0.12,-1.00,5.31,2.75,0.92
19.3570,0.07,0.12,-0.99,5.07,2.87,1.89
19.3720,0.07,0.12,-0.99,4.33,2.87,2.08
19.3880,0.07,0.12,-0.99,4.27,2.38,2.01
19.4030,0.08,0.11,-0.99,5.55,1.59,1.16
19.4190,0.07,0.12,-1.00,7.20,1.28,0.85
19.4350,0.07,0.13,-1.00,6.96,1.89,1.46
19.4490,0.07,0.13,-0.99,6.04,1.89,2.01
19.4640,0.07,0.13,-0.99,5.74,1.65,2.01
19.4770,0.08,0.13,-1.00,6.47,0.85,2.01
19.4940,0.08,0.13,-0.99,5.86,1.04,1.95
19.5110,0.08,0.13,-0.99,5.62,1.65,2.08
19.5270,0.09,0.14,-1.00,5.92,1.59,2.20
19.5430,0.08,0.14,-1.00,6.16,1.83,2.26
19.5590,0.08,0.14,-0.99,5.62,2.50,2.32
19.5750,0.08,0.14,-1.00,3.54,2.38,2.01
19.5910,0.08,0.13,-1.00,2.32,2.99,2.01
19.6070,0.08,0.13,-0.99,1.59,4.15,2.08
19.6100,0.08,0.13,-0.99,1.46,4.94,2.08
19.6390,0.08,0.13,-0.99,2.01,4.39,2.32
19.6470,0.09,0.15,-1.01,2.81,3.91,2.14
19.6640,0.09,0.13,-0.98,2.14,4.46,2.08
19.6800,0.08,0.13,-0.99,1.53,4.15,1.89
19.6970,0.08,0.12,-0.99,0.37,4.76,1.95
19.7130,0.08,0.12,-0.99,2.08,4.76,2.14
19.7300,0.08,0.13,-0.99,3.60,3.91,2.32
19.7470,0.08,0.13,-0.99,3.30,3.78,2.20
19.7620,0.07,0.13,-0.99,3.17,3.60,2.08
19.7640,0.08,0.13,-0.99,3.48,3.23,2.08
19.7940,0.08,0.13,-0.99,2.99,3.72,2.08
19.8100,0.08,0.13,-0.99,2.87,3.42,2.01
19.8260,0.08,0.13,-1.00,2.75,3.23,2.01
19.8410,0.07,0.13,-0.99,3.17,4.03,1.95
19.8580,0.08,0.13,-0.99,3.42,3.48,2.26
19.8640,0.08,0.13,-0.99,2.99,3.91,2.01
19.8800,0.08,0.13,-0.99,2.75,4.33,2.01
19.8970,0.07,0.13,-0.99,2.26,3.66,2.08
19.9130,0.07,0.13,-0.99,3.17,2.99,2.08
19.9340,0.08,0.13,-1.00,3.17,3.85,2.01
19.9500,0.07,0.13,-0.99,2.62,3.78,2.01
19.9650,0.07,0.13,-0.99,2.32,3.66,2.14
19.9810,0.07,0.13,-0.99,2.75,3.36,2.08
19.9970,0.07,0.13,-0.99,3.66,3.36,2.20
20.0120,0.08,0.13,-0.99,3.30,3.17,2.01
20.0180,0.08,0.13,-0.99,2.87,3.54,2.01
20.0340,0.08,0.13,-0.99,3.72,3.60,2.20
20.0590,0.07,0.13,-0.99,3.30,3.54,2.08
20.0740,0.07,0.13,-0.99,2.81,3.72,2.20
20.0910,0.07,0.13,-0.99,3.36,3.78,2.14
20.1070,0.07,0.13,-0.99,3.17,3.30,2.08
20.1220,0.07,0.13,-0.99,3.17,3.42,2.14
20.1250,0.08,0.13,-0.99,3.30,3.11,2.14
20.1430,0.07,0.13,-0.99,3.48,3.48,2.14
20.1650,0.08,0.13,-0.99,2.87,3.97,2.08
20.1810,0.08,0.13,-1.00,2.56,3.85,2.32
20.1980,0.09,0.13,-0.99,2.44,3.23,3.36
20.2160,0.06,0.14,-1.01,4.21,1.59,5.07
20.2320,0.08,0.13,-0.99,3.66,3.05,3.48
20.2480,0.07,0.14,-1.00,2.38,3.23,2.87
20.2630,0.07,0.13,-0.99,2.93,2.87,3.23
20.2800,0.06,0.13,-1.00,2.81,3.42,1.95
20.2810,0.06,0.12,-0.99,2.44,2.93,2.01
20.3110,0.07,0.12,-0.99,3.11,3.60,1.77
20.3150,0.07,0.13,-0.99,4.09,3.11,1.83
20.3320,0.08,0.14,-1.00,3.85,2.93,1.53
20.3480,0.08,0.13,-0.99,1.71,3.54,1.71
20.3700,0.07,0.13,-0.99,1.53,3.36,2.69
20.3880,0.08,0.12,-0.99,2.32,3.11,3.30
20.4030,0.08,0.13,-0.99,2.75,3.17,3.30
20.4190,0.07,0.13,-0.99,2.56,3.05,4.03
20.4350,0.07,0.13,-1.00,2.56,2.93,4.88
20.4500,0.07,0.12,-0.99,2.01,3.11,4.03
20.4650,0.07,0.11,-0.99,2.62,3.42,2.56
20.4820,0.07,0.12,-0.99,3.72,3.42,1.95
20.4980,0.07,0.13,-0.99,3.42,3.11,2.38
20.5140,0.07,0.13,-0.99,2.99,3.42,2.93
20.5300,0.07,0.12,-1.00,2.75,2.99,2.81
20.5370,0.08,0.13,-1.00,2.99,2.81,2.20
20.5600,0.07,0.13,-0.99,3.05,2.81,2.62
20.5760,0.08,0.12,-1.00,3.17,2.87,2.44
20.5870,0.08,0.13,-0.99,3.23,3.60,2.26
20.6040,0.07,0.13,-0.99,3.05,3.97,2.87
20.6190,0.08,0.13,-0.99,3.97,3.17,4.21
20.6370,0.08,0.12,-0.99,4.21,2.69,3.48
20.6530,0.08,0.12,-0.99,4.33,2.69,1.89
20.6650,0.07,0.13,-1.00,5.43,2.14,1.46
20.6850,0.07,0.13,-1.00,4.58,2.50,1.40
20.7010,0.07,0.13,-0.99,3.11,3.17,1.83
20.7160,0.08,0.13,-0.99,3.05,3.11,2.14
20.7320,0.07,0.13,-0.99,3.30,3.17,2.08
20.7370,0.07,0.13,-0.99,3.48,2.93,2.08
20.7530,0.07,0.13,-0.99,3.36,2.87,1.89
20.7790,0.08,0.13,-0.99,3.78,3.05,2.01
20.7910,0.07,0.13,-1.00,3.66,3.05,2.01
20.8070,0.08,0.13,-0.99,3.23,2.93,1.89
20.8230,0.07,0.12,-0.99,3.48,2.69,2.14
20.8400,0.08,0.12,-1.00,3.72,2.99,1.65
20.8570,0.08,0.13,-1.00,3.60,2.87,0.49
20.8720,0.08,0.13,-1.00,3.11,3.30,0.31
20.8880,0.07,0.13,-0.99,3.48,3.17,0.73
20.9040,0.07,0.13,-0.99,3.42,2.81,1.34
20.9200,0.08,0.13,-0.99,3.23,3.60,1.65
20.9350,0.07,0.13,-0.99,3.11,3.36,1.71
20.9490,0.08,0.13,-0.99,3.91,2.69,1.77
20.9570,0.07,0.13,-1.00,3.97,2.44,1.83
20.9720,0.07,0.12,-0.99,4.39,2.81,2.01
20.9950,0.07,0.13,-0.99,4.09,2.69,2.32
20.9970,0.08,0.13,-0.99,3.36,2.87,2.26
21.0140,0.08,0.13,-0.99,2.62,3.05,2.20
21.0300,0.08,0.13,-0.99,2.62,3.11,2.20
21.0520,0.08,0.13,-0.99,2.87,2.81,2.14
21.0700,0.08,0.13,-0.99,2.38,3.05,2.20
21.0860,0.08,0.14,-0.99,1.95,3.30,2.50
21.1020,0.07,0.13,-0.99,1.89,3.42,2.87
21.1180,0.07,0.13,-0.99,2.32,2.99,3.11
21.1340,0.07,0.12,-0.99,2.87,2.93,3.11
21.1360,0.07,0.12,-0.99,2.93,2.87,2.62
21.1660,0.07,0.12,-1.00,3.78,3.30,2.69
21.1690,0.07,0.12,-0.99,4.09,3.30,2.56
21.1840,0.08,0.13,-0.99,4.39,3.11,2.08
21.2140,0.08,0.13,-0.99,3.97,3.05,1.83
21.2230,0.08,0.13,-0.99,3.60,3.48,1.40
21.2400,0.08,0.13,-0.99,3.42,3.42,1.34
21.2570,0.08,0.13,-0.99,3.91,2.99,1.34
21.2730,0.08,0.13,-0.99,3.97,2.81,1.59
21.2900,0.08,0.13,-0.99,3.48,2.87,1.40
21.2910,0.08,0.13,-0.99,3.36,2.87,1.65
21.3210,0.08,0.13,-0.99,3.05,3.48,1.59
21.3360,0.08,0.13,-0.99,2.87,3.11,1.53
21.3400,0.08,0.13,-0.99,3.05,3.17,1.65
21.3680,0.08,0.13,-0.99,3.66,3.11,1.95
21.3840,0.08,0.13,-1.00,4.09,2.99,2.26
21.4000,0.08,0.13,-0.99,3.48,3.48,2.38
21.4150,0.08,0.13,-0.99,3.11,3.17,2.20
21.4230,0.08,0.13,-0.99,2.93,3.30,2.26
21.4450,0.08,0.13,-0.99,3.11,3.05,2.32
21.4570,0.08,0.13,-1.00,3.42,3.17,2.32
21.4750,0.07,0.13,-0.99,3.78,3.11,2.08
21.4900,0.07,0.13,-0.99,3.30,2.99,1.83
21.5060,0.08,0.13,-0.99,3.05,3.17,1.40
21.5220,0.07,0.13,-1.00,2.75,3.23,1.89
21.5240,0.08,0.13,-0.99,3.05,3.05,1.83
21.5540,0.08,0.13,-0.99,3.30,2.99,1.40
21.5690,0.08,0.13,-0.99,2.93,3.36,1.53
21.5740,0.07,0.12,-0.99,3.30,3.11,1.89
21.5890,0.08,0.13,-1.00,3.48,3.17,1.59
21.6130,0.08,0.13,-0.99,2.69,3.17,1.77
21.6290,0.07,0.13,-0.99,3.54,2.87,2.01
21.6470,0.07,0.13,-0.99,3.78,3.05,2.38
21.6630,0.08,0.14,-0.99,3.78,3.36,2.44
21.6790,0.07,0.13,-0.99,2.99,3.17,2.14
21.6800,0.07,0.13,-0.99,2.99,2.87,1.89
21.7100,0.08,0.13,-0.99,3.42,3.60,1.95
21.7140,0.08,0.13,-0.99,3.91,3.11,2.20
21.7300,0.08,0.13,-0.99,3.97,2.87,2.26
21.7520,0.08,0.13,-0.99,3.48,2.81,2.08
21.7690,0.08,0.13,-0.99,2.81,3.48,2.26
21.7840,0.08,0.13,-0.99,3.23,3.23,1.95
21.8020,0.08,0.13,-0.99,3.60,3.05,2.08
21.8180,0.07,0.13,-0.99,3.72,2.93,2.20
21.8340,0.07,0.14,-0.99,3.72,3.11,2.08
21.8350,0.07,0.13,-0.99,3.30,2.93,2.01
21.8530,0.08,0.13,-0.99,3.23,3.30,1.95
21.8700,0.07,0.13,-0.99,3.42,3.17,2.01
21.8850,0.08,0.13,-0.99,3.91,3.36,2.20
21.9140,0.08,0.13,-0.99,3.78,3.23,2.20
21.9290,0.08,0.13,-0.99,3.42,3.30,2.08
21.9360,0.08,0.13,-0.99,3.42,3.11,1.95
21.9520,0.08,0.13,-0.99,3.23,3.66,2.14
21.9730,0.08,0.13,-0.99,3.11,3.05,2.14
21.9900,0.08,0.13,-0.99,3.54,3.11,2.14
22.0050,0.07,0.13,-0.99,3.66,2.93,2.26
22.0200,0.08,0.13,-0.99,3.60,3.30,2.26
22.0360,0.07,0.13,-0.99,3.85,2.99,2.62
22.0520,0.07,0.13,-0.99,3.72,2.93,2.56
22.0660,0.07,0.13,-1.00,3.85,2.93,2.62
22.0730,0.07,0.13,-0.99,3.60,2.81,2.56
22.0960,0.07,0.13,-0.99,3.72,3.05,2.50
22.1130,0.08,0.13,-0.99,4.27,3.23,2.38
22.1300,0.08,0.14,-1.00,4.27,2.99,2.08
22.1460,0.08,0.13,-0.99,3.05,3.05,1.95
22.1470,0.08,0.13,-0.99,2.20,3.11,2.01
22.1770,0.08,0.13,-0.99,2.32,2.62,2.01
22.1800,0.08,0.13,-0.99,3.85,3.05,2.20
22.1960,0.08,0.13,-0.99,4.09,3.36,2.32
22.2250,0.08,0.13,-0.99,3.91,3.17,2.14
22.2410,0.08,0.13,-0.99,3.54,3.17,2.08
22.2470,0.08,0.13,-0.99,4.03,2.75,2.08
22.2670,0.08,0.14,-0.99,4.46,2.99,2.32
22.2860,0.08,0.14,-0.99,3.97,2.99,2.14
22.3020,0.08,0.13,-0.99,3.17,3.17,1.89
22.3180,0.08,0.13,-0.99,3.36,3.36,2.14
22.3340,0.08,0.13,-0.99,4.03,2.81,2.08
22.3500,0.08,0.13,-0.99,4.76,2.87,2.20
22.3660,0.08,0.14,-0.99,4.76,3.48,2.14
22.3810,0.08,0.13,-0.99,4.33,3.42,2.32
22.3860,0.08,0.09,-0.99,1.40,3.05,6.10
22.4020,0.08,0.15,-0.98,4.58,2.87,4.15
22.4170,0.08,0.13,-0.99,5.43,2.62,3.91
22.4380,0.08,0.14,-1.00,4.88,2.44,4.46
22.4540,0.04,0.03,-0.83,-6.16,3.42,6.90
22.4720,0.10,0.11,-0.97,7.93,1.83,5.49
22.4890,0.05,0.15,-0.99,4.58,3.11,4.88
22.5040,0.10,0.15,-1.00,0.98,2.69,3.48
22.5210,0.10,0.17,-0.99,2.75,3.54,2.56
22.5370,0.08,0.14,-1.00,2.20,2.75,1.95
22.5530,0.08,0.14,-0.99,2.69,3.11,2.01
22.5690,0.08,0.13,-0.99,3.36,3.11,2.08
22.5840,0.07,0.12,-0.99,1.28,2.87,1.71
22.5990,0.08,0.15,-1.00,4.03,3.30,2.08
22.6050,0.08,0.14,-0.99,0.79,3.97,1.89
22.6210,0.08,0.12,-0.99,0.85,4.03,1.95
22.6420,0.08,0.13,-0.99,3.30,3.91,2.32
22.6590,0.07,0.14,-0.99,4.88,3.78,2.32
22.6750,0.08,0.14,-1.00,4.58,3.23,2.26
22.6920,0.08,0.14,-1.00,2.69,3.42,2.26
22.7080,0.07,0.14,-0.99,1.71,3.48,2.08
22.7250,0.08,0.13,-0.99,1.46,3.60,2.14
22.7420,0.08,0.13,-0.99,4.09,3.05,2.26
22.7570,0.08,0.13,-0.99,4.09,3.36,2.26
22.7730,0.08,0.14,-1.00,3.91,3.97,2.44
22.7890,0.09,0.12,-0.96,-0.67,2.26,1.53
22.8040,0.08,0.13,-0.99,1.59,3.54,1.95
22.8200,0.07,0.15,-1.01,2.75,3.11,2.14
22.8360,0.07,0.13,-0.99,0.67,3.36,1.95
22.8520,0.08,0.13,-0.99,2.26,3.30,1.77
22.8670,0.08,0.13,-0.98,2.08,3.17,2.08
22.8820,0.05,0.14,-1.01,4.94,4.33,2.38
22.8920,0.06,0.13,-1.01,1.95,3.72,1.89
22.9070,0.07,0.15,-1.01,4.27,3.23,2.38
22.9280,0.07,0.13,-0.99,2.14,3.48,2.08
22.9430,0.08,0.13,-0.99,3.42,2.99,2.01
22.9470,0.08,0.13,-0.99,2.69,2.93,2.20
22.9750,0.08,0.14,-0.99,3.85,2.87,2.01
22.9800,0.07,0.13,-0.99,2.93,3.36,1.95
22.9960,0.08,0.13,-0.99,3.72,2.93,2.20
23.0170,0.08,0.13,-0.99,3.48,3.17,2.01
23.0330,0.08,0.13,-0.99,3.17,3.11,2.08
23.0500,0.08,0.13,-0.99,3.36,3.11,2.08
23.0690,0.08,0.13,-0.99,3.11,3.17,2.20
23.0840,0.08,0.13,-0.99,3.36,3.17,2.14
23.0990,0.08,0.13,-0.99,3.05,3.36,2.08
23.1010,0.08,0.13,-0.99,3.36,3.05,1.95
23.1320,0.08,0.13,-0.99,3.30,2.87,1.89
23.1480,0.08,0.11,-0.99,3.48,3.11,2.26
23.1640,0.08,0.17,-1.00,9.03,3.11,2.69
23.1680,0.08,0.15,-0.99,0.49,3.11,1.89
23.1850,0.07,0.14,-1.00,0.37,3.36,1.65
23.2010,0.08,0.14,-0.99,1.95,3.05,1.83
23.2160,0.07,0.11,-0.98,0.98,3.11,1.77
23.2400,0.08,0.18,-1.00,8.85,2.01,2.44
23.2560,0.07,0.10,-0.97,-0.06,3.36,1.83
23.2730,0.08,0.15,-1.00,4.70,2.93,2.14
23.2880,0.07,0.12,-0.98,2.87,3.11,2.08
23.3050,0.08,0.15,-1.00,4.82,2.69,2.20
23.3190,0.08,0.12,-0.99,1.89,3.36,1.95
23.3350,0.08,0.14,-0.99,3.91,3.23,2.20
23.3400,0.07,0.13,-0.99,2.69,3.36,2.01
23.3560,0.08,0.14,-0.99,3.66,3.30,2.14
23.3800,0.07,0.13,-0.99,3.30,3.30,2.14
23.3950,0.08,0.13,-0.99,3.85,3.11,2.08
23.4120,0.07,0.13,-0.99,3.42,2.75,2.01
23.4270,0.08,0.14,-1.00,3.42,3.23,2.08
23.4300,0.07,0.13,-0.99,2.01,3.42,1.95
23.4460,0.07,0.13,-0.99,3.36,2.93,2.01
23.4750,0.08,0.14,-0.99,2.93,3.11,2.01
23.4850,0.15,0.19,-0.97,5.13,3.17,-3.97
23.5030,0.05,0.13,-0.98,3.72,5.13,-8.42
23.5180,0.04,0.07,-1.01,5.37,3.54,-3.78
23.5350,0.08,0.13,-0.99,4.21,2.93,2.14
23.5510,0.08,0.14,-0.99,3.97,2.93,2.14
23.5690,0.08,0.13,-0.99,3.78,3.30,1.95
23.5870,0.12,0.15,-0.99,3.66,3.23,1.40
23.6030,0.05,0.11,-1.00,4.15,3.48,-2.08
23.6170,0.07,0.14,-1.00,4.33,3.17,1.16
23.6350,0.08,0.14,-1.00,3.91,3.36,1.34
23.6510,0.07,0.13,-0.99,3.48,3.17,1.65
23.6670,0.07,0.13,-0.99,3.78,3.30,1.89
23.6810,0.08,0.13,-0.99,3.54,2.69,2.01
23.6870,0.08,0.13,-0.99,3.48,2.87,2.14
23.7050,0.08,0.13,-0.99,3.30,3.42,2.08
23.7240,0.08,0.13,-0.99,3.05,3.30,1.95
23.7420,0.08,0.13,-0.99,3.23,3.54,2.01
23.7580,0.08,0.13,-0.99,3.42,3.17,2.14
23.7750,0.07,0.13,-0.99,3.05,3.17,2.14
23.7910,0.08,0.13,-0.99,2.93,3.42,2.14
23.8070,0.08,0.13,-0.99,3.42,2.99,2.01
23.8230,0.08,0.13,-1.00,2.87,3.11,2.01
23.8400,0.08,0.13,-0.99,3.42,3.36,1.59
23.8560,0.07,0.14,-1.00,4.03,3.11,0.73
23.8710,0.08,0.13,-0.99,3.36,3.42,0.79
23.8870,0.08,0.13,-0.99,3.36,3.17,1.04
23.9030,0.08,0.14,-0.99,3.66,2.99,0.92
23.9180,0.08,0.14,-1.00,3.78,2.87,0.61
23.9330,0.07,0.14,-0.99,3.97,3.54,0.55
23.9410,0.08,0.13,-0.99,3.60,3.54,1.04
23.9580,0.08,0.14,-0.99,3.72,3.36,0.98
23.9740,0.08,0.13,-1.00,3.66,3.97,1.04
23.9910,0.08,0.13,-0.99,3.78,3.66,0.85
24.0080,0.07,0.13,-0.99,3.72,3.54,0.67
24.0240,0.08,0.14,-0.99,3.54,3.23,1.10
24.0400,0.08,0.13,-0.99,3.11,3.60,0.92
24.0570,0.08,0.13,-0.99,3.54,3.42,1.28
24.0720,0.07,0.14,-0.99,3.85,3.42,1.16
24.0880,0.07,0.14,-0.99,3.17,3.54,1.53
24.1030,0.07,0.13,-0.99,3.17,3.36,2.01
24.1200,0.08,0.13,-0.99,3.48,3.11,1.95
24.1360,0.08,0.14,-0.99,3.60,2.87,2.14
24.1520,0.08,0.13,-0.99,2.93,3.17,2.14
24.1680,0.08,0.14,-0.99,3.17,2.93,2.01
24.1840,0.08,0.14,-0.99,3.42,3.48,2.01
24.2000,0.08,0.13,-0.99,3.54,3.54,2.14
24.2140,0.08,0.14,-1.00,3.78,3.48,2.14
24.2240,0.10,0.13,-0.98,3.36,3.11,1.71
24.2410,0.07,0.14,-0.99,4.09,2.75,1.65
24.2570,0.07,0.14,-0.99,3.36,2.87,1.77
24.2740,0.08,0.13,-0.99,3.30,2.87,2.08
24.2900,0.08,0.13,-0.99,3.72,3.11,2.01
24.3070,0.08,0.13,-0.99,3.85,2.87,2.08
24.3220,0.08,0.13,-0.99,3.72,3.30,2.01
24.3380,0.08,0.14,-0.99,3.97,3.23,2.01
24.3530,0.07,0.13,-0.99,3.05,3.30,2.01
24.3680,0.08,0.14,-0.99,3.23,3.30,1.83
24.3740,0.08,0.13,-0.99,2.87,2.81,1.83
24.3980,0.08,0.13,-1.00,3.54,2.99,1.95
24.4070,0.08,0.13,-0.99,3.85,2.99,2.08
24.4230,0.08,0.13,-0.99,3.30,3.11,2.56
24.4440,0.08,0.14,-0.99,3.36,2.87,2.44
24.4600,0.08,0.14,-0.99,2.87,2.69,2.08
24.4750,0.08,0.13,-0.99,2.93,3.05,2.08
24.4770,0.08,0.14,-0.99,3.42,3.11,2.20
24.5070,0.08,0.14,-0.99,3.48,3.05,2.69
24.5210,0.07,0.14,-0.99,3.11,3.48,2.69
24.5370,0.07,0.14,-0.99,3.30,2.93,2.32
24.5440,0.07,0.14,-0.99,3.17,3.42,2.08
24.5680,0.07,0.14,-0.99,2.69,3.48,1.95
24.5770,0.07,0.14,-0.99,2.87,3.48,2.01
24.5950,0.07,0.14,-0.99,3.30,3.23,2.14
24.6110,0.07,0.14,-0.99,3.05,3.42,1.95
24.6280,0.08,0.13,-0.99,2.62,3.23,1.89
24.6440,0.08,0.13,-0.99,2.69,3.11,1.95
24.6600,0.08,0.13,-0.99,3.05,3.05,2.26
24.6770,0.08,0.14,-0.99,3.91,3.17,2.26
24.6940,0.08,0.14,-0.99,3.23,3.42,2.26
24.7100,0.08,0.14,-0.99,3.05,3.42,2.08
24.7250,0.06,0.14,-1.00,2.50,3.05,1.28
24.7280,0.08,0.14,-1.00,3.05,3.66,1.04
24.7550,0.08,0.13,-0.99,3.36,3.48,0.85
24.7690,0.07,0.14,-0.99,3.78,3.42,1.10
24.7860,0.08,0.13,-0.98,3.48,3.60,1.22
24.7940,0.07,0.13,-0.99,3.72,2.99,1.28
24.8110,0.07,0.14,-0.99,3.48,3.54,1.71
24.8270,0.08,0.14,-0.99,3.54,3.11,1.71
24.8440,0.07,0.14,-0.99,3.23,3.48,1.59
24.8620,0.08,0.13,-0.99,3.23,3.42,1.53
24.8780,0.07,0.13,-0.99,3.11,3.60,1.71
24.8940,0.08,0.14,-0.99,3.36,3.54,1.83
24.9100,0.08,0.14,-0.99,3.54,3.17,1.65
24.9120,0.08,0.14,-0.99,3.42,2.99,1.59
24.9420,0.09,0.14,-0.99,3.30,3.11,1.34
24.9440,0.08,0.13,-0.99,3.54,3.36,0.98
24.9710,0.06,0.13,-0.99,3.78,3.23,0.85
24.9780,0.08,0.14,-0.99,3.54,3.42,1.16
24.9940,0.08,0.14,-0.99,3.17,3.42,0.67
25.0190,0.08,0.14,-0.99,3.05,3.60,0.37
25.0280,0.08,0.14,-0.99,3.85,3.60,-0.18
25.0440,0.08,0.13,-0.99,3.36,3.60,-0.12
25.0610,0.08,0.13,-0.99,3.60,3.72,0.55
25.0780,0.08,0.14,-0.99,3.36,3.36,0.98
25.0940,0.08,0.14,-0.99,3.05,3.30,0.98
25.1110,0.09,0.14,-0.99,2.99,3.48,0.67
25.1270,0.07,0.13,-0.99,2.81,3.42,1.40
25.1450,0.07,0.13,-0.99,3.11,3.54,2.08
25.1610,0.08,0.13,-0.99,3.30,3.30,2.26
25.1770,0.08,0.13,-0.99,3.48,3.23,2.32
25.1780,0.07,0.14,-0.99,3.05,3.30,2.20
25.2080,0.07,0.14,-0.99,2.75,3.17,2.08
25.2240,0.08,0.13,-0.99,2.38,3.48,1.65
25.2280,0.07,0.13,-0.99,2.99,2.99,1.71
25.2460,0.07,0.13,-0.99,3.11,3.05,1.77
25.2710,0.08,0.13,-0.99,3.78,3.42,2.14
25.2850,0.08,0.14,-0.99,3.72,3.54,2.20
25.3020,0.08,0.14,-0.99,3.66,3.23,1.77
25.3180,0.07,0.14,-0.99,3.11,3.36,1.46
25.3340,0.08,0.14,-0.99,2.93,3.54,1.53
25.3510,0.08,0.13,-0.99,3.48,3.30,1.34
25.3670,0.08,0.13,-0.99,3.72,3.23,1.65
25.3830,0.08,0.14,-0.99,3.66,3.36,1.65
25.3980,0.08,0.13,-0.99,3.30,3.42,1.59
25.4150,0.08,0.14,-0.99,3.17,3.48,1.10
25.4310,0.08,0.13,-0.99,2.87,3.54,1.10
25.4470,0.08,0.13,-0.99,3.17,3.66,1.34
25.4620,0.07,0.14,-0.99,3.66,3.30,1.77
25.4780,0.08,0.14,-0.99,3.23,3.42,1.77
25.4940,0.07,0.14,-0.99,2.62,3.30,1.46
25.5020,0.07,0.13,-0.99,2.56,3.48,1.34
25.5180,0.07,0.13,-0.99,3.17,3.54,1.59
25.5370,0.07,0.13,-0.99,3.36,3.42,1.83
25.5510,0.07,0.14,-0.99,3.48,3.11,2.14
25.5690,0.08,0.13,-0.99,3.54,3.48,2.14
25.5850,0.08,0.14,-0.99,3.36,3.11,2.14
25.6010,0.08,0.13,-0.99,3.66,3.05,2.08
25.6170,0.08,0.13,-0.99,3.54,3.54,2.14
25.6340,0.08,0.13,-0.99,3.42,3.23,1.89
25.6360,0.08,0.13,-0.99,3.78,3.11,1.89
25.6660,0.07,0.13,-0.99,3.97,3.36,1.95
25.6810,0.08,0.14,-0.99,3.97,3.36,2.26
25.6970,0.08,0.14,-0.99,2.87,2.81,2.01
25.7130,0.08,0.14,-0.99,2.75,3.23,1.65
25.7290,0.08,0.13,-0.99,3.05,2.69,1.71
25.7450,0.08,0.13,-0.99,3.78,3.05,2.08
25.7610,0.08,0.13,-0.99,3.85,3.11,2.01
25.7770,0.09,0.14,-0.99,3.60,3.11,2.20
25.7910,0.08,0.14,-0.99,3.11,3.42,2.14
25.8020,0.09,0.13,-0.99,3.30,3.48,1.83
25.8180,0.08,0.14,-0.99,3.23,3.36,1.65
25.8350,0.08,0.13,-0.99,2.93,2.99,1.89
25.8520,0.08,0.14,-0.99,3.30,2.93,2.14
25.8680,0.07,0.13,-0.99,3.54,2.69,2.69
25.8840,0.07,0.14,-1.00,3.60,2.99,2.62
25.8860,0.08,0.14,-0.99,3.54,3.11,2.38
25.9150,0.07,0.14,-0.99,2.93,3.60,2.50
25.9320,0.08,0.13,-0.99,3.17,2.93,2.56
25.9480,0.08,0.14,-0.99,3.23,3.48,2.56
25.9630,0.08,0.14,-0.99,3.30,3.78,2.44
25.9780,0.08,0.14,-0.99,3.11,2.87,2.32
25.9850,0.08,0.13,-0.99,3.17,2.93,2.32
26.0020,0.08,0.14,-0.99,2.87,3.60,2.32
26.0190,0.08,0.14,-0.99,2.62,3.36,2.26
26.0360,0.07,0.14,-0.99,2.81,3.54,2.38
26.0530,0.08,0.14,-0.99,3.36,2.69,2.08
26.0680,0.07,0.14,-1.00,3.72,2.87,2.38
26.0850,0.07,0.14,-0.99,3.23,3.36,2.26
26.1000,0.07,0.13,-0.99,3.05,3.17,1.95
26.1160,0.08,0.13,-0.99,3.42,3.05,2.14
26.1320,0.08,0.13,-0.99,3.60,3.11,2.20
26.1480,0.08,0.13,-0.99,3.72,3.11,2.69
26.1640,0.08,0.14,-0.99,3.42,2.99,2.81
26.1790,0.07,0.14,-0.99,3.17,2.99,2.81
26.1940,0.08,0.14,-0.99,3.05,3.23,2.44
26.2020,0.07,0.14,-0.99,3.23,3.17,2.69
26.2190,0.08,0.13,-0.99,3.23,3.05,2.56
26.2360,0.08,0.13,-0.99,3.42,3.17,2.32
26.2520,0.07,0.14,-0.99,3.30,2.75,2.50
26.2700,0.08,0.14,-0.99,3.42,2.99,2.50
26.2850,0.07,0.13,-0.99,3.11,3.05,2.62
26.3010,0.08,0.14,-0.99,3.54,3.30,2.44
26.3180,0.07,0.14,-0.99,2.93,3.48,2.44
26.3330,0.08,0.13,-0.99,3.05,2.93,2.38
26.3480,0.08,0.13,-0.99,3.60,3.05,2.14
26.3640,0.08,0.14,-0.99,4.03,2.81,2.44
26.3720,0.08,0.14,-0.99,3.60,2.99,2.26
26.3940,0.08,0.14,-0.99,3.30,2.99,2.08
26.4020,0.10,0.14,-0.99,2.81,2.81,1.83
26.4250,0.07,0.13,-0.99,2.50,2.69,1.65
26.4350,0.09,0.13,-0.98,3.36,2.99,2.08
26.4520,0.07,0.13,-0.99,3.23,3.36,1.89
26.4690,0.07,0.14,-0.99,3.48,2.99,2.32
26.4860,0.06,0.13,-1.00,2.87,3.66,2.20
26.5030,0.07,0.14,-0.99,3.66,3.30,2.14
26.5180,0.07,0.13,-0.99,2.99,3.30,2.20
26.5350,0.08,0.13,-0.99,3.85,3.05,2.38
26.5500,0.08,0.13,-0.99,3.85,3.23,2.44
26.5670,0.07,0.14,-0.99,3.42,3.42,2.87
26.5720,0.07,0.14,-0.99,3.17,2.99,2.87
26.5850,0.07,0.14,-0.99,3.17,3.11,2.69
26.6070,0.08,0.14,-0.99,3.23,2.93,2.32
26.6230,0.08,0.14,-0.99,3.54,3.17,2.26
26.6410,0.08,0.14,-0.99,3.05,3.23,2.08
26.6570,0.09,0.13,-0.99,2.62,3.54,2.14
26.6750,0.09,0.13,-0.99,3.11,3.05,2.14
26.6910,0.10,0.14,-0.99,3.23,2.99,2.20
26.7070,0.08,0.13,-1.00,2.93,2.99,2.56
26.7230,0.06,0.13,-0.99,3.17,2.99,2.93
26.7400,0.05,0.14,-0.99,3.23,3.11,2.81
26.7550,0.06,0.14,-0.99,3.05,3.05,2.20
26.7590,0.07,0.13,-1.00,2.99,3.17,2.14
26.7870,0.08,0.13,-0.99,3.48,3.17,2.20
26.8030,0.08,0.13,-0.99,3.85,3.17,2.08
26.8180,0.08,0.14,-0.99,3.78,3.17,2.08
26.8340,0.10,0.13,-0.99,3.42,3.23,2.26
26.8510,0.07,0.14,-0.99,3.05,3.30,1.89
26.8670,0.07,0.13,-0.99,2.56,3.17,1.95
26.8820,0.08,0.14,-0.99,3.54,3.23,2.08
26.8960,0.08,0.14,-0.99,3.72,3.11,2.01
26.9080,0.09,0.14,-0.99,2.99,3.66,1.89
26.9240,0.07,0.13,-0.99,3.05,3.23,1.77
26.9410,0.08,0.14,-0.99,3.36,3.48,1.89
26.9570,0.09,0.14,-0.99,2.87,3.48,1.59
26.9740,0.08,0.13,-0.99,2.87,3.30,1.34
26.9900,0.08,0.14,-0.99,3.05,3.60,1.53
27.0070,0.08,0.14,-0.99,3.17,3.11,1.53
27.0220,0.09,0.13,-0.99,3.48,3.17,1.65
27.0370,0.07,0.13,-0.99,3.66,3.17,1.65
27.0520,0.06,0.14,-0.99,3.36,3.05,2.26
27.0680,0.07,0.14,-0.99,2.93,3.36,2.50
27.0840,0.08,0.14,-0.99,2.87,2.81,2.14
27.1010,0.12,0.14,-0.99,3.72,2.93,1.89
27.1070,0.11,0.14,-0.99,3.60,3.11,1.10
27.1230,0.06,0.13,-0.99,3.48,3.48,0.92
27.1430,0.05,0.13,-0.99,3.48,3.30,1.46
27.1590,0.07,0.14,-0.99,3.17,3.36,1.95
27.1750,0.08,0.14,-1.00,3.11,3.23,2.20
27.1940,0.08,0.14,-0.99,2.50,3.60,2.20
27.2090,0.08,0.13,-0.99,2.93,3.36,2.01
27.2250,0.08,0.13,-0.99,2.87,3.48,2.26
27.2420,0.07,0.13,-0.99,2.81,3.30,2.08
27.2580,0.10,0.12,-0.97,3.66,2.87,2.20
27.2740,0.09,0.15,-0.99,4.58,2.93,2.20
27.2890,0.08,0.13,-0.99,2.69,2.87,1.95
27.3030,0.07,0.13,-0.99,2.44,3.36,1.95
27.3190,0.08,0.14,-0.99,3.11,2.93,2.01
27.3260,0.08,0.14,-0.99,2.87,2.99,2.01
27.3410,0.07,0.13,-0.98,4.03,2.56,2.08
27.3630,0.08,0.11,-0.96,3.36,2.93,2.01
27.3790,0.08,0.13,-0.98,3.91,2.08,2.01
27.3970,0.08,0.13,-0.98,4.39,2.08,1.95
27.4140,0.08,0.14,-0.99,5.25,1.83,1.95
27.4290,0.09,0.14,-1.00,5.19,1.16,2.20
27.4460,0.08,0.14,-1.00,4.52,1.83,1.95
27.4620,0.08,0.14,-0.99,4.03,2.26,2.01
27.4740,0.08,0.14,-0.99,3.72,2.14,2.14
27.4930,0.08,0.14,-1.00,3.97,2.93,2.08
27.4970,0.08,0.14,-0.99,2.08,3.72,2.01
27.5240,0.08,0.13,-0.99,0.98,5.19,2.26
27.5390,0.08,0.13,-0.98,0.37,5.31,1.89
27.5550,0.08,0.13,-0.99,0.12,4.64,2.01
27.5700,0.08,0.13,-0.99,0.55,4.39,1.89
27.5800,0.08,0.13,-0.99,1.95,4.03,1.89
27.5960,0.08,0.13,-0.99,2.87,3.36,2.08
27.6120,0.08,0.13,-0.99,2.99,3.60,2.08
27.6300,0.08,0.13,-0.99,3.54,3.48,2.08
27.6470,0.08,0.14,-0.99,3.42,3.42,2.08
27.6620,0.08,0.12,-0.98,1.95,3.91,2.01
27.6800,0.07,0.14,-1.00,3.60,3.48,2.08
27.6960,0.08,0.14,-0.99,3.17,3.54,2.01
27.7130,0.08,0.13,-0.99,2.69,3.30,2.01
27.7280,0.08,0.13,-0.99,2.99,3.17,2.01
27.7450,0.08,0.13,-0.99,3.36,2.87,1.95
27.7610,0.08,0.13,-0.99,3.42,3.42,1.89
27.7750,0.08,0.13,-0.99,3.23,3.30,2.14
27.7790,0.07,0.15,-1.00,3.72,3.36,2.01
27.7960,0.07,0.13,-0.99,2.50,3.23,2.08
27.8240,0.09,0.13,-0.98,2.32,3.17,1.95
27.8300,0.08,0.11,-0.98,1.04,3.36,1.95
27.8450,0.08,0.13,-1.01,3.17,3.42,0.85
27.8660,0.08,0.15,-1.00,3.66,4.39,-2.56
27.8830,0.08,0.12,-1.00,2.20,3.66,1.34
27.8990,0.08,0.13,-1.00,3.60,3.23,2.14
27.9000,0.08,0.13,-0.99,2.56,3.54,2.01
27.9320,0.08,0.14,-1.00,2.20,2.75,2.01
27.9480,0.08,0.12,-0.98,1.83,3.72,1.95
27.9490,0.06,0.14,-1.00,5.86,3.60,2.32
27.9760,0.07,0.12,-1.00,0.49,3.66,1.89
27.9830,0.07,0.14,-0.99,3.72,3.36,2.20
27.9980,0.09,0.16,-1.02,6.59,3.05,2.32
28.0270,0.07,0.11,-0.99,1.10,3.97,2.01
28.0420,0.08,0.13,-0.99,4.39,3.11,2.32
28.0570,0.07,0.12,-0.99,2.26,3.30,2.01
28.0670,0.08,0.14,-1.00,4.09,3.54,2.08
28.0850,0.08,0.13,-0.99,2.93,3.30,2.26
28.1000,0.08,0.13,-0.99,3.42,3.23,2.08
28.1190,0.08,0.13,-0.99,3.36,3.42,2.14
28.1350,0.08,0.13,-0.99,3.48,3.30,2.14
28.1510,0.08,0.13,-0.99,3.23,3.23,2.08
28.1660,0.08,0.13,-0.99,2.20,3.11,2.14
28.1830,0.08,0.13,-0.99,3.36,3.23,2.26
28.1990,0.08,0.12,-0.99,3.05,3.11,2.20
28.2140,0.08,0.14,-1.00,4.70,3.30,2.20
28.2310,0.08,0.12,-0.99,2.75,3.36,2.01
28.2470,0.08,0.13,-0.99,3.54,3.48,2.20
28.2630,0.08,0.13,-0.99,3.17,3.17,2.08
28.2780,0.08,0.13,-0.99,3.11,3.78,2.20
28.2930,0.08,0.13,-0.99,3.17,3.05,2.08
28.3050,0.08,0.13,-0.99,3.36,3.48,2.14
28.3200,0.08,0.13,-0.99,2.62,3.54,2.20
28.3380,0.07,0.12,-0.98,3.72,3.54,2.20
28.3540,0.06,0.11,-0.98,1.22,4.21,1.89
28.3690,0.08,0.11,-0.98,1.95,3.42,1.95
28.3850,0.08,0.15,-1.00,1.89,3.72,2.08
28.4010,0.07,0.11,-0.98,1.65,3.36,1.89
28.4160,0.08,0.13,-0.99,5.13,2.93,2.26
28.4330,0.08,0.14,-1.00,6.16,3.42,2.26
28.4490,0.08,0.14,-0.99,2.99,3.42,2.01
28.4640,0.08,0.13,-0.99,1.59,3.60,2.01
28.4810,0.08,0.13,-0.98,1.89,4.27,2.01
28.4960,0.07,0.12,-0.99,3.30,3.54,2.14
28.5120,0.07,0.13,-0.99,4.39,3.54,2.08
28.5270,0.08,0.11,-0.99,3.85,3.97,-0.67
28.5370,0.07,0.14,-0.99,3.97,4.21,-3.11
28.5540,0.08,0.14,-0.99,4.15,4.03,-0.43
28.5720,0.07,0.13,-0.99,3.17,3.91,-0.73
28.5880,0.07,0.12,-1.00,3.30,4.03,-1.10
28.6040,0.07,0.12,-0.99,3.85,4.21,-1.34
28.6190,0.07,0.13,-0.99,4.15,4.09,-1.40
28.6360,0.08,0.14,-0.99,3.78,3.66,-1.53
28.6520,0.08,0.15,-0.99,4.03,3.48,-0.49
28.6540,0.08,0.15,-0.99,3.85,3.48,1.28
28.6840,0.07,0.13,-0.99,3.66,3.60,2.14
28.6880,0.08,0.12,-0.99,3.78,3.48,1.89
28.7040,0.07,0.11,-1.00,3.23,3.17,-0.12
28.7310,0.07,0.13,-0.99,3.11,3.60,-0.43
28.7370,0.08,0.14,-0.99,3.78,3.72,-0.12
28.7530,0.07,0.14,-1.00,4.09,3.17,1.10
28.7770,0.08,0.13,-0.99,2.56,3.42,1.10
28.7920,0.08,0.13,-0.99,1.71,3.36,-0.18
28.8100,0.09,0.13,-0.99,3.05,3.60,-0.55
28.8240,0.08,0.13,-0.99,4.27,3.72,0.24
28.8410,0.07,0.13,-0.99,2.99,3.60,1.16
28.8420,0.07,0.14,-0.99,2.75,3.85,1.22
28.8730,0.08,0.13,-0.99,3.42,3.36,0.92
28.8890,0.08,0.14,-0.99,2.93,3.42,0.79
28.9060,0.07,0.13,-0.99,2.99,3.36,1.46
28.9220,0.08,0.13,-0.99,3.11,3.42,0.55
28.9250,0.08,0.13,-0.99,3.78,3.78,0.00
28.9410,0.07,0.13,-1.00,3.60,3.66,0.37
28.9570,0.08,0.13,-0.99,2.62,3.66,0.24
28.9790,0.08,0.13,-1.00,2.93,3.78,0.24
28.9950,0.08,0.13,-0.99,3.11,3.78,-0.31
29.0110,0.08,0.14,-0.99,3.54,3.91,-0.67
29.0280,0.07,0.13,-1.00,3.36,3.48,0.61
29.0450,0.08,0.13,-0.99,2.50,3.97,1.10
29.0630,0.08,0.13,-0.99,2.87,3.72,1.16
29.0790,0.08,0.13,-0.99,3.66,3.78,0.73
29.0940,0.08,0.13,-0.99,3.42,4.09,0.06
29.1110,0.08,0.13,-0.99,3.72,3.42,-0.24
29.1280,0.08,0.13,-0.99,3.23,3.78,-0.12
29.1440,0.08,0.14,-0.99,3.05,3.97,-0.18
29.1450,0.08,0.13,-0.99,2.44,3.72,0.61
29.1620,0.07,0.13,-0.99,2.50,3.72,0.67
29.1790,0.07,0.13,-0.99,2.62,3.48,0.61
29.1950,0.07,0.13,-0.99,3.42,3.17,0.85
29.2160,0.07,0.12,-1.00,4.09,2.99,0.73
29.2350,0.07,0.16,-0.99,2.81,3.66,0.31
29.2500,0.07,0.13,-0.99,2.93,3.54,0.49
29.2670,0.08,0.14,-0.99,3.60,3.60,0.98
29.2840,0.08,0.13,-0.99,3.78,3.30,1.28
29.2850,0.08,0.13,-0.99,3.17,3.23,0.79
29.3010,0.08,0.12,-0.99,3.48,3.30,0.12
29.3320,0.08,0.12,-0.99,3.66,3.66,0.06
29.3480,0.07,0.12,-1.00,3.17,3.66,-0.24
29.3630,0.07,0.13,-0.99,2.87,3.48,-1.04
29.3780,0.07,0.14,-0.99,2.87,3.91,-1.22
29.3930,0.08,0.14,-0.99,3.48,3.66,-0.12
29.4010,0.08,0.13,-0.99,3.23,3.23,0.18
29.4160,0.07,0.13,-0.99,3.36,3.97,0.61
29.4380,0.07,0.14,-0.99,3.36,3.36,1.22
29.4560,0.07,0.13,-0.99,2.81,3.30,1.34
29.4710,0.08,0.13,-0.99,2.81,3.11,1.34
29.4880,0.08,0.13,-0.99,3.42,3.30,0.85
29.5050,0.08,0.13,-0.99,3.48,3.42,0.43
29.5210,0.07,0.12,-0.99,3.30,3.91,-0.12
29.5370,0.07,0.13,-0.99,3.36,3.97,-0.61
29.5380,0.08,0.13,-0.99,3.23,3.54,-0.24
29.5680,0.08,0.13,-0.99,2.99,3.42,0.43
29.5840,0.08,0.13,-0.99,3.11,3.91,0.12
29.5990,0.08,0.13,-0.99,3.54,3.78,0.06
29.6160,0.07,0.13,-0.99,3.72,3.30,0.18
29.6210,0.08,0.13,-0.99,3.42,2.99,0.24
29.6480,0.08,0.13,-0.99,2.50,3.72,0.37
29.6630,0.08,0.13,-0.99,3.36,3.78,0.12
29.6790,0.08,0.12,-0.99,3.23,3.97,0.06
29.6880,0.08,0.12,-0.99,3.42,3.85,0.24
29.7050,0.07,0.13,-0.99,3.42,3.60,0.12
29.7230,0.07,0.14,-0.99,3.48,3.36,0.85
29.7380,0.08,0.13,-0.99,3.78,3.30,1.28
29.7560,0.08,0.13,-0.99,3.05,3.23,1.04
29.7720,0.08,0.13,-0.99,2.93,3.97,0.67
29.7880,0.08,0.12,-0.99,3.42,3.72,1.16
29.8030,0.07,0.12,-1.00,3.54,3.91,0.92
29.8050,0.07,0.11,-1.00,3.23,3.97,-0.06
29.8340,0.08,0.12,-0.99,2.81,4.33,-1.46
29.8510,0.08,0.13,-1.00,2.93,3.72,-1.65
29.8650,0.07,0.14,-0.99,2.62,3.72,-0.43
29.8820,0.07,0.13,-0.99,3.30,3.36,-0.12
29.8990,0.07,0.13,-0.99,2.81,3.60,-0.12
29.9140,0.08,0.12,-0.99,3.17,3.42,-0.31
29.9290,0.08,0.13,-0.99,2.75,4.39,-0.98
29.9440,0.08,0.13,-0.99,2.99,3.91,-0.31
29.9550,0.08,0.13,-0.99,3.60,3.11,0.31
29.9730,0.07,0.13,-1.00,3.42,3.48,0.31
29.9880,0.07,0.12,-0.99,3.60,3.48,0.43
30.0080,0.07,0.12,-0.99,3.05,3.48,0.00
30.0090,0.08,0.12,-0.99,2.81,3.48,-1.10
30.0390,0.08,0.13,-0.99,3.17,3.72,-1.10
30.0420,0.08,0.13,-1.00,3.85,3.72,-0.79
30.0710,0.08,0.13,-0.99,3.54,3.23,-0.43
30.0860,0.08,0.13,-1.00,3.72,4.21,-0.49
30.0920,0.07,0.12,-0.99,2.87,3.91,-0.55
30.1100,0.08,0.13,-0.99,3.42,3.72,-0.61
30.1260,0.08,0.13,-0.99,3.48,3.60,0.31
30.1470,0.08,0.13,-1.00,3.11,3.60,0.00
30.1630,0.08,0.13,-0.99,2.69,3.91,0.06
30.1780,0.08,0.12,-0.99,2.69,4.58,0.12
30.1790,0.07,0.12,-0.99,3.11,4.15,-0.06
30.1960,0.07,0.12,-0.99,2.93,4.15,-0.12
30.2260,0.08,0.13,-0.99,1.77,4.03,0.06
30.2430,0.08,0.14,-0.99,3.11,3.30,0.67
30.2590,0.08,0.12,-1.00,3.42,2.93,0.49
30.2630,0.07,0.11,-1.00,3.36,3.72,-0.31
30.2900,0.08,0.11,-0.99,2.62,4.39,-1.10
30.2960,0.08,0.13,-1.00,3.30,4.15,-0.55
30.3120,0.08,0.13,-0.99,3.17,3.72,-0.06
30.3360,0.08,0.14,-0.99,2.99,3.36,0.37
30.3520,0.08,0.13,-0.99,3.05,3.36,0.55
30.3690,0.07,0.12,-1.00,3.48,3.54,0.85
30.3850,0.07,0.12,-0.99,3.72,3.30,0.73
30.4010,0.08,0.12,-1.00,3.48,3.72,0.00
30.4170,0.07,0.12,-0.99,3.42,3.60,-0.12
30.4330,0.07,0.13,-0.99,3.72,3.66,0.43
30.4380,0.08,0.13,-1.00,2.99,3.66,0.24
30.4650,0.08,0.13,-1.00,2.87,3.60,0.31
30.4810,0.07,0.12,-0.99,3.05,3.36,0.55
30.4960,0.08,0.12,-0.99,3.36,3.48,-0.12
30.5110,0.08,0.12,-1.00,3.85,3.72,-0.06
30.5200,0.08,0.13,-0.99,3.60,4.09,-0.31
30.5360,0.08,0.13,-0.99,3.91,3.23,0.00
30.5560,0.08,0.13,-1.00,3.78,3.42,0.06
30.5720,0.08,0.12,-0.99,3.42,3.97,0.61
30.5870,0.07,0.11,-1.00,3.23,3.91,0.43
30.6020,0.08,0.12,-0.99,3.60,3.54,-0.24
30.6090,0.08,0.13,-0.99,3.91,3.60,0.55
30.6260,0.07,0.13,-0.99,3.48,3.17,0.43
30.6420,0.08,0.13,-0.99,3.05,3.30,0.43
30.6630,0.08,0.13,-0.99,3.23,3.54,0.24
30.6800,0.08,0.12,-1.00,3.54,3.72,-0.73
30.6960,0.07,0.12,-0.99,3.36,3.85,-0.43
30.7110,0.07,0.12,-0.99,3.42,3.78,0.61
30.7130,0.08,0.12,-0.99,3.85,3.48,0.31
30.7430,0.08,0.13,-0.99,4.09,3.42,-0.12
30.7590,0.08,0.13,-1.00,3.72,3.54,0.00
30.7630,0.08,0.14,-0.99,3.11,3.72,0.49
30.7800,0.07,0.12,-0.99,3.78,3.48,1.53
30.8030,0.07,0.12,-0.99,3.05,3.05,1.59
30.8210,0.08,0.12,-0.99,3.54,3.17,0.85
30.8360,0.07,0.12,-1.00,3.60,3.23,0.24
30.8520,0.08,0.12,-0.99,3.23,4.15,-0.73
30.8680,0.08,0.13,-0.99,3.54,3.78,-0.67
30.8840,0.07,0.13,-0.99,3.42,3.48,0.18
30.8870,0.07,0.13,-0.99,3.11,3.30,0.24
30.9020,0.08,0.13,-1.00,3.36,3.72,0.43
30.9240,0.08,0.12,-0.99,3.42,3.42,1.04
30.9410,0.08,0.13,-1.00,2.99,3.72,0.98
30.9580,0.08,0.13,-0.99,2.81,3.97,0.61
30.9730,0.08,0.12,-0.99,2.87,3.78,0.31
30.9890,0.07,0.13,-0.99,3.85,3.60,0.61
30.9970,0.07,0.13,-0.99,3.91,3.11,1.40
31.0160,0.08,0.13,-0.99,3.78,3.05,1.53
31.0320,0.08,0.13,-0.99,3.05,3.17,1.53
31.0510,0.08,0.13,-0.99,3.11,3.60,1.77
31.0530,0.08,0.12,-0.99,3.11,3.42,1.53
31.0800,0.08,0.12,-0.99,4.03,3.60,1.16
31.0980,0.07,0.12,-1.00,3.30,3.78,0.61
31.1020,0.08,0.13,-0.99,2.93,3.78,0.61
31.1200,0.08,0.13,-0.99,2.81,3.48,0.61
31.1470,0.08,0.13,-0.99,2.69,3.36,0.98
31.1630,0.08,0.12,-0.99,3.23,3.48,1.22
31.1790,0.07,0.11,-0.99,3.11,3.36,0.12
31.1940,0.07,0.12,-0.99,4.21,3.60,-0.24
31.2090,0.08,0.13,-0.99,4.33,3.60,-0.37
31.2190,0.08,0.14,-0.99,3.97,3.54,-0.24
31.2350,0.08,0.14,-0.99,3.91,3.72,0.24
31.2560,0.08,0.13,-0.99,3.72,3.66,1.10
31.2720,0.07,0.13,-1.00,3.54,3.78,1.16
31.2870,0.08,0.12,-0.99,3.42,3.72,1.22
31.3030,0.07,0.13,-0.99,3.42,3.66,0.31
31.3190,0.08,0.13,-0.99,2.62,3.91,0.98
31.3350,0.08,0.12,-0.99,2.38,3.85,0.98
31.3390,0.08,0.12,-1.00,2.81,3.85,0.37
31.3550,0.07,0.12,-0.99,2.99,3.60,0.18
31.3800,0.08,0.11,-1.00,3.36,3.60,0.49
31.3950,0.08,0.12,-1.00,3.11,3.60,0.24
31.4120,0.08,0.12,-0.99,2.69,3.85,-0.85
31.4290,0.07,0.13,-0.99,3.66,3.36,-1.22
31.4450,0.07,0.13,-0.99,4.09,3.17,-0.98
31.4620,0.07,0.14,-0.99,3.97,3.85,-0.43
31.4620,0.07,0.13,-0.99,4.03,3.05,0.98
31.4930,0.08,0.12,-1.00,3.85,3.36,1.59
31.4950,0.08,0.12,-0.99,3.30,3.85,1.59
31.5120,0.08,0.12,-1.00,3.54,3.48,1.22
31.5290,0.07,0.12,-0.99,3.42,3.54,1.10
31.5440,0.07,0.12,-1.00,3.60,3.11,0.92
31.5670,0.08,0.13,-0.99,3.30,3.72,0.92
31.5840,0.08,0.13,-0.99,3.54,3.54,1.22
31.6020,0.07,0.13,-0.99,3.23,3.42,1.71
31.6170,0.07,0.13,-0.99,2.87,3.66,2.08
31.6330,0.08,0.13,-1.00,2.93,3.17,2.26
31.6350,0.08,0.12,-0.99,2.32,3.48,2.01
31.6650,0.08,0.11,-1.00,3.72,3.66,2.01
31.6820,0.08,0.11,-0.99,3.66,3.72,0.79
31.6840,0.08,0.13,-0.99,3.48,3.54,-0.18
31.7010,0.08,0.13,-1.00,3.97,3.66,0.18
31.7280,0.08,0.13,-0.99,3.30,3.36,0.18
31.7440,0.08,0.13,-0.99,3.54,3.42,0.37
31.7590,0.08,0.13,-0.99,3.78,3.66,0.85
31.7740,0.07,0.12,-0.99,3.36,3.60,1.28
31.7830,0.08,0.12,-0.99,3.17,3.60,1.22
31.7990,0.08,0.12,-0.99,2.87,3.60,0.73
31.8190,0.08,0.13,-0.99,2.75,3.30,0.85
31.8350,0.08,0.12,-0.99,3.11,4.03,1.28
31.8380,0.08,0.12,-0.99,3.05,3.48,1.22
31.8540,0.08,0.12,-1.00,2.87,3.72,0.43
31.8780,0.08,0.12,-1.00,2.93,3.60,0.00
31.8950,0.08,0.12,-0.99,2.20,4.03,-0.43
31.9120,0.07,0.12,-0.99,2.69,4.33,-0.92
31.9280,0.08,0.13,-0.99,3.42,3.66,-0.43
31.9450,0.07,0.13,-0.99,3.60,3.05,0.61
31.9610,0.07,0.13,-1.00,2.75,3.60,0.61
31.9770,0.07,0.12,-0.99,2.32,3.91,-0.12
31.9930,0.07,0.12,-0.99,3.17,3.42,0.43
32.0090,0.07,0.12,-0.99,3.72,3.42,0.61
32.0120,0.08,0.12,-0.99,3.85,3.72,0.06
32.0280,0.08,0.13,-1.00,3.72,3.54,0.12
32.0500,0.07,0.12,-0.99,3.36,3.78,0.12
32.0670,0.08,0.12,-1.00,3.30,3.54,-0.06
32.0840,0.07,0.12,-0.99,2.99,3.85,0.06
32.1000,0.08,0.13,-0.99,3.78,3.72,0.73
32.1170,0.08,0.13,-0.99,4.09,2.93,1.46
32.1180,0.07,0.12,-1.00,3.60,3.30,1.46
32.1490,0.07,0.11,-1.00,3.11,3.60,0.79
32.1500,0.06,0.11,-1.00,2.99,3.97,-0.55
32.1820,0.08,0.12,-0.99,2.87,4.09,-0.73
32.1980,0.08,0.12,-0.99,3.85,3.78,-0.43
32.2150,0.08,0.13,-0.99,3.23,3.66,-1.28
32.2300,0.08,0.13,-0.99,3.72,3.42,-0.49
32.2330,0.08,0.13,-1.00,3.78,3.36,0.31
32.2500,0.08,0.13,-0.99,3.36,3.66,1.16
32.2660,0.07,0.12,-0.99,3.17,3.60,1.22
32.2880,0.08,0.12,-0.99,3.30,4.09,0.00
32.3050,0.08,0.13,-0.99,3.66,3.42,0.92
32.3210,0.08,0.13,-0.99,3.91,3.11,2.08
32.3370,0.08,0.13,-0.99,3.05,3.54,2.20
32.3550,0.08,0.12,-1.00,3.11,3.85,2.20
32.3710,0.07,0.10,-1.00,3.05,3.78,1.16
32.3880,0.07,0.11,-0.99,3.30,4.09,-0.55
32.4030,0.07,0.13,-1.00,4.39,3.54,-0.06
32.4200,0.08,0.13,-0.99,3.30,3.54,1.22
32.4350,0.08,0.13,-0.99,3.05,3.60,1.28
32.4500,0.08,0.12,-0.99,2.93,3.60,0.67
32.4680,0.08,0.12,-0.99,3.54,3.60,0.06
32.4840,0.07,0.12,-1.00,4.09,3.60,-0.37
32.4880,0.08,0.12,-1.00,3.42,3.66,-0.31
32.5030,0.08,0.12,-0.99,3.48,3.60,-0.24
32.5260,0.07,0.12,-1.00,3.36,4.03,-0.43
32.5430,0.07,0.12,-0.99,2.75,3.91,-0.61
32.5590,0.08,0.13,-0.99,3.11,3.72,-0.43
32.5760,0.08,0.13,-0.99,3.42,3.42,0.00
32.5920,0.08,0.13,-0.99,3.36,3.48,0.61
32.6080,0.08,0.12,-1.00,3.30,3.78,1.04
32.6250,0.07,0.10,-0.99,2.93,4.03,-0.31
32.6410,0.07,0.12,-0.99,3.48,4.09,-1.83
32.6550,0.07,0.13,-0.99,4.03,3.36,-0.37
32.6720,0.08,0.13,-0.99,3.91,3.42,0.31
32.6810,0.08,0.13,-0.99,4.09,3.11,1.28
32.7040,0.08,0.13,-1.00,3.42,3.85,1.10
32.7190,0.08,0.12,-0.99,2.99,4.09,0.92
32.7360,0.08,0.12,-0.99,3.60,3.85,0.43
32.7510,0.07,0.12,-1.00,4.21,3.48,0.67
32.7590,0.08,0.13,-0.99,3.85,3.60,0.79
32.7810,0.08,0.13,-0.99,3.72,3.54,1.53
32.7930,0.08,0.12,-0.99,2.87,4.21,1.59
32.8100,0.07,0.12,-0.99,3.36,3.36,0.98
32.8260,0.08,0.12,-1.00,3.72,3.30,1.34
32.8430,0.08,0.12,-0.99,3.42,3.30,0.73
32.8600,0.08,0.13,-0.99,3.30,3.17,0.98
32.8760,0.08,0.13,-0.99,2.87,4.03,1.71
32.8930,0.07,0.13,-0.99,3.23,3.54,2.08
32.9090,0.08,0.13,-1.00,3.23,3.30,2.01
32.9260,0.08,0.12,-0.99,2.75,3.72,1.95
32.9410,0.08,0.12,-0.99,2.87,3.78,1.65
32.9580,0.08,0.12,-1.00,3.42,3.11,1.40
32.9600,0.08,0.13,-0.99,3.17,3.36,1.71
32.9810,0.08,0.12,-0.99,2.81,3.36,1.83
32.9990,0.08,0.12,-0.99,3.17,3.54,1.28
33.0160,0.07,0.12,-0.99,3.66,3.17,0.79
33.0340,0.08,0.12,-1.00,3.72,3.48,0.12
33.0490,0.07,0.12,-0.99,3.23,3.36,-1.46
33.0640,0.07,0.12,-0.99,3.91,3.78,-0.73
33.0660,0.07,0.13,-0.99,4.27,3.72,-0.06
33.0960,0.08,0.15,-0.99,3.91,3.05,1.04
33.1110,0.07,0.13,-0.99,2.75,3.48,1.83
33.1270,0.07,0.12,-0.99,2.69,3.17,1.83
33.1330,0.07,0.11,-1.00,3.42,3.05,1.59
33.1480,0.07,0.11,-1.00,3.30,3.30,0.55
33.1730,0.08,0.12,-0.99,3.17,3.66,0.55
33.1890,0.08,0.13,-0.99,4.03,3.36,0.49
33.2060,0.08,0.13,-0.99,3.60,3.23,1.16
33.2210,0.08,0.12,-0.99,2.62,3.42,1.10
33.2360,0.07,0.11,-0.99,3.30,3.66,0.55
33.2410,0.07,0.11,-1.00,3.60,3.72,-1.10
33.2560,0.07,0.12,-0.99,3.66,3.78,-1.59
33.2810,0.08,0.14,-0.99,4.09,3.85,-0.67
33.2970,0.08,0.14,-0.99,3.36,3.97,0.43
33.3120,0.08,0.13,-0.99,2.62,3.17,0.55
33.3280,0.08,0.12,-0.99,3.05,3.30,0.79
33.3440,0.07,0.12,-0.99,3.97,3.85,0.55
33.3590,0.08,0.13,-0.99,4.46,2.99,1.22
33.3620,0.08,0.12,-0.99,4.15,3.60,1.10
33.3820,0.08,0.12,-0.99,3.30,3.30,0.24
33.4000,0.07,0.13,-0.99,3.97,3.42,-0.79
33.4180,0.08,0.13,-0.99,4.46,3.48,0.67
33.4330,0.08,0.13,-0.99,3.36,3.78,1.10
33.4500,0.08,0.13,-0.99,2.93,3.72,1.10
33.4500,0.07,0.12,-1.00,3.36,3.48,0.31
33.4800,0.07,0.11,-0.99,3.23,3.72,-0.55
33.4840,0.07,0.12,-0.99,3.42,3.91,-0.37
33.5000,0.07,0.13,-1.00,3.72,3.60,15.38
33.5250,0.08,0.13,-0.99,3.48,3.54,0.49
33.5340,0.08,0.14,-1.00,3.05,3.48,0.61
33.5500,0.08,0.12,-0.99,2.62,3.54,0.73
33.5680,0.08,0.12,-0.99,2.99,3.54,0.18
33.5840,0.08,0.12,-0.99,3.60,3.11,0.00
33.6000,0.07,0.11,-1.00,3.85,3.42,-0.18
33.6180,0.08,0.13,-0.99,2.56,3.78,-1.53
33.6340,0.08,0.13,-0.99,3.17,3.66,-0.31
33.6500,0.07,0.13,-0.99,3.11,3.72,0.18
33.6520,0.08,0.13,-0.99,2.93,3.23,0.49
33.6840,0.08,0.12,-0.99,3.72,2.93,1.16
33.7000,0.08,0.12,-1.00,3.11,3.60,0.55
33.7170,0.08,0.12,-0.99,3.66,3.91,-0.18
33.7330,0.08,0.14,-0.99,4.27,3.17,0.43
33.7350,0.08,0.13,-1.00,4.21,3.30,1.40
33.7650,0.07,0.12,-0.99,2.44,3.97,0.73
33.7680,0.08,0.12,-0.98,3.78,3.36,0.67
33.7960,0.07,0.12,-1.00,4.09,3.05,0.49
33.8110,0.07,0.11,-1.00,2.87,3.85,-0.24
33.8270,0.08,0.12,-0.99,2.87,3.66,-1.40
33.8420,0.08,0.12,-0.99,3.05,4.21,-1.71
33.8510,0.08,0.13,-0.99,4.09,4.03,-1.77
33.8670,0.08,0.14,-0.99,4.21,3.97,-1.16
33.8840,0.08,0.13,-0.99,3.66,3.60,-0.49
33.9010,0.08,0.13,-0.99,3.17,3.66,-0.55
33.9170,0.08,0.12,-0.99,3.30,3.48,0.06
33.9330,0.07,0.12,-0.99,3.42,3.66,-0.31
33.9490,0.08,0.12,-0.99,3.66,3.54,-0.18
33.9510,0.08,0.13,-0.99,3.91,3.23,-0.06
33.9810,0.08,0.13,-0.99,3.42,3.48,0.18
33.9970,0.08,0.12,-0.99,2.99,3.60,0.06
34.0130,0.08,0.12,-1.00,3.36,3.66,-0.06
34.0290,0.07,0.12,-0.99,3.72,3.66,-0.24
34.0450,0.08,0.13,-0.99,4.15,3.54,-0.55
34.0620,0.08,0.14,-0.99,4.21,3.48,0.67
34.0770,0.08,0.14,-0.99,3.72,3.48,1.46
34.0840,0.08,0.12,-1.00,3.60,3.54,1.53
34.1000,0.08,0.11,-1.00,3.54,3.66,0.43
34.1230,0.08,0.11,-0.99,3.60,3.66,-0.12
34.1390,0.08,0.13,-0.99,3.78,3.23,0.06
34.1550,0.07,0.14,-0.99,3.30,3.48,0.61
34.1570,0.08,0.13,-0.99,3.30,3.48,1.40
34.1870,0.08,0.12,-0.99,3.78,3.17,1.77
34.2020,0.08,0.12,-0.99,2.93,3.30,0.92
34.2060,0.08,0.13,-0.99,3.05,3.30,0.92
34.2330,0.08,0.13,-0.99,3.60,3.42,0.73
34.2490,0.08,0.13,-0.99,3.36,3.36,0.79
34.2560,0.08,0.12,-0.99,3.54,3.48,0.98
34.2730,0.08,0.13,-0.99,3.17,3.66,0.73
34.2910,0.08,0.12,-0.99,3.42,3.48,1.22
34.3070,0.08,0.12,-0.99,3.60,3.17,0.98
34.3220,0.08,0.13,-1.00,3.42,3.17,0.67
34.3400,0.08,0.12,-0.99,3.11,3.36,0.37
34.3560,0.07,0.12,-0.99,2.81,3.36,0.43
34.3730,0.07,0.13,-0.98,2.62,3.66,1.04
34.3880,0.07,0.13,-0.99,3.60,3.72,1.53
34.4040,0.08,0.13,-1.00,3.60,2.99,2.01
34.4180,0.08,0.12,-1.00,3.17,3.42,1.71
34.4340,0.08,0.11,-0.99,2.81,3.66,1.16
34.4400,0.07,0.11,-1.00,3.36,3.54,-0.37
34.4670,0.07,0.13,-0.99,3.30,3.66,-0.12
34.4820,0.07,0.13,-1.00,3.91,3.85,0.49
34.4900,0.08,0.13,-0.99,2.50,4.09,-0.18
34.5070,0.08,0.13,-0.99,3.23,3.78,0.79
34.5230,0.08,0.13,-0.99,3.30,3.17,1.16
34.5400,0.08,0.12,-1.00,2.69,3.42,0.49
34.5560,0.07,0.12,-0.99,2.99,3.60,-0.12
34.5720,0.07,0.12,-1.00,3.66,3.60,0.55
34.5870,0.07,0.13,-0.99,3.17,3.91,0.98
34.5890,0.08,0.13,-0.99,3.05,3.91,0.49
34.6070,0.08,0.13,-0.99,3.11,3.48,0.31
34.6340,0.08,0.14,-0.99,3.97,3.54,1.46
34.6400,0.08,0.13,-1.00,4.09,2.93,2.14
34.6660,0.08,0.12,-0.99,3.66,3.48,1.89
34.6800,0.07,0.10,-1.00,3.72,3.66,0.18
34.6960,0.07,0.11,-0.99,3.60,3.91,-0.85
34.7060,0.08,0.13,-0.99,3.36,3.54,-0.92
34.7220,0.08,0.14,-0.99,3.85,3.11,-0.18
34.7410,0.08,0.13,-0.99,3.97,3.60,1.10
34.7560,0.08,0.13,-1.00,3.36,3.60,1.53
34.7720,0.07,0.11,-1.00,3.05,3.48,1.10
34.7900,0.07,0.11,-0.99,2.44,4.03,0.00
34.8060,0.07,0.11,-0.99,2.75,4.09,-1.46
34.8210,0.08,0.12,-0.99,3.42,3.72,-2.01
34.8370,0.08,0.14,-0.99,3.78,3.78,-0.98
34.8520,0.08,0.14,-0.99,3.54,3.85,0.18
34.8690,0.08,0.13,-1.00,3.05,3.97,0.73
34.8840,0.07,0.11,-0.99,2.56,3.72,-0.06
34.8910,0.07,0.11,-0.99,3.42,3.85,-1.28
34.9060,0.07,0.13,-0.99,3.85,3.60,-1.22
34.9300,0.08,0.13,-0.99,4.27,3.78,0.06
34.9400,0.08,0.13,-0.99,3.78,3.36,0.24
34.9570,0.08,0.12,-0.99,2.87,3.48,0.43
34.9740,0.07,0.11,-0.99,3.23,3.60,0.00
34.9900,0.08,0.12,-1.00,3.36,3.60,-0.49
35.0060,0.08,0.13,-0.99,3.97,4.03,-0.43
35.0220,0.08,0.14,-0.99,3.97,3.66,0.73
35.0390,0.08,0.13,-1.00,3.85,3.42,1.22
35.0550,0.08,0.11,-0.99,3.23,3.97,0.98
35.0710,0.07,0.10,-1.00,3.42,3.78,-0.24
35.0860,0.07,0.12,-0.99,2.93,3.97,-1.40
35.0900,0.08,0.13,-0.99,3.78,4.15,-0.92
35.1050,0.08,0.13,-0.99,4.15,3.91,15.14
35.1270,0.08,0.14,-1.00,4.39,3.48,0.61
35.1450,0.08,0.12,-0.99,3.23,4.03,0.61
35.1610,0.07,0.12,-0.99,3.17,3.78,-0.12
35.1790,0.08,0.11,-0.99,3.42,3.72,-0.55
35.1950,0.08,0.13,-0.99,3.78,3.72,-0.31
35.2110,0.08,0.14,-0.99,3.78,3.78,0.55
35.2250,0.08,0.14,-0.99,2.93,3.72,0.79
35.2290,0.08,0.13,-0.99,2.81,3.72,0.37
35.2440,0.08,0.12,-0.99,3.42,3.05,0.49
35.2680,0.08,0.12,-1.00,3.85,3.60,0.49
35.2840,0.08,0.13,-0.99,3.30,4.15,-0.43
35.3020,0.08,0.14,-0.99,3.78,3.66,1.10
35.3170,0.08,0.13,-0.99,4.09,3.66,1.59
35.3340,0.08,0.13,-1.00,3.05,3.48,1.59
35.3500,0.07,0.12,-1.00,2.87,3.36,1.28
35.3660,0.08,0.12,-0.99,2.75,3.30,0.49
35.3680,0.08,0.12,-0.99,3.42,3.54,0.24
35.3840,0.08,0.12,-0.99,3.91,3.78,-0.12
35.4000,0.08,0.12,-0.99,3.72,3.97,-0.49
35.4220,0.08,0.13,-0.99,3.66,4.03,-0.61
35.4390,0.08,0.13,-0.99,3.60,3.54,0.37
35.4550,0.08,0.13,-0.99,2.87,3.30,0.49
35.4730,0.08,0.12,-0.99,3.11,3.30,0.55
35.4890,0.08,0.13,-0.99,3.36,3.85,0.73
35.5060,0.08,0.13,-0.99,4.09,3.48,0.67
35.5210,0.08,0.13,-0.99,4.03,3.60,0.61
35.5380,0.08,0.12,-1.00,3.17,3.78,0.61
35.5530,0.08,0.12,-0.99,3.42,3.48,-0.06
35.5680,0.08,0.12,-1.00,4.03,3.42,-0.24
35.5850,0.08,0.13,-0.99,3.66,3.91,-0.43
35.6000,0.08,0.13,-0.99,4.27,3.72,0.43
35.6170,0.08,0.13,-0.99,3.85,3.78,0.67
35.6330,0.08,0.13,-1.00,3.54,3.72,0.12
35.6490,0.08,0.12,-0.99,3.48,3.60,0.12
35.6640,0.08,0.12,-0.99,3.60,3.30,-0.18
35.6730,0.07,0.12,-0.99,3.11,3.30,-0.43
35.6890,0.07,0.13,-0.99,3.42,3.42,-0.55
35.7060,0.08,0.14,-0.99,3.85,3.54,1.34
35.7210,0.08,0.13,-0.99,3.05,3.60,1.89
35.7420,0.08,0.12,-0.99,2.26,3.85,1.53
35.7590,0.08,0.11,-0.99,2.87,3.72,1.53
35.7590,0.08,0.11,-1.00,3.60,3.36,-0.12
35.7900,0.07,0.12,-1.00,3.66,3.72,-0.73
35.8060,0.08,0.13,-0.99,3.78,3.91,-0.61
35.8210,0.08,0.14,-0.99,3.85,3.72,0.85
35.8360,0.08,0.13,-1.00,3.42,3.36,1.59
35.8420,0.08,0.12,-0.99,2.26,3.48,1.22
35.8580,0.08,0.12,-0.99,2.81,3.36,0.24
35.8820,0.08,0.13,-0.99,3.05,3.05,0.06
35.8990,0.08,0.13,-0.99,3.97,3.30,0.79
35.9150,0.08,0.14,-1.00,3.66,3.23,1.04
35.9310,0.08,0.12,-1.00,3.11,3.23,0.79
35.9470,0.07,0.12,-0.99,2.75,3.48,0.12
35.9480,0.08,0.13,-0.99,3.91,3.54,0.79
35.9660,0.08,0.13,-1.00,3.85,3.17,1.40
35.9850,0.08,0.13,-0.99,2.75,3.36,1.59
35.9970,0.08,0.12,-0.99,2.93,3.17,1.46
36.0140,0.08,0.11,-0.99,3.11,3.30,0.61
36.0420,0.07,0.12,-1.00,3.60,3.36,0.06
36.0580,0.08,0.13,-0.99,3.60,3.36,0.67
36.0640,0.08,0.13,-0.99,3.78,3.85,1.34
36.0850,0.08,0.12,-0.99,3.36,3.78,1.53
36.0980,0.07,0.11,-1.00,3.36,3.36,-0.24
36.1140,0.08,0.12,-1.00,3.85,3.60,-0.98
36.1300,0.07,0.13,-0.99,3.78,4.21,-0.18
36.1480,0.08,0.14,-0.99,3.66,3.78,0.24
36.1660,0.07,0.14,-0.99,2.99,3.66,0.37
36.1810,0.08,0.12,-1.00,2.44,2.93,0.67
36.1990,0.08,0.12,-0.99,2.56,2.99,-0.43
36.2140,0.07,0.11,-0.99,3.36,3.54,-0.24
36.2300,0.07,0.12,-0.99,3.23,3.72,0.06
36.2320,0.08,0.13,-0.99,3.78,2.93,0.12
36.2480,0.08,0.13,-0.99,3.48,3.23,0.06
36.2790,0.08,0.12,-1.00,3.36,3.17,-0.31
36.2950,0.08,0.11,-1.00,3.36,3.66,-1.65
36.3120,0.08,0.12,-0.99,3.85,4.09,-1.34
36.3280,0.08,0.13,-0.99,3.97,4.21,-0.24
36.3430,0.07,0.13,-1.00,4.03,3.60,0.85
36.3470,0.08,0.13,-0.99,3.17,3.54,1.34
36.3740,0.08,0.12,-1.00,2.38,3.78,0.55
36.3860,0.08,0.11,-0.99,2.50,3.97,-0.06
36.3990,0.07,0.11,-0.99,3.17,3.97,-0.73
36.4150,0.08,0.13,-0.99,3.91,3.54,-0.67
36.4320,0.08,0.14,-0.99,3.30,3.66,0.00
36.4500,0.08,0.13,-0.99,3.11,3.36,0.85
36.4650,0.08,0.12,-0.99,2.93,3.48,0.73
36.4810,0.08,0.12,-0.99,2.75,3.30,0.18
36.4860,0.08,0.11,-0.99,4.03,3.97,0.06
36.4980,0.07,0.12,-1.00,3.66,3.36,-0.55
36.5150,0.07,0.14,-0.99,3.23,3.54,-0.18
36.5320,0.08,0.14,-0.99,3.54,3.30,1.40
36.5610,0.08,0.13,-1.00,2.87,2.69,1.83
36.5770,0.08,0.12,-0.99,3.05,2.93,1.83
36.5860,0.07,0.11,-1.00,3.36,3.48,0.49
36.5980,0.07,0.11,-0.99,3.42,4.09,-0.55
36.6210,0.08,0.12,-0.99,4.33,3.97,-0.31
36.6390,0.08,0.13,-0.99,3.85,3.91,-0.37
36.6540,0.08,0.14,-0.99,2.56,3.85,0.55
36.6710,0.08,0.13,-0.99,2.75,3.17,1.40
36.6860,0.08,0.11,-0.99,2.69,3.11,1.71
36.7000,0.07,0.10,-1.00,2.75,4.15,0.12
36.7170,0.07,0.10,-0.99,2.69,4.03,-1.53
36.7330,0.07,0.11,-0.99,3.91,3.91,-1.77
36.7390,0.08,0.14,-0.99,3.91,3.60,-2.26
36.7540,0.08,0.15,-0.99,4.27,3.85,-1.04
36.7730,0.08,0.14,-0.99,3.60,3.66,1.04
36.7890,0.08,0.12,-0.99,2.81,3.72,1.65
36.8050,0.08,0.11,-0.99,3.54,3.17,0.49
36.8220,0.07,0.11,-1.00,3.42,3.23,-0.73
36.8380,0.08,0.12,-0.99,3.42,3.23,-0.43
36.8560,0.08,0.13,-0.99,3.72,3.42,-0.73
36.8730,0.08,0.12,-1.00,3.11,4.09,-1.53
36.8880,0.07,0.11,-0.99,2.75,4.58,-2.20
36.9050,0.07,0.14,-0.99,3.78,3.60,-2.08
36.9200,0.08,0.14,-0.99,4.33,2.99,0.49
36.9360,0.08,0.14,-0.99,3.17,3.36,1.22
36.9520,0.08,0.13,-0.99,3.17,3.36,1.65
36.9670,0.07,0.11,-1.00,3.11,3.30,1.34
36.9830,0.07,0.11,-1.00,2.87,3.85,0.24
37.0000,0.08,0.11,-0.99,3.23,3.91,-0.37
37.0160,0.08,0.13,-0.99,3.48,3.72,-0.67
37.0310,0.08,0.13,-0.99,3.17,3.60,0.67
37.0460,0.08,0.13,-0.99,3.30,3.54,1.59
37.0620,0.08,0.11,-1.00,3.60,3.30,1.10
37.0710,0.08,0.11,-1.00,2.93,3.78,0.31
37.0890,0.07,0.11,-1.00,3.17,4.03,-1.34
37.1070,0.07,0.11,-0.99,3.17,4.33,-2.08
37.1220,0.07,0.14,-0.99,4.58,3.54,-1.04
37.1380,0.08,0.14,-0.99,3.42,3.66,0.67
37.1540,0.08,0.14,-0.99,2.50,3.30,1.28
37.1700,0.08,0.12,-0.99,2.87,3.30,1.59
37.1850,0.08,0.11,-0.99,3.36,3.36,1.77
37.2010,0.07,0.10,-0.99,3.78,3.54,0.18
37.2170,0.07,0.10,-1.00,3.91,3.72,-1.83
37.2330,0.07,0.12,-0.99,3.78,3.54,-2.50
37.2490,0.08,0.14,-0.99,3.85,3.60,-2.14
37.2550,0.08,0.14,-0.99,4.15,3.54,-0.12
37.2720,0.08,0.14,-0.99,3.30,3.36,1.22
37.2880,0.08,0.12,-0.99,2.81,3.36,1.83
37.3100,0.08,0.11,-0.99,2.93,3.66,2.08
37.3270,0.07,0.10,-1.00,4.09,3.23,0.37
37.3430,0.07,0.10,-1.00,3.30,3.85,-2.56
37.3590,0.08,0.13,-0.99,4.21,3.72,-2.50
37.3750,0.08,0.16,-0.99,4.39,3.48,0.18
37.3910,0.08,0.13,-1.00,2.87,3.91,1.83
37.4060,0.08,0.12,-0.99,1.59,3.60,1.95
37.4230,0.08,0.11,-0.99,3.05,2.93,1.59
37.4380,0.07,0.11,-1.00,4.70,2.93,-0.61
37.4530,0.07,0.12,-0.99,4.21,3.54,-1.22
37.4680,0.08,0.13,-0.99,3.48,3.97,-0.61
37.4780,0.08,0.13,-0.99,3.36,3.48,0.49
37.4930,0.08,0.13,-0.99,3.97,3.66,0.55
37.5160,0.08,0.12,-1.00,4.39,3.60,0.55
37.5320,0.07,0.12,-0.99,3.60,3.60,-0.06
37.5480,0.08,0.13,-0.99,3.72,3.42,0.49
37.5640,0.08,0.13,-0.99,3.54,3.48,0.79
37.5800,0.08,0.12,-1.00,3.60,2.87,1.65
37.5950,0.08,0.11,-1.00,3.05,3.91,0.37
37.6110,0.07,0.13,-0.98,3.23,3.72,-1.40
37.6260,0.07,0.14,-0.99,4.27,3.30,0.49
37.6340,0.07,0.14,-1.00,2.56,3.11,2.01
37.6490,0.08,0.12,-0.99,2.32,3.11,2.08
37.6730,0.08,0.12,-0.99,3.17,3.05,2.14
37.6880,0.08,0.13,-0.99,4.27,3.30,2.26
37.7050,0.08,0.13,-0.99,3.11,3.97,2.01
37.7200,0.07,0.12,-0.99,2.99,3.48,2.20
37.7350,0.07,0.12,-0.99,3.97,2.44,2.14
37.7510,0.07,0.12,-0.98,4.64,2.50,2.08
37.7560,0.08,0.12,-0.99,5.31,2.08,2.20
37.7740,0.08,0.13,-0.99,6.23,1.53,2.26
37.7960,0.08,0.13,-0.99,7.57,1.34,2.38
37.8070,0.08,0.11,-0.99,7.20,1.59,2.38
37.8220,0.08,0.14,-1.02,8.06,1.04,2.44
37.8390,0.08,0.13,-1.00,4.64,2.01,2.20
37.8560,0.08,0.13,-0.98,3.66,2.62,2.01
37.8710,0.08,0.13,-0.99,3.91,2.75,2.08
37.8860,0.08,0.14,-1.00,4.03,3.54,2.14
37.9030,0.08,0.13,-0.99,2.38,4.64,2.20
37.9180,0.08,0.13,-0.99,2.01,4.64,2.32
37.9340,0.08,0.13,-0.99,1.83,5.00,2.20
37.9490,0.08,0.13,-0.99,2.26,4.58,2.14
37.9560,0.08,0.13,-0.99,1.53,4.64,2.08
37.9720,0.08,0.13,-0.99,1.16,3.72,2.08
37.9900,0.07,0.13,-0.99,2.20,3.78,2.93
38.0060,0.08,0.12,-0.99,2.87,3.42,4.82
38.0230,0.08,0.12,-0.99,2.08,3.60,2.93
38.0400,0.08,0.13,-0.99,2.99,3.60,2.08
38.0560,0.08,0.13,-0.99,3.48,3.54,2.14
38.0730,0.08,0.14,-0.99,2.75,3.60,2.38
38.0890,0.08,0.14,-1.00,2.20,2.93,5.07
38.0900,0.08,0.12,-1.00,0.85,3.30,4.76
38.1070,0.08,0.11,-0.99,1.53,3.48,3.60
38.1360,0.08,0.12,-0.99,3.66,3.66,2.26
38.1500,0.08,0.13,-0.99,4.15,3.42,2.20
38.1650,0.08,0.13,-0.99,3.36,3.60,2.20
38.1810,0.08,0.12,-0.99,2.87,3.72,2.01
38.1900,0.07,0.12,-0.99,3.05,3.78,2.14
38.2120,0.08,0.13,-0.99,4.03,3.05,2.20
38.2230,0.08,0.13,-1.00,3.91,3.42,2.20
38.2390,0.07,0.13,-0.99,2.62,3.60,2.14
38.2570,0.06,0.13,-1.00,3.66,3.05,3.05
38.2730,0.08,0.12,-0.99,2.87,3.42,2.81
38.2900,0.07,0.12,-1.00,3.23,3.36,2.44
38.3050,0.07,0.12,-0.99,3.60,3.78,2.75
38.3220,0.07,0.12,-1.00,3.54,3.97,2.20
38.3380,0.09,0.13,-0.99,2.75,4.09,1.77
38.3400,0.08,0.13,-0.99,2.56,3.48,1.59
38.3700,0.08,0.13,-0.99,3.11,3.78,2.14
38.3860,0.08,0.13,-0.99,4.33,3.30,2.20
38.4020,0.07,0.11,-1.00,3.78,3.78,1.10
38.4060,0.07,0.13,-0.99,2.93,3.97,-1.10
38.4220,0.08,0.14,-0.99,3.78,3.30,1.04
38.4450,0.08,0.14,-1.00,3.60,3.05,2.08
38.4620,0.08,0.12,-0.99,2.08,3.54,2.08
38.4780,0.07,0.12,-0.99,3.36,3.66,2.20
38.4950,0.07,0.10,-1.00,3.60,3.48,0.12
38.5110,0.07,0.12,-0.99,3.17,4.03,-1.59
38.5270,0.07,0.13,-1.00,4.46,3.23,0.12
38.5430,0.09,0.16,-0.99,3.42,3.54,0.61
38.5450,0.08,0.15,-0.99,2.75,3.36,2.08
38.5620,0.07,0.13,-0.99,1.22,3.36,1.89
38.5890,0.07,0.12,-0.99,2.50,2.99,2.14
38.5950,0.08,0.12,-1.00,4.03,2.44,2.20
38.6180,0.08,0.13,-0.99,4.21,2.69,2.14
38.6350,0.07,0.13,-0.99,3.60,3.42,2.20
38.6530,0.07,0.13,-0.99,3.78,2.93,2.26
38.6680,0.08,0.13,-1.00,3.66,2.50,2.26
38.6830,0.08,0.13,-1.00,3.85,2.62,2.14
38.7020,0.08,0.13,-0.99,3.11,3.23,1.95
38.7020,0.08,0.12,-0.99,2.44,3.48,2.14
38.7330,0.07,0.13,-0.99,3.72,2.87,2.56
38.7490,0.08,0.13,-0.99,2.93,2.93,4.52
38.7650,0.08,0.13,-1.00,2.26,2.75,4.94
38.7810,0.08,0.12,-0.99,2.99,3.11,5.98
38.7900,0.08,0.16,-1.00,8.30,2.32,9.52
38.8120,0.08,0.11,-0.99,3.97,2.01,8.42
38.8290,0.08,0.13,-1.00,4.70,2.50,5.80
38.8350,0.07,0.13,-0.99,4.15,2.56,5.62
38.8500,0.08,0.11,-1.01,5.19,2.26,5.55
38.8730,0.03,0.17,-1.03,0.37,3.36,4.03
38.8900,0.06,0.18,-0.99,0.61,3.60,16.85
38.9070,0.07,0.15,-0.99,1.59,1.22,23.62
38.9220,0.10,0.14,-1.00,3.54,0.61,28.93
38.9380,0.08,0.11,-0.99,0.06,0.18,25.94
38.9540,0.08,0.12,-1.00,2.08,0.67,22.40
38.9710,0.08,0.12,-0.99,1.53,0.98,19.84
38.9870,0.08,0.11,-1.00,2.01,1.53,14.77
39.0020,0.08,0.09,-0.99,6.29,2.26,10.07
39.0060,0.08,0.14,-1.00,9.64,2.44,2.93
39.0220,0.08,0.14,-0.99,2.62,3.72,2.14
39.0470,0.08,0.11,-0.99,2.75,3.30,2.14
39.0630,0.08,0.15,-1.00,3.42,2.93,2.38
39.0790,0.08,0.12,-0.99,-1.83,3.91,1.89
39.0950,0.08,0.12,-0.99,2.20,3.54,2.01
39.0970,0.08,0.13,-1.00,3.23,3.30,2.38
39.1270,0.08,0.13,-0.99,3.66,3.11,2.14
39.1300,0.08,0.13,-0.99,3.11,3.42,2.26
39.1470,0.08,0.13,-0.99,3.48,3.23,2.20
39.1620,0.08,0.13,-0.99,3.17,3.05,2.08
39.1900,0.03,0.11,-0.91,1.10,1.28,1.71
39.2020,0.13,0.14,-1.08,2.01,-2.69,1.16
39.2190,0.08,0.12,-1.01,0.37,4.15,1.83
39.2370,0.09,0.11,-0.96,-1.40,5.68,2.20
39.2510,0.14,0.13,-0.99,4.39,1.59,11.11
39.2690,0.04,0.11,-1.00,3.11,1.16,14.10
39.2690,0.04,0.13,-1.00,3.85,2.38,6.77
39.3000,0.09,0.12,-0.99,4.21,3.66,4.15
39.3170,0.07,0.13,-1.00,4.15,2.99,4.15
39.3320,0.05,0.13,-1.00,4.15,3.17,2.75
39.3490,0.10,0.05,-1.01,2.69,3.72,0.06
39.3650,0.07,0.15,-0.99,1.77,4.27,-4.39
39.3800,0.07,0.12,-0.99,3.91,3.78,-4.03
39.3960,0.08,0.14,-0.99,4.94,3.97,-3.05
39.4120,0.10,0.13,-0.99,4.82,4.94,-6.29
39.4290,0.07,0.13,-0.99,4.94,6.29,-12.63
39.4350,0.04,0.16,-0.99,5.43,5.68,-10.68
39.4520,0.05,0.15,-0.98,4.94,3.48,-2.75
39.4680,0.07,0.14,-1.00,4.88,2.99,-0.73
39.4860,0.06,0.17,-0.99,2.99,2.69,0.06
39.5010,0.07,0.14,-0.99,3.66,4.03,-4.21
39.5190,0.09,0.11,-0.99,3.42,4.58,-5.13
39.5350,0.10,0.11,-0.99,4.39,3.60,-2.99
39.5500,0.07,0.11,-1.00,3.05,4.33,-1.16
39.5660,0.08,0.16,-1.02,5.55,2.56,0.37
39.5820,0.08,0.13,-1.03,2.81,5.37,-2.01
39.5910,0.07,0.15,-0.99,3.30,4.33,-1.95
39.6000,0.07,0.13,-1.00,4.58,4.58,-3.97
39.6230,0.08,0.12,-0.99,2.81,4.58,-1.83
39.6400,0.08,0.11,-0.99,1.83,4.33,-0.67
39.6570,0.08,0.11,-1.00,2.56,4.15,-0.55
39.6740,0.07,0.12,-0.99,3.60,4.39,-1.46
39.6910,0.07,0.13,-0.99,3.72,3.97,-2.62
39.7070,0.08,0.13,-1.00,4.21,3.66,-1.28
39.7230,0.07,0.12,-0.98,3.36,3.72,-2.38
39.7390,0.08,0.13,-0.99,4.03,3.36,-0.49
39.7550,0.09,0.13,-1.00,3.85,3.60,1.04
39.7710,0.11,0.12,-0.98,3.11,4.21,-3.72
39.7870,0.08,0.11,-0.99,3.36,4.88,-6.71
39.8030,0.06,0.12,-0.99,4.46,4.52,-5.98
39.8180,0.07,0.15,-1.00,5.37,3.97,-2.56
39.8330,0.08,0.13,-0.99,3.72,4.09,2.20
39.8490,0.08,0.13,-0.99,3.17,3.97,2.14
39.8570,0.08,0.13,-0.99,3.48,3.85,2.26
39.8750,0.08,0.13,-0.99,4.15,4.33,2.26
39.8920,0.08,0.13,-0.99,3.72,4.15,2.26
39.9070,0.08,0.13,-0.99,3.97,4.27,2.26
39.9230,0.07,0.13,-0.99,4.03,4.39,2.38
39.9410,0.07,0.13,-0.99,3.05,4.15,2.01
39.9560,0.08,0.13,-1.00,2.87,3.60,0.85
39.9720,0.06,0.12,-1.00,3.72,3.66,1.28
39.9880,0.07,0.13,-0.99,3.66,3.97,1.95
40.0040,0.08,0.13,-0.99,3.48,3.66,2.44
40.0190,0.09,0.13,-0.99,4.15,3.30,1.40
40.0340,0.07,0.13,-0.99,4.21,3.91,-0.49
40.0500,0.08,0.14,-0.99,3.97,3.54,-0.61
40.0650,0.07,0.13,-0.99,3.23,3.42,1.04
40.0740,0.07,0.12,-1.00,2.44,3.36,0.73
40.0920,0.07,0.13,-0.99,2.08,4.21,-0.24
40.1070,0.07,0.14,-0.99,2.08,3.54,1.40
40.1240,0.07,0.13,-0.99,2.87,2.93,2.99
40.1400,0.09,0.14,-0.99,2.75,2.87,2.32
40.1570,0.07,0.13,-0.99,3.05,3.30,2.50
40.1720,0.08,0.12,-0.99,3.23,3.11,2.87
40.1890,0.07,0.12,-0.99,3.23,3.48,2.01
40.2040,0.07,0.13,-0.99,2.56,3.72,0.85
40.2190,0.08,0.13,-0.99,3.05,3.66,1.40
40.2240,0.08,0.13,-0.99,3.72,3.23,2.20
40.2390,0.09,0.14,-0.99,3.05,3.42,1.77
40.2640,0.09,0.14,-0.99,2.87,3.05,1.83
40.2810,0.08,0.13,-0.99,2.01,3.23,1.89
40.2970,0.07,0.12,-0.99,3.17,2.69,2.20
40.3130,0.08,0.13,-0.99,4.27,2.87,2.20
40.3150,0.08,0.14,-1.00,3.78,3.36,2.14
40.3450,0.07,0.13,-0.99,1.53,3.48,1.89
40.3470,0.04,0.13,-0.99,2.81,2.75,1.83
40.3650,0.08,0.12,-0.99,4.09,3.72,1.40
40.3920,0.08,0.13,-1.00,4.21,3.48,0.31
40.3980,0.08,0.13,-0.99,4.58,3.36,0.43
40.4140,0.06,0.13,-0.99,3.54,3.48,1.46
40.4380,0.08,0.13,-0.99,3.23,3.17,2.50
40.4540,0.07,0.13,-0.99,2.14,4.21,2.81
40.4700,0.07,0.13,-0.99,1.40,4.03,2.81
40.4850,0.08,0.13,-0.99,1.71,3.85,2.87
40.4920,0.07,0.13,-1.00,2.62,3.30,2.75
40.5160,0.08,0.13,-0.99,2.62,3.17,3.11
40.5220,0.08,0.12,-0.99,3.11,3.17,3.11
40.5380,0.08,0.12,-1.00,3.85,3.17,1.89
40.5630,0.08,0.12,-0.99,3.42,3.66,0.73
40.5720,0.08,0.12,-0.99,3.60,4.27,0.37
40.5920,0.08,0.13,-0.99,3.72,3.72,0.61
40.6050,0.08,0.13,-0.99,3.72,3.30,1.77
40.6210,0.08,0.13,-0.99,3.30,2.93,2.20
40.6380,0.07,0.13,-0.99,2.75,3.17,1.95
40.6550,0.06,0.13,-1.00,3.05,2.75,2.01
40.6700,0.07,0.13,-0.99,3.11,3.72,2.26
40.6870,0.07,0.13,-0.99,3.48,3.11,1.95
40.7020,0.08,0.13,-0.99,2.56,3.72,2.26
40.7170,0.08,0.13,-0.99,2.81,3.17,2.56
40.7340,0.08,0.13,-0.99,3.05,3.23,2.44
40.7500,0.08,0.13,-0.99,3.30,2.87,2.32
40.7650,0.08,0.12,-0.99,2.44,3.36,2.14
40.7800,0.07,0.13,-0.99,3.36,2.81,2.14
40.7950,0.07,0.13,-0.99,3.42,3.17,2.20
40.8050,0.08,0.13,-0.99,3.17,3.17,2.56
40.8210,0.08,0.13,-0.99,3.23,3.11,2.50
40.8380,0.08,0.13,-0.99,2.99,3.11,2.20
40.8560,0.07,0.13,-1.00,2.32,3.17,2.20
40.8720,0.07,0.13,-0.99,2.14,3.17,2.26
40.8870,0.07,0.12,-0.99,2.81,3.36,2.56
40.9030,0.08,0.13,-1.00,3.48,2.93,2.44
40.9180,0.07,0.13,-0.99,3.23,3.54,2.38
40.9220,0.07,0.13,-0.99,3.05,3.42,2.14
40.9500,0.08,0.12,-0.99,2.93,3.36,2.08
40.9550,0.08,0.12,-0.99,2.99,3.54,2.56
40.9710,0.08,0.13,-0.99,3.23,3.42,2.56
40.9930,0.08,0.13,-1.00,2.99,3.17,2.75
41.0090,0.08,0.12,-0.99,2.56,3.36,2.75
41.0260,0.07,0.13,-0.99,2.87,3.66,2.56
41.0420,0.07,0.12,-0.99,3.11,3.05,2.38
41.0580,0.07,0.12,-0.99,3.23,3.36,2.44
41.0750,0.07,0.12,-0.99,3.66,2.81,2.50
41.0910,0.08,0.13,-0.99,3.66,2.99,2.62
41.1070,0.08,0.12,-0.99,3.17,3.54,2.62
41.1230,0.08,0.12,-0.99,3.42,3.30,1.83
41.1250,0.08,0.12,-0.99,3.54,3.48,1.40
41.1550,0.07,0.12,-1.00,3.48,3.42,1.53
41.1710,0.08,0.13,-0.99,3.42,3.42,1.59
41.1760,0.07,0.13,-0.99,3.11,3.11,2.01
41.1930,0.07,0.12,-0.99,2.93,3.36,2.20
41.2180,0.07,0.12,-1.00,3.23,3.30,2.20
41.2340,0.07,0.12,-0.99,2.99,3.36,2.32
41.2420,0.08,0.12,-0.99,2.62,3.30,2.38
41.2590,0.08,0.13,-1.00,2.99,3.48,2.01
41.2760,0.07,0.13,-0.99,2.69,3.36,1.71
41.2940,0.07,0.13,-0.99,3.30,3.48,1.59
41.3090,0.07,0.12,-0.99,3.36,3.85,1.22
41.3260,0.07,0.12,-0.99,3.66,3.85,1.04
41.3420,0.08,0.12,-0.99,4.03,3.60,0.73
41.3590,0.08,0.13,-0.99,3.78,3.23,0.49
41.3750,0.08,0.13,-0.99,3.54,2.56,1.16
41.3910,0.08,0.12,-0.99,3.11,2.99,1.95
41.3930,0.08,0.12,-0.99,3.54,2.87,1.89
41.4230,0.08,0.12,-0.99,3.42,3.30,1.89
41.4250,0.08,0.13,-0.99,3.54,3.66,1.95
41.4430,0.06,0.13,-0.99,3.11,3.54,2.14
41.4590,0.07,0.13,-0.99,3.23,3.05,2.20
41.4740,0.07,0.13,-0.99,3.17,3.17,2.14
41.4970,0.07,0.12,-0.99,3.17,3.17,2.08
41.5140,0.07,0.12,-1.00,3.42,3.78,1.53
41.5310,0.08,0.13,-0.99,3.60,3.85,1.53
41.5480,0.08,0.13,-0.99,3.54,3.42,1.95
41.5660,0.07,0.13,-1.00,3.42,3.78,1.95
41.5800,0.07,0.12,-0.99,2.87,2.99,1.71
41.5970,0.08,0.12,-0.99,3.48,3.30,1.46
41.6130,0.08,0.12,-0.99,3.72,3.36,1.53
41.6290,0.08,0.13,-1.00,3.48,3.17,1.34
41.6300,0.08,0.13,-0.99,2.93,3.11,1.16
41.6480,0.08,0.13,-0.99,2.99,3.48,1.53
41.6760,0.07,0.12,-0.99,2.99,3.54,1.71
41.6920,0.07,0.13,-1.00,3.48,3.05,2.14
41.6970,0.07,0.13,-0.99,2.93,3.60,2.44
41.7120,0.07,0.13,-0.99,3.48,3.30,2.26
41.7280,0.06,0.13,-1.00,3.60,3.48,1.65
41.7440,0.06,0.12,-0.99,2.87,3.60,1.65
41.7590,0.08,0.12,-0.99,3.97,3.42,1.71
41.7830,0.08,0.13,-0.99,3.42,2.99,1.89
41.8010,0.07,0.13,-0.99,2.99,3.48,1.65
41.8170,0.07,0.13,-0.99,2.75,3.30,1.65
41.8330,0.08,0.13,-0.99,2.56,3.42,1.53
41.8500,0.08,0.13,-0.99,2.69,3.30,1.53
41.8660,0.08,0.12,-0.99,3.42,3.48,1.46
41.8830,0.08,0.12,-0.99,3.42,2.93,1.65
41.8980,0.08,0.12,-0.99,3.23,2.93,1.83
41.9010,0.08,0.12,-0.99,3.72,3.11,1.53
41.9290,0.08,0.12,-0.99,3.54,3.42,1.71
41.9340,0.08,0.12,-0.99,3.72,3.42,2.20
41.9610,0.08,0.12,-0.99,3.78,2.87,2.20
41.9760,0.08,0.12,-0.99,3.85,3.17,1.89
41.9840,0.08,0.12,-0.99,3.85,3.05,2.08
42.0010,0.08,0.13,-0.99,4.15,3.42,1.77
42.0170,0.08,0.13,-1.00,3.54,3.66,1.77
42.0370,0.08,0.13,-0.99,3.23,3.85,2.01
42.0530,0.08,0.13,-0.99,3.23,3.60,2.14
42.0680,0.07,0.12,-0.99,3.42,3.17,2.01
42.0830,0.07,0.13,-0.99,2.99,3.42,1.95
42.0990,0.07,0.12,-0.99,2.69,3.36,2.20
42.1130,0.09,0.12,-0.98,3.23,3.78,2.50
42.1280,0.07,0.13,-1.00,3.48,3.23,2.44
42.1390,0.07,0.12,-0.99,3.11,3.54,2.38
42.1560,0.07,0.12,-0.99,3.17,3.36,2.44
42.1720,0.07,0.12,-1.00,3.66,3.23,2.62
42.1890,0.07,0.13,-0.99,3.78,3.60,2.69
42.2050,0.07,0.13,-0.99,2.62,3.36,2.32
42.2210,0.07,0.12,-0.99,2.69,3.36,2.62
42.2370,0.07,0.13,-0.99,3.54,3.17,2.56
42.2530,0.07,0.13,-1.00,3.72,3.48,2.20
42.2550,0.08,0.12,-0.99,3.54,3.48,2.50
42.2710,0.08,0.13,-1.00,3.36,3.60,2.44
42.2960,0.08,0.13,-0.99,2.99,3.23,2.56
42.3130,0.08,0.12,-0.99,3.23,3.17,2.69
42.3300,0.05,0.12,-0.98,3.11,3.17,3.23
42.3460,0.07,0.13,-0.99,3.60,2.50,4.33
42.3620,0.07,0.13,-0.99,3.48,3.23,4.15
42.3790,0.07,0.13,-0.99,3.36,2.69,3.54
42.3950,0.07,0.12,-0.99,3.36,2.99,3.42
42.4110,0.08,0.13,-1.00,3.54,2.44,3.36
42.4130,0.08,0.13,-0.99,2.87,3.23,3.17
42.4420,0.07,0.12,-0.99,3.23,3.23,3.17
42.4450,0.07,0.13,-0.99,3.48,3.42,3.54
42.4750,0.07,0.13,-1.00,3.30,3.36,3.36
42.4910,0.07,0.12,-0.99,2.69,3.05,2.93
42.5060,0.08,0.13,-0.99,2.99,2.62,2.87
42.5120,0.08,0.12,-0.99,2.93,2.81,2.81
42.5290,0.08,0.13,-0.99,2.87,2.62,3.05
42.5440,0.07,0.13,-0.99,2.81,3.11,3.05
42.5680,0.07,0.12,-0.99,3.54,2.81,3.48
42.5840,0.08,0.12,-0.99,3.48,2.56,3.05
42.6010,0.08,0.12,-0.99,2.93,3.30,2.44
42.6160,0.07,0.13,-1.00,3.23,2.93,2.50
42.6180,0.08,0.13,-1.00,3.23,3.17,3.05
42.6480,0.07,0.13,-1.00,3.54,3.36,2.87
42.6630,0.07,0.12,-0.99,3.11,3.36,2.81
42.6790,0.07,0.12,-0.99,2.93,3.60,2.93
42.6940,0.08,0.12,-0.99,3.23,3.17,2.81
42.7110,0.08,0.12,-0.99,3.48,2.75,2.56
42.7250,0.08,0.13,-1.00,3.72,2.99,2.44
42.7410,0.08,0.13,-0.99,3.36,2.87,2.14
42.7510,0.08,0.13,-0.99,3.72,2.62,1.77
42.7670,0.07,0.12,-0.99,3.05,2.99,1.83
42.7850,0.06,0.12,-0.99,3.54,2.75,1.77
42.8000,0.07,0.13,-1.00,3.60,2.99,1.83
42.8190,0.08,0.13,-0.99,3.23,3.60,2.01
42.8340,0.08,0.13,-0.99,3.30,2.75,2.50
42.8340,0.08,0.13,-0.99,3.17,3.11,2.69
42.8650,0.07,0.12,-0.99,2.99,2.99,2.62
42.8680,0.07,0.12,-0.99,2.99,3.17,2.44
42.8960,0.08,0.12,-0.99,2.93,3.11,2.20
42.9000,0.08,0.13,-0.99,3.66,3.05,2.01
42.9210,0.07,0.13,-1.00,3.42,2.87,1.95
42.9390,0.07,0.12,-0.99,2.93,3.23,2.01
42.9560,0.07,0.12,-0.99,2.93,3.05,2.14
42.9710,0.05,0.12,-1.00,3.11,3.23,1.65
42.9890,0.07,0.12,-0.99,3.60,3.23,1.65
43.0050,0.08,0.13,-0.99,4.03,3.30,1.89
43.0210,0.08,0.13,-0.99,3.78,2.99,1.53
43.0370,0.10,0.13,-0.99,3.42,3.05,2.20
43.0530,0.09,0.12,-0.99,3.05,3.54,2.50
43.0690,0.08,0.12,-0.99,3.23,3.36,2.38
43.0840,0.07,0.13,-1.00,3.17,3.85,2.14
43.1000,0.07,0.13,-0.99,3.36,3.66,2.14
43.1150,0.05,0.13,-0.99,2.56,2.75,2.08
43.1310,0.08,0.12,-0.99,2.20,2.81,4.70
43.1450,0.07,0.12,-0.99,2.81,2.50,3.36
43.1550,0.07,0.12,-1.00,2.56,2.81,3.11
43.1720,0.07,0.12,-0.99,2.38,3.11,3.17
43.1890,0.08,0.12,-0.99,3.54,3.23,2.93
43.2050,0.08,0.13,-0.99,3.48,3.17,2.26
43.2230,0.08,0.12,-0.99,3.30,2.99,2.38
43.2390,0.08,0.12,-0.99,3.42,3.42,2.44
43.2550,0.08,0.13,-0.99,3.36,3.54,2.44
43.2700,0.07,0.10,-0.99,2.93,3.36,2.56
43.2850,0.07,0.12,-0.99,3.05,3.23,2.75
43.3010,0.07,0.13,-1.00,3.66,3.17,3.30
43.3060,0.07,0.12,-0.99,3.05,3.11,3.05
43.3220,0.08,0.12,-0.99,3.66,3.30,3.36
43.3390,0.08,0.13,-0.99,3.85,2.75,3.17
43.3640,0.07,0.13,-0.99,3.11,2.99,2.87
43.3790,0.07,0.13,-0.99,3.42,2.75,2.93
43.3940,0.08,0.13,-0.99,2.99,2.69,2.93
43.4050,0.07,0.12,-0.99,3.54,3.17,2.99
43.4230,0.08,0.13,-0.99,3.85,3.36,3.23
43.4380,0.07,0.13,-1.00,3.42,3.11,2.87
43.4550,0.06,0.13,-0.99,3.11,3.05,2.99
43.4710,0.07,0.13,-0.99,2.99,2.93,3.78
43.4860,0.07,0.12,-0.99,3.36,3.05,3.91
43.4960,0.08,0.13,-1.00,3.23,2.81,3.30
43.5040,0.07,0.13,-0.99,2.62,2.93,3.05
43.5200,0.07,0.12,-0.99,2.56,2.93,3.72
43.5410,0.07,0.12,-1.00,2.81,2.69,3.91
43.5580,0.07,0.12,-0.99,2.81,2.69,3.97
43.5750,0.08,0.12,-0.99,2.99,3.17,3.66
43.5920,0.08,0.13,-0.99,3.23,3.17,3.36
43.6080,0.08,0.12,-0.99,3.05,3.17,3.72
43.6250,0.07,0.13,-0.99,3.36,2.75,3.36
43.6410,0.08,0.13,-1.00,2.69,2.99,4.15
43.6570,0.07,0.13,-0.99,3.30,3.23,5.19
43.6720,0.07,0.13,-0.99,3.30,2.93,5.31
43.6880,0.09,0.12,-0.99,2.81,2.93,5.68
43.6960,0.08,0.13,-0.99,3.23,2.62,4.39
43.7070,0.07,0.12,-0.99,3.36,3.05,3.48
43.7300,0.07,0.13,-0.99,3.66,3.17,4.03
43.7460,0.08,0.13,-0.99,3.60,3.05,4.15
43.7640,0.07,0.13,-1.00,3.60,2.87,4.03
43.7800,0.08,0.12,-0.99,2.26,3.42,3.97
43.7960,0.07,0.12,-0.99,3.36,3.54,3.48
43.8120,0.08,0.12,-1.00,2.87,3.23,3.05
43.8280,0.07,0.13,-1.00,2.75,2.81,2.93
43.8430,0.02,0.12,-1.02,2.99,1.46,1.71
43.8590,0.12,0.13,-0.98,2.62,3.60,2.32
43.8730,0.06,0.11,-0.98,3.85,3.54,2.75
43.8800,0.08,0.12,-0.99,3.78,3.30,3.23
43.8970,0.08,0.13,-0.99,3.42,3.78,3.30
43.9200,0.07,0.12,-0.99,3.78,2.93,3.11
43.9350,0.08,0.13,-0.99,3.36,3.17,2.62
43.9510,0.08,0.13,-0.99,2.87,3.42,2.50
43.9660,0.07,0.13,-0.99,2.81,2.93,2.32
43.9820,0.07,0.13,-0.99,2.38,3.17,2.56
43.9970,0.07,0.12,-0.99,2.38,3.42,3.17
44.0030,0.09,0.13,-0.99,3.11,2.99,3.17
44.0180,0.07,0.12,-0.99,2.38,3.05,3.17
44.0420,0.08,0.13,-0.99,2.32,2.93,3.48
44.0580,0.06,0.12,-0.99,2.69,3.05,3.42
44.0750,0.07,0.13,-1.00,2.26,2.56,4.09
44.0900,0.10,0.13,-1.00,2.01,2.08,4.03
44.0970,0.08,0.13,-1.01,3.54,2.81,3.36
44.1220,0.08,0.12,-0.99,3.05,3.54,3.36
44.1250,0.07,0.12,-0.99,3.72,3.11,3.17
44.1430,0.08,0.13,-1.00,3.72,2.93,2.87
44.1590,0.07,0.12,-0.99,3.66,3.60,2.99
44.1800,0.07,0.13,-0.99,4.33,3.23,2.75
44.1970,0.08,0.13,-1.00,3.78,3.23,3.11
44.2150,0.06,0.13,-0.99,4.15,3.11,2.87
44.2300,0.07,0.13,-1.00,3.48,3.17,3.11
44.2470,0.07,0.13,-1.00,3.36,2.81,3.30
44.2620,0.07,0.13,-0.99,3.05,3.17,3.23
44.2640,0.09,0.13,-0.99,2.56,3.42,3.05
44.2930,0.08,0.13,-0.99,3.05,3.05,2.87
44.3080,0.08,0.12,-0.99,3.42,3.42,3.23
44.3140,0.07,0.13,-1.00,3.72,3.11,3.48
44.3300,0.04,0.13,-1.04,4.27,0.37,3.17
44.3480,0.11,0.12,-1.02,2.93,3.36,3.78
44.3630,0.07,0.13,-0.99,3.36,3.30,2.87
44.3830,0.07,0.13,-0.99,2.87,3.11,3.66
44.3970,0.08,0.13,-0.99,3.11,2.75,3.54
44.4040,0.07,0.13,-1.00,3.23,3.11,3.23
44.4300,0.07,0.13,-0.99,3.60,3.36,3.30
44.4460,0.08,0.13,-0.99,3.97,3.17,2.81
44.4620,0.07,0.13,-0.99,3.91,3.30,2.93
44.4710,0.09,0.13,-1.00,3.42,3.30,3.36
44.4870,0.07,0.13,-0.99,3.42,2.87,2.99
44.5050,0.06,0.14,-0.95,4.76,1.40,2.38
44.5210,0.11,0.12,-1.01,3.23,3.54,2.26
44.5380,0.07,0.13,-1.00,3.66,3.54,2.38
44.5550,0.07,0.13,-0.99,4.46,3.60,2.81
44.5700,0.07,0.13,-1.00,3.54,3.36,2.50
44.5870,0.07,0.13,-1.00,3.54,2.99,1.89
44.6040,0.09,0.12,-0.99,3.91,2.99,0.18
44.6190,0.07,0.13,-1.00,4.03,3.11,1.83
44.6350,0.08,0.13,-0.99,3.54,3.05,2.32
44.6510,0.08,0.13,-1.00,3.72,3.17,2.69
44.6540,0.07,0.13,-0.96,4.39,2.14,2.14
44.6820,0.09,0.12,-0.99,3.72,3.42,1.95
44.6980,0.07,0.13,-0.99,3.36,3.30,2.26
44.7140,0.07,0.13,-0.99,2.87,3.42,2.38
44.7210,0.07,0.13,-0.99,3.11,3.30,2.75
44.7390,0.07,0.14,-1.00,3.60,2.69,3.23
44.7540,0.08,0.12,-0.99,3.97,2.32,2.32
44.7770,0.08,0.13,-1.00,3.91,2.93,2.01
44.7930,0.09,0.14,-0.98,4.46,2.38,0.98
44.8090,0.08,0.12,-1.00,4.58,3.05,0.24
44.8250,0.07,0.14,-1.00,4.03,3.11,0.61
44.8270,0.10,0.11,-1.00,4.70,3.72,-0.43
44.8570,0.08,0.13,-0.99,4.09,3.30,0.67
44.8730,0.08,0.13,-1.00,3.72,2.93,1.22
44.8890,0.07,0.13,-0.99,3.91,2.99,1.71
44.8980,0.08,0.14,-0.99,4.33,2.87,1.89
44.9100,0.08,0.13,-0.99,4.09,3.11,1.71
44.9330,0.08,0.13,-0.99,4.03,3.17,1.89
44.9490,0.08,0.13,-0.99,3.42,2.93,1.89
44.9650,0.07,0.13,-0.99,3.60,3.30,2.26
44.9800,0.06,0.13,-1.00,3.91,3.17,2.32
44.9840,0.07,0.13,-0.99,4.21,3.42,1.53
45.0010,0.09,0.14,-0.99,3.05,3.42,1.71
45.0280,0.08,0.13,-0.99,2.81,3.54,2.01
45.0340,0.08,0.13,-0.99,2.87,3.23,2.38
45.0490,0.07,0.13,-1.00,3.30,2.75,1.95
45.0720,0.08,0.13,-0.99,2.87,3.11,1.77
45.0880,0.08,0.13,-0.99,2.93,3.36,1.65
45.1050,0.08,0.13,-0.99,3.42,3.60,1.65
45.1210,0.08,0.13,-0.99,3.85,3.17,1.59
45.1380,0.07,0.13,-0.99,3.78,3.60,1.53
45.1540,0.09,0.14,-1.00,2.81,3.42,1.22
45.1690,0.09,0.13,-0.99,2.38,3.05,1.77
45.1720,0.08,0.13,-0.99,3.42,3.11,2.32
45.1980,0.08,0.13,-0.99,3.17,3.23,2.08
45.2110,0.07,0.13,-0.99,2.99,2.99,1.71
45.2280,0.08,0.13,-0.99,3.23,2.44,1.83
45.2440,0.08,0.13,-0.99,3.23,3.11,1.95
45.2610,0.08,0.13,-0.99,3.17,2.87,2.08
45.2610,0.07,0.13,-0.99,3.36,2.75,1.95
45.2920,0.07,0.13,-0.99,4.46,3.23,1.53
45.2980,0.07,0.13,-1.00,4.03,3.85,0.55
45.3110,0.07,0.13,-0.99,3.97,3.66,0.06
45.3380,0.08,0.13,-0.99,4.76,2.99,0.43
45.3440,0.09,0.14,-0.99,4.27,3.66,1.04
45.3610,0.08,0.14,-0.99,2.62,3.23,1.40
45.3780,0.08,0.13,-0.99,2.26,3.36,1.71
45.3980,0.07,0.13,-0.99,2.44,3.48,2.14
45.4100,0.07,0.13,-0.99,3.60,3.60,2.14
45.4280,0.08,0.13,-0.99,3.91,3.17,1.83
45.4450,0.08,0.13,-0.99,3.85,3.48,2.08
45.4610,0.08,0.14,-0.99,3.91,2.50,2.08
45.4770,0.08,0.13,-0.99,2.93,2.93,2.08
45.4940,0.07,0.14,-0.99,2.99,2.56,1.89
45.5100,0.06,0.13,-0.99,2.08,2.99,1.95
45.5270,0.07,0.13,-1.00,3.30,3.23,2.38
45.5430,0.08,0.13,-0.99,3.78,3.11,2.56
45.5600,0.07,0.14,-0.99,2.99,3.66,2.69
45.5610,0.07,0.14,-0.99,2.26,3.78,3.05
45.5910,0.08,0.13,-0.99,2.87,3.11,3.60
45.5980,0.10,0.13,-0.99,3.66,2.87,2.38
45.6230,0.09,0.13,-0.99,4.82,3.30,1.89
45.6270,0.08,0.14,-0.99,4.88,3.17,1.95
45.6430,0.07,0.14,-1.00,3.05,2.99,1.95
45.6660,0.07,0.13,-0.99,0.98,3.17,1.65
45.6830,0.08,0.13,-0.99,1.16,3.91,1.83
45.6990,0.07,0.13,-0.99,1.89,2.93,1.77
45.7150,0.10,0.13,-0.99,2.44,2.99,1.95
45.7320,0.08,0.13,-0.99,3.11,3.05,1.89
45.7480,0.08,0.13,-0.99,2.99,3.05,1.89
45.7640,0.08,0.13,-0.99,3.23,2.69,1.95
45.7800,0.08,0.13,-1.00,3.30,2.62,1.89
45.7820,0.08,0.13,-0.99,4.09,1.77,1.89
45.7980,0.09,0.13,-0.99,3.85,1.89,1.71
45.8210,0.08,0.12,-1.00,4.21,1.95,1.83
45.8380,0.08,0.13,-0.99,5.49,1.53,1.89
45.8550,0.08,0.14,-0.99,6.16,0.43,1.83
45.8710,0.08,0.14,-0.99,4.58,1.34,1.89
45.8890,0.08,0.13,-0.99,2.50,2.99,1.89
45.9050,0.08,0.13,-0.99,2.87,3.72,2.08
45.9210,0.08,0.14,-0.99,2.75,3.97,2.20
45.9370,0.08,0.13,-0.99,2.14,4.64,2.26
45.9390,0.08,0.13,-0.99,2.26,4.94,2.14
45.9680,0.06,0.12,-0.97,2.01,4.27,2.08
45.9750,0.08,0.13,-0.99,2.32,5.31,2.38
45.9930,0.08,0.13,-0.99,3.42,4.46,2.38
46.0090,0.08,0.13,-0.99,3.66,3.78,2.32
46.0250,0.07,0.13,-0.99,3.97,3.72,2.32
46.0420,0.07,0.14,-0.99,2.93,3.17,2.01
46.0580,0.08,0.13,-0.99,1.83,3.48,2.08
46.0730,0.08,0.13,-0.99,1.16,2.99,1.77
46.0880,0.08,0.13,-0.99,1.22,3.23,1.83
46.1030,0.08,0.13,-0.99,1.65,3.36,1.77
46.1090,0.07,0.13,-0.99,2.81,3.48,1.95
46.1260,0.07,0.13,-0.99,3.78,3.54,2.08
46.1420,0.07,0.13,-0.99,4.33,3.30,2.01
46.1590,0.08,0.13,-0.99,4.21,3.42,2.20
46.1750,0.08,0.13,-0.99,3.72,2.93,2.14
46.1920,0.07,0.13,-0.99,3.60,3.17,2.14
46.2080,0.08,0.13,-0.99,3.72,2.81,2.01
46.2230,0.08,0.13,-1.00,3.72,3.11,2.08
46.2380,0.08,0.13,-0.99,3.91,2.99,2.08
46.2530,0.08,0.13,-0.99,2.99,3.05,2.14
46.2680,0.07,0.13,-1.00,3.23,2.81,2.14
46.2750,0.07,0.13,-0.99,3.54,2.20,2.08
46.2930,0.08,0.13,-0.99,3.85,2.01,1.95
46.3090,0.08,0.13,-0.99,3.48,1.83,1.83
46.3250,0.08,0.13,-0.99,2.50,2.32,1.77
46.3420,0.09,0.14,-0.97,2.26,3.23,2.08
46.3590,0.09,0.13,-0.97,1.71,3.48,2.08
46.3750,0.08,0.12,-0.98,1.46,2.69,2.01
46.3920,0.08,0.14,-1.01,5.62,2.69,2.32
46.4090,0.07,0.11,-0.98,3.91,3.48,2.14
46.4250,0.08,0.14,-1.00,5.37,2.44,2.20
46.4410,0.08,0.13,-0.99,5.31,2.38,2.20
46.4570,0.08,0.13,-0.99,5.92,2.26,2.32
46.4590,0.08,0.13,-0.99,5.62,2.87,2.44
46.4760,0.08,0.14,-0.99,4.82,2.81,2.32
46.4990,0.08,0.14,-0.99,4.52,2.93,2.14
46.5100,0.08,0.13,-1.00,1.83,3.91,2.14
46.5250,0.08,0.14,-0.99,3.85,3.48,2.20
46.5460,0.08,0.13,-0.99,2.01,3.36,2.14
46.5610,0.07,0.13,-0.99,2.50,3.72,2.08
46.5820,0.08,0.13,-0.99,2.32,3.42,2.08
46.5970,0.08,0.13,-0.99,3.11,3.30,2.38
46.6130,0.08,0.13,-0.99,3.72,2.93,2.26
46.6170,0.08,0.13,-1.00,3.42,3.23,2.20
46.6320,0.08,0.15,-1.01,3.30,2.93,1.95
46.6560,0.07,0.12,-0.99,1.34,3.11,1.89
46.6720,0.08,0.13,-0.99,3.23,2.93,2.01
46.6900,0.08,0.14,-0.99,2.93,2.87,2.08
46.7050,0.08,0.13,-0.99,2.08,2.87,2.08
46.7210,0.08,0.13,-0.99,3.48,2.75,2.14
46.7230,0.08,0.13,-1.00,2.81,2.62,2.26
46.7390,0.08,0.13,-0.99,3.23,3.17,2.14
46.7690,0.08,0.13,-1.00,2.56,3.54,2.08
46.7860,0.08,0.13,-0.99,2.26,3.48,1.95
46.8020,0.08,0.13,-0.99,2.44,3.17,2.08
46.8060,0.08,0.13,-0.99,2.56,3.36,2.01
46.8220,0.08,0.13,-0.99,2.93,3.66,2.08
46.8460,0.08,0.13,-0.99,2.69,3.17,2.01
46.8620,0.08,0.13,-0.99,3.72,3.23,2.08
46.8790,0.08,0.13,-0.99,3.17,3.05,1.89
46.8950,0.08,0.13,-0.99,3.30,2.75,2.08
46.9110,0.08,0.14,-0.99,3.23,3.17,2.01
46.9130,0.08,0.13,-0.99,2.81,2.75,2.08
46.9440,0.08,0.13,-0.99,3.60,3.23,2.01
46.9450,0.08,0.14,-0.99,1.83,3.42,1.95
46.9750,0.08,0.13,-1.00,0.55,3.54,1.77
46.9790,0.08,0.12,-0.98,2.01,4.76,2.20
47.0000,0.08,0.13,-1.00,4.94,4.46,2.56
47.0110,0.07,0.13,-0.99,5.25,4.15,2.50
47.0360,0.08,0.14,-1.00,5.13,4.33,2.50
47.0520,0.09,0.13,-1.00,2.93,4.27,2.44
47.0680,0.07,0.14,-1.00,1.89,2.50,4.70
47.0680,0.07,0.13,-1.00,2.44,2.38,3.54
47.0850,0.07,0.13,-0.99,2.62,3.05,3.23
47.1020,0.08,0.12,-0.99,3.23,3.23,3.05
47.1310,0.09,0.12,-0.99,4.33,3.17,3.54
47.1470,0.08,0.14,-1.00,4.03,2.50,4.33
47.1620,0.07,0.14,-0.99,1.95,3.30,4.58
47.1770,0.07,0.14,-0.99,1.71,3.11,4.82
47.1860,0.07,0.12,-0.99,1.71,3.60,4.82
47.2030,0.07,0.12,-0.99,4.46,3.30,3.54
47.2190,0.07,0.13,-0.99,4.94,3.54,3.42
47.2350,0.07,0.14,-0.99,4.76,3.48,2.44
47.2520,0.07,0.13,-0.99,3.17,2.56,2.01
47.2690,0.08,0.13,-0.99,3.78,2.44,2.08
47.2840,0.08,0.13,-1.00,3.30,3.42,1.95
47.2990,0.08,0.13,-0.99,2.69,3.60,1.95
47.3150,0.07,0.13,-0.99,2.26,3.91,2.01
47.3310,0.07,0.13,-1.00,3.78,2.87,1.95
47.3350,0.08,0.14,-1.00,3.17,2.87,1.89
47.3620,0.08,0.13,-1.00,1.16,3.66,1.89
47.3690,0.07,0.13,-0.99,2.01,3.23,1.95
47.3920,0.08,0.12,-0.99,2.38,2.93,2.08
47.4030,0.08,0.13,-1.00,3.78,2.69,2.08
47.4180,0.07,0.13,-0.99,3.42,3.60,1.95
47.4350,0.07,0.13,-1.00,3.66,3.05,2.08
47.4530,0.07,0.13,-0.99,3.11,3.05,2.08
47.4690,0.08,0.13,-0.99,2.32,2.75,2.44
47.4840,0.08,0.12,-0.99,1.71,2.99,2.26
47.4860,0.07,0.13,-0.99,3.78,2.75,2.14
47.5020,0.08,0.13,-0.99,3.85,2.93,2.14
47.5170,0.07,0.14,-1.00,2.87,3.30,2.32
47.5410,0.06,0.14,-0.99,2.44,3.42,5.62
47.5580,0.08,0.12,-1.00,1.83,2.87,3.60
47.5740,0.07,0.13,-0.99,2.62,2.75,2.75
47.5920,0.07,0.13,-1.00,3.85,3.05,3.05
47.6080,0.07,0.14,-0.99,2.99,3.54,3.66
47.6230,0.07,0.13,-0.99,2.08,3.30,4.94
47.6240,0.08,0.12,-0.99,2.44,2.87,5.07
47.6540,0.09,0.12,-1.00,3.48,3.11,3.60
47.6680,0.08,0.12,-0.99,3.36,3.11,2.56
47.6840,0.07,0.12,-0.99,3.36,3.23,2.20
47.6910,0.07,0.13,-0.99,4.09,2.93,2.20
47.7070,0.08,0.13,-0.99,4.15,2.87,1.89
47.7290,0.08,0.13,-1.00,4.33,2.87,2.08
47.7450,0.08,0.14,-1.00,3.17,2.75,1.89
47.7600,0.04,0.15,-0.98,1.40,3.11,2.50
47.7650,0.08,0.12,-0.99,2.75,2.99,6.47
47.7900,0.08,0.12,-0.99,2.01,2.75,4.09
47.8020,0.09,0.11,-1.00,2.81,2.44,3.11
47.8130,0.08,0.12,-0.99,3.97,2.87,2.14
47.8320,0.08,0.13,-1.00,4.64,2.44,1.95
47.8500,0.07,0.13,-0.99,2.99,3.30,2.01
47.8660,0.07,0.13,-0.99,2.44,2.87,2.14
47.8810,0.08,0.12,-0.99,4.03,3.05,2.01
47.8980,0.07,0.12,-0.99,4.46,2.62,1.83
47.9140,0.08,0.13,-1.00,4.21,2.69,1.95
47.9160,0.08,0.13,-1.00,3.54,3.23,2.08
47.9450,0.07,0.13,-0.99,2.87,3.36,1.89
47.9610,0.07,0.15,-0.98,2.20,3.54,2.38
47.9770,0.08,0.11,-1.00,4.70,2.93,3.30
47.9940,0.08,0.12,-1.00,2.93,3.30,1.77
48.0100,0.08,0.13,-0.99,4.21,3.17,1.89
48.0160,0.08,0.13,-0.99,2.99,2.99,1.89
48.0320,0.08,0.14,-0.99,3.17,3.36,1.40
48.0550,0.08,0.14,-0.99,3.85,3.17,1.59
48.0720,0.08,0.12,-0.99,3.66,3.54,2.87
48.0740,0.07,0.12,-0.99,3.17,4.03,1.53
48.1030,0.07,0.12,-0.99,3.91,3.05,1.65
48.1130,0.07,0.13,-1.00,3.97,3.11,1.53
48.1320,0.08,0.13,-1.00,2.38,3.66,2.14
48.1470,0.08,0.13,-0.99,2.14,3.60,2.14
48.1630,0.07,0.12,-0.99,2.32,3.54,2.14
48.1640,0.08,0.13,-0.99,4.39,2.99,2.38
48.1800,0.07,0.13,-0.99,4.15,3.30,2.62
