Timestamp, AccX, AccY, AccZ, GyroX, GyroY, GyroZ
0.0110,0.08,0.11,-0.99,2.50,3.48,2.20
0.0170,0.08,0.11,-0.99,3.05,3.91,2.01
0.0350,0.08,0.11,-0.99,2.93,3.78,2.01
0.0510,0.08,0.11,-0.99,3.05,3.85,2.26
0.0680,0.08,0.11,-0.99,2.81,3.54,2.08
0.0840,0.08,0.11,-0.99,3.05,3.54,1.95
0.1010,0.08,0.11,-0.99,3.05,3.54,2.08
0.1160,0.08,0.11,-0.99,3.11,3.48,2.01
0.1310,0.08,0.11,-0.99,3.05,3.60,2.08
0.1460,0.08,0.12,-0.99,3.36,3.85,1.95
0.1600,0.08,0.12,-0.99,3.17,3.60,2.20
0.1760,0.08,0.11,-0.99,3.30,3.78,2.08
0.1910,0.08,0.12,-1.00,2.93,3.78,2.08
0.2060,0.08,0.11,-0.99,2.99,3.78,2.20
0.2170,0.08,0.11,-1.00,3.05,3.85,1.95
0.2340,0.08,0.11,-0.99,3.23,3.54,2.08
0.2510,0.08,0.11,-0.99,3.05,3.72,2.26
0.2650,0.08,0.11,-0.99,3.17,4.03,2.14
0.2800,0.08,0.11,-1.00,2.99,3.72,2.08
0.2960,0.07,0.11,-0.99,2.81,3.78,2.01
0.3100,0.07,0.11,-0.99,2.93,4.03,2.01
0.3180,0.07,0.11,-0.99,3.23,3.54,2.14
0.3330,0.08,0.11,-0.99,3.23,3.54,2.14
0.3560,0.08,0.11,-0.98,3.66,3.91,2.26
0.3710,0.08,0.11,-0.99,3.42,3.23,2.14
0.3870,0.07,0.12,-0.99,3.05,3.78,3.05
0.4030,0.08,0.11,-0.99,2.87,3.54,4.03
0.4180,0.08,0.11,-0.99,3.11,3.42,3.36
0.4220,0.08,0.11,-0.99,3.11,3.72,2.14
0.4380,0.08,0.11,-0.99,2.81,3.54,2.01
0.4610,0.08,0.11,-0.99,2.99,3.48,2.01
0.4770,0.08,0.11,-0.99,3.05,3.72,2.08
0.4940,0.08,0.11,-0.99,3.05,3.36,2.14
0.5100,0.08,0.12,-0.99,3.11,3.97,2.14
0.5250,0.08,0.11,-0.99,3.23,3.60,2.14
0.5400,0.08,0.11,-0.99,3.48,3.97,1.95
0.5550,0.08,0.12,-0.99,3.30,4.21,2.26
0.5710,0.07,0.13,-0.99,3.17,3.72,2.56
0.5780,0.08,0.13,-0.99,2.81,3.36,5.62
0.5940,0.08,0.13,-0.99,2.69,2.87,7.02
0.6160,0.08,0.11,-1.00,2.87,3.42,5.37
0.6330,0.08,0.12,-0.99,2.75,3.11,3.72
0.6490,0.08,0.11,-1.00,3.23,3.72,2.81
0.6510,0.08,0.11,-1.00,2.93,3.48,3.30
0.6800,0.08,0.12,-0.99,2.87,3.23,4.52
0.6940,0.07,0.11,-0.99,2.81,3.23,5.19
0.7100,0.08,0.10,-1.00,2.75,3.17,4.82
0.7170,0.08,0.11,-1.00,3.05,3.97,2.32
0.7330,0.08,0.11,-0.99,3.23,3.60,2.14
0.7490,0.08,0.11,-0.99,3.11,3.97,2.08
0.7720,0.08,0.11,-0.99,2.87,3.78,2.08
0.7880,0.08,0.11,-0.99,3.23,3.85,2.08
0.8030,0.08,0.11,-0.99,3.11,3.91,1.46
0.8190,0.08,0.11,-0.99,3.42,3.85,0.85
0.8230,0.08,0.12,-0.99,3.23,4.15,1.10
0.8380,0.08,0.12,-0.99,3.11,4.03,1.28
0.8650,0.08,0.11,-0.99,3.05,3.78,1.65
0.8770,0.08,0.12,-0.99,3.11,3.91,1.04
0.8940,0.08,0.11,-0.99,3.05,3.78,0.98
0.9100,0.08,0.12,-0.99,3.30,3.85,0.98
0.9270,0.08,0.12,-0.99,2.87,3.66,1.89
0.9440,0.08,0.12,-0.99,3.23,3.97,2.01
0.9590,0.08,0.11,-0.99,3.05,3.66,2.14
0.9740,0.08,0.11,-0.99,2.87,3.78,2.20
0.9890,0.08,0.11,-0.99,2.87,3.54,2.01
0.9940,0.08,0.11,-0.99,2.87,3.42,2.08
1.0100,0.08,0.11,-0.99,3.05,4.03,2.14
1.0330,0.08,0.11,-0.99,2.93,3.48,2.20
1.0490,0.08,0.11,-1.00,2.93,3.66,2.14
1.0660,0.07,0.11,-0.99,2.87,3.72,2.08
1.0830,0.08,0.11,-0.99,2.93,3.72,1.83
1.1000,0.08,0.11,-0.99,3.17,3.78,1.83
1.1150,0.08,0.12,-0.99,2.93,3.85,1.34
1.1310,0.09,0.12,-0.99,3.05,4.03,1.10
1.1480,0.09,0.12,-0.99,2.93,3.72,1.65
1.1640,0.08,0.12,-0.99,2.87,3.42,2.08
1.1670,0.08,0.12,-0.99,2.99,3.54,2.14
1.1940,0.08,0.11,-0.99,2.87,3.66,2.20
1.2070,0.08,0.11,-0.99,2.93,3.66,2.14
1.2240,0.08,0.11,-0.99,3.05,3.54,2.01
1.2390,0.08,0.11,-0.99,2.99,3.66,2.14
1.2540,0.08,0.11,-0.99,2.99,3.78,2.20
1.2700,0.08,0.11,-0.99,2.99,3.23,2.14
1.2870,0.08,0.11,-0.99,3.05,3.17,2.08
1.3030,0.08,0.11,-0.99,2.93,3.48,1.95
1.3180,0.08,0.12,-0.99,3.17,3.66,2.14
1.3230,0.08,0.12,-0.99,3.05,3.54,3.42
1.3390,0.08,0.12,-0.99,3.05,3.36,3.60
1.3660,0.08,0.11,-0.99,2.99,3.36,4.03
1.3810,0.08,0.12,-0.99,2.93,3.72,2.87
1.3940,0.08,0.12,-0.99,2.99,3.17,2.81
1.4090,0.08,0.11,-0.99,3.05,3.42,2.87
1.4260,0.08,0.11,-0.99,2.99,3.48,2.75
1.4430,0.08,0.11,-1.00,3.17,3.48,2.69
1.4580,0.08,0.11,-0.99,2.99,3.54,2.14
1.4740,0.08,0.11,-0.99,2.81,3.78,2.14
1.4890,0.08,0.11,-0.99,2.99,3.91,2.08
1.5050,0.08,0.11,-0.99,3.11,3.91,2.14
1.5090,0.08,0.12,-0.99,3.05,3.72,2.01
1.5250,0.08,0.12,-0.99,3.11,3.91,2.01
1.5480,0.08,0.11,-0.99,3.05,3.60,1.59
1.5640,0.08,0.12,-0.99,2.93,3.72,1.77
1.5820,0.07,0.11,-1.00,2.81,3.60,1.89
1.5980,0.07,0.11,-0.99,2.81,3.91,1.83
1.5990,0.07,0.11,-0.99,2.99,3.72,1.77
1.6150,0.08,0.11,-0.99,2.87,3.66,1.59
1.6310,0.08,0.11,-0.99,2.81,3.66,2.26
1.6480,0.09,0.11,-0.99,2.87,3.78,2.26
1.6640,0.08,0.11,-0.99,2.99,3.66,2.20
1.6920,0.08,0.11,-0.99,2.81,3.72,2.44
1.7030,0.08,0.12,-0.99,2.99,3.54,2.44
1.7190,0.08,0.12,-0.99,3.05,3.36,2.56
1.7370,0.08,0.12,-0.99,2.99,3.23,3.05
1.7520,0.08,0.12,-0.99,2.93,3.48,2.69
1.7690,0.08,0.12,-0.99,2.93,3.48,2.26
1.7840,0.08,0.11,-0.99,2.81,3.54,2.56
1.7990,0.08,0.11,-0.99,2.87,3.60,2.50
1.8150,0.08,0.11,-0.99,3.11,3.54,2.26
1.8310,0.08,0.11,-0.99,3.05,3.42,2.44
1.8470,0.08,0.11,-0.99,2.93,3.30,2.87
1.8530,0.08,0.11,-0.99,3.17,3.17,2.56
1.8690,0.08,0.11,-0.99,3.36,3.54,2.14
1.8920,0.08,0.11,-0.99,3.11,3.66,2.01
1.9080,0.08,0.11,-0.99,3.05,3.85,1.95
1.9240,0.08,0.11,-0.99,3.11,3.66,2.08
1.9390,0.08,0.12,-0.99,3.17,3.42,2.20
1.9550,0.08,0.12,-0.99,3.23,3.60,2.01
1.9710,0.08,0.12,-0.99,3.11,3.48,2.01
1.9860,0.08,0.11,-0.99,3.05,3.48,2.01
2.0010,0.08,0.11,-0.99,3.11,3.23,2.14
2.0170,0.08,0.11,-0.99,3.11,3.54,2.14
2.0320,0.08,0.11,-0.99,3.11,3.60,2.01
2.0470,0.08,0.11,-0.99,2.87,3.42,2.01
2.0590,0.08,0.11,-0.99,3.23,3.60,2.01
2.0750,0.08,0.11,-0.99,3.23,3.36,1.95
2.0910,0.08,0.11,-0.99,2.93,3.30,1.95
2.1090,0.08,0.11,-0.99,2.81,3.60,1.95
2.1250,0.08,0.11,-0.99,3.17,3.48,2.08
2.1400,0.08,0.12,-0.99,3.17,3.91,2.01
2.1550,0.08,0.12,-0.99,2.99,3.85,1.95
2.1700,0.08,0.12,-0.99,2.87,3.72,2.14
2.1860,0.08,0.12,-0.99,2.99,3.72,2.08
2.1950,0.08,0.12,-0.99,3.23,3.85,2.32
2.2170,0.08,0.12,-0.99,2.87,3.30,4.64
2.2320,0.08,0.12,-0.99,2.81,3.11,5.31
2.2410,0.08,0.12,-0.99,2.75,3.11,5.49
2.2570,0.08,0.11,-0.99,2.81,3.30,4.88
2.2780,0.08,0.11,-0.99,2.93,3.17,4.82
2.2930,0.08,0.10,-1.00,2.93,3.30,3.91
2.3080,0.08,0.11,-0.99,3.05,3.54,2.75
2.3120,0.08,0.11,-0.99,2.99,3.85,2.20
2.3280,0.08,0.12,-0.99,3.05,3.54,2.01
2.3470,0.08,0.12,-0.99,2.93,3.48,2.01
2.3630,0.08,0.12,-0.99,2.87,3.72,2.01
2.3800,0.08,0.12,-0.99,2.93,3.72,1.95
2.3990,0.08,0.11,-0.99,3.17,3.48,2.08
2.4150,0.08,0.11,-0.99,3.11,3.72,2.08
2.4320,0.08,0.11,-0.99,2.99,3.97,2.08
2.4470,0.08,0.11,-0.99,2.93,3.91,2.14
2.4630,0.08,0.11,-0.99,2.93,3.97,2.38
2.4720,0.08,0.11,-0.99,2.99,3.42,2.56
2.4880,0.08,0.12,-0.99,3.23,3.36,2.93
2.5090,0.08,0.11,-0.99,2.81,3.42,3.91
2.5110,0.08,0.12,-0.99,2.93,3.05,3.91
2.5280,0.08,0.12,-0.99,3.05,3.23,3.91
2.5530,0.08,0.11,-0.99,2.81,3.54,4.46
2.5690,0.08,0.11,-0.99,3.11,3.23,4.64
2.5840,0.08,0.11,-0.99,2.99,3.42,3.66
2.5960,0.08,0.11,-0.99,2.69,3.36,2.75
2.6170,0.08,0.11,-0.99,2.81,3.48,2.62
2.6280,0.08,0.11,-0.99,3.05,3.54,2.99
2.6440,0.08,0.12,-0.99,2.99,3.54,3.17
2.6610,0.08,0.11,-0.99,2.75,3.72,3.48
2.6770,0.08,0.11,-0.99,2.93,3.36,2.93
2.6930,0.08,0.11,-0.99,2.93,3.60,2.93
2.7090,0.08,0.11,-0.99,3.05,3.60,3.05
2.7240,0.08,0.11,-0.99,2.99,3.60,2.93
2.7290,0.08,0.12,-0.99,2.81,3.60,2.69
2.7450,0.08,0.12,-0.99,2.87,3.48,3.36
2.7680,0.08,0.12,-0.99,2.75,3.54,3.48
2.7860,0.08,0.12,-0.99,2.99,3.54,3.78
2.8020,0.08,0.13,-0.99,3.11,3.42,4.09
2.8170,0.08,0.12,-0.99,2.75,3.36,4.82
2.8330,0.08,0.12,-0.99,2.69,2.81,6.35
2.8470,0.08,0.11,-0.99,2.50,2.87,5.68
2.8510,0.08,0.11,-0.99,2.56,3.23,4.76
2.8660,0.08,0.10,-1.00,3.11,3.72,4.33
2.8940,0.08,0.11,-0.99,3.05,3.72,3.36
2.9060,0.08,0.11,-0.99,2.62,3.48,3.42
2.9210,0.08,0.11,-0.99,2.81,3.78,3.36
2.9410,0.08,0.11,-0.99,2.87,3.17,3.54
2.9560,0.08,0.11,-0.99,2.87,3.60,3.23
2.9710,0.08,0.11,-0.99,2.99,3.30,3.11
2.9730,0.08,0.11,-0.99,3.11,3.60,2.99
3.0010,0.08,0.11,-0.99,3.05,3.17,2.75
3.0120,0.08,0.12,-0.99,2.87,3.42,2.69
3.0280,0.08,0.12,-0.99,2.75,3.66,2.44
3.0450,0.08,0.12,-0.99,2.99,3.60,2.93
3.0610,0.08,0.12,-0.99,2.93,3.78,3.23
3.0770,0.08,0.11,-0.99,2.81,2.99,4.82
3.0930,0.08,0.11,-0.99,2.69,3.11,3.91
3.1090,0.08,0.11,-0.99,3.05,3.17,3.60
3.1250,0.08,0.11,-0.99,2.75,3.48,3.72
3.1410,0.08,0.12,-0.99,2.75,3.23,3.66
3.1560,0.08,0.11,-0.99,2.75,3.36,3.85
3.1710,0.08,0.11,-0.99,3.05,3.30,3.85
3.1860,0.08,0.11,-0.99,2.93,3.36,3.97
3.1960,0.08,0.12,-0.99,2.81,3.11,3.78
3.2170,0.08,0.12,-0.99,2.81,2.99,4.15
3.2280,0.08,0.11,-0.99,2.87,3.23,4.39
3.2430,0.08,0.11,-0.99,2.81,3.42,4.39
3.2630,0.08,0.12,-0.99,2.81,3.36,4.21
3.2800,0.08,0.11,-0.99,2.69,3.42,4.58
3.2950,0.08,0.11,-0.99,2.62,3.30,3.72
3.3110,0.08,0.11,-1.00,3.05,3.36,2.93
3.3150,0.08,0.11,-0.99,3.11,3.30,2.81
3.3310,0.08,0.12,-0.99,2.87,3.42,3.11
3.3500,0.08,0.12,-0.99,2.69,2.93,4.33
3.3660,0.08,0.12,-0.99,2.75,2.93,5.49
3.3830,0.08,0.12,-0.99,2.56,2.87,5.74
3.3990,0.08,0.11,-0.99,2.87,3.54,4.70
3.4160,0.08,0.11,-0.99,2.75,3.60,3.60
3.4330,0.08,0.11,-0.99,2.93,3.23,3.78
3.4490,0.08,0.11,-0.99,2.87,3.54,3.91
3.4640,0.08,0.11,-0.99,2.75,3.42,3.72
3.4800,0.08,0.12,-0.99,2.69,3.48,3.60
3.4830,0.08,0.12,-0.99,2.87,3.30,4.33
3.4990,0.08,0.12,-0.99,2.56,3.23,5.25
3.5260,0.08,0.11,-0.99,2.62,3.30,5.19
3.5370,0.08,0.10,-1.00,2.56,3.30,3.78
3.5550,0.08,0.11,-0.99,2.75,3.72,2.81
3.5700,0.08,0.11,-0.99,3.23,3.60,2.75
3.5860,0.08,0.12,-0.99,3.23,3.48,3.42
3.6010,0.08,0.12,-0.99,2.81,3.30,3.91
3.6170,0.08,0.11,-0.99,2.62,3.23,3.54
3.6320,0.08,0.12,-0.99,2.81,3.30,3.36
3.6480,0.08,0.12,-0.99,3.17,3.36,3.36
3.6640,0.08,0.11,-0.99,2.93,3.54,3.48
3.6790,0.08,0.11,-0.99,2.81,3.72,3.23
3.6940,0.08,0.12,-0.99,2.87,3.42,3.11
3.7040,0.08,0.12,-0.99,3.05,3.54,4.03
3.7200,0.08,0.12,-0.99,2.93,3.11,4.39
3.7370,0.08,0.12,-0.99,2.56,3.17,4.58
3.7530,0.08,0.12,-0.99,2.87,3.48,4.58
3.7690,0.08,0.12,-0.99,2.93,3.23,5.07
3.7840,0.08,0.12,-0.99,2.75,3.11,5.07
3.8000,0.08,0.11,-0.99,2.75,3.17,5.13
3.8150,0.08,0.11,-0.99,2.87,3.11,4.46
3.8300,0.08,0.11,-0.99,2.81,2.87,3.97
3.8460,0.08,0.11,-1.00,2.87,3.11,4.09
3.8610,0.08,0.11,-0.99,2.87,3.42,3.66
3.8760,0.08,0.11,-0.99,2.93,3.30,3.54
3.8870,0.08,0.11,-0.99,2.62,3.66,3.36
3.9040,0.08,0.11,-0.99,2.87,3.23,3.23
3.9200,0.08,0.11,-0.99,3.05,3.85,3.36
3.9350,0.08,0.11,-0.99,3.05,3.30,3.23
3.9510,0.08,0.11,-0.99,3.11,3.30,3.42
3.9660,0.08,0.11,-0.99,2.81,3.85,2.93
3.9810,0.08,0.12,-0.99,2.99,3.66,2.81
3.9960,0.08,0.12,-0.99,2.99,3.66,2.75
4.0100,0.08,0.12,-0.99,3.05,3.42,2.99
4.0200,0.08,0.12,-0.99,2.93,3.17,3.66
4.0370,0.08,0.11,-0.99,2.69,3.60,3.66
4.0540,0.08,0.11,-0.99,3.05,3.30,3.91
4.0700,0.08,0.11,-1.00,2.81,3.05,3.30
4.0860,0.08,0.11,-0.99,2.99,3.05,3.78
4.0970,0.08,0.12,-0.99,2.99,3.30,3.23
4.1170,0.08,0.12,-0.99,2.81,3.42,3.72
4.1330,0.08,0.11,-0.99,2.69,3.36,4.21
4.1490,0.08,0.11,-0.99,2.62,3.17,3.54
4.1650,0.08,0.11,-0.99,2.99,3.48,3.23
4.1710,0.08,0.11,-0.99,2.93,3.42,3.11
4.1970,0.08,0.11,-0.99,2.75,3.60,3.05
4.2090,0.08,0.12,-0.99,2.93,3.23,2.50
4.2260,0.08,0.12,-0.99,2.87,3.54,2.69
4.2420,0.08,0.12,-0.99,2.87,2.93,3.36
4.2580,0.08,0.12,-0.99,2.93,3.23,3.91
4.2740,0.08,0.12,-0.99,2.99,3.36,3.91
4.2890,0.08,0.11,-0.99,2.75,3.42,3.97
4.2980,0.08,0.10,-1.00,2.93,3.48,3.11
4.3080,0.08,0.11,-0.99,2.93,3.23,3.17
4.3300,0.08,0.12,-0.99,3.05,3.23,3.72
4.3460,0.08,0.13,-0.99,2.81,3.17,4.09
4.3630,0.08,0.12,-0.99,2.93,3.17,4.64
4.3790,0.08,0.12,-0.99,2.99,3.11,4.82
4.3950,0.08,0.11,-0.99,2.81,3.30,5.43
4.4110,0.08,0.11,-0.99,2.87,3.11,5.00
4.4260,0.08,0.11,-0.99,2.87,2.93,4.52
4.4400,0.08,0.11,-0.99,2.87,3.17,3.78
4.4560,0.08,0.12,-0.99,2.93,3.17,3.48
4.4630,0.08,0.11,-0.99,2.62,3.66,3.72
4.4790,0.08,0.11,-0.99,2.87,3.60,3.54
4.4990,0.08,0.11,-0.99,2.81,3.54,3.05
4.5160,0.08,0.11,-0.99,2.87,3.54,3.05
4.5310,0.08,0.11,-0.99,2.62,3.54,3.30
4.5470,0.08,0.12,-0.99,2.87,3.48,4.09
4.5640,0.08,0.11,-0.99,2.93,3.36,5.13
4.5790,0.08,0.11,-0.99,2.93,3.42,4.03
4.5940,0.08,0.12,-0.99,2.87,3.30,3.54
4.6090,0.08,0.12,-0.99,3.05,3.42,3.60
4.6240,0.08,0.12,-0.99,2.93,3.17,4.21
4.6390,0.08,0.12,-0.99,2.62,3.48,4.21
4.6490,0.08,0.11,-0.99,2.93,3.42,3.91
4.6660,0.08,0.11,-0.99,2.99,3.78,3.72
4.6820,0.08,0.12,-0.99,2.75,3.72,3.72
4.6990,0.08,0.12,-0.99,2.81,3.30,4.88
4.7150,0.08,0.11,-0.99,2.56,2.87,5.13
4.7310,0.08,0.10,-1.00,2.75,3.36,4.52
4.7460,0.08,0.11,-1.00,2.87,3.42,3.91
4.7620,0.08,0.10,-1.00,2.81,3.66,3.17
4.7650,0.08,0.11,-0.99,2.75,3.54,3.11
4.7810,0.08,0.12,-0.99,2.93,3.30,3.36
4.8030,0.08,0.13,-0.99,2.75,3.17,4.58
4.8200,0.08,0.11,-0.99,2.69,3.36,4.39
4.8360,0.08,0.11,-0.99,2.75,3.36,3.36
4.8520,0.08,0.11,-0.99,2.69,3.60,3.05
4.8680,0.08,0.12,-0.99,2.87,3.36,2.75
4.8840,0.08,0.12,-0.99,2.99,3.30,3.42
4.8990,0.08,0.12,-0.99,2.99,3.36,3.48
4.9150,0.08,0.11,-1.00,2.81,3.17,3.48
4.9300,0.08,0.11,-0.99,3.05,3.17,3.30
4.9360,0.08,0.11,-0.99,3.11,2.99,3.54
4.9520,0.08,0.11,-0.99,2.81,3.72,3.17
4.9750,0.08,0.12,-0.99,2.81,3.85,2.87
4.9910,0.08,0.12,-0.99,2.99,3.60,2.93
5.0080,0.08,0.12,-0.99,2.99,3.36,3.11
5.0240,0.08,0.12,-0.99,2.99,3.48,3.85
5.0400,0.08,0.12,-0.99,2.81,3.23,3.54
5.0550,0.08,0.12,-0.99,2.81,3.36,3.30
5.0640,0.08,0.12,-0.99,2.81,3.17,4.03
5.0790,0.08,0.12,-0.99,2.81,2.99,5.19
5.1000,0.08,0.11,-0.99,2.81,3.23,4.76
5.1160,0.08,0.11,-0.99,2.75,3.11,3.97
5.1300,0.08,0.11,-0.99,2.93,3.11,3.97
5.1350,0.08,0.11,-0.99,2.69,3.11,4.15
5.1610,0.08,0.11,-1.00,2.81,3.30,4.39
5.1770,0.08,0.11,-0.99,2.62,3.36,4.21
5.1870,0.08,0.11,-0.99,2.81,3.42,3.85
5.2020,0.08,0.11,-0.99,2.93,3.54,3.66
5.2240,0.08,0.12,-0.99,2.81,3.36,3.11
5.2390,0.08,0.12,-0.99,2.87,3.48,3.30
5.2540,0.08,0.12,-0.99,2.81,3.30,3.54
5.2690,0.08,0.12,-0.99,2.99,3.17,3.78
5.2840,0.08,0.12,-0.99,2.87,3.23,4.03
5.2990,0.08,0.12,-0.99,2.81,3.36,4.03
5.3140,0.08,0.12,-0.99,2.75,3.30,4.21
5.3240,0.08,0.11,-1.00,2.81,3.42,4.64
5.3400,0.08,0.11,-0.99,2.81,3.23,4.09
5.3590,0.08,0.11,-0.99,2.93,3.36,3.97
5.3610,0.08,0.11,-0.99,3.17,3.05,3.78
5.3890,0.08,0.12,-0.99,2.69,3.30,4.21
5.4050,0.08,0.12,-0.99,2.87,3.05,4.82
5.4200,0.08,0.12,-0.99,2.75,2.99,5.92
5.4350,0.08,0.11,-0.99,2.87,3.11,5.07
5.4500,0.08,0.11,-0.99,2.93,3.30,4.58
5.4620,0.08,0.11,-0.99,3.05,3.05,4.03
5.4780,0.08,0.11,-0.99,2.81,3.72,3.85
5.4950,0.08,0.12,-0.99,3.05,3.60,3.60
5.5120,0.08,0.11,-0.99,2.87,3.48,3.54
5.5270,0.08,0.11,-0.99,2.56,3.54,3.30
5.5440,0.08,0.12,-0.99,2.75,3.72,3.30
5.5590,0.08,0.11,-0.99,3.17,3.30,3.36
5.5750,0.08,0.11,-0.99,2.87,3.66,3.54
5.5910,0.08,0.11,-0.99,2.99,3.72,3.42
5.6080,0.08,0.12,-0.99,2.99,3.72,2.99
5.6230,0.08,0.12,-0.99,2.99,3.72,3.17
5.6380,0.08,0.12,-0.99,2.99,3.30,3.66
5.6530,0.08,0.12,-0.99,2.75,3.36,3.91
5.6620,0.08,0.12,-0.99,2.99,3.17,4.09
5.6780,0.08,0.11,-0.99,2.81,3.36,4.52
5.6990,0.08,0.11,-0.99,2.69,3.42,4.70
5.7150,0.08,0.11,-1.00,2.81,3.11,4.33
5.7300,0.08,0.11,-0.99,2.69,3.54,3.23
5.7460,0.08,0.11,-0.99,2.75,3.54,3.30
5.7620,0.08,0.12,-0.99,2.87,3.11,4.15
5.7770,0.08,0.12,-0.99,2.87,3.30,4.39
5.7830,0.08,0.12,-0.99,2.69,3.17,5.07
5.7990,0.08,0.11,-0.99,2.93,3.36,4.15
5.8230,0.08,0.11,-0.99,2.81,3.42,3.78
5.8390,0.08,0.12,-0.99,2.87,3.54,3.85
5.8540,0.08,0.12,-0.99,2.75,3.36,4.88
5.8700,0.08,0.11,-0.99,2.81,3.11,4.76
5.8850,0.08,0.12,-0.99,2.81,3.17,3.85
5.8990,0.08,0.12,-0.99,2.62,3.54,3.72
5.9150,0.08,0.12,-0.99,2.87,3.30,4.15
5.9300,0.08,0.12,-0.99,2.75,3.36,4.46
5.9410,0.08,0.11,-1.00,2.81,3.48,5.00
5.9590,0.08,0.11,-0.99,2.81,3.60,3.85
5.9750,0.08,0.12,-0.99,2.99,3.36,3.85
5.9900,0.08,0.12,-0.99,2.62,3.66,3.91
6.0070,0.08,0.12,-0.99,2.75,3.36,4.27
6.0230,0.08,0.11,-0.99,2.87,3.17,4.94
6.0380,0.08,0.11,-0.99,2.81,3.85,4.76
6.0410,0.08,0.11,-0.99,2.99,3.85,3.97
6.0570,0.08,0.11,-0.99,2.87,3.30,3.42
6.0830,0.08,0.12,-0.99,2.87,3.23,3.91
6.0990,0.08,0.11,-0.99,2.87,3.30,3.91
6.1110,0.08,0.11,-0.99,2.87,3.30,3.54
6.1300,0.08,0.12,-0.99,2.75,3.54,3.36
6.1450,0.08,0.12,-0.99,2.69,3.36,3.72
6.1500,0.08,0.12,-0.99,2.87,3.48,4.03
6.1660,0.08,0.11,-0.99,2.75,3.23,3.85
6.1890,0.08,0.11,-0.99,2.99,3.23,3.42
6.2070,0.08,0.12,-0.99,2.99,3.36,3.42
6.2220,0.08,0.12,-0.99,2.99,3.48,4.09
6.2370,0.08,0.11,-0.99,3.17,3.42,4.27
6.2530,0.08,0.11,-0.99,2.87,3.30,4.09
6.2560,0.08,0.12,-0.99,2.81,3.42,3.54
6.2840,0.08,0.12,-0.99,3.05,3.66,3.17
6.3000,0.08,0.12,-0.99,2.93,3.54,3.17
6.3110,0.08,0.13,-0.99,2.69,3.36,4.03
6.3270,0.08,0.12,-0.99,2.75,3.48,5.31
6.3430,0.08,0.11,-0.99,2.81,3.60,4.52
6.3600,0.08,0.11,-0.99,2.81,3.11,3.66
6.3760,0.08,0.11,-0.99,2.81,3.48,3.72
6.3930,0.08,0.12,-0.99,2.75,3.42,4.52
6.4080,0.08,0.12,-0.99,2.56,2.99,4.64
6.4240,0.08,0.11,-0.99,2.56,3.36,4.76
6.4390,0.08,0.12,-0.99,2.81,3.42,4.21
6.4540,0.08,0.12,-0.99,2.62,3.23,4.82
6.4690,0.08,0.11,-0.99,2.75,3.36,4.88
6.4850,0.08,0.10,-1.00,2.69,3.36,4.88
6.4990,0.08,0.11,-0.99,2.99,3.91,3.48
6.5150,0.08,0.11,-1.00,3.05,3.36,2.93
6.5270,0.08,0.12,-0.99,2.99,3.48,2.99
6.5430,0.08,0.12,-0.99,2.87,3.60,3.60
6.5610,0.08,0.12,-0.99,2.69,3.30,4.27
6.5770,0.08,0.12,-1.00,2.81,3.30,4.76
6.5930,0.08,0.11,-0.99,2.87,3.66,4.46
6.6090,0.08,0.11,-0.99,2.69,3.23,3.72
6.6250,0.08,0.12,-1.00,2.81,3.36,3.78
6.6410,0.08,0.12,-0.99,2.75,3.23,3.91
6.6570,0.08,0.11,-0.99,2.99,3.23,3.78
6.6720,0.08,0.12,-1.00,2.93,3.48,3.36
6.6870,0.08,0.12,-0.99,3.05,3.48,3.72
6.7030,0.08,0.11,-0.99,2.56,3.54,4.64
6.7100,0.08,0.11,-0.99,2.62,2.99,3.54
6.7250,0.08,0.11,-0.99,3.05,3.30,3.11
6.7490,0.08,0.12,-0.99,3.11,3.48,3.23
6.7660,0.08,0.12,-0.99,2.69,3.36,4.09
6.7830,0.08,0.12,-0.99,2.81,3.30,4.46
6.7990,0.08,0.11,-0.99,2.99,3.17,3.85
6.8150,0.08,0.12,-0.99,2.93,3.30,4.03
6.8310,0.08,0.12,-0.99,2.93,3.23,4.58
6.8470,0.08,0.12,-0.99,2.81,3.30,4.76
6.8630,0.08,0.12,-0.99,2.93,3.30,5.07
6.8790,0.08,0.12,-0.99,2.44,2.93,5.25
6.8950,0.08,0.12,-0.99,2.69,3.30,4.76
6.9110,0.08,0.11,-1.00,2.62,3.48,5.25
6.9270,0.08,0.10,-0.99,2.38,3.42,4.52
6.9430,0.08,0.10,-0.99,2.75,3.30,3.78
6.9490,0.08,0.11,-0.99,2.99,3.78,2.93
6.9640,0.08,0.12,-0.99,3.11,3.48,2.87
6.9900,0.08,0.12,-0.99,3.11,3.60,3.17
7.0010,0.08,0.12,-0.99,3.05,3.05,3.54
7.0180,0.08,0.12,-0.99,2.75,3.36,3.66
7.0340,0.08,0.11,-0.99,2.81,3.66,3.60
7.0510,0.08,0.12,-0.99,3.05,3.30,2.93
7.0670,0.08,0.12,-0.99,3.05,3.60,3.05
7.0830,0.08,0.12,-0.99,2.99,3.48,3.54
7.0990,0.08,0.11,-0.99,2.69,3.54,3.97
7.1160,0.08,0.12,-0.99,2.93,3.54,3.60
7.1320,0.08,0.12,-0.99,3.05,3.17,3.66
7.1490,0.08,0.12,-0.99,3.11,3.23,4.03
7.1650,0.08,0.12,-0.99,3.11,3.17,4.46
7.1800,0.08,0.12,-0.99,2.99,3.54,5.19
7.1970,0.08,0.11,-0.99,2.75,3.11,5.31
7.2120,0.08,0.11,-0.99,2.93,3.36,4.21
7.2290,0.08,0.11,-1.00,3.11,3.54,4.15
7.2350,0.08,0.12,-0.99,2.87,3.54,3.60
7.2510,0.08,0.12,-0.99,2.87,3.54,3.72
7.2740,0.08,0.12,-0.99,3.05,3.36,3.66
7.2890,0.08,0.12,-0.99,2.93,3.54,3.42
7.3040,0.08,0.12,-0.99,2.87,3.60,3.66
7.3190,0.08,0.13,-0.99,2.69,3.11,4.52
7.3350,0.08,0.12,-0.99,2.81,3.05,5.07
7.3510,0.08,0.11,-1.00,2.81,3.23,4.76
7.3570,0.08,0.12,-0.99,3.05,3.30,4.64
7.3730,0.08,0.12,-0.99,2.75,3.05,4.58
7.3930,0.08,0.12,-0.99,2.87,3.30,4.33
7.4100,0.08,0.12,-0.99,2.62,3.54,3.85
7.4270,0.08,0.12,-0.99,2.81,3.30,4.09
7.4440,0.08,0.13,-0.99,2.50,2.50,5.25
7.4600,0.08,0.12,-0.99,2.87,3.17,5.86
7.4770,0.08,0.11,-0.99,2.75,3.48,5.98
7.4930,0.08,0.10,-0.99,2.75,3.54,4.27
7.5100,0.08,0.11,-0.99,2.75,3.42,3.78
7.5250,0.08,0.12,-0.99,2.87,3.60,3.54
7.5410,0.08,0.11,-0.99,2.99,3.36,3.48
7.5440,0.08,0.12,-0.99,2.99,3.60,3.48
7.5590,0.08,0.12,-0.99,2.87,3.30,4.03
7.5820,0.08,0.12,-0.99,2.81,3.23,4.70
7.6010,0.08,0.11,-0.99,2.99,3.60,4.33
7.6160,0.08,0.11,-0.99,2.87,3.11,3.97
7.6320,0.08,0.11,-0.99,2.99,3.60,3.30
7.6480,0.08,0.12,-0.99,2.93,3.23,3.48
7.6640,0.08,0.12,-0.99,2.62,3.48,4.09
7.6800,0.08,0.12,-0.99,2.69,3.17,4.58
7.6950,0.08,0.12,-0.99,3.05,2.87,5.07
7.7010,0.08,0.11,-0.99,2.81,3.42,5.37
7.7140,0.08,0.12,-0.99,3.05,3.17,5.07
7.7420,0.08,0.11,-0.99,2.81,3.17,4.76
7.7540,0.08,0.12,-0.99,2.87,3.60,4.64
7.7690,0.08,0.12,-0.99,2.87,3.42,5.25
7.7880,0.08,0.11,-0.99,2.93,3.36,4.46
7.8040,0.08,0.11,-0.99,2.87,3.36,4.21
7.8190,0.08,0.11,-0.99,2.93,3.54,3.72
7.8230,0.08,0.11,-0.99,2.93,3.42,3.60
7.8380,0.08,0.12,-0.99,2.93,3.42,3.23
7.8650,0.08,0.12,-0.99,3.05,3.85,3.48
7.8760,0.08,0.12,-0.99,2.93,3.36,3.85
7.8920,0.08,0.12,-0.99,2.81,3.42,4.46
7.9090,0.08,0.12,-0.99,2.87,3.54,4.52
7.9260,0.08,0.13,-0.99,2.75,3.60,4.58
7.9430,0.08,0.12,-0.99,2.62,3.11,5.13
7.9590,0.08,0.10,-0.99,2.75,2.93,5.37
7.9750,0.08,0.10,-0.99,2.69,3.17,5.43
7.9910,0.08,0.11,-1.00,2.69,3.36,4.52
8.0060,0.08,0.11,-0.99,3.11,3.60,3.66
8.0210,0.08,0.12,-0.99,2.99,3.48,3.05
8.0370,0.08,0.12,-0.99,2.87,3.30,3.36
8.0520,0.08,0.12,-0.99,2.81,3.23,4.09
8.0670,0.08,0.12,-0.99,2.69,3.30,4.39
8.0820,0.08,0.11,-0.99,2.75,3.48,4.82
8.0930,0.08,0.11,-0.99,2.81,3.78,3.78
8.1100,0.08,0.12,-0.99,2.93,3.48,2.93
8.1270,0.08,0.12,-0.99,2.99,3.36,3.85
8.1430,0.08,0.12,-0.99,2.99,3.42,4.52
8.1590,0.08,0.12,-0.99,2.75,3.54,4.58
8.1750,0.08,0.11,-0.99,2.69,3.17,4.46
8.1910,0.08,0.12,-0.99,2.81,3.23,4.09
8.2070,0.08,0.11,-0.99,2.81,3.54,4.21
8.2220,0.08,0.11,-0.99,2.93,3.60,3.36
8.2370,0.08,0.12,-0.99,3.05,3.48,2.99
8.2520,0.08,0.12,-0.99,3.05,3.48,3.11
8.2590,0.08,0.13,-0.99,3.05,3.48,3.54
8.2750,0.08,0.12,-0.99,3.05,3.17,4.82
8.2970,0.08,0.11,-0.99,2.75,3.11,4.70
8.3150,0.08,0.11,-0.99,2.75,3.23,4.21
8.3310,0.08,0.11,-0.99,2.81,3.48,3.85
8.3460,0.08,0.12,-0.99,3.05,3.42,3.91
8.3490,0.08,0.13,-0.99,2.75,3.42,4.70
8.3640,0.08,0.12,-0.99,2.81,2.87,5.25
8.3800,0.08,0.12,-0.99,2.69,2.81,5.07
8.4010,0.08,0.12,-1.00,2.50,3.17,5.25
8.4150,0.08,0.11,-0.99,2.81,3.05,4.76
8.4300,0.08,0.13,-0.99,2.75,3.36,4.39
8.4480,0.07,0.15,-0.99,2.44,2.93,6.10
8.4750,0.08,0.11,-1.00,2.56,2.99,8.42
8.4810,0.08,0.08,-1.00,2.62,2.75,8.54
8.5010,0.08,0.10,-1.00,2.50,3.23,6.16
8.5140,0.08,0.11,-0.99,2.69,3.17,4.76
8.5300,0.08,0.12,-0.99,3.05,3.17,4.76
8.5550,0.08,0.12,-0.99,3.17,3.11,5.31
8.5690,0.08,0.12,-0.99,2.87,3.11,5.55
8.5860,0.08,0.11,-0.99,2.75,3.60,5.13
8.6000,0.08,0.11,-0.99,2.81,3.36,4.58
8.6170,0.08,0.12,-0.99,2.99,2.99,4.21
8.6330,0.08,0.11,-0.99,3.11,3.17,4.94
8.6480,0.08,0.11,-0.99,2.99,3.54,4.03
8.6540,0.08,0.11,-0.99,2.93,3.60,3.48
8.6700,0.08,0.12,-0.99,3.17,3.30,3.42
8.6920,0.08,0.12,-0.99,2.87,3.23,3.54
8.7090,0.08,0.11,-0.99,2.75,3.72,4.03
8.7260,0.08,0.12,-0.99,3.17,3.23,3.60
8.7410,0.08,0.12,-0.99,2.81,3.42,3.97
8.7570,0.08,0.12,-0.99,2.81,3.54,4.03
8.7720,0.08,0.12,-0.99,2.75,2.93,4.46
8.7870,0.08,0.11,-0.99,2.56,3.23,4.52
8.8020,0.08,0.11,-0.99,2.99,3.17,3.54
8.8190,0.08,0.12,-0.99,2.99,3.60,3.72
8.8340,0.08,0.12,-0.99,2.99,3.48,3.97
8.8500,0.08,0.12,-0.99,2.87,3.17,4.27
8.8650,0.08,0.11,-0.99,2.75,3.36,3.97
8.8750,0.08,0.12,-0.99,2.87,3.30,3.66
8.8920,0.08,0.12,-0.99,2.87,3.48,3.97
8.9080,0.08,0.12,-0.99,2.56,3.66,4.03
8.9270,0.08,0.12,-0.99,2.99,3.17,3.85
8.9420,0.08,0.12,-0.99,2.93,3.17,3.72
8.9580,0.08,0.12,-0.99,2.99,3.60,3.05
8.9750,0.08,0.12,-0.99,3.05,3.23,2.81
8.9910,0.08,0.13,-0.99,2.93,3.54,3.42
9.0070,0.09,0.13,-0.99,2.87,3.17,5.62
9.0230,0.08,0.11,-0.99,2.75,3.11,6.53
9.0380,0.08,0.10,-1.00,2.99,3.17,4.94
9.0540,0.08,0.11,-0.99,2.93,3.54,3.54
9.0700,0.08,0.12,-0.99,2.87,3.42,3.30
9.0850,0.08,0.13,-0.99,2.99,3.23,3.91
9.0930,0.08,0.13,-0.99,2.81,2.69,5.80
9.1080,0.08,0.12,-0.99,2.81,3.05,5.98
9.1310,0.08,0.12,-0.99,2.56,2.93,5.62
9.1470,0.08,0.14,-0.99,2.26,2.69,6.96
9.1490,0.08,0.12,-0.99,2.32,2.56,6.84
9.1640,0.09,0.08,-1.00,2.75,2.93,6.35
9.1800,0.08,0.09,-1.00,2.87,3.60,4.15
9.2030,0.08,0.11,-0.99,3.05,3.23,3.30
9.2140,0.08,0.12,-0.99,2.93,3.66,3.42
9.2290,0.08,0.13,-0.99,2.93,3.17,3.72
9.2580,0.08,0.13,-0.99,2.81,3.17,5.13
9.2680,0.09,0.12,-0.99,2.75,3.48,5.37
9.2840,0.08,0.11,-0.99,2.50,3.30,4.88
9.3030,0.08,0.11,-0.99,2.81,3.23,4.76
9.3170,0.08,0.12,-0.99,2.81,3.11,4.21
9.3350,0.08,0.12,-0.99,2.75,2.93,4.64
9.3510,0.08,0.12,-0.99,2.75,3.30,4.27
9.3670,0.08,0.11,-0.99,2.75,3.17,3.91
9.3830,0.08,0.12,-0.99,2.93,3.54,4.21
9.3990,0.08,0.12,-0.99,2.87,3.05,4.70
9.4150,0.08,0.12,-0.99,2.62,3.30,4.70
9.4310,0.08,0.12,-0.99,2.99,3.30,4.52
9.4460,0.08,0.11,-0.99,2.75,3.17,4.82
9.4630,0.08,0.11,-1.00,2.99,2.99,4.21
9.4690,0.08,0.11,-0.99,2.99,3.23,3.36
9.4840,0.08,0.12,-0.99,3.05,3.42,3.36
9.5080,0.08,0.12,-0.99,2.93,3.23,3.66
9.5230,0.08,0.12,-0.99,2.93,3.17,4.27
9.5390,0.08,0.12,-0.99,2.81,2.99,4.46
9.5540,0.08,0.11,-0.99,2.87,3.23,4.52
9.5690,0.08,0.12,-0.99,2.87,3.23,4.03
9.5850,0.08,0.12,-0.99,2.81,3.17,4.46
9.6010,0.08,0.12,-0.99,2.87,3.11,5.00
9.6160,0.08,0.11,-0.99,2.87,3.36,4.64
9.6330,0.08,0.12,-0.99,2.87,2.93,4.76
9.6490,0.08,0.12,-0.99,2.93,3.36,4.76
9.6640,0.08,0.11,-0.99,2.69,3.36,4.82
9.6750,0.08,0.12,-0.99,3.05,3.17,4.58
9.6910,0.09,0.12,-0.99,2.87,3.11,5.43
9.7080,0.08,0.12,-0.99,2.56,2.99,5.43
9.7240,0.08,0.12,-0.99,2.62,3.42,4.94
9.7410,0.08,0.12,-0.99,2.62,3.36,5.13
9.7570,0.07,0.16,-0.98,2.38,2.81,6.53
9.7730,0.09,0.10,-1.00,2.38,2.87,7.81
9.7880,0.09,0.09,-1.00,2.69,2.87,6.77
9.8030,0.08,0.10,-1.00,2.69,3.23,4.76
9.8190,0.08,0.11,-0.99,2.93,3.42,3.17
9.8350,0.08,0.12,-0.99,2.99,3.66,3.11
9.8510,0.08,0.12,-0.99,2.93,3.30,3.17
9.8580,0.08,0.12,-0.99,2.93,3.48,3.54
9.8740,0.08,0.12,-0.99,2.93,3.66,4.39
9.8950,0.08,0.12,-0.99,2.87,3.30,4.52
9.9110,0.08,0.12,-0.99,2.69,3.30,5.00
9.9280,0.08,0.11,-0.99,2.69,3.23,5.37
9.9450,0.09,0.12,-0.99,2.75,3.48,4.88
9.9600,0.08,0.12,-0.99,2.87,2.69,5.31
9.9770,0.08,0.12,-0.99,2.62,2.87,5.86
9.9930,0.08,0.11,-0.99,2.75,2.81,5.43
10.0090,0.08,0.11,-0.99,2.81,3.17,4.33
10.0250,0.08,0.12,-0.99,2.81,3.42,3.72
10.0400,0.08,0.12,-0.99,2.81,3.23,3.85
10.0560,0.08,0.12,-0.99,2.75,2.99,4.82
10.0630,0.08,0.11,-0.99,2.93,3.36,4.09
10.0780,0.08,0.11,-0.99,2.81,3.48,3.66
10.1000,0.08,0.12,-0.99,2.87,3.72,2.93
10.1170,0.08,0.12,-0.99,3.23,3.48,3.17
10.1330,0.08,0.12,-0.99,2.93,3.60,3.91
10.1490,0.08,0.11,-0.99,2.75,3.23,4.09
10.1650,0.08,0.11,-0.99,2.93,3.30,3.60
10.1810,0.08,0.12,-0.99,2.87,3.36,3.17
10.1970,0.08,0.12,-0.99,3.11,3.23,3.54
10.2040,0.09,0.13,-0.99,2.75,3.30,4.76
10.2160,0.09,0.12,-0.99,2.75,2.75,5.68
10.2390,0.08,0.11,-0.99,2.56,3.23,4.52
10.2560,0.08,0.11,-0.99,2.81,3.30,4.03
10.2720,0.08,0.12,-0.99,2.87,3.36,3.97
10.2890,0.08,0.12,-0.99,2.87,3.48,4.33
10.3050,0.08,0.12,-0.99,2.75,3.48,4.27
10.3210,0.08,0.12,-0.99,2.87,3.11,4.64
10.3360,0.08,0.11,-0.99,2.81,3.48,4.21
10.3390,0.09,0.13,-0.99,3.11,3.60,3.42
10.3540,0.08,0.12,-0.99,2.87,3.17,5.00
10.3830,0.08,0.11,-0.99,2.62,3.30,5.55
10.3980,0.08,0.11,-0.99,2.81,3.60,4.15
10.4090,0.08,0.11,-0.99,2.81,3.42,4.03
10.4260,0.08,0.12,-0.99,2.69,3.60,3.91
10.4420,0.08,0.13,-0.99,2.87,3.17,4.52
10.4590,0.08,0.12,-0.99,2.69,3.11,6.53
10.4760,0.08,0.11,-0.99,2.87,3.17,5.19
10.4930,0.08,0.12,-0.99,2.75,3.42,4.39
10.5080,0.08,0.12,-0.99,2.62,3.23,4.33
10.5230,0.09,0.13,-0.99,2.56,3.30,5.07
10.5390,0.08,0.13,-0.99,2.50,3.36,7.08
10.5430,0.08,0.12,-0.99,2.32,3.17,6.23
10.5580,0.08,0.13,-0.99,2.38,2.50,5.74
10.5810,0.08,0.11,-0.99,2.38,3.11,5.74
10.5980,0.08,0.10,-1.00,2.62,3.11,5.19
10.6140,0.08,0.11,-0.99,2.99,3.17,4.46
10.6310,0.08,0.11,-0.99,2.93,3.42,4.27
10.6460,0.08,0.11,-0.99,2.93,3.36,2.99
10.6620,0.08,0.12,-0.99,2.87,3.60,2.50
10.6780,0.08,0.12,-0.99,2.69,3.66,2.44
10.6810,0.08,0.12,-0.99,3.11,3.36,2.81
10.7050,0.08,0.12,-0.99,3.05,3.54,3.60
10.7190,0.08,0.12,-0.99,3.17,3.05,3.91
10.7360,0.09,0.12,-0.99,2.81,3.66,3.42
10.7520,0.09,0.12,-0.99,2.87,3.72,3.54
10.7690,0.08,0.13,-0.99,2.69,2.87,4.52
10.7850,0.08,0.12,-0.99,2.50,3.11,5.98
10.8010,0.09,0.11,-1.00,2.81,3.23,5.86
10.8170,0.08,0.11,-0.99,2.81,3.48,3.72
10.8330,0.08,0.12,-0.99,2.81,3.60,3.17
10.8490,0.08,0.13,-0.99,2.81,3.48,3.97
10.8650,0.08,0.12,-0.99,2.69,3.23,5.07
10.8810,0.08,0.11,-0.99,2.56,3.42,5.07
10.8970,0.08,0.12,-0.99,2.81,3.05,3.97
10.9120,0.08,0.12,-0.99,2.81,3.60,3.78
10.9190,0.08,0.12,-0.99,2.99,3.42,4.27
10.9420,0.08,0.13,-0.99,2.93,3.48,5.00
10.9580,0.08,0.12,-0.99,2.50,3.23,6.47
10.9690,0.08,0.11,-1.00,2.62,2.87,6.71
10.9860,0.08,0.11,-0.99,2.56,2.87,5.49
11.0020,0.08,0.10,-0.99,2.87,3.23,5.00
11.0180,0.08,0.12,-0.99,2.99,3.30,3.97
11.0350,0.08,0.13,-0.99,2.75,3.36,4.58
11.0500,0.09,0.12,-0.99,2.62,3.17,4.88
11.0660,0.08,0.11,-0.99,2.81,3.11,5.55
11.0830,0.08,0.12,-0.99,2.87,3.23,5.25
11.0980,0.08,0.12,-0.99,2.75,3.11,5.31
11.1050,0.08,0.12,-0.99,2.69,3.17,5.37
11.1180,0.08,0.12,-0.99,2.62,3.23,5.43
11.1410,0.08,0.13,-0.99,2.50,2.87,6.10
11.1580,0.08,0.11,-0.99,2.44,2.75,7.51
11.1740,0.08,0.13,-1.00,2.32,3.17,6.16
11.1910,0.08,0.08,-1.00,2.81,3.05,7.20
11.2060,0.08,0.10,-0.99,2.62,2.87,6.96
11.2230,0.09,0.08,-1.00,2.81,3.17,5.92
11.2380,0.08,0.11,-0.99,2.75,3.23,5.00
11.2550,0.08,0.11,-0.99,2.62,3.30,4.21
11.2700,0.09,0.11,-0.99,3.05,3.66,3.48
11.2870,0.08,0.12,-0.99,2.69,3.66,2.75
11.3020,0.08,0.13,-0.99,2.99,3.60,3.11
11.3080,0.08,0.13,-0.99,2.69,3.48,5.00
11.3230,0.08,0.11,-0.99,2.75,3.42,6.23
11.3450,0.09,0.11,-0.99,2.81,3.23,4.70
11.3620,0.08,0.11,-0.99,3.17,3.42,3.72
11.3790,0.08,0.11,-0.99,3.05,3.42,2.38
11.3950,0.08,0.12,-0.99,2.99,3.48,2.08
11.4110,0.08,0.13,-0.99,2.93,3.36,2.99
11.4270,0.08,0.12,-0.99,2.69,3.54,4.94
11.4430,0.09,0.12,-0.99,2.69,3.48,4.82
11.4590,0.08,0.12,-0.99,2.56,3.42,4.33
11.4630,0.08,0.11,-0.99,2.87,3.48,4.09
11.4910,0.08,0.12,-0.99,2.87,3.42,3.72
11.5060,0.08,0.11,-0.99,2.56,3.30,2.99
11.5120,0.08,0.12,-0.99,2.99,3.91,2.14
11.5280,0.08,0.12,-0.99,2.93,3.72,2.14
11.5490,0.08,0.12,-0.99,2.93,3.54,1.77
11.5650,0.08,0.12,-0.99,2.93,3.42,1.95
11.5810,0.08,0.12,-0.99,2.93,3.85,1.95
11.5970,0.08,0.12,-0.99,2.93,3.78,2.20
11.6050,0.09,0.12,-0.99,2.81,3.36,2.01
11.6300,0.09,0.12,-0.99,2.93,3.97,2.01
11.6460,0.08,0.12,-0.99,2.81,3.72,1.83
11.6610,0.08,0.12,-0.99,2.93,3.54,2.01
11.6770,0.08,0.12,-0.99,2.99,3.72,1.83
11.6930,0.08,0.12,-0.99,3.05,3.36,1.95
11.7090,0.09,0.12,-0.99,2.93,3.60,2.08
11.7240,0.09,0.12,-0.99,3.17,3.66,1.65
11.7340,0.09,0.11,-0.99,3.36,4.09,-0.06
11.7510,0.08,0.12,-1.01,3.17,4.03,-0.06
11.7680,0.08,0.12,-0.99,2.99,4.21,0.79
11.7840,0.08,0.12,-0.99,2.99,3.91,1.16
11.8000,0.08,0.12,-0.99,2.99,3.60,1.28
11.8170,0.08,0.12,-0.99,2.75,3.48,1.46
11.8330,0.08,0.12,-0.99,2.93,3.85,1.28
11.8490,0.08,0.12,-0.99,3.23,3.78,1.40
11.8650,0.08,0.12,-0.99,3.11,3.66,1.46
11.8810,0.08,0.12,-0.99,2.99,3.72,1.83
11.8830,0.08,0.12,-0.99,3.11,3.30,1.71
11.9050,0.08,0.12,-0.99,3.11,3.72,2.01
11.9220,0.08,0.12,-0.99,2.93,4.09,1.89
11.9380,0.08,0.12,-0.99,2.99,3.60,1.89
11.9550,0.08,0.12,-0.99,3.11,3.91,2.08
11.9720,0.08,0.12,-0.99,3.05,3.54,2.08
11.9870,0.08,0.12,-0.99,3.05,3.48,2.08
12.0030,0.08,0.12,-0.99,2.75,3.42,2.08
12.0050,0.08,0.12,-0.99,2.87,3.72,2.26
12.0210,0.08,0.12,-0.99,2.99,3.42,2.14
12.0490,0.08,0.12,-0.99,3.05,3.72,2.20
12.0590,0.08,0.12,-0.99,3.05,3.78,2.14
12.0760,0.08,0.12,-0.99,3.11,3.66,2.14
12.0930,0.09,0.12,-0.99,2.75,3.42,2.08
12.1090,0.08,0.12,-0.99,3.30,3.60,2.26
12.1260,0.08,0.12,-0.99,3.11,3.91,2.20
12.1430,0.08,0.12,-0.99,2.93,3.66,1.95
12.1590,0.08,0.12,-0.99,2.99,3.97,2.08
12.1750,0.08,0.12,-0.99,3.11,3.91,2.14
12.1910,0.08,0.12,-0.99,3.05,3.91,2.08
12.2060,0.08,0.11,-0.99,3.17,3.91,1.95
12.2210,0.08,0.12,-0.99,2.87,4.15,2.14
12.2360,0.08,0.12,-0.99,2.93,3.97,2.14
12.2500,0.08,0.12,-0.99,2.87,3.85,2.01
12.2660,0.08,0.12,-0.99,2.93,3.72,2.14
12.2760,0.08,0.12,-0.99,3.05,3.91,2.01
12.2930,0.08,0.12,-0.99,3.23,3.97,2.08
12.3080,0.08,0.12,-0.99,3.11,3.97,1.77
12.3270,0.08,0.12,-0.99,3.05,3.91,1.83
12.3420,0.08,0.12,-0.99,2.99,3.91,1.95
12.3590,0.08,0.12,-0.99,2.99,3.97,2.01
12.3740,0.08,0.12,-0.99,2.93,3.66,2.08
12.3880,0.08,0.12,-0.99,3.17,3.91,2.01
12.3970,0.08,0.12,-0.99,3.23,3.72,2.01
12.4130,0.09,0.12,-0.99,3.11,3.66,2.01
12.4350,0.08,0.12,-0.99,2.99,3.91,2.01
12.4510,0.08,0.12,-0.99,2.99,3.72,2.01
12.4660,0.08,0.12,-0.99,2.99,3.91,2.01
12.4830,0.08,0.12,-0.99,2.99,3.78,2.26
12.4990,0.08,0.12,-0.99,3.05,3.72,2.08
12.5150,0.08,0.12,-0.99,3.11,3.85,2.20
12.5320,0.08,0.12,-0.99,2.99,3.85,2.08
12.5470,0.08,0.12,-0.99,2.93,3.36,2.20
12.5530,0.08,0.12,-0.99,3.05,3.78,2.14
12.5690,0.08,0.12,-0.99,2.81,3.54,2.20
12.5900,0.08,0.12,-0.99,2.99,3.66,2.08
12.6070,0.09,0.12,-0.99,3.05,3.72,2.20
12.6240,0.08,0.12,-0.99,3.11,3.66,2.08
12.6400,0.08,0.12,-0.99,2.87,3.60,2.08
12.6570,0.09,0.12,-0.99,3.05,3.85,2.08
12.6740,0.08,0.12,-0.99,2.81,3.97,2.08
12.6900,0.08,0.12,-0.99,3.11,3.66,2.08
12.7050,0.08,0.12,-0.99,2.99,3.97,2.26
12.7210,0.09,0.13,-0.99,2.99,3.66,2.38
12.7360,0.09,0.12,-0.99,3.05,3.78,2.56
12.7410,0.09,0.13,-0.99,2.99,3.54,3.42
12.7570,0.08,0.12,-0.99,2.62,3.05,5.19
12.7820,0.08,0.12,-0.99,2.75,2.87,6.04
12.7980,0.08,0.12,-0.99,2.44,3.54,5.55
12.8140,0.08,0.11,-1.00,2.87,3.42,4.58
12.8300,0.08,0.11,-0.99,2.75,3.60,2.75
12.8470,0.08,0.12,-0.99,3.17,3.42,2.14
12.8620,0.09,0.12,-0.99,3.05,3.66,2.20
12.8790,0.08,0.12,-0.99,2.93,3.48,2.08
12.8820,0.08,0.12,-0.99,2.81,3.78,2.08
12.9120,0.08,0.12,-0.99,3.17,3.54,2.08
12.9270,0.08,0.12,-0.99,3.05,3.91,2.08
12.9430,0.08,0.12,-0.99,2.99,3.72,2.14
12.9470,0.08,0.12,-0.99,2.87,3.66,2.01
12.9630,0.09,0.12,-0.99,2.69,3.60,1.77
12.9850,0.08,0.12,-0.99,2.87,4.03,1.46
13.0020,0.08,0.12,-0.99,2.81,3.91,1.65
13.0190,0.08,0.12,-0.99,3.05,3.54,2.14
13.0350,0.09,0.12,-0.99,2.87,3.78,2.20
13.0510,0.08,0.12,-0.99,3.11,3.72,2.08
13.0660,0.08,0.12,-0.99,2.93,3.66,2.20
13.0830,0.09,0.12,-0.99,2.87,3.85,2.01
13.0980,0.09,0.12,-0.99,2.81,3.72,1.95
13.1130,0.08,0.12,-0.99,3.05,3.72,2.20
13.1190,0.08,0.12,-0.99,3.05,3.66,2.14
13.1350,0.08,0.12,-0.99,2.99,3.66,2.08
13.1570,0.08,0.12,-0.99,2.87,3.85,2.01
13.1730,0.09,0.12,-0.99,2.81,3.85,2.08
13.1890,0.08,0.12,-0.99,2.93,3.78,2.08
13.2070,0.08,0.12,-0.99,3.11,3.42,2.20
13.2230,0.08,0.12,-0.99,3.11,3.78,2.20
13.2240,0.08,0.12,-0.99,2.99,3.78,2.26
13.2530,0.08,0.12,-0.99,2.87,3.54,2.01
13.2680,0.08,0.12,-0.99,2.75,3.66,2.14
13.2830,0.08,0.12,-0.99,2.99,3.78,2.20
13.2990,0.08,0.12,-0.99,2.99,3.66,2.14
13.3070,0.08,0.12,-0.99,3.11,3.66,2.20
13.3300,0.09,0.12,-0.99,3.05,3.72,2.14
13.3390,0.08,0.12,-0.99,3.23,3.60,2.01
13.3560,0.08,0.12,-0.99,3.17,3.78,1.83
13.3720,0.09,0.12,-0.99,3.05,3.85,2.01
13.3890,0.08,0.12,-0.99,2.93,3.54,2.20
13.4050,0.09,0.12,-0.99,2.99,3.72,2.32
13.4210,0.08,0.12,-0.99,2.93,3.78,2.44
13.4360,0.09,0.12,-0.99,3.05,3.30,2.32
13.4390,0.09,0.12,-0.99,2.99,3.42,2.38
13.4650,0.08,0.12,-0.99,2.99,3.36,2.69
13.4760,0.08,0.12,-0.99,2.99,3.72,2.56
13.4920,0.08,0.12,-0.99,3.11,3.66,2.38
13.5080,0.08,0.12,-0.99,2.93,3.48,2.14
13.5250,0.08,0.12,-0.99,2.99,3.54,1.83
13.5400,0.08,0.12,-0.99,3.05,3.91,1.83
13.5550,0.09,0.11,-0.99,3.05,4.21,1.77
13.5700,0.08,0.12,-0.99,2.50,4.27,1.65
13.5850,0.08,0.12,-0.99,2.62,4.15,1.77
13.6000,0.09,0.12,-1.00,3.11,3.42,1.71
13.6150,0.08,0.12,-0.99,2.99,4.09,1.95
13.6310,0.09,0.12,-0.99,2.87,3.54,2.14
13.6420,0.09,0.12,-0.99,2.75,4.21,1.83
13.6590,0.09,0.12,-0.99,3.17,3.78,1.89
13.6760,0.09,0.12,-0.99,2.93,3.72,1.77
13.6910,0.09,0.11,-0.99,2.87,3.66,1.77
13.7080,0.09,0.12,-0.99,3.11,3.97,1.53
13.7240,0.08,0.12,-0.99,3.11,3.60,1.71
13.7390,0.08,0.12,-0.99,2.99,3.85,1.77
13.7540,0.08,0.12,-0.99,2.93,3.72,1.65
13.7690,0.08,0.12,-0.99,2.87,4.03,1.77
13.7850,0.08,0.12,-0.99,3.23,3.85,1.71
13.8010,0.08,0.12,-0.99,3.17,3.85,1.65
13.8160,0.09,0.12,-0.99,2.81,3.85,1.34
13.8320,0.09,0.12,-0.99,2.99,3.91,0.92
13.8430,0.08,0.12,-0.99,3.11,3.85,1.16
13.8590,0.08,0.12,-0.99,3.11,3.66,1.71
13.8760,0.09,0.12,-0.99,2.99,3.42,2.08
13.8920,0.08,0.12,-0.99,2.99,3.85,2.38
13.9090,0.09,0.12,-0.99,2.93,3.66,2.26
13.9260,0.09,0.12,-0.99,2.99,3.60,2.14
13.9410,0.09,0.12,-0.99,3.36,3.78,2.50
13.9570,0.09,0.12,-0.99,2.99,3.91,2.75
13.9720,0.08,0.12,-0.99,2.99,3.66,2.81
13.9880,0.08,0.12,-0.99,2.99,3.72,2.44
14.0020,0.09,0.12,-0.99,2.75,3.72,2.20
14.0170,0.08,0.12,-0.99,2.99,3.60,2.20
14.0320,0.08,0.12,-0.99,3.36,4.03,2.01
14.0420,0.09,0.12,-0.99,3.36,3.91,1.89
14.0590,0.08,0.12,-0.99,3.17,3.91,2.01
14.0750,0.08,0.12,-0.99,3.17,3.78,1.77
14.0930,0.08,0.12,-0.99,3.05,3.66,1.65
14.1090,0.09,0.12,-0.99,3.23,3.85,1.95
14.1240,0.09,0.12,-0.99,3.23,3.54,2.32
14.1400,0.09,0.12,-0.99,2.99,3.66,2.44
14.1560,0.09,0.12,-0.99,2.93,3.85,2.26
14.1710,0.08,0.12,-0.99,3.11,3.78,1.65
14.1860,0.08,0.12,-0.99,2.99,3.97,1.53
14.2020,0.09,0.12,-0.99,3.17,3.91,1.89
14.2180,0.08,0.12,-0.99,2.99,3.72,2.62
14.2260,0.08,0.12,-0.99,2.93,3.72,2.87
14.2410,0.08,0.12,-0.99,3.05,3.48,2.62
14.2630,0.09,0.12,-0.99,2.99,3.78,2.26
14.2790,0.09,0.12,-0.99,2.81,3.66,2.32
14.2960,0.09,0.12,-0.99,2.81,3.91,2.62
14.3120,0.08,0.12,-0.99,2.81,3.60,2.75
14.3290,0.08,0.12,-0.99,2.87,3.42,2.44
14.3310,0.08,0.12,-0.99,2.87,3.85,2.01
14.3590,0.08,0.12,-0.99,2.99,3.66,1.89
14.3750,0.09,0.12,-0.99,3.30,3.60,1.59
14.3850,0.09,0.12,-0.99,3.11,3.36,1.59
14.4020,0.08,0.12,-0.99,3.05,3.66,1.40
14.4190,0.09,0.12,-0.99,3.17,3.66,1.34
14.4350,0.09,0.12,-0.99,3.05,3.85,1.59
14.4510,0.08,0.12,-0.99,3.11,3.72,1.65
14.4660,0.08,0.12,-0.99,2.99,3.72,1.40
14.4820,0.08,0.12,-0.99,2.99,3.60,1.59
14.4980,0.09,0.12,-0.99,3.11,3.85,1.59
14.5140,0.09,0.12,-0.99,3.11,3.97,1.59
14.5300,0.08,0.12,-0.99,2.75,3.91,1.28
14.5460,0.09,0.12,-0.99,3.17,3.72,1.46
14.5520,0.09,0.12,-0.99,3.11,4.21,1.59
14.5680,0.09,0.11,-0.99,3.11,3.54,2.20
14.5900,0.08,0.12,-0.99,2.87,3.36,2.56
14.6060,0.08,0.12,-0.99,3.11,3.48,2.08
14.6230,0.08,0.12,-0.99,3.11,3.97,1.95
14.6380,0.08,0.12,-0.99,3.11,3.54,1.83
14.6540,0.09,0.12,-0.99,3.17,3.60,1.77
14.6590,0.08,0.12,-0.99,3.30,3.97,1.59
14.6850,0.08,0.12,-0.99,3.11,3.97,1.71
14.6990,0.09,0.12,-0.99,2.99,3.85,1.59
14.7150,0.09,0.11,-0.99,3.23,3.66,1.40
14.7290,0.09,0.12,-0.99,3.23,3.72,1.16
14.7420,0.09,0.12,-0.99,3.23,4.15,0.79
14.7570,0.09,0.11,-0.99,3.11,3.48,1.83
14.7750,0.07,0.12,-0.99,3.17,3.36,2.01
14.7810,0.07,0.13,-0.99,2.87,3.54,1.71
14.7990,0.08,0.12,-0.99,2.99,3.66,1.53
14.8150,0.09,0.12,-0.99,3.17,3.78,1.53
14.8310,0.09,0.12,-0.99,3.05,3.72,1.28
14.8480,0.08,0.12,-0.99,2.87,3.42,1.10
14.8640,0.08,0.12,-0.99,3.23,3.91,1.46
14.8800,0.09,0.12,-0.99,3.30,3.48,1.65
14.8960,0.08,0.12,-0.99,3.17,3.78,1.46
14.9120,0.09,0.12,-0.99,3.17,3.72,1.46
14.9260,0.09,0.12,-0.99,3.11,3.97,1.53
14.9420,0.09,0.12,-0.99,2.99,3.54,1.65
14.9480,0.09,0.12,-0.99,3.05,3.66,1.71
14.9640,0.08,0.12,-0.99,3.11,3.54,1.83
14.9880,0.08,0.12,-0.99,2.87,3.54,2.01
15.0040,0.08,0.12,-0.99,3.05,3.66,1.65
15.0200,0.08,0.12,-0.99,2.99,3.60,1.59
15.0360,0.08,0.12,-0.99,3.17,3.91,1.71
15.0520,0.08,0.12,-0.99,2.87,3.60,1.59
15.0670,0.08,0.12,-0.99,3.05,3.54,1.53
15.0840,0.09,0.12,-0.99,3.17,3.78,1.65
15.0990,0.08,0.12,-0.99,3.36,3.54,1.65
15.1150,0.08,0.12,-0.99,3.23,3.66,1.59
15.1310,0.08,0.12,-0.99,2.93,3.91,1.59
15.1370,0.08,0.12,-0.99,3.11,3.78,1.65
15.1530,0.08,0.12,-0.99,2.93,3.54,1.71
15.1760,0.08,0.12,-0.99,2.99,3.91,1.71
15.1910,0.08,0.12,-0.99,3.23,3.42,1.83
15.2070,0.08,0.12,-0.99,3.11,3.97,1.89
15.2220,0.09,0.12,-0.99,3.17,3.85,1.83
15.2370,0.08,0.12,-0.99,3.05,3.78,1.77
15.2520,0.09,0.12,-0.99,3.23,3.97,1.71
15.2680,0.09,0.12,-0.99,3.11,3.66,1.83
15.2760,0.08,0.12,-0.99,3.05,3.72,1.59
15.2920,0.09,0.12,-0.99,2.99,3.91,1.40
15.3130,0.09,0.12,-0.99,3.36,3.60,1.40
15.3290,0.09,0.11,-0.99,3.05,3.78,1.22
15.3450,0.08,0.11,-1.00,3.11,3.97,1.40
15.3490,0.08,0.12,-0.99,2.99,3.72,1.65
15.3760,0.08,0.12,-0.99,3.11,3.66,1.59
15.3920,0.09,0.12,-0.99,3.17,3.85,1.77
15.4080,0.09,0.12,-0.99,3.23,3.48,1.22
15.4220,0.08,0.12,-0.99,3.11,3.72,1.28
15.4320,0.08,0.12,-0.99,3.05,3.72,1.59
15.4490,0.08,0.12,-0.99,3.11,3.54,1.65
15.4650,0.08,0.12,-0.99,2.87,3.72,1.83
15.4820,0.08,0.12,-0.99,3.17,3.72,2.01
15.4990,0.09,0.12,-0.99,3.17,3.42,1.95
15.5090,0.09,0.12,-0.99,3.42,3.36,2.01
15.5140,0.08,0.12,-0.99,3.30,3.66,2.01
15.5370,0.09,0.12,-0.99,3.05,3.48,1.77
15.5540,0.09,0.12,-0.99,3.11,4.03,1.40
15.5700,0.08,0.12,-0.99,3.17,3.91,1.16
15.5900,0.08,0.12,-0.99,3.23,3.91,1.59
15.6050,0.08,0.12,-0.99,3.11,3.66,2.08
15.6210,0.08,0.12,-0.99,2.99,3.42,2.20
15.6360,0.08,0.12,-0.99,2.99,3.36,1.95
15.6520,0.08,0.12,-0.99,3.17,3.54,2.08
15.6680,0.09,0.12,-0.99,3.05,3.85,2.14
15.6840,0.08,0.12,-0.99,3.11,3.42,2.14
15.6980,0.08,0.12,-0.99,3.05,3.48,2.08
15.7100,0.08,0.12,-0.99,3.11,3.30,2.14
15.7260,0.09,0.12,-0.99,3.17,3.60,2.14
15.7420,0.09,0.12,-0.99,3.11,3.42,1.95
15.7590,0.08,0.12,-0.99,2.93,3.72,2.01
15.7760,0.08,0.12,-0.99,2.93,3.30,1.95
15.7930,0.08,0.12,-0.99,3.23,3.72,2.01
15.8080,0.08,0.12,-0.99,3.05,3.72,2.14
15.8250,0.08,0.12,-0.99,3.05,3.48,2.08
15.8410,0.08,0.12,-0.99,3.11,3.30,2.01
15.8560,0.08,0.12,-0.99,3.30,3.85,1.95
15.8710,0.09,0.12,-0.99,3.05,3.78,2.01
15.8870,0.08,0.12,-0.99,3.30,3.78,1.40
15.8930,0.09,0.12,-0.99,3.23,3.78,0.85
15.9100,0.11,0.13,-0.99,3.48,4.21,-1.40
15.9320,0.07,0.12,-0.99,3.54,4.21,-0.85
15.9480,0.07,0.12,-0.99,3.30,4.27,0.00
15.9650,0.09,0.12,-0.99,3.54,4.03,0.61
15.9810,0.07,0.12,-0.99,3.23,3.78,0.85
15.9980,0.08,0.12,-0.99,3.11,3.60,1.65
16.0130,0.08,0.12,-0.99,3.30,3.91,2.01
16.0300,0.09,0.12,-0.99,2.93,3.85,2.01
16.0460,0.08,0.12,-0.99,2.99,3.66,2.08
16.0620,0.08,0.12,-0.99,2.87,3.42,2.14
16.0650,0.09,0.12,-0.99,3.17,3.42,2.08
16.0800,0.09,0.12,-0.99,2.87,3.66,2.14
16.1050,0.09,0.12,-0.99,2.93,3.91,2.14
16.1220,0.08,0.12,-0.99,3.05,3.78,2.20
16.1380,0.11,0.12,-0.99,2.99,3.42,2.75
16.1550,0.07,0.12,-1.00,3.05,3.23,4.52
16.1700,0.08,0.12,-0.99,2.81,3.85,3.66
16.1860,0.08,0.12,-0.99,2.87,3.66,3.60
16.1880,0.08,0.12,-0.99,2.75,3.54,3.17
16.2100,0.09,0.12,-0.99,2.93,3.78,2.99
16.2320,0.09,0.12,-0.99,2.93,3.48,3.66
16.2430,0.08,0.11,-0.99,2.69,3.30,3.97
16.2590,0.08,0.12,-0.99,2.75,3.60,2.99
16.2770,0.09,0.12,-0.99,2.81,3.72,2.69
16.2920,0.08,0.12,-0.99,2.99,3.36,2.44
16.3080,0.08,0.12,-0.99,2.99,3.60,2.14
16.3240,0.09,0.12,-0.99,2.93,4.21,1.71
16.3380,0.08,0.12,-0.99,3.36,3.72,1.40
16.3490,0.08,0.12,-0.99,3.36,3.78,1.34
16.3640,0.08,0.12,-0.99,2.87,3.60,1.40
16.3840,0.08,0.12,-0.99,2.99,3.72,1.46
16.3990,0.08,0.12,-0.99,3.11,3.78,1.77
16.4140,0.08,0.12,-0.99,3.05,3.78,1.71
16.4290,0.08,0.12,-0.99,3.05,4.03,1.77
16.4440,0.08,0.12,-0.99,3.05,4.03,1.71
16.4590,0.08,0.12,-0.99,3.11,3.66,1.65
16.4720,0.08,0.12,-0.99,3.05,3.85,1.77
16.4870,0.09,0.12,-0.99,2.75,3.66,1.77
16.5030,0.09,0.12,-0.99,3.05,3.54,1.65
16.5190,0.09,0.12,-0.99,3.30,3.97,1.40
16.5350,0.08,0.12,-0.99,3.36,3.72,1.28
16.5490,0.08,0.12,-0.99,2.99,3.72,1.40
16.5540,0.08,0.12,-0.99,3.17,3.72,1.65
16.5690,0.08,0.12,-0.99,2.99,3.23,1.89
16.5980,0.08,0.12,-0.99,3.17,3.42,1.83
16.6130,0.09,0.12,-0.99,3.05,3.54,2.01
16.6250,0.09,0.12,-0.99,2.93,3.60,1.83
16.6410,0.09,0.12,-0.99,2.99,3.54,1.71
16.6580,0.09,0.12,-0.99,2.99,3.30,2.20
16.6740,0.08,0.12,-0.99,3.17,3.42,2.14
16.6900,0.08,0.12,-0.99,3.11,3.36,2.01
16.7060,0.09,0.12,-0.99,2.99,3.97,1.89
16.7210,0.08,0.12,-0.99,3.17,3.54,1.83
16.7360,0.09,0.12,-0.99,2.99,3.60,1.71
16.7500,0.09,0.12,-0.99,3.17,3.72,1.89
16.7660,0.08,0.12,-0.99,3.30,3.72,1.77
16.7740,0.08,0.12,-0.99,3.36,3.97,1.46
16.7900,0.08,0.12,-0.99,3.17,3.85,1.65
16.8120,0.09,0.12,-0.99,2.99,3.78,1.65
16.8290,0.09,0.12,-0.99,3.17,3.85,1.53
16.8300,0.09,0.12,-0.99,3.17,3.85,1.59
16.8460,0.08,0.12,-0.99,2.99,3.72,1.65
16.8630,0.08,0.12,-0.99,2.99,3.66,1.83
16.8790,0.08,0.12,-0.99,2.93,3.66,1.83
16.8960,0.09,0.12,-0.99,3.11,3.72,1.83
16.9130,0.09,0.12,-0.99,2.93,3.91,1.53
16.9290,0.08,0.12,-0.99,2.99,3.91,1.40
16.9470,0.08,0.11,-0.99,3.05,3.78,1.65
16.9630,0.09,0.12,-0.99,2.93,3.66,1.65
16.9800,0.09,0.11,-0.99,3.17,3.72,1.65
16.9960,0.08,0.12,-0.99,3.05,3.54,1.59
17.0130,0.08,0.12,-0.99,2.93,3.60,1.65
17.0280,0.08,0.12,-0.99,2.93,3.78,1.83
17.0460,0.08,0.12,-0.99,3.11,3.78,2.01
17.0620,0.08,0.12,-0.99,3.17,3.66,2.01
17.0760,0.09,0.12,-0.99,2.93,3.91,2.08
17.0800,0.08,0.12,-0.99,3.17,3.66,1.83
17.0950,0.08,0.12,-0.99,3.23,3.72,1.83
17.1120,0.08,0.12,-0.99,2.75,3.60,2.08
17.1310,0.08,0.12,-0.99,2.81,3.36,2.14
17.1480,0.08,0.12,-0.99,2.99,3.54,2.14
17.1640,0.09,0.11,-0.99,3.05,3.54,2.01
17.1810,0.10,0.11,-0.99,2.99,3.91,1.65
17.1970,0.10,0.12,-0.99,3.17,3.91,0.37
17.2130,0.11,0.12,-0.99,3.05,4.03,0.00
17.2290,0.13,0.11,-0.99,3.05,3.91,-0.31
17.2450,0.08,0.13,-0.99,3.11,4.09,0.55
17.2490,0.05,0.12,-0.99,2.99,4.21,0.43
17.2760,0.10,0.11,-0.99,3.05,3.97,1.83
17.2920,0.06,0.12,-0.99,2.99,3.66,2.20
17.2980,0.06,0.12,-0.99,2.93,3.54,2.20
17.3140,0.07,0.12,-0.99,2.81,3.85,2.14
17.3370,0.08,0.12,-0.99,3.17,3.48,2.01
17.3370,0.08,0.12,-0.99,3.05,3.97,2.14
17.3670,0.09,0.12,-0.99,3.17,3.36,2.14
17.3830,0.09,0.12,-0.99,2.99,3.54,1.95
17.3980,0.08,0.12,-0.99,3.11,3.23,2.14
17.4140,0.08,0.12,-0.99,3.11,3.17,2.08
17.4310,0.09,0.11,-0.99,2.99,3.85,2.08
17.4450,0.08,0.11,-0.99,3.23,3.36,2.26
17.4550,0.09,0.12,-0.99,2.81,3.78,2.50
17.4700,0.09,0.11,-0.99,3.11,3.48,2.38
17.4910,0.08,0.12,-0.99,2.99,3.91,2.26
17.4930,0.08,0.12,-0.99,3.17,3.72,2.01
17.5200,0.09,0.12,-0.99,3.11,3.85,2.14
17.5360,0.09,0.12,-0.99,3.23,3.30,2.56
17.5430,0.09,0.12,-0.99,3.17,3.60,2.93
17.5650,0.09,0.12,-0.99,2.75,3.42,3.54
17.5810,0.08,0.12,-0.99,2.81,3.36,3.85
17.5970,0.09,0.12,-0.99,2.87,3.23,3.23
17.6120,0.09,0.12,-0.99,2.93,3.36,2.99
17.6280,0.08,0.11,-0.99,2.62,3.48,3.23
17.6440,0.09,0.11,-0.99,2.81,3.60,3.11
17.6590,0.08,0.11,-1.00,3.11,3.54,2.75
17.6740,0.08,0.12,-0.99,2.99,3.54,2.38
17.6890,0.08,0.12,-0.99,2.81,3.72,2.20
17.7050,0.08,0.12,-0.99,2.87,3.72,2.08
17.7150,0.08,0.12,-0.99,3.23,3.78,1.95
17.7320,0.08,0.12,-0.99,2.99,3.66,1.95
17.7470,0.08,0.12,-0.99,3.23,3.66,2.01
17.7650,0.08,0.12,-0.99,3.11,3.85,2.01
17.7820,0.08,0.12,-0.99,2.75,3.97,2.08
17.7980,0.09,0.12,-0.99,3.11,3.97,2.01
17.8140,0.09,0.12,-0.99,2.99,3.72,2.14
17.8300,0.09,0.11,-0.99,2.87,3.66,2.44
17.8450,0.08,0.11,-0.99,2.62,3.72,3.23
17.8610,0.08,0.11,-0.99,3.05,3.85,2.81
17.8760,0.08,0.11,-0.99,2.99,3.54,2.50
17.8820,0.08,0.12,-0.99,2.81,3.60,2.50
17.8970,0.08,0.12,-0.99,3.05,3.91,2.26
17.9190,0.09,0.12,-0.99,3.05,3.72,2.01
17.9360,0.08,0.12,-0.99,2.99,3.48,2.20
17.9510,0.09,0.12,-0.99,3.05,3.54,2.01
17.9700,0.09,0.12,-0.99,2.99,3.78,2.01
17.9850,0.09,0.12,-0.99,2.99,3.78,2.01
17.9900,0.08,0.12,-0.99,2.75,3.78,1.89
18.0160,0.08,0.12,-0.99,2.81,3.78,1.83
18.0300,0.09,0.11,-0.99,2.87,3.60,2.01
18.0410,0.08,0.11,-0.99,3.11,3.30,2.01
18.0570,0.08,0.11,-0.99,3.23,3.78,1.89
18.0730,0.08,0.11,-0.99,3.11,3.48,1.77
18.0930,0.08,0.11,-0.99,2.81,3.97,1.89
18.1080,0.08,0.12,-0.99,3.30,3.60,1.89
18.1120,0.08,0.12,-0.99,3.23,3.78,1.77
18.1270,0.08,0.12,-0.99,3.11,3.66,2.01
18.1490,0.08,0.12,-0.99,3.30,3.72,2.08
18.1670,0.08,0.12,-0.99,3.30,3.36,1.83
18.1840,0.09,0.12,-0.99,3.17,3.60,1.83
18.2000,0.08,0.12,-0.99,3.17,3.54,1.77
18.2160,0.08,0.12,-0.99,2.99,3.60,1.95
18.2320,0.08,0.12,-0.99,2.99,4.03,2.08
18.2480,0.08,0.11,-0.99,2.99,3.66,2.14
18.2640,0.09,0.11,-0.99,3.17,3.42,2.08
18.2800,0.09,0.11,-0.99,2.87,3.42,1.95
18.2830,0.09,0.11,-0.99,2.99,3.66,2.08
18.2980,0.08,0.11,-0.99,2.93,3.85,2.14
18.3210,0.08,0.12,-0.99,3.05,3.48,1.95
18.3390,0.08,0.12,-0.99,3.17,3.66,2.08
18.3540,0.08,0.12,-0.99,3.11,3.66,2.08
18.3700,0.08,0.12,-0.99,3.11,3.72,2.08
18.3860,0.08,0.12,-0.99,2.87,3.72,2.14
18.4010,0.10,0.12,-1.00,3.36,3.72,2.14
18.4120,0.07,0.13,-0.99,3.54,4.09,-0.79
18.4200,0.08,0.12,-0.99,3.11,3.78,0.37
18.4440,0.09,0.12,-0.99,2.99,3.91,-0.12
18.4600,0.07,0.11,-0.99,3.17,3.66,0.12
18.4770,0.08,0.11,-0.99,3.11,3.78,1.04
18.4930,0.08,0.11,-0.99,3.23,3.97,1.71
18.5090,0.08,0.11,-0.99,3.23,3.60,2.01
18.5250,0.08,0.11,-0.99,3.11,3.48,2.14
18.5410,0.08,0.11,-0.99,2.87,3.85,1.95
18.5560,0.08,0.12,-0.99,3.17,3.78,2.08
18.5720,0.08,0.12,-0.99,3.23,3.66,2.08
18.5860,0.08,0.12,-0.99,3.11,4.03,2.14
18.6020,0.08,0.12,-0.99,3.48,3.36,2.14
18.6130,0.09,0.12,-0.99,3.05,3.54,1.95
18.6270,0.08,0.12,-0.99,2.99,3.60,2.01
18.6440,0.08,0.12,-0.99,3.23,3.60,2.08
18.6600,0.08,0.12,-0.99,3.11,3.48,1.83
18.6760,0.09,0.11,-0.99,3.17,3.85,1.83
18.6940,0.08,0.12,-0.99,2.87,3.60,2.14
18.7100,0.08,0.12,-0.99,2.75,3.66,2.32
18.7250,0.08,0.12,-0.99,3.05,3.54,2.08
18.7420,0.08,0.12,-0.99,2.99,3.60,2.20
18.7580,0.08,0.12,-0.99,3.30,3.66,2.26
18.7740,0.08,0.12,-0.99,2.69,4.09,2.08
18.7910,0.08,0.12,-0.99,3.11,3.42,2.08
18.8070,0.08,0.12,-0.99,3.17,3.72,2.08
18.8210,0.08,0.12,-0.99,3.30,3.60,2.01
18.8360,0.08,0.12,-0.99,2.87,3.54,2.08
18.8430,0.08,0.12,-0.99,2.93,3.54,2.01
18.8590,0.08,0.12,-0.99,2.69,3.48,2.01
18.8800,0.09,0.12,-0.99,3.05,3.60,1.95
18.8960,0.09,0.12,-0.99,3.11,3.60,1.95
18.9120,0.08,0.11,-0.99,3.05,3.91,2.14
18.9280,0.08,0.12,-0.99,2.99,3.48,2.14
18.9440,0.08,0.12,-0.99,3.05,3.54,2.08
18.9590,0.08,0.12,-0.99,2.81,3.48,1.89
18.9750,0.08,0.12,-0.99,2.87,3.54,1.95
18.9910,0.09,0.12,-0.99,2.87,3.66,1.89
19.0070,0.10,0.12,-0.99,3.05,3.66,1.89
19.0230,0.08,0.12,-0.99,2.99,3.78,1.77
19.0370,0.08,0.12,-0.99,3.11,3.36,1.40
19.0520,0.08,0.12,-0.99,2.99,3.60,1.40
19.0640,0.09,0.12,-0.99,3.17,3.60,1.40
19.0800,0.08,0.12,-0.99,3.17,3.60,0.98
19.0960,0.08,0.12,-0.99,2.99,3.48,1.22
19.1140,0.08,0.12,-0.99,2.75,3.60,1.83
19.1300,0.09,0.11,-0.99,2.81,3.66,1.77
19.1460,0.09,0.11,-0.99,3.11,3.78,1.59
19.1610,0.08,0.12,-0.99,3.17,3.72,1.40
19.1770,0.08,0.12,-0.99,2.81,3.78,1.77
19.1930,0.08,0.12,-0.99,2.93,3.66,1.83
19.1970,0.08,0.12,-0.99,3.05,3.72,1.71
19.2140,0.09,0.12,-0.99,3.11,3.60,2.08
19.2350,0.08,0.12,-0.99,3.11,3.85,2.08
19.2510,0.08,0.12,-0.99,2.93,3.72,2.32
19.2670,0.08,0.12,-0.99,3.17,3.66,1.95
19.2850,0.08,0.12,-0.99,2.87,3.60,1.95
19.3010,0.09,0.12,-0.99,2.99,3.66,2.32
19.3170,0.09,0.12,-0.99,3.11,3.60,2.14
19.3320,0.08,0.12,-0.99,3.23,3.36,1.95
19.3470,0.08,0.12,-0.99,3.11,3.48,2.01
19.3630,0.09,0.11,-0.99,3.11,3.23,2.14
19.3690,0.09,0.12,-0.99,2.99,3.91,2.32
19.3850,0.09,0.12,-0.99,3.17,3.30,2.26
19.4080,0.08,0.12,-0.99,3.11,3.54,2.20
19.4240,0.08,0.12,-0.99,2.93,3.60,2.14
19.4400,0.08,0.12,-0.99,3.11,3.72,2.20
19.4560,0.09,0.12,-0.99,2.99,3.54,2.44
19.4710,0.08,0.12,-0.99,3.11,3.78,2.62
19.4860,0.08,0.12,-0.99,2.81,3.48,2.38
19.5010,0.08,0.12,-0.99,3.17,3.42,2.08
19.5140,0.09,0.12,-0.99,2.87,3.30,2.20
19.5230,0.09,0.12,-0.99,2.75,3.66,2.38
19.5460,0.09,0.11,-0.99,2.93,3.60,2.38
19.5630,0.09,0.11,-0.99,2.81,3.42,2.62
19.5640,0.09,0.11,-0.99,3.11,3.48,2.69
19.5940,0.08,0.11,-0.99,2.99,3.36,2.50
19.6100,0.08,0.11,-0.99,3.05,3.42,2.44
19.6150,0.08,0.12,-0.99,2.93,3.66,2.32
19.6300,0.08,0.12,-0.99,2.99,3.91,2.14
19.6460,0.08,0.12,-0.99,3.30,3.66,2.20
19.6720,0.08,0.12,-0.99,2.99,3.91,2.20
19.6870,0.08,0.12,-0.99,3.17,3.60,2.14
19.7030,0.09,0.12,-0.99,2.99,3.30,2.01
19.7190,0.09,0.12,-0.99,2.93,3.85,2.20
19.7350,0.08,0.12,-0.99,2.99,3.54,2.14
19.7510,0.08,0.12,-0.99,2.93,3.60,2.38
19.7540,0.08,0.12,-0.99,2.93,3.11,2.32
19.7700,0.09,0.11,-0.99,3.23,3.23,2.32
19.7970,0.08,0.12,-0.99,3.05,3.30,2.32
19.8080,0.08,0.12,-0.99,2.99,3.60,2.14
19.8250,0.09,0.11,-0.99,3.11,3.54,2.14
19.8420,0.09,0.12,-0.99,3.23,3.36,2.32
19.8570,0.09,0.12,-0.99,3.17,3.91,2.01
19.8730,0.08,0.12,-0.99,2.93,3.85,1.83
19.8890,0.08,0.12,-0.99,2.62,3.60,2.08
19.9050,0.08,0.12,-0.99,2.75,3.48,2.44
19.9190,0.09,0.12,-0.99,3.11,3.66,2.56
19.9350,0.08,0.12,-0.99,3.05,3.36,2.75
19.9490,0.08,0.11,-0.99,2.99,3.23,2.69
19.9650,0.09,0.11,-0.99,2.93,3.54,2.62
19.9750,0.09,0.11,-0.99,3.05,3.78,2.38
19.9920,0.09,0.12,-0.99,3.05,3.48,2.20
20.0090,0.09,0.12,-0.99,2.87,3.66,2.08
20.0250,0.08,0.12,-0.99,2.99,3.60,2.01
20.0410,0.08,0.12,-0.99,3.05,3.48,1.95
20.0580,0.08,0.12,-0.99,2.99,3.48,2.14
20.0740,0.08,0.12,-0.99,3.23,3.23,2.14
20.0900,0.09,0.12,-0.99,2.99,3.30,2.26
20.1060,0.09,0.12,-0.99,3.05,3.72,2.26
20.1220,0.09,0.12,-0.99,2.93,3.66,2.14
20.1360,0.09,0.11,-0.99,2.87,3.54,1.95
20.1520,0.08,0.11,-0.99,2.87,3.66,2.38
20.1580,0.09,0.11,-0.99,3.05,3.36,2.44
20.1820,0.08,0.11,-0.99,3.23,3.36,2.38
20.1970,0.08,0.11,-0.99,2.87,3.48,2.08
20.2090,0.08,0.12,-0.99,2.93,3.54,2.01
20.2250,0.09,0.12,-0.99,2.87,3.72,2.01
20.2430,0.09,0.12,-0.99,3.11,3.36,2.14
20.2580,0.09,0.12,-0.99,3.11,3.85,2.08
20.2750,0.08,0.13,-0.99,3.17,3.66,1.89
20.2900,0.08,0.12,-0.99,3.05,3.54,2.08
20.3070,0.09,0.12,-0.99,2.99,3.30,2.08
20.3230,0.09,0.12,-0.99,2.93,3.72,2.26
20.3380,0.09,0.12,-0.99,2.81,3.97,2.20
20.3420,0.08,0.11,-0.99,2.81,3.66,2.50
20.3580,0.08,0.11,-0.99,3.11,3.85,2.38
20.3800,0.08,0.11,-0.99,2.99,3.66,2.20
20.3980,0.09,0.11,-0.99,2.99,3.54,2.26
20.4130,0.08,0.11,-0.99,3.23,3.72,2.01
20.4290,0.08,0.12,-0.99,3.23,3.42,1.95
20.4440,0.08,0.12,-0.99,3.30,3.54,2.14
20.4600,0.08,0.12,-0.99,3.36,3.91,2.01
20.4750,0.09,0.12,-0.99,3.23,3.72,2.01
20.4840,0.09,0.12,-0.99,2.99,3.72,1.77
20.5010,0.08,0.12,-0.99,2.93,3.72,1.83
20.5180,0.10,0.12,-0.99,2.87,3.72,1.89
20.5340,0.09,0.11,-0.99,3.30,3.60,1.95
20.5500,0.08,0.11,-0.99,3.23,3.36,2.01
20.5660,0.09,0.11,-0.99,2.75,3.23,2.20
20.5820,0.08,0.11,-0.99,3.05,3.66,2.38
20.5980,0.08,0.11,-0.99,2.87,3.60,2.14
20.6140,0.08,0.12,-0.99,2.93,3.42,2.08
20.6290,0.08,0.12,-0.99,2.93,3.54,2.08
20.6440,0.09,0.12,-0.99,3.11,3.36,2.01
20.6600,0.09,0.12,-0.99,3.11,3.72,1.95
20.6740,0.09,0.12,-0.99,2.81,3.72,2.14
20.6850,0.09,0.12,-0.99,3.17,3.78,2.01
20.7010,0.08,0.12,-0.99,2.87,3.42,2.32
20.7180,0.09,0.12,-0.99,2.87,3.66,2.26
20.7340,0.09,0.11,-0.99,3.05,3.72,2.26
20.7510,0.09,0.11,-0.99,2.99,3.36,1.95
20.7670,0.08,0.11,-0.99,2.81,3.54,1.95
20.7820,0.09,0.11,-0.99,3.17,3.42,1.95
20.7990,0.09,0.11,-0.99,2.93,3.23,1.89
20.8140,0.08,0.12,-0.99,2.99,3.66,2.08
20.8310,0.08,0.12,-0.99,2.99,3.78,2.08
20.8470,0.08,0.12,-0.99,3.17,3.72,1.83
20.8630,0.08,0.12,-0.99,3.48,3.85,1.40
20.8680,0.08,0.12,-0.99,2.93,3.85,1.40
20.8830,0.09,0.12,-0.99,3.05,3.85,1.46
20.9060,0.08,0.12,-0.99,3.23,3.85,1.53
20.9240,0.09,0.12,-0.99,3.17,3.72,1.71
20.9400,0.08,0.12,-0.99,3.17,3.36,1.46
20.9570,0.09,0.12,-0.99,2.99,3.66,1.65
20.9730,0.08,0.12,-0.99,2.75,3.48,1.83
20.9880,0.09,0.11,-0.99,2.75,3.60,2.38
21.0040,0.08,0.11,-0.99,3.23,3.42,2.32
21.0180,0.08,0.12,-0.99,3.11,3.42,2.01
21.0340,0.09,0.12,-0.99,2.87,3.72,1.83
21.0400,0.09,0.12,-0.99,2.99,3.60,2.14
21.0550,0.09,0.12,-0.99,3.11,3.66,2.08
21.0790,0.08,0.12,-0.99,2.99,3.72,1.83
21.0950,0.08,0.12,-0.99,3.11,3.48,1.89
21.0970,0.08,0.12,-0.99,3.05,3.72,1.77
21.1260,0.08,0.12,-0.99,2.93,3.78,1.71
21.1400,0.09,0.12,-0.99,3.17,3.78,1.71
21.1550,0.09,0.11,-0.99,3.17,3.91,1.59
21.1620,0.09,0.12,-0.99,2.99,3.60,1.34
21.1780,0.08,0.12,-0.99,3.05,3.30,1.59
21.2000,0.08,0.12,-0.99,3.23,3.54,1.71
21.2170,0.08,0.12,-0.99,2.87,3.42,2.01
21.2330,0.08,0.12,-0.99,3.05,3.54,1.95
21.2480,0.08,0.12,-0.99,3.05,3.48,1.95
21.2640,0.09,0.12,-0.99,3.17,3.91,1.95
21.2790,0.09,0.12,-0.99,3.05,3.72,1.71
21.2950,0.08,0.12,-0.99,3.05,3.72,1.77
21.3110,0.08,0.12,-0.99,2.87,3.60,1.95
21.3180,0.09,0.12,-0.99,3.23,3.60,1.89
21.3340,0.08,0.12,-0.99,3.30,3.72,1.83
21.3560,0.08,0.12,-0.99,3.17,3.54,2.14
21.3720,0.08,0.12,-0.99,3.11,3.66,1.89
21.3870,0.09,0.12,-0.99,3.11,3.72,1.95
21.4020,0.09,0.12,-0.99,3.05,3.54,1.95
21.4180,0.09,0.12,-0.99,3.11,3.36,1.95
21.4340,0.09,0.12,-0.99,3.11,3.66,2.08
21.4390,0.08,0.12,-0.99,2.87,3.60,2.50
21.4540,0.08,0.12,-0.99,3.36,3.91,2.26
21.4780,0.09,0.12,-0.99,2.99,3.97,2.20
21.4940,0.09,0.12,-0.99,2.99,3.91,1.71
21.5090,0.09,0.12,-0.99,2.93,3.85,1.83
21.5240,0.08,0.12,-0.99,3.11,3.66,1.95
21.5280,0.08,0.12,-0.99,2.93,3.91,2.20
21.5430,0.08,0.11,-0.99,3.05,3.66,2.32
21.5710,0.08,0.12,-0.99,3.11,3.60,2.38
21.5820,0.09,0.12,-0.99,2.93,3.66,2.26
21.5980,0.09,0.12,-0.99,2.75,3.66,2.26
21.6160,0.08,0.12,-0.99,3.11,3.54,2.38
21.6310,0.08,0.12,-0.99,3.23,3.85,2.32
21.6460,0.08,0.12,-0.99,2.99,3.78,1.95
21.6480,0.09,0.12,-0.99,2.99,3.78,2.14
21.6780,0.09,0.12,-0.99,2.99,3.72,2.14
21.6930,0.08,0.12,-0.99,3.23,3.66,1.83
21.7000,0.08,0.12,-0.99,3.05,3.72,1.95
21.7150,0.09,0.12,-0.99,2.93,3.17,1.89
21.7300,0.09,0.12,-0.99,3.11,3.60,2.01
21.7540,0.09,0.12,-0.99,3.05,3.72,2.14
21.7700,0.08,0.12,-0.99,2.99,3.66,2.08
21.7850,0.09,0.12,-0.99,3.36,3.97,2.01
21.8010,0.09,0.12,-0.99,2.99,3.66,2.08
21.8170,0.09,0.12,-0.99,3.05,3.54,1.95
21.8200,0.08,0.12,-0.99,3.11,3.36,2.01
21.8360,0.09,0.12,-0.99,3.05,3.23,2.08
21.8590,0.08,0.12,-0.99,3.11,3.66,2.01
21.8760,0.08,0.12,-0.99,3.23,3.48,2.08
21.8920,0.09,0.12,-0.99,3.11,3.85,2.08
21.9090,0.09,0.12,-0.99,2.93,3.66,1.95
21.9260,0.09,0.12,-0.99,3.30,3.91,1.77
21.9430,0.08,0.12,-0.99,2.99,3.66,1.59
21.9580,0.09,0.12,-0.99,2.93,4.03,1.83
21.9750,0.08,0.12,-0.99,3.23,3.48,1.89
21.9910,0.09,0.12,-0.99,3.36,3.54,1.89
22.0070,0.08,0.12,-0.99,2.99,3.85,2.01
22.0150,0.07,0.12,-0.99,2.99,3.72,2.01
22.0250,0.09,0.12,-0.99,2.87,3.36,1.89
22.0500,0.09,0.12,-0.99,2.81,3.60,1.95
22.0650,0.08,0.12,-0.99,3.11,3.54,1.65
22.0830,0.08,0.12,-0.99,3.17,3.66,1.83
22.0990,0.08,0.12,-0.99,2.99,3.66,1.83
22.1140,0.08,0.12,-0.99,3.23,3.78,1.83
22.1300,0.08,0.12,-0.99,3.05,3.97,1.77
22.1470,0.09,0.12,-0.99,2.81,3.66,1.83
22.1630,0.09,0.12,-0.99,2.99,3.60,1.71
22.1780,0.08,0.12,-0.99,3.11,3.66,1.89
22.1930,0.08,0.12,-0.99,3.23,3.48,1.77
22.1990,0.08,0.12,-0.99,3.11,3.72,1.83
22.2150,0.09,0.12,-0.99,2.99,4.09,1.95
22.2380,0.08,0.12,-0.99,3.17,3.48,1.89
22.2540,0.09,0.12,-0.99,2.81,3.91,1.89
22.2700,0.08,0.12,-0.99,2.93,3.72,1.77
22.2840,0.08,0.12,-0.99,3.05,3.66,1.71
22.2910,0.08,0.11,-0.99,2.87,3.72,1.95
22.3060,0.08,0.12,-0.99,3.11,3.91,1.89
22.3280,0.09,0.12,-0.99,3.17,3.60,1.83
22.3440,0.09,0.12,-0.99,3.17,3.66,1.71
22.3590,0.09,0.12,-0.99,3.11,3.42,1.46
22.3750,0.09,0.12,-0.99,3.05,3.78,1.34
22.3910,0.08,0.12,-0.99,2.99,3.60,1.71
22.4070,0.08,0.12,-0.99,2.93,3.85,2.01
22.4210,0.08,0.11,-0.99,3.05,3.72,1.89
22.4370,0.08,0.12,-1.00,2.93,3.42,1.95
22.4520,0.09,0.11,-0.98,2.87,3.72,1.89
22.4610,0.08,0.11,-0.99,3.11,3.42,1.83
22.4820,0.08,0.11,-0.99,3.36,3.72,1.71
22.4940,0.08,0.12,-0.99,3.17,3.60,1.53
22.5090,0.09,0.12,-0.99,3.30,3.85,1.28
22.5290,0.08,0.12,-0.99,3.23,3.97,1.16
22.5440,0.08,0.12,-0.99,3.36,3.91,1.46
22.5620,0.08,0.12,-0.99,3.05,3.72,1.83
22.5780,0.08,0.12,-0.99,3.17,3.91,2.08
22.5940,0.09,0.12,-0.99,3.05,3.85,1.95
22.6090,0.09,0.12,-0.99,2.93,3.66,1.95
22.6240,0.08,0.11,-0.99,3.17,3.60,2.01
22.6390,0.08,0.11,-1.00,2.99,3.60,1.89
22.6540,0.08,0.11,-1.00,2.99,3.60,1.95
22.6630,0.09,0.11,-0.99,3.05,3.78,2.14
22.6790,0.08,0.12,-0.99,3.36,3.48,1.95
22.7010,0.09,0.12,-0.99,3.23,3.60,1.77
22.7170,0.08,0.12,-0.99,2.87,3.66,1.65
22.7330,0.09,0.12,-0.99,2.99,3.66,1.46
22.7480,0.09,0.12,-0.99,3.23,3.78,1.28
22.7640,0.08,0.12,-0.99,3.11,3.66,1.22
22.7780,0.08,0.12,-0.99,3.23,3.72,1.28
22.7950,0.09,0.12,-0.99,2.99,3.91,1.28
22.8030,0.09,0.12,-0.99,3.11,3.78,1.22
22.8250,0.09,0.12,-0.99,2.99,3.78,1.34
22.8360,0.09,0.12,-0.99,3.05,3.78,1.34
22.8530,0.09,0.12,-0.99,3.05,3.78,1.16
22.8690,0.08,0.12,-1.00,3.30,3.91,0.98
22.8850,0.08,0.12,-0.99,2.93,3.85,1.40
22.9010,0.08,0.12,-0.99,2.87,3.72,1.71
22.9170,0.08,0.12,-0.99,2.87,3.54,1.95
22.9330,0.08,0.12,-1.00,2.81,3.54,2.01
22.9480,0.08,0.11,-0.99,3.05,3.66,1.89
22.9640,0.08,0.11,-0.99,2.87,3.72,1.71
22.9800,0.09,0.11,-0.99,3.05,3.54,1.77
22.9860,0.09,0.11,-0.99,3.11,3.78,1.77
23.0110,0.09,0.11,-0.99,3.11,3.48,1.59
23.0270,0.08,0.11,-0.99,3.05,3.91,1.77
23.0430,0.08,0.12,-1.00,3.11,3.78,1.95
23.0580,0.08,0.12,-0.99,3.05,3.72,2.08
23.0740,0.08,0.13,-0.99,2.81,3.66,1.89
23.0850,0.09,0.12,-0.99,3.36,3.36,2.01
23.1010,0.09,0.12,-0.99,3.23,3.78,1.95
23.1190,0.09,0.12,-0.99,2.99,3.72,1.89
23.1340,0.08,0.12,-0.99,3.05,3.60,2.20
23.1500,0.08,0.12,-0.99,3.17,3.72,2.20
23.1650,0.09,0.11,-0.99,2.93,3.72,2.26
23.1820,0.09,0.11,-0.99,2.81,3.42,2.08
23.1960,0.08,0.11,-0.99,2.87,3.85,2.32
23.2130,0.07,0.11,-0.99,3.17,3.78,2.50
23.2290,0.07,0.12,-1.00,3.05,3.48,2.08
23.2450,0.09,0.11,-0.99,2.87,3.48,2.08
23.2610,0.08,0.11,-0.99,3.17,3.72,2.08
23.2690,0.08,0.12,-1.00,2.99,3.54,2.14
23.2850,0.08,0.12,-0.99,3.23,3.66,2.14
23.3070,0.08,0.12,-0.99,3.23,3.78,2.20
23.3230,0.09,0.12,-0.99,3.36,3.78,2.32
23.3250,0.09,0.12,-0.99,3.36,3.60,2.01
23.3540,0.08,0.12,-0.99,3.23,3.42,2.01
23.3690,0.08,0.12,-0.99,3.05,3.54,2.14
23.3840,0.09,0.12,-1.00,3.17,3.60,2.08
23.3950,0.09,0.11,-1.00,3.05,3.42,2.14
23.4100,0.09,0.12,-0.99,3.05,3.66,2.14
23.4270,0.09,0.11,-0.99,3.05,3.72,2.20
23.4450,0.09,0.12,-0.99,3.30,3.78,2.14
23.4600,0.08,0.12,-0.99,3.05,4.03,2.20
23.4770,0.08,0.12,-0.99,3.05,3.66,2.14
23.4920,0.08,0.12,-0.99,3.05,3.78,2.14
23.5080,0.09,0.12,-0.99,2.87,3.72,2.01
23.5220,0.09,0.12,-0.99,2.93,4.09,2.14
23.5370,0.09,0.12,-0.99,2.99,3.85,2.08
23.5440,0.08,0.12,-0.99,2.69,3.85,2.08
23.5610,0.08,0.11,-0.99,2.93,4.09,2.01
23.5780,0.08,0.11,-0.99,2.81,3.66,2.20
23.5940,0.09,0.11,-0.99,2.93,3.60,2.14
23.6100,0.09,0.11,-0.99,3.11,3.54,2.08
23.6270,0.09,0.11,-0.99,3.05,3.48,2.08
23.6440,0.09,0.11,-0.99,3.36,3.78,2.20
23.6610,0.08,0.12,-0.99,3.36,3.60,2.08
23.6760,0.08,0.12,-0.99,3.36,3.60,2.14
23.6930,0.09,0.12,-0.99,3.23,3.72,2.14
23.7090,0.09,0.12,-0.99,2.99,3.30,2.01
23.7250,0.09,0.12,-0.99,3.11,3.91,2.01
23.7280,0.08,0.12,-1.00,3.05,3.78,2.08
23.7430,0.08,0.12,-0.99,3.11,3.85,2.14
23.7680,0.08,0.12,-0.99,2.87,3.48,2.14
23.7840,0.09,0.11,-0.99,2.93,3.85,2.20
23.8000,0.09,0.11,-0.99,3.17,3.72,2.14
23.8160,0.09,0.11,-0.99,3.17,3.48,2.08
23.8330,0.08,0.11,-1.00,3.30,3.60,2.01
23.8480,0.08,0.11,-0.99,3.05,3.54,2.08
23.8650,0.09,0.12,-0.99,2.93,3.60,2.08
23.8810,0.09,0.11,-0.99,3.23,3.66,1.71
23.8970,0.09,0.12,-0.99,3.36,3.78,0.12
23.9120,0.08,0.13,-0.99,3.36,4.33,-0.49
23.9290,0.09,0.11,-0.99,3.36,4.39,-0.98
23.9450,0.08,0.13,-0.99,3.54,4.46,-3.05
23.9610,0.08,0.12,-0.99,3.42,4.21,-2.50
23.9760,0.08,0.13,-0.99,3.30,3.97,-0.37
23.9910,0.09,0.11,-0.99,2.99,4.15,0.55
24.0060,0.09,0.11,-0.99,2.93,3.97,0.98
24.0180,0.08,0.11,-0.99,3.17,4.09,1.16
24.0340,0.08,0.11,-0.99,2.87,3.85,1.53
24.0510,0.08,0.11,-0.99,3.05,3.66,1.40
24.0680,0.09,0.11,-0.99,2.93,3.72,1.22
24.0830,0.08,0.12,-0.99,3.05,3.72,1.22
24.0990,0.09,0.12,-0.99,3.11,3.72,1.34
24.1140,0.08,0.12,-0.99,3.23,3.85,1.04
24.1190,0.09,0.12,-0.99,3.23,3.97,0.73
24.1470,0.08,0.12,-0.99,2.93,4.15,-0.24
24.1620,0.08,0.11,-0.99,3.23,3.54,1.04
24.1780,0.08,0.12,-0.99,3.11,3.60,1.71
24.1850,0.08,0.12,-0.99,3.05,3.97,1.46
24.2010,0.08,0.12,-0.99,3.11,3.85,1.10
24.2230,0.08,0.11,-0.99,3.11,3.85,1.04
24.2390,0.08,0.11,-0.99,2.93,3.60,1.22
24.2540,0.08,0.11,-0.99,2.99,3.85,1.16
24.2580,0.09,0.11,-0.99,3.23,3.66,1.10
24.2740,0.09,0.11,-0.99,3.17,4.03,1.16
24.2960,0.09,0.11,-0.99,3.17,4.09,0.73
24.3120,0.08,0.12,-0.99,3.17,3.72,0.55
24.3290,0.08,0.12,-0.99,2.99,3.91,1.59
24.3460,0.08,0.11,-0.99,2.93,3.85,1.83
24.3610,0.08,0.12,-0.99,3.05,3.60,1.95
24.3750,0.09,0.12,-0.99,2.99,4.03,1.22
24.3800,0.09,0.12,-0.99,3.23,3.85,-0.43
24.3960,0.08,0.12,-0.99,3.23,4.27,0.00
24.4230,0.08,0.12,-0.99,2.99,3.48,1.46
24.4300,0.08,0.12,-0.99,3.05,3.60,1.71
24.4460,0.08,0.11,-0.99,2.75,3.66,1.95
24.4680,0.09,0.11,-0.99,3.11,3.66,1.77
24.4800,0.08,0.11,-0.99,2.99,3.72,1.83
24.4980,0.08,0.12,-0.99,3.05,3.54,1.77
24.5130,0.08,0.12,-0.99,3.11,4.03,1.83
24.5290,0.08,0.12,-0.99,3.05,3.72,2.14
24.5460,0.08,0.12,-0.99,2.93,3.48,2.08
24.5610,0.09,0.12,-0.99,2.93,3.54,2.01
24.5770,0.08,0.12,-0.99,3.11,3.85,2.01
24.5930,0.08,0.12,-0.99,3.05,3.85,1.59
24.6090,0.08,0.12,-0.99,3.11,3.42,1.34
24.6250,0.08,0.12,-0.99,2.93,3.91,2.01
24.6400,0.08,0.11,-0.99,2.99,3.97,2.01
24.6570,0.09,0.11,-0.99,3.11,3.42,1.95
24.6630,0.09,0.11,-0.99,3.11,3.72,1.40
24.6790,0.08,0.11,-0.99,2.93,3.85,1.40
24.6960,0.08,0.11,-0.99,3.11,3.48,1.59
24.7190,0.08,0.11,-0.99,2.93,3.91,1.59
24.7290,0.08,0.11,-0.99,3.05,3.60,1.40
24.7450,0.08,0.12,-0.99,3.17,3.85,0.79
24.7640,0.08,0.12,-0.99,3.23,3.78,1.28
24.7800,0.08,0.13,-0.99,3.05,3.91,1.34
24.7950,0.09,0.12,-0.99,3.23,3.91,1.04
24.8110,0.08,0.12,-0.99,3.17,3.85,0.73
24.8270,0.08,0.12,-0.99,2.99,3.54,1.95
24.8340,0.08,0.11,-0.99,3.11,3.72,1.65
24.8570,0.09,0.11,-1.00,3.05,3.60,1.40
24.8680,0.08,0.11,-0.99,3.23,4.27,-0.31
24.8830,0.08,0.12,-0.99,3.30,3.78,0.79
24.9000,0.09,0.12,-0.99,3.05,4.09,1.59
24.9180,0.08,0.12,-0.99,2.87,3.72,1.53
24.9330,0.08,0.12,-0.99,3.11,3.72,1.83
24.9490,0.08,0.12,-0.99,3.05,3.60,1.59
24.9650,0.08,0.12,-0.99,3.17,3.91,1.71
24.9810,0.08,0.12,-0.99,3.30,3.91,1.65
24.9970,0.08,0.11,-0.99,2.81,3.91,1.16
25.0120,0.08,0.13,-0.98,3.17,4.03,0.79
25.0290,0.09,0.13,-0.99,3.05,3.78,1.40
25.0440,0.08,0.13,-0.99,2.99,3.60,1.71
25.0600,0.08,0.11,-0.99,2.75,3.72,2.08
25.0750,0.09,0.11,-0.99,3.23,3.48,2.08
25.0840,0.09,0.11,-1.00,3.17,3.60,1.83
25.1000,0.09,0.11,-0.99,3.11,3.66,1.65
25.1180,0.08,0.12,-1.00,3.11,3.72,1.40
25.1330,0.08,0.12,-0.99,3.17,3.72,1.65
25.1480,0.08,0.11,-0.99,2.99,3.60,1.53
25.1650,0.08,0.11,-1.00,3.17,3.91,0.92
25.1800,0.08,0.16,-0.99,3.05,3.78,1.46
25.1910,0.09,0.13,-0.99,3.17,3.66,1.71
25.2070,0.08,0.12,-0.99,3.17,3.60,2.08
25.2250,0.09,0.13,-0.99,3.11,3.72,1.65
25.2410,0.08,0.12,-0.99,3.17,3.42,1.77
25.2570,0.08,0.11,-0.99,2.99,4.03,1.83
25.2730,0.08,0.11,-0.99,2.99,3.72,2.14
25.2890,0.09,0.11,-0.99,2.81,3.66,1.89
25.3050,0.09,0.11,-0.99,2.99,3.72,2.08
25.3200,0.08,0.11,-0.99,3.11,4.09,1.77
25.3350,0.08,0.11,-0.99,3.17,3.97,1.77
25.3510,0.08,0.11,-0.99,3.11,3.54,1.65
25.3660,0.08,0.12,-0.99,2.87,3.66,1.59
25.3810,0.09,0.12,-0.99,3.11,3.54,1.40
25.3910,0.08,0.12,-1.00,3.05,3.85,1.34
25.4070,0.09,0.13,-0.98,3.48,3.42,1.22
25.4240,0.08,0.12,-0.99,3.30,4.21,0.67
25.4410,0.09,0.13,-1.00,3.23,3.72,1.46
25.4580,0.08,0.12,-0.99,2.87,3.48,1.46
25.4740,0.09,0.12,-0.99,3.05,3.78,1.22
25.4900,0.09,0.11,-0.99,3.48,3.66,1.34
25.5060,0.09,0.11,-0.99,3.23,3.78,1.53
25.5230,0.08,0.11,-0.99,2.99,3.60,1.34
25.5390,0.08,0.11,-1.00,3.23,3.78,1.53
25.5410,0.08,0.11,-1.00,3.11,3.85,1.28
25.5560,0.08,0.10,-0.99,3.42,3.78,0.79
25.5790,0.08,0.11,-1.00,3.11,4.09,0.37
25.5960,0.09,0.10,-1.00,3.23,4.27,0.00
25.6140,0.08,0.10,-1.00,3.48,4.09,-1.46
25.6290,0.08,0.12,-0.99,3.36,4.09,-0.98
25.6450,0.09,0.12,-0.99,3.60,4.03,-0.61
25.6620,0.08,0.11,-0.99,3.30,4.21,-1.34
25.6780,0.08,0.13,-0.99,3.30,3.97,-0.06
25.6940,0.09,0.14,-0.98,3.30,4.15,-0.73
25.7090,0.09,0.13,-0.99,3.30,4.03,0.00
25.7250,0.09,0.14,-0.99,3.17,3.91,0.92
25.7290,0.08,0.13,-0.99,3.11,3.72,1.46
25.7450,0.08,0.12,-1.00,2.62,3.48,2.01
25.7670,0.09,0.11,-0.99,3.11,3.36,2.01
25.7840,0.09,0.12,-0.99,3.05,3.85,2.14
25.8000,0.09,0.12,-0.99,3.11,3.54,2.14
25.8170,0.08,0.12,-0.99,3.23,3.72,2.14
25.8330,0.08,0.12,-0.99,3.11,4.03,2.08
25.8490,0.08,0.12,-0.99,2.99,3.60,1.65
25.8650,0.09,0.12,-0.99,3.11,3.66,1.40
25.8680,0.09,0.12,-0.99,3.11,3.54,1.10
25.8970,0.08,0.12,-1.00,3.11,3.72,1.46
25.9120,0.08,0.12,-1.00,2.99,3.85,1.83
25.9280,0.08,0.11,-1.00,2.93,3.48,1.95
25.9450,0.09,0.11,-1.00,3.05,3.60,1.71
25.9600,0.09,0.11,-0.99,3.11,3.72,1.53
25.9680,0.09,0.11,-0.99,3.30,3.60,0.85
25.9840,0.08,0.11,-0.99,3.17,4.21,0.00
26.0080,0.08,0.11,-1.00,3.17,4.21,0.73
26.0240,0.08,0.11,-0.99,3.11,4.03,0.67
26.0400,0.08,0.12,-0.99,3.30,3.85,0.55
26.0550,0.09,0.13,-1.00,3.36,3.60,0.98
26.0700,0.08,0.13,-0.99,3.05,3.85,1.28
26.0750,0.08,0.12,-0.99,3.30,3.91,1.46
26.0910,0.08,0.12,-0.98,3.05,3.54,1.59
26.1160,0.08,0.12,-0.98,3.23,3.72,1.16
26.1310,0.09,0.12,-0.97,2.87,3.72,0.79
26.1480,0.09,0.12,-1.00,3.23,4.03,0.55
26.1630,0.09,0.12,-0.99,3.11,3.91,1.59
26.1790,0.08,0.12,-0.99,2.99,3.66,2.01
26.1830,0.07,0.11,-0.99,3.11,3.60,2.08
26.2110,0.08,0.11,-0.99,2.62,3.72,1.04
26.2270,0.09,0.11,-0.99,3.11,3.72,0.85
26.2330,0.08,0.11,-1.00,3.05,3.85,1.04
26.2480,0.08,0.11,-1.01,3.11,3.72,1.46
26.2700,0.09,0.11,-1.00,3.05,3.72,1.04
26.2870,0.08,0.10,-0.98,3.54,4.03,-0.61
26.3020,0.08,0.12,-0.99,3.23,4.21,-1.65
26.3050,0.09,0.13,-0.99,3.42,4.46,-0.92
26.3340,0.09,0.12,-0.99,3.30,3.66,0.49
26.3370,0.08,0.12,-0.98,3.30,3.60,0.92
26.3530,0.09,0.13,-1.00,3.17,4.09,0.79
26.3750,0.09,0.12,-1.00,3.36,3.97,0.73
26.3910,0.08,0.13,-0.99,3.11,3.72,0.43
26.4080,0.09,0.13,-1.00,3.17,3.72,1.83
26.4250,0.09,0.12,-0.99,3.23,3.60,1.59
26.4410,0.09,0.11,-0.98,2.99,3.72,1.83
26.4560,0.08,0.11,-1.00,2.93,4.03,2.08
26.4720,0.08,0.11,-1.00,2.93,3.72,1.95
26.4750,0.08,0.11,-0.99,3.11,3.48,1.28
26.4900,0.08,0.11,-1.00,3.30,3.60,1.59
26.5190,0.09,0.11,-0.99,3.17,3.48,1.59
26.5300,0.09,0.11,-0.99,3.23,3.78,1.40
26.5460,0.08,0.11,-1.00,3.36,3.78,1.34
26.5630,0.09,0.12,-0.99,3.42,3.97,0.61
26.5790,0.08,0.12,-0.99,3.23,3.97,-0.37
26.5950,0.08,0.13,-1.00,3.11,3.91,-0.18
26.6120,0.08,0.12,-0.99,3.54,4.03,0.55
26.6270,0.08,0.12,-0.99,3.17,3.97,0.61
26.6430,0.09,0.13,-0.99,2.99,3.72,1.22
26.6580,0.09,0.12,-0.99,3.36,3.78,0.73
26.6730,0.08,0.12,-0.99,2.87,4.09,0.06
26.6790,0.08,0.12,-1.00,2.99,4.09,0.98
26.6950,0.09,0.11,-0.99,2.93,3.54,2.01
26.7200,0.09,0.11,-0.99,3.11,3.48,2.08
26.7350,0.09,0.10,-1.00,2.99,3.97,2.14
26.7510,0.08,0.11,-1.00,2.81,3.91,1.16
26.7530,0.07,0.12,-0.99,2.93,3.85,0.92
26.7690,0.08,0.11,-1.00,3.17,3.85,2.08
26.7940,0.09,0.11,-0.99,3.17,3.72,2.08
26.8100,0.08,0.11,-0.99,3.05,3.97,0.92
26.8270,0.09,0.11,-1.00,3.23,4.15,-0.12
26.8430,0.09,0.13,-0.99,3.60,3.91,-0.37
26.8590,0.08,0.14,-0.99,3.30,4.03,0.00
26.8600,0.08,0.13,-0.99,2.93,3.91,1.28
26.8900,0.09,0.12,-0.99,2.75,3.97,1.65
26.9060,0.09,0.12,-0.99,3.05,3.66,1.83
26.9200,0.09,0.11,-0.99,3.11,3.66,1.46
26.9380,0.08,0.11,-0.99,3.05,3.91,0.85
26.9530,0.08,0.11,-1.00,3.05,3.78,0.73
26.9620,0.08,0.11,-1.00,2.93,3.48,0.98
26.9790,0.08,0.11,-0.99,2.93,3.72,1.22
26.9960,0.09,0.10,-0.99,3.23,3.72,2.01
27.0120,0.08,0.11,-0.99,2.99,3.91,1.46
27.0290,0.09,0.12,-0.99,3.11,3.72,1.04
27.0450,0.08,0.12,-1.00,3.30,3.85,0.79
27.0610,0.08,0.11,-1.00,3.48,3.85,0.31
27.0770,0.07,0.11,-0.99,3.30,4.03,-0.06
27.0930,0.08,0.12,-0.99,3.11,3.72,0.49
27.1090,0.09,0.12,-0.99,3.42,3.85,0.18
27.1210,0.09,0.13,-0.99,3.48,3.85,-0.37
27.1400,0.08,0.13,-0.99,3.30,3.91,-0.55
27.1460,0.08,0.13,-0.99,3.05,3.85,1.04
27.1610,0.08,0.13,-0.99,2.81,3.60,1.83
27.1820,0.09,0.11,-0.99,2.81,3.91,2.20
27.2000,0.09,0.11,-0.99,3.48,3.72,2.14
27.2160,0.08,0.11,-1.00,3.30,3.78,1.71
27.2320,0.08,0.11,-0.99,3.17,3.85,1.34
27.2490,0.08,0.11,-0.99,3.05,3.42,1.83
27.2650,0.09,0.11,-0.99,3.11,3.54,2.08
27.2820,0.09,0.11,-0.99,3.30,3.42,1.65
27.2990,0.09,0.11,-0.99,2.99,3.97,1.22
27.3140,0.08,0.12,-0.99,3.05,3.78,0.18
27.3210,0.08,0.12,-1.00,3.42,3.60,-0.79
27.3460,0.08,0.11,-0.99,3.48,4.27,-0.92
27.3500,0.08,0.12,-0.99,3.11,3.85,1.46
27.3790,0.08,0.12,-0.99,2.99,3.91,0.06
27.3940,0.09,0.13,-0.99,3.36,4.15,-0.61
27.4000,0.08,0.12,-0.99,2.99,4.03,0.31
27.4250,0.08,0.13,-0.99,3.11,4.09,0.37
27.4330,0.08,0.12,-0.99,3.05,3.78,0.43
27.4500,0.09,0.11,-0.99,2.99,3.91,1.77
27.4660,0.09,0.11,-0.99,3.23,3.85,1.65
27.4810,0.08,0.11,-0.99,3.05,3.91,0.85
27.5030,0.08,0.12,-0.99,3.23,3.66,1.16
27.5190,0.08,0.12,-0.99,3.17,3.78,1.59
27.5340,0.08,0.12,-0.99,3.30,3.66,1.59
27.5500,0.09,0.11,-0.99,3.05,3.85,1.22
27.5540,0.08,0.10,-0.99,3.42,4.09,0.49
27.5690,0.08,0.11,-0.99,3.17,3.91,-0.43
27.5910,0.08,0.12,-0.99,3.05,3.85,0.55
27.6070,0.08,0.13,-0.99,2.99,3.60,0.67
27.6260,0.08,0.13,-0.99,3.05,4.03,0.79
27.6410,0.08,0.12,-0.99,3.05,4.09,0.49
27.6580,0.08,0.11,-0.99,3.05,3.91,1.10
27.6750,0.08,0.12,-0.99,2.75,3.72,1.59
27.6900,0.08,0.12,-0.99,2.99,3.42,1.71
27.7060,0.08,0.11,-0.99,2.99,3.91,1.34
27.7230,0.09,0.11,-0.99,3.05,3.97,1.28
27.7380,0.09,0.11,-0.99,3.11,3.78,0.98
27.7530,0.08,0.11,-0.99,3.23,3.97,0.85
27.7680,0.08,0.11,-0.99,3.60,3.72,1.04
27.7830,0.08,0.11,-0.99,3.30,3.60,1.10
27.7980,0.08,0.12,-0.99,3.05,3.78,0.85
27.8080,0.08,0.12,-0.99,3.36,3.66,0.49
27.8250,0.08,0.13,-0.99,3.36,3.48,0.61
27.8410,0.08,0.12,-0.99,3.05,3.91,1.83
27.8580,0.09,0.12,-0.99,2.93,3.78,0.98
27.8740,0.08,0.13,-0.99,3.30,3.97,0.73
27.8910,0.08,0.12,-0.99,3.11,3.54,1.40
27.9080,0.08,0.11,-0.99,2.87,3.72,1.95
27.9230,0.08,0.11,-0.99,2.99,3.91,1.71
27.9390,0.08,0.11,-0.99,2.99,3.97,1.65
27.9540,0.08,0.11,-0.99,3.05,3.54,1.65
27.9690,0.08,0.11,-0.99,3.23,3.60,1.59
27.9740,0.08,0.11,-0.99,3.36,4.09,0.85
27.9900,0.08,0.11,-0.99,3.17,4.03,-0.24
28.0140,0.08,0.12,-0.99,3.36,3.97,-0.24
28.0310,0.08,0.11,-0.99,3.48,4.39,0.31
28.0470,0.08,0.12,-0.99,2.99,4.15,1.28
28.0620,0.08,0.12,-0.99,3.36,3.91,0.43
28.0770,0.09,0.12,-0.99,3.23,4.21,0.55
28.0810,0.09,0.12,-0.99,3.11,3.91,0.67
28.0970,0.09,0.13,-0.99,3.23,3.72,0.85
28.1230,0.09,0.13,-0.99,3.05,4.09,1.53
28.1380,0.08,0.12,-0.99,3.17,3.54,2.01
28.1530,0.08,0.11,-0.99,2.93,3.42,2.01
28.1680,0.08,0.11,-0.99,2.93,3.60,1.59
28.1830,0.09,0.11,-0.99,3.30,3.72,1.16
28.1980,0.08,0.11,-0.99,3.30,3.48,1.10
28.2140,0.08,0.11,-0.99,3.30,4.09,1.22
28.2230,0.08,0.11,-1.00,3.17,3.72,0.92
28.2370,0.08,0.11,-0.99,3.48,4.15,-0.43
28.2590,0.08,0.12,-0.99,3.30,3.85,-0.06
28.2750,0.08,0.12,-0.99,3.05,4.03,0.43
28.2790,0.08,0.12,-0.99,3.30,4.03,0.67
28.2950,0.08,0.11,-0.99,3.36,3.66,-0.06
28.3170,0.08,0.12,-0.99,3.30,4.03,-0.31
28.3340,0.08,0.12,-0.99,3.17,4.09,-0.06
28.3500,0.08,0.13,-0.99,3.17,3.78,0.85
28.3670,0.08,0.13,-0.99,3.23,3.60,1.59
28.3830,0.09,0.11,-0.99,3.17,4.03,1.77
28.3990,0.08,0.11,-0.99,3.17,3.85,1.46
28.4140,0.08,0.11,-0.99,3.23,3.54,0.98
28.4290,0.08,0.11,-0.99,3.11,3.78,-0.12
28.4350,0.08,0.12,-0.99,3.23,3.78,0.49
28.4510,0.08,0.12,-0.99,3.05,3.78,1.04
28.4660,0.08,0.11,-0.99,3.05,3.48,1.65
28.4880,0.08,0.12,-0.99,3.17,3.91,1.10
28.5050,0.08,0.11,-0.99,3.36,3.60,0.12
28.5210,0.08,0.12,-0.99,3.17,3.54,0.55
28.5360,0.08,0.11,-0.99,3.17,3.97,0.00
28.5510,0.08,0.12,-0.99,3.11,4.15,0.12
28.5660,0.08,0.12,-0.99,3.30,3.72,0.43
28.5720,0.08,0.11,-0.99,3.30,3.66,0.12
28.5980,0.08,0.12,-0.99,3.30,3.72,0.37
28.6130,0.09,0.13,-0.99,3.17,3.48,0.24
28.6300,0.08,0.12,-0.99,3.11,3.54,1.28
28.6380,0.08,0.12,-0.99,2.93,3.60,1.46
28.6530,0.08,0.11,-0.99,2.99,3.72,1.71
28.6750,0.08,0.11,-0.99,3.11,3.60,0.98
28.6790,0.08,0.12,-0.99,3.23,3.72,0.12
28.7040,0.08,0.12,-0.99,3.23,3.85,0.37
28.7110,0.08,0.11,-0.99,3.23,3.66,0.00
28.7280,0.08,0.12,-0.99,3.36,3.36,0.43
28.7450,0.08,0.11,-0.99,3.30,3.60,0.55
28.7610,0.08,0.12,-0.99,3.30,3.85,0.55
28.7780,0.08,0.12,-0.99,3.23,3.66,0.85
28.7950,0.09,0.12,-0.99,3.17,3.78,0.85
28.8110,0.08,0.12,-0.99,3.11,3.97,0.79
28.8230,0.08,0.11,-0.99,3.17,3.85,-0.06
28.8290,0.08,0.11,-0.99,3.05,3.85,0.06
28.8440,0.08,0.11,-0.99,3.30,3.85,0.49
28.8610,0.08,0.11,-0.99,3.36,3.85,0.73
28.8770,0.08,0.11,-0.99,3.30,3.66,0.98
28.9040,0.08,0.11,-0.99,3.05,3.72,0.98
28.9140,0.08,0.12,-0.99,3.11,3.97,0.79
28.9290,0.08,0.12,-0.99,3.11,4.15,0.00
28.9510,0.08,0.11,-0.99,3.36,3.91,-0.37
28.9510,0.08,0.12,-0.99,3.36,4.46,-0.85
28.9820,0.08,0.12,-0.99,3.30,4.03,-0.37
28.9840,0.09,0.13,-0.99,3.17,3.66,0.18
29.0130,0.08,0.12,-0.99,3.05,3.72,0.73
29.0300,0.08,0.12,-0.99,2.93,3.66,1.28
29.0450,0.08,0.11,-0.99,3.11,4.09,0.98
29.0500,0.08,0.11,-0.99,3.30,3.97,0.31
29.0650,0.08,0.12,-0.99,3.30,4.03,0.31
29.0890,0.09,0.12,-0.99,3.23,3.97,0.98
29.1060,0.09,0.12,-0.99,3.17,3.91,1.59
29.1230,0.08,0.11,-0.99,3.11,3.48,1.71
29.1390,0.08,0.11,-1.00,2.99,3.91,1.40
29.1560,0.08,0.11,-0.99,3.23,3.97,1.10
29.1710,0.08,0.12,-0.99,3.36,3.60,1.28
29.1870,0.08,0.12,-0.99,3.17,3.48,1.22
29.1910,0.08,0.11,-0.99,3.23,3.54,1.22
29.2170,0.08,0.12,-0.99,3.11,3.60,0.79
29.2330,0.09,0.13,-0.99,3.05,3.72,0.61
29.2490,0.08,0.12,-0.99,2.99,3.97,1.65
29.2550,0.08,0.12,-0.99,3.11,3.85,1.95
29.2790,0.08,0.12,-0.99,2.99,3.60,1.83
29.2940,0.08,0.12,-0.99,3.11,3.66,1.59
29.3060,0.08,0.11,-0.99,2.87,3.36,1.89
29.3240,0.08,0.11,-0.99,3.11,3.85,1.65
29.3390,0.08,0.11,-0.99,3.11,4.03,1.53
29.3540,0.08,0.11,-0.99,3.05,3.54,1.34
29.3710,0.08,0.12,-0.99,3.11,3.48,1.46
29.3860,0.08,0.12,-0.99,3.11,3.85,1.34
29.4010,0.08,0.12,-0.99,3.23,3.66,1.28
29.4160,0.08,0.12,-0.99,3.05,3.72,1.83
29.4240,0.08,0.12,-0.99,3.11,3.54,1.83
29.4380,0.08,0.11,-0.99,3.11,3.66,1.71
29.4610,0.08,0.11,-0.99,3.17,3.85,1.77
29.4760,0.08,0.11,-1.00,2.99,3.48,1.40
29.4910,0.08,0.11,-0.99,2.99,3.72,0.61
29.5070,0.08,0.12,-0.99,2.93,3.85,1.04
29.5230,0.08,0.12,-0.99,3.17,3.66,1.22
29.5380,0.08,0.11,-1.00,3.23,3.72,0.73
29.5460,0.08,0.11,-0.99,3.30,3.66,0.92
29.5610,0.08,0.12,-0.99,2.99,3.66,0.67
29.5840,0.08,0.12,-0.99,3.11,3.42,0.92
29.5850,0.08,0.11,-0.99,3.05,3.72,1.22
29.6030,0.08,0.12,-0.99,2.99,3.78,0.98
29.6300,0.08,0.11,-1.00,3.11,3.30,0.98
29.6350,0.08,0.11,-1.00,3.11,4.09,0.43
29.6500,0.08,0.10,-1.00,3.11,3.78,0.37
29.6730,0.08,0.11,-0.99,3.11,3.91,0.06
29.6890,0.08,0.12,-0.99,3.23,3.97,-0.79
29.7040,0.08,0.14,-0.99,3.05,3.78,1.28
29.7200,0.08,0.13,-0.99,2.87,3.85,1.04
29.7370,0.08,0.12,-0.99,3.17,3.54,1.04
29.7460,0.08,0.12,-0.99,2.93,3.78,1.95
29.7620,0.08,0.12,-0.99,2.93,3.66,2.01
29.7850,0.08,0.11,-0.99,2.99,3.54,1.83
29.8010,0.08,0.11,-0.99,3.05,3.42,1.71
29.8030,0.08,0.11,-0.99,3.11,3.60,0.98
29.8240,0.09,0.11,-0.99,2.99,3.78,0.61
29.8410,0.08,0.11,-0.99,3.11,4.27,-0.73
29.8580,0.08,0.11,-0.99,3.30,4.09,-1.22
29.8740,0.08,0.11,-0.99,3.23,3.91,-0.92
29.8910,0.08,0.12,-0.99,3.17,3.85,0.55
29.9070,0.08,0.12,-0.99,3.23,3.91,0.37
29.9230,0.08,0.12,-0.99,3.05,4.09,0.37
29.9390,0.09,0.13,-0.99,2.99,3.91,1.22
29.9550,0.08,0.12,-0.99,2.87,3.72,1.59
29.9710,0.08,0.11,-0.99,2.99,3.17,1.95
29.9860,0.08,0.11,-0.99,3.30,3.97,2.08
30.0010,0.08,0.11,-0.99,3.05,3.66,2.20
30.0160,0.08,0.11,-0.99,2.99,3.78,1.95
30.0310,0.08,0.12,-0.99,2.87,3.78,2.08
30.0420,0.08,0.11,-0.99,3.05,3.66,1.83
30.0580,0.08,0.11,-0.99,3.17,3.85,1.59
30.0750,0.08,0.11,-0.99,3.05,3.48,1.34
30.0910,0.08,0.11,-0.99,3.11,4.03,1.04
30.1080,0.08,0.11,-0.99,3.05,3.66,-0.12
30.1230,0.09,0.12,-0.99,3.48,4.15,-0.37
30.1400,0.08,0.12,-0.99,3.11,3.66,0.43
30.1550,0.08,0.12,-0.99,2.87,3.85,0.85
30.1710,0.08,0.11,-0.99,3.11,3.78,0.98
30.1740,0.08,0.11,-0.99,3.11,3.66,0.79
30.1900,0.08,0.11,-0.99,3.11,3.72,1.28
30.2150,0.08,0.12,-0.99,3.30,3.72,1.34
30.2310,0.08,0.12,-0.99,2.87,3.97,1.46
30.2480,0.09,0.11,-0.99,3.30,3.78,1.16
30.2640,0.08,0.12,-0.99,3.17,3.66,0.37
30.2810,0.08,0.12,-0.99,2.99,3.54,1.28
30.2960,0.08,0.12,-0.99,3.17,3.85,1.95
30.3120,0.08,0.11,-0.99,2.81,3.60,1.83
30.3270,0.09,0.11,-0.99,2.87,3.60,1.65
30.3330,0.09,0.11,-0.99,2.99,3.72,0.49
30.3490,0.08,0.11,-0.99,3.23,3.97,-0.67
30.3690,0.08,0.12,-0.99,3.17,4.03,-0.06
30.3860,0.08,0.12,-0.99,3.23,3.30,0.79
30.4030,0.08,0.12,-0.99,2.99,4.03,0.98
30.4190,0.08,0.12,-0.99,3.05,3.97,0.98
30.4340,0.08,0.11,-0.99,3.11,3.91,0.55
30.4490,0.08,0.12,-0.99,3.11,4.03,0.73
30.4530,0.08,0.12,-0.99,2.99,3.54,1.65
30.4690,0.08,0.11,-0.99,3.11,3.66,1.59
30.4960,0.08,0.11,-0.99,2.99,3.97,1.04
30.5110,0.09,0.11,-0.99,2.93,3.85,0.06
30.5260,0.08,0.12,-0.99,3.11,4.03,-1.34
30.5380,0.08,0.11,-0.99,3.17,3.78,0.00
30.5560,0.08,0.12,-0.99,3.23,3.72,-0.06
30.5730,0.08,0.11,-0.99,3.23,3.85,0.12
30.5890,0.08,0.12,-0.99,3.05,3.91,0.31
30.6050,0.09,0.12,-0.99,3.23,3.60,0.85
30.6200,0.09,0.12,-0.99,2.99,3.66,1.53
30.6350,0.08,0.12,-0.99,2.87,3.54,1.53
30.6510,0.08,0.12,-0.99,2.81,3.54,1.71
30.6660,0.08,0.11,-0.99,2.93,3.91,1.59
30.6730,0.08,0.11,-0.99,3.05,3.60,1.46
30.6880,0.08,0.11,-0.99,3.11,3.72,0.73
30.7090,0.08,0.12,-0.99,3.11,3.66,0.92
30.7260,0.08,0.11,-0.99,3.23,3.97,1.16
30.7420,0.08,0.11,-0.99,2.99,3.85,0.61
30.7590,0.08,0.11,-0.99,3.30,3.72,-0.12
30.7750,0.08,0.12,-0.99,3.17,3.85,0.06
30.7910,0.08,0.12,-0.99,3.23,4.03,1.34
30.8070,0.08,0.12,-0.99,2.87,3.91,1.53
30.8230,0.08,0.11,-1.00,2.87,3.85,0.85
30.8260,0.08,0.10,-1.00,3.17,4.27,-0.55
30.8410,0.08,0.12,-0.99,3.36,4.21,-0.79
30.8700,0.08,0.13,-0.99,3.05,4.03,0.00
30.8800,0.08,0.12,-0.99,3.05,3.60,0.31
30.8960,0.08,0.11,-0.99,3.05,3.60,0.55
30.9130,0.08,0.11,-0.99,3.05,3.85,1.16
30.9300,0.08,0.11,-0.99,3.05,3.97,0.73
30.9460,0.08,0.11,-0.99,3.30,3.78,-0.12
30.9610,0.08,0.12,-0.99,3.30,4.21,-0.67
30.9770,0.08,0.12,-0.99,3.48,3.97,-0.06
30.9930,0.08,0.12,-0.99,3.30,3.91,0.00
31.0100,0.08,0.11,-0.99,2.99,4.03,-0.24
31.0250,0.08,0.12,-0.99,3.30,3.85,-0.67
31.0300,0.08,0.12,-0.99,3.05,3.97,-0.43
31.0460,0.08,0.12,-0.99,3.17,3.97,0.67
31.0690,0.08,0.12,-0.99,3.17,3.60,1.34
31.0850,0.08,0.12,-0.99,3.11,3.97,0.92
31.1010,0.08,0.12,-0.99,3.30,3.72,0.43
31.1160,0.08,0.11,-0.99,3.11,3.72,1.10
31.1310,0.08,0.11,-1.00,2.87,3.85,1.28
31.1460,0.08,0.11,-0.99,3.11,3.91,0.79
31.1600,0.08,0.11,-0.99,3.05,3.72,0.00
31.1680,0.08,0.12,-0.99,3.23,3.97,-0.06
31.1840,0.08,0.13,-0.99,3.11,3.66,1.16
31.2050,0.08,0.12,-0.99,3.05,3.66,1.71
31.2210,0.08,0.11,-0.99,3.11,3.66,2.01
31.2380,0.08,0.11,-0.99,2.99,3.48,1.83
31.2540,0.08,0.11,-0.99,2.93,3.72,1.28
31.2710,0.08,0.11,-0.99,3.17,3.97,0.37
31.2860,0.09,0.11,-0.99,3.05,3.91,0.24
31.3020,0.08,0.11,-0.99,3.23,3.66,0.00
31.3170,0.08,0.11,-0.99,3.11,4.03,-0.37
31.3330,0.08,0.12,-0.99,3.48,3.66,-0.37
31.3390,0.08,0.12,-0.99,3.17,3.60,0.67
31.3540,0.08,0.12,-0.99,3.36,3.78,0.92
31.3780,0.08,0.12,-0.99,3.11,3.54,1.10
31.3790,0.08,0.11,-0.99,3.23,3.78,0.61
31.4100,0.08,0.12,-0.99,3.42,4.03,0.55
31.4250,0.08,0.12,-0.99,2.93,3.85,1.04
31.4410,0.08,0.11,-0.99,3.11,3.78,1.10
31.4570,0.08,0.12,-0.99,2.99,3.60,1.16
31.4620,0.08,0.11,-0.99,3.17,3.85,0.98
31.4780,0.08,0.11,-0.99,3.11,3.97,0.00
31.5050,0.08,0.11,-0.99,2.87,3.91,-0.31
31.5160,0.08,0.13,-0.99,3.23,3.85,0.00
31.5330,0.08,0.11,-1.00,3.11,3.97,1.59
31.5500,0.08,0.12,-0.99,3.05,3.66,1.65
31.5660,0.08,0.12,-0.99,3.05,3.91,1.53
31.5820,0.08,0.11,-0.99,3.05,3.72,1.10
31.5970,0.08,0.11,-0.99,3.17,3.66,0.98
31.6140,0.08,0.12,-0.99,3.17,3.48,0.85
31.6290,0.08,0.11,-0.99,3.23,3.66,0.79
31.6440,0.08,0.11,-0.99,3.05,3.97,0.31
31.6600,0.08,0.12,-0.99,2.99,3.72,0.24
31.6660,0.08,0.12,-0.99,3.05,3.60,1.28
31.6820,0.08,0.11,-0.99,3.05,3.66,1.16
31.7050,0.08,0.11,-0.99,3.05,3.91,1.04
31.7200,0.08,0.11,-0.99,2.99,3.78,0.61
31.7350,0.08,0.11,-0.99,3.17,4.46,-0.55
31.7400,0.08,0.11,-0.99,3.23,4.46,-1.59
31.7560,0.08,0.12,-0.99,3.66,4.21,-1.65
31.7790,0.08,0.12,-0.99,3.30,3.85,0.67
31.7970,0.08,0.11,-0.99,3.11,3.91,0.18
31.8110,0.08,0.11,-0.99,3.30,4.03,-1.10
31.8270,0.09,0.12,-0.99,3.36,4.03,-0.49
31.8430,0.08,0.13,-0.99,3.30,4.03,0.24
31.8590,0.08,0.12,-0.99,3.17,3.85,0.49
31.8630,0.08,0.12,-0.99,3.17,4.39,1.16
31.8790,0.08,0.12,-0.99,2.93,3.85,1.34
31.9010,0.08,0.12,-0.99,2.93,3.97,0.92
31.9180,0.08,0.12,-0.99,3.05,3.91,1.34
31.9340,0.08,0.11,-0.99,3.11,3.91,0.92
31.9510,0.08,0.11,-0.99,3.11,4.15,0.92
31.9670,0.08,0.11,-0.99,3.17,3.48,0.79
31.9820,0.08,0.11,-0.99,3.17,4.09,0.43
31.9970,0.09,0.11,-0.99,3.17,4.09,-0.06
32.0140,0.08,0.12,-0.99,3.30,4.15,-0.55
32.0290,0.08,0.12,-0.99,3.30,4.27,0.00
32.0450,0.08,0.12,-0.99,3.23,3.97,0.37
32.0510,0.08,0.11,-0.99,3.30,3.97,0.24
32.0750,0.08,0.12,-0.99,3.17,4.03,-0.18
32.0890,0.08,0.12,-0.99,3.30,4.21,-0.06
32.1020,0.08,0.11,-0.99,3.42,4.03,0.12
32.1180,0.08,0.11,-0.99,3.05,3.97,0.06
32.1350,0.08,0.12,-0.99,3.36,4.27,0.79
32.1500,0.08,0.12,-0.99,3.11,3.91,0.73
32.1670,0.08,0.12,-0.99,3.36,3.91,0.49
32.1820,0.08,0.12,-0.99,3.11,3.91,0.79
32.1980,0.08,0.12,-0.99,3.17,3.60,1.59
32.2140,0.08,0.11,-0.99,3.05,3.85,1.46
32.2270,0.08,0.11,-0.99,3.30,3.60,0.98
32.2330,0.08,0.11,-1.00,3.17,4.03,0.31
32.2590,0.08,0.12,-0.99,3.48,4.09,-0.43
32.2750,0.08,0.11,-0.99,3.11,3.97,0.67
32.2920,0.08,0.11,-0.99,3.11,4.27,0.92
32.3070,0.08,0.11,-0.99,3.05,3.91,1.10
32.3230,0.08,0.11,-0.99,3.17,4.03,0.61
32.3390,0.08,0.11,-0.99,3.05,4.09,-0.18
32.3420,0.08,0.11,-0.99,3.17,3.91,-0.06
32.3570,0.08,0.12,-0.99,3.30,3.91,0.31
32.3810,0.08,0.13,-0.99,3.30,3.85,0.98
32.3970,0.08,0.12,-0.99,2.81,3.91,1.65
32.4150,0.08,0.10,-0.99,3.23,3.54,0.85
32.4300,0.08,0.11,-0.99,3.17,4.09,-0.55
32.4470,0.08,0.12,-0.99,3.42,4.15,0.06
32.4620,0.08,0.11,-0.99,3.11,3.54,0.67
32.4790,0.08,0.12,-0.99,3.17,3.97,0.85
32.4950,0.08,0.11,-0.99,3.23,3.60,0.31
32.5110,0.08,0.12,-0.99,3.42,3.78,-0.37
32.5270,0.08,0.12,-0.99,3.17,3.91,0.43
32.5430,0.08,0.11,-0.99,3.11,3.48,0.79
32.5590,0.08,0.10,-0.99,3.11,3.85,-0.06
32.5740,0.08,0.10,-1.00,3.42,4.03,-1.04
32.5900,0.08,0.11,-0.99,3.66,4.39,-2.20
32.6050,0.08,0.12,-0.99,3.48,3.97,-1.95
32.6140,0.08,0.12,-0.99,3.30,4.03,-0.18
32.6310,0.08,0.12,-0.99,3.23,3.78,0.12
32.6470,0.08,0.12,-0.99,3.17,3.78,0.24
32.6640,0.08,0.12,-0.99,2.93,3.85,1.04
32.6800,0.08,0.12,-0.99,3.05,3.85,1.10
32.6960,0.08,0.11,-0.99,3.23,3.72,1.40
32.7120,0.08,0.11,-0.99,2.99,3.72,1.10
32.7270,0.08,0.12,-0.99,3.17,3.85,0.73
32.7430,0.08,0.12,-0.99,3.11,3.72,1.16
32.7470,0.08,0.11,-0.99,2.99,3.72,0.92
32.7750,0.08,0.11,-0.99,3.11,4.09,0.18
32.7800,0.08,0.11,-0.99,3.30,4.21,-0.73
32.7960,0.08,0.11,-0.99,3.17,4.33,-1.04
32.8210,0.08,0.12,-0.99,3.23,3.97,-0.18
32.8360,0.08,0.12,-0.99,3.23,3.91,0.98
32.8510,0.08,0.12,-0.99,3.11,4.03,1.10
32.8540,0.08,0.12,-0.99,3.05,4.03,0.79
32.8700,0.08,0.12,-0.99,3.17,3.66,1.10
32.8930,0.08,0.12,-0.99,2.99,3.72,1.89
32.9090,0.08,0.11,-0.99,2.81,3.72,1.89
32.9250,0.08,0.11,-0.99,2.99,3.78,1.65
32.9420,0.08,0.11,-1.00,2.99,3.91,0.73
32.9580,0.08,0.12,-0.99,3.23,4.39,-0.06
32.9740,0.08,0.12,-0.99,3.36,4.03,1.04
32.9910,0.08,0.11,-0.99,3.11,3.85,1.28
33.0060,0.08,0.11,-0.99,3.11,3.60,1.28
33.0080,0.08,0.12,-0.99,3.05,3.48,1.10
33.0290,0.08,0.12,-0.99,3.17,3.78,1.40
33.0470,0.08,0.11,-0.99,3.17,3.85,1.65
33.0630,0.08,0.11,-0.99,3.11,3.85,1.34
33.0800,0.08,0.10,-0.99,3.17,3.91,0.24
33.0980,0.08,0.11,-0.99,3.36,4.21,-0.12
33.1130,0.08,0.11,-0.99,3.30,3.85,-0.12
33.1290,0.08,0.12,-0.99,3.48,3.91,0.37
33.1320,0.08,0.12,-0.99,3.11,3.85,0.49
33.1610,0.08,0.12,-0.99,3.23,3.91,0.73
33.1770,0.08,0.11,-0.99,3.30,3.97,0.55
33.1810,0.08,0.11,-0.99,3.36,3.97,-0.31
33.2100,0.08,0.12,-0.99,3.48,3.85,0.43
33.2130,0.08,0.11,-0.99,3.17,3.97,1.34
33.2300,0.08,0.11,-0.99,3.17,3.97,0.67
33.2520,0.08,0.10,-0.99,3.36,3.91,-0.92
33.2680,0.08,0.11,-0.99,3.30,4.27,-1.16
33.2840,0.08,0.12,-0.99,3.23,4.15,-1.10
33.3000,0.08,0.13,-0.99,3.23,4.03,0.37
33.3170,0.08,0.12,-0.99,2.87,3.97,1.16
33.3320,0.08,0.11,-0.99,3.11,3.72,1.16
33.3480,0.08,0.11,-0.99,3.17,3.85,0.55
33.3630,0.08,0.11,-0.99,3.05,3.97,-0.67
33.3790,0.08,0.11,-0.99,3.23,4.33,-0.06
33.3960,0.08,0.13,-0.99,3.11,4.21,0.98
33.4110,0.08,0.11,-0.99,3.11,3.60,1.59
33.4280,0.08,0.11,-0.99,2.93,3.72,0.73
33.4430,0.08,0.12,-0.99,3.11,4.09,0.37
33.4510,0.08,0.12,-0.99,3.17,4.15,0.37
33.4730,0.08,0.11,-0.99,3.30,3.72,0.55
33.4840,0.08,0.11,-0.99,3.36,4.09,0.49
33.5000,0.08,0.11,-0.99,3.36,3.78,0.85
33.5210,0.08,0.11,-0.99,3.23,3.91,0.85
33.5360,0.08,0.12,-0.99,3.17,4.09,0.73
33.5510,0.08,0.12,-0.99,3.05,4.09,1.16
33.5670,0.08,0.12,-0.99,3.05,3.78,1.34
33.5820,0.08,0.12,-0.99,3.42,3.66,1.28
33.5970,0.08,0.12,-0.99,3.17,4.39,1.28
33.6060,0.08,0.11,-0.99,3.30,3.78,1.04
33.6220,0.08,0.11,-0.99,3.17,3.85,0.73
33.6440,0.08,0.12,-0.99,2.75,4.03,1.10
33.6600,0.08,0.12,-0.99,3.05,3.85,1.46
33.6610,0.08,0.11,-0.99,2.99,3.60,1.53
33.6780,0.08,0.11,-0.99,2.99,3.54,1.59
33.6930,0.08,0.11,-0.99,2.93,3.91,0.92
33.7220,0.08,0.11,-0.99,2.99,3.85,0.31
33.7310,0.08,0.12,-0.99,3.17,3.85,0.12
33.7460,0.08,0.12,-0.99,2.99,4.09,0.73
33.7630,0.08,0.11,-0.99,2.87,3.66,1.34
33.7810,0.08,0.11,-0.99,3.23,3.78,0.73
33.7960,0.08,0.11,-0.99,3.05,3.78,-0.06
33.8130,0.08,0.12,-0.99,3.36,3.91,0.00
33.8300,0.08,0.12,-0.99,3.30,3.78,1.04
33.8460,0.08,0.11,-0.99,3.23,3.85,0.85
33.8620,0.08,0.11,-0.99,3.23,3.78,0.37
33.8790,0.08,0.11,-0.99,3.11,3.66,0.31
33.8950,0.08,0.12,-0.99,3.05,3.48,0.37
33.9110,0.08,0.12,-0.99,3.11,3.85,1.10
33.9270,0.08,0.12,-0.99,3.30,3.97,1.53
33.9430,0.08,0.12,-0.99,3.05,3.72,0.73
33.9590,0.08,0.12,-0.99,3.17,3.91,0.92
33.9750,0.08,0.12,-0.99,3.30,3.72,1.53
33.9810,0.08,0.11,-0.99,3.11,3.72,1.65
34.0070,0.08,0.11,-0.99,3.11,3.60,1.34
34.0140,0.08,0.11,-0.99,3.23,3.85,1.10
34.0390,0.08,0.11,-0.99,3.11,4.09,0.79
34.0550,0.08,0.10,-1.00,3.11,4.03,0.31
34.0710,0.08,0.10,-1.00,3.17,4.27,-1.46
34.0790,0.08,0.12,-0.99,3.48,4.03,-1.95
34.0950,0.08,0.13,-0.99,3.17,4.15,-0.24
34.1170,0.08,0.12,-0.99,3.17,3.91,0.24
34.1330,0.08,0.12,-0.99,2.99,4.03,0.73
34.1490,0.08,0.12,-0.99,3.17,3.91,0.55
34.1650,0.08,0.12,-0.99,3.23,3.85,0.85
34.1680,0.08,0.11,-0.99,3.23,3.91,0.55
34.1840,0.08,0.11,-0.99,3.17,4.03,0.67
34.2070,0.08,0.11,-0.99,3.23,4.27,0.31
34.2230,0.08,0.11,-0.99,3.42,3.91,-0.55
34.2400,0.08,0.12,-0.99,3.17,4.03,-0.73
34.2560,0.08,0.12,-0.99,3.42,4.33,-0.43
34.2730,0.08,0.11,-0.99,3.17,4.03,-0.18
34.2890,0.08,0.12,-0.99,2.93,4.03,0.49
34.2910,0.08,0.11,-0.99,2.99,4.21,0.00
34.3210,0.08,0.11,-0.99,3.23,4.21,-0.31
34.3370,0.08,0.11,-0.99,2.99,4.21,-0.55
34.3530,0.08,0.11,-0.99,3.30,4.09,-0.67
34.3680,0.08,0.12,-0.99,3.42,4.15,-0.73
34.3840,0.08,0.12,-0.99,3.36,4.03,-0.12
34.3990,0.08,0.11,-0.99,3.30,3.72,0.24
34.4070,0.08,0.12,-0.99,3.17,4.09,1.04
34.4220,0.08,0.12,-0.99,3.17,3.72,0.98
34.4440,0.08,0.12,-0.99,3.05,3.91,1.28
34.4610,0.08,0.11,-0.99,3.23,3.66,0.55
34.4760,0.08,0.11,-0.99,3.36,3.97,-0.37
34.4920,0.08,0.11,-1.00,3.17,3.85,-0.73
34.5080,0.08,0.12,-0.99,3.36,4.09,-0.85
34.5130,0.08,0.12,-0.99,3.42,4.27,-0.06
34.5310,0.08,0.11,-0.99,3.17,3.85,0.43
34.5510,0.08,0.11,-0.99,3.11,3.78,0.12
34.5680,0.08,0.11,-0.99,3.30,4.27,-0.49
34.5840,0.08,0.11,-0.99,3.11,4.27,-1.10
34.6000,0.08,0.11,-0.99,3.36,4.33,-1.89
34.6150,0.08,0.11,-0.99,3.30,4.27,-1.77
34.6310,0.08,0.11,-0.99,3.42,4.46,-2.50
34.6340,0.08,0.12,-0.99,3.66,4.46,-2.81
34.6580,0.08,0.11,-0.99,3.42,3.91,-1.53
34.6740,0.08,0.12,-0.99,3.48,3.85,-0.37
34.6910,0.08,0.13,-0.99,3.11,3.72,1.16
34.7060,0.08,0.11,-0.99,3.11,3.66,1.40
34.7060,0.08,0.11,-0.99,3.05,3.72,0.61
34.7310,0.08,0.11,-0.99,3.05,4.09,0.24
34.7470,0.08,0.11,-0.99,3.36,4.03,0.43
34.7630,0.08,0.11,-0.99,3.23,3.60,0.73
34.7800,0.08,0.11,-0.99,2.99,4.03,0.85
34.7970,0.08,0.11,-0.99,3.17,4.27,0.06
34.8130,0.08,0.11,-0.99,3.23,4.27,-0.49
34.8280,0.08,0.12,-0.99,3.05,4.03,-0.43
34.8450,0.08,0.12,-0.99,3.23,3.91,0.73
34.8610,0.08,0.11,-1.00,3.05,3.78,1.53
34.8770,0.08,0.10,-0.99,3.42,3.85,0.55
34.8930,0.08,0.11,-0.99,3.30,4.21,-1.83
34.9090,0.08,0.12,-0.99,3.36,4.27,-1.28
34.9140,0.08,0.12,-0.99,3.05,3.97,-0.61
34.9320,0.08,0.12,-0.99,3.17,3.72,0.79
34.9460,0.08,0.12,-0.99,3.17,3.72,0.92
34.9680,0.08,0.12,-0.99,3.17,3.85,1.16
34.9840,0.08,0.11,-0.99,3.23,3.72,0.85
35.0000,0.08,0.11,-0.99,3.11,3.72,0.00
35.0170,0.08,0.11,-0.99,3.60,4.33,-1.04
35.0340,0.08,0.11,-0.99,3.11,4.27,-1.16
35.0490,0.08,0.13,-0.99,3.36,4.03,-0.24
35.0650,0.08,0.12,-0.99,3.23,3.66,0.55
35.0810,0.08,0.11,-0.99,3.23,3.91,1.04
35.0970,0.08,0.11,-0.99,2.99,3.91,0.92
35.1130,0.08,0.10,-0.99,3.17,3.85,0.43
35.1290,0.08,0.11,-0.99,3.36,4.27,-0.61
35.1450,0.08,0.11,-0.99,3.30,4.03,-0.55
35.1610,0.08,0.11,-0.99,3.11,4.09,-0.98
35.1780,0.08,0.12,-0.99,3.30,4.27,-1.22
35.1940,0.08,0.12,-0.99,3.05,3.78,-1.04
35.2110,0.08,0.12,-0.99,3.60,4.27,-0.67
35.2260,0.08,0.11,-0.99,3.11,3.54,0.00
35.2410,0.08,0.11,-0.99,3.11,4.15,-0.55
35.2560,0.08,0.11,-0.99,3.36,4.33,-1.95
35.2670,0.08,0.12,-0.99,3.11,3.97,-0.49
35.2840,0.08,0.12,-0.99,2.93,3.91,0.85
35.3000,0.08,0.12,-0.99,3.05,3.78,1.77
35.3160,0.08,0.11,-0.99,2.93,3.72,1.77
35.3310,0.08,0.11,-0.99,2.93,3.85,1.28
35.3470,0.08,0.10,-1.00,3.05,3.85,-0.24
35.3630,0.08,0.11,-1.00,3.30,4.33,-1.59
35.3790,0.08,0.12,-0.99,3.17,4.15,-1.34
35.3940,0.08,0.12,-0.99,3.23,4.15,1.16
35.4090,0.08,0.12,-0.99,3.17,3.91,1.89
35.4250,0.08,0.12,-0.99,2.99,3.60,1.65
35.4340,0.08,0.12,-0.99,3.23,3.85,1.34
35.4500,0.08,0.11,-0.99,3.36,4.03,1.16
35.4720,0.08,0.12,-0.99,3.23,3.97,0.73
35.4870,0.08,0.11,-0.99,3.42,3.66,1.22
35.5030,0.08,0.11,-0.99,3.17,3.78,1.53
35.5190,0.08,0.11,-0.99,2.99,3.91,1.71
35.5350,0.08,0.12,-0.99,3.11,3.85,1.59
35.5400,0.08,0.11,-0.99,2.99,3.48,1.65
35.5560,0.08,0.11,-1.00,3.23,3.85,0.92
35.5810,0.08,0.11,-0.99,3.42,3.97,-0.43
35.5970,0.07,0.11,-0.99,3.48,4.09,-1.22
35.6130,0.08,0.12,-0.99,3.48,4.15,-0.67
35.6140,0.08,0.12,-0.99,3.11,3.91,0.24
35.6330,0.08,0.12,-0.99,3.17,3.42,1.28
35.6610,0.08,0.11,-0.99,3.23,3.85,1.28
35.6770,0.08,0.10,-1.00,3.23,3.91,0.24
35.6930,0.08,0.11,-0.99,3.05,4.39,-0.98
35.7100,0.08,0.11,-0.99,3.42,3.97,-0.98
35.7140,0.08,0.12,-0.99,3.23,4.21,-0.24
35.7410,0.08,0.12,-0.99,3.23,3.66,0.67
35.7480,0.08,0.12,-0.99,3.17,3.66,1.04
35.7730,0.08,0.12,-0.99,3.11,3.72,0.67
35.7810,0.08,0.12,-0.99,2.99,3.97,0.98
35.8030,0.08,0.12,-0.99,2.87,3.97,1.16
35.8140,0.08,0.11,-0.99,3.05,3.60,1.28
35.8330,0.08,0.11,-0.99,2.99,3.85,0.92
35.8460,0.08,0.12,-0.99,3.23,3.85,0.12
35.8630,0.08,0.11,-1.00,3.05,4.03,-0.31
35.8800,0.08,0.11,-0.99,2.99,3.66,-0.37
35.8960,0.08,0.11,-0.99,3.30,4.33,-0.06
35.9120,0.08,0.12,-0.99,3.36,4.33,-0.61
35.9280,0.08,0.11,-0.99,3.05,3.78,0.43
35.9450,0.08,0.11,-1.00,3.17,3.85,0.00
35.9470,0.08,0.12,-0.99,3.23,4.03,-0.31
35.9760,0.08,0.11,-0.99,3.05,3.72,-0.37
35.9800,0.08,0.12,-0.99,3.17,4.27,-0.18
35.9960,0.08,0.12,-0.99,3.05,3.97,0.18
36.0110,0.08,0.11,-0.99,3.30,4.03,-0.24
36.0350,0.08,0.12,-0.99,3.23,4.15,-0.24
36.0510,0.08,0.12,-0.99,2.99,3.85,0.73
36.0670,0.08,0.11,-0.99,2.93,3.66,1.28
36.0850,0.08,0.12,-0.99,2.87,3.78,1.28
36.1000,0.08,0.12,-0.99,3.05,3.23,1.83
36.1020,0.08,0.12,-0.99,2.87,3.85,2.01
36.1180,0.08,0.11,-0.99,2.93,3.42,2.01
36.1460,0.08,0.11,-0.99,2.93,3.60,2.01
36.1570,0.08,0.11,-0.99,2.99,3.54,2.08
36.1730,0.08,0.11,-0.99,2.93,3.54,2.14
36.1900,0.08,0.11,-0.99,3.05,3.66,2.01
36.2070,0.08,0.11,-0.99,3.17,3.48,2.08
36.2230,0.08,0.11,-0.99,3.11,3.36,2.08
36.2400,0.08,0.11,-0.99,3.17,3.48,2.08
36.2560,0.08,0.11,-0.99,3.30,3.72,2.26
36.2730,0.08,0.11,-0.99,2.93,3.48,2.08
36.2890,0.08,0.11,-0.99,3.17,3.60,2.20
36.3040,0.08,0.11,-0.99,2.81,3.85,2.08
36.3200,0.08,0.12,-0.99,2.93,3.91,2.32
36.3350,0.07,0.12,-0.98,3.05,3.72,2.93
36.3500,0.08,0.11,-0.99,2.75,3.60,3.30
36.3660,0.08,0.11,-0.99,2.93,3.54,2.56
36.3810,0.08,0.11,-0.99,2.99,3.60,2.62
36.3960,0.08,0.11,-0.99,3.05,3.54,2.38
36.4070,0.08,0.11,-0.99,3.17,3.97,2.14
36.4240,0.08,0.11,-0.99,2.99,4.03,2.14
36.4400,0.08,0.11,-0.99,2.87,3.54,2.20
36.4550,0.08,0.11,-1.00,2.93,3.85,2.14
36.4710,0.08,0.11,-0.99,2.99,4.03,2.14
36.4750,0.08,0.11,-0.99,3.17,3.66,2.08
36.4900,0.08,0.11,-0.99,2.75,3.78,2.20
36.5070,0.08,0.11,-1.00,2.87,3.42,2.26
36.5300,0.08,0.11,-0.99,3.05,4.15,1.95
36.5410,0.08,0.11,-0.99,2.99,3.85,2.32
36.5590,0.08,0.11,-0.99,3.23,3.48,2.14
36.5750,0.08,0.11,-0.99,2.99,3.48,2.20
36.5910,0.08,0.11,-0.99,2.99,3.78,2.20
36.5910,0.07,0.12,-0.99,2.75,3.54,2.38
36.6210,0.07,0.12,-0.99,2.81,3.66,2.38
36.6360,0.07,0.11,-0.99,2.99,3.85,2.75
36.6400,0.08,0.11,-0.99,2.75,3.48,2.75
36.6570,0.08,0.11,-0.99,2.81,3.78,1.83
36.6730,0.07,0.10,-1.00,3.30,3.78,1.53
36.6910,0.08,0.10,-0.99,3.36,3.97,1.34
36.7060,0.08,0.11,-0.99,3.17,3.72,1.71
36.7240,0.08,0.12,-0.99,2.99,3.54,2.01
36.7410,0.08,0.11,-0.99,2.87,3.72,2.99
36.7560,0.08,0.11,-1.00,3.11,3.72,2.26
36.7720,0.08,0.12,-0.99,2.93,3.72,1.83
36.7870,0.08,0.12,-0.99,3.17,4.03,2.20
36.8010,0.08,0.12,-0.99,2.99,3.91,2.32
36.8080,0.08,0.12,-0.99,2.99,3.72,2.08
36.8320,0.08,0.12,-0.99,2.81,3.66,2.26
36.8470,0.08,0.12,-0.99,2.93,3.48,2.62
36.8570,0.09,0.11,-0.99,2.99,3.54,2.93
36.8740,0.08,0.11,-0.99,3.23,3.85,2.38
36.8900,0.08,0.11,-0.99,2.93,3.48,2.32
36.9070,0.08,0.11,-0.99,3.05,3.91,2.26
36.9230,0.08,0.11,-0.99,3.05,3.91,2.14
36.9400,0.08,0.11,-0.99,2.99,3.60,2.08
36.9550,0.08,0.11,-0.99,2.99,3.66,2.20
36.9580,0.08,0.11,-0.99,3.05,3.54,2.44
36.9730,0.08,0.11,-0.99,2.93,3.54,2.26
36.9960,0.08,0.11,-0.99,2.99,4.21,2.08
37.0130,0.08,0.11,-1.00,3.11,3.78,2.14
37.0300,0.08,0.12,-0.99,3.11,3.78,2.20
37.0470,0.08,0.11,-0.99,2.87,3.42,2.56
37.0640,0.08,0.12,-0.99,3.05,3.66,2.38
37.0800,0.08,0.11,-0.99,3.11,3.72,2.38
37.0960,0.08,0.12,-0.99,2.93,3.54,2.14
37.0970,0.08,0.12,-0.99,3.23,3.78,2.38
37.1280,0.06,0.12,-0.99,2.87,3.54,2.81
37.1330,0.08,0.11,-0.99,2.99,4.03,2.99
37.1600,0.08,0.11,-0.99,2.75,3.72,2.44
37.1760,0.08,0.11,-0.99,2.93,3.60,2.26
37.1920,0.08,0.12,-0.99,3.23,3.60,1.83
37.2000,0.08,0.11,-0.99,2.99,3.78,2.38
37.2150,0.08,0.11,-0.99,2.99,3.60,2.08
37.2380,0.08,0.11,-0.99,2.87,3.54,1.95
37.2550,0.07,0.11,-0.99,3.17,3.78,2.01
37.2710,0.08,0.11,-0.99,2.99,3.72,1.34
37.2870,0.08,0.11,-0.99,2.99,3.66,1.71
37.3030,0.08,0.11,-0.99,2.93,3.91,1.77
37.3190,0.07,0.12,-0.99,2.93,3.85,1.89
37.3340,0.08,0.11,-0.99,3.30,3.66,2.26
37.3490,0.07,0.12,-0.99,2.99,3.66,2.50
37.3650,0.08,0.11,-0.99,2.75,3.48,2.62
37.3810,0.08,0.11,-0.99,2.93,3.97,2.44
37.3960,0.08,0.11,-0.99,3.05,3.72,2.20
37.4120,0.08,0.11,-0.99,2.99,3.54,2.20
37.4220,0.08,0.11,-0.99,3.30,3.66,2.26
37.4390,0.08,0.11,-0.99,2.99,3.66,2.50
37.4550,0.08,0.12,-0.99,3.11,3.78,2.32
37.4710,0.08,0.11,-0.99,2.93,3.72,2.44
37.4880,0.08,0.11,-0.99,3.05,3.36,2.20
37.5050,0.07,0.11,-0.99,2.99,3.66,1.77
37.5200,0.08,0.11,-0.99,2.81,3.54,1.83
37.5370,0.08,0.12,-0.99,2.87,3.54,2.32
37.5520,0.08,0.11,-0.99,2.99,3.78,2.56
37.5550,0.08,0.11,-0.99,3.17,3.30,2.38
37.5710,0.08,0.11,-0.99,3.17,3.91,1.71
37.5950,0.08,0.11,-0.99,3.11,3.85,1.83
37.6120,0.08,0.12,-0.99,3.05,3.54,2.08
37.6300,0.08,0.11,-0.99,2.93,3.42,2.38
37.6460,0.08,0.11,-0.99,3.11,4.03,2.01
37.6620,0.08,0.12,-0.99,3.05,3.60,1.71
37.6780,0.08,0.11,-0.99,2.99,3.78,1.89
37.6940,0.08,0.11,-0.99,2.87,3.60,2.14
37.7100,0.08,0.11,-0.99,3.05,3.48,2.50
37.7120,0.08,0.12,-1.00,3.11,3.30,2.32
37.7340,0.08,0.11,-0.99,3.23,3.54,2.44
37.7520,0.08,0.11,-0.99,2.75,3.78,2.32
37.7690,0.08,0.11,-0.99,2.99,3.91,1.95
37.7850,0.08,0.11,-0.99,2.93,3.72,1.89
37.8020,0.08,0.11,-0.99,3.11,3.72,1.83
37.8180,0.08,0.11,-0.99,2.93,3.97,1.77
37.8320,0.08,0.11,-0.99,3.05,3.78,1.71
37.8490,0.08,0.11,-0.99,3.11,3.78,1.95
37.8650,0.08,0.11,-0.99,2.93,3.85,2.01
37.8810,0.08,0.11,-0.99,3.11,3.36,2.14
37.8960,0.08,0.11,-0.99,3.05,3.36,2.14
37.9130,0.08,0.11,-0.99,2.93,3.97,1.89
37.9290,0.08,0.11,-0.99,2.93,3.36,2.01
37.9450,0.09,0.11,-0.99,3.17,3.17,2.14
37.9520,0.08,0.11,-1.00,3.23,3.36,2.01
37.9670,0.08,0.11,-0.99,3.11,3.36,1.83
37.9900,0.07,0.11,-0.99,3.30,4.03,1.46
38.0060,0.08,0.11,-0.99,2.81,3.97,1.40
38.0220,0.08,0.11,-0.99,2.87,3.91,1.83
38.0380,0.08,0.11,-0.99,2.93,3.85,1.77
38.0550,0.08,0.11,-0.99,3.05,3.78,1.65
38.0700,0.08,0.12,-0.99,3.11,3.72,1.83
38.0740,0.08,0.12,-0.99,3.11,3.48,1.95
38.0890,0.08,0.11,-0.99,2.99,3.91,2.44
38.1140,0.08,0.11,-0.99,3.11,3.66,2.44
38.1310,0.08,0.11,-0.99,2.87,3.36,2.01
38.1470,0.08,0.11,-0.99,2.99,4.03,2.32
38.1640,0.08,0.11,-0.99,3.11,3.85,2.26
38.1650,0.08,0.11,-0.99,2.93,3.66,2.14
38.1960,0.08,0.11,-0.99,2.93,3.72,2.08
38.1970,0.08,0.11,-0.99,2.99,3.78,2.14
38.2280,0.08,0.11,-0.99,3.05,3.72,1.95
38.2460,0.08,0.11,-0.99,3.05,3.66,1.95
38.2610,0.08,0.11,-0.99,3.17,3.85,1.71
38.2770,0.08,0.11,-0.99,3.23,3.78,1.77
38.2800,0.08,0.11,-0.99,3.23,3.66,1.53
38.2960,0.08,0.11,-0.99,3.11,3.78,1.71
38.3210,0.08,0.11,-0.99,3.05,3.54,1.65
38.3380,0.08,0.11,-0.99,3.11,3.66,1.71
38.3540,0.07,0.11,-0.99,3.17,3.78,1.65
38.3700,0.08,0.11,-0.99,3.11,3.72,1.65
38.3850,0.08,0.12,-0.99,3.11,3.78,1.53
38.3870,0.08,0.11,-0.99,2.99,3.78,1.83
38.4030,0.08,0.11,-0.99,3.05,3.85,1.77
38.4250,0.08,0.11,-0.99,3.17,3.60,1.46
38.4420,0.08,0.11,-0.99,2.93,3.85,1.59
38.4580,0.08,0.11,-0.99,3.30,3.72,1.59
38.4780,0.08,0.11,-0.99,3.42,3.85,1.65
38.4930,0.08,0.11,-0.99,3.17,3.91,1.53
38.5090,0.08,0.11,-0.99,3.30,3.60,1.22
38.5160,0.08,0.11,-0.99,2.99,3.66,1.59
38.5350,0.08,0.11,-0.99,3.05,3.78,1.71
38.5560,0.08,0.11,-0.99,2.99,3.60,1.83
38.5710,0.08,0.12,-0.99,2.99,3.91,2.01
38.5860,0.08,0.11,-0.99,2.99,3.66,2.38
38.6020,0.08,0.11,-0.99,3.05,3.78,2.32
38.6180,0.08,0.11,-0.99,3.05,3.66,1.95
38.6330,0.08,0.11,-0.99,3.23,3.91,1.65
38.6490,0.08,0.11,-0.99,3.11,3.85,1.83
38.6650,0.08,0.11,-0.99,2.99,3.91,2.08
38.6810,0.08,0.11,-0.99,2.87,3.78,2.44
38.6890,0.08,0.11,-0.99,3.23,3.85,2.26
38.7060,0.08,0.11,-0.99,3.11,3.78,2.14
38.7230,0.08,0.11,-0.99,3.17,3.78,2.14
38.7390,0.07,0.12,-0.99,3.23,4.03,2.01
38.7560,0.08,0.12,-0.99,2.99,3.42,2.14
38.7720,0.08,0.11,-0.99,3.23,3.97,2.14
38.7890,0.08,0.11,-0.99,2.99,3.54,2.20
38.8060,0.08,0.11,-0.99,2.93,3.72,2.14
38.8220,0.08,0.11,-0.99,3.05,3.66,1.83
38.8370,0.08,0.11,-0.99,3.17,4.15,1.59
38.8540,0.08,0.11,-0.99,3.23,3.78,1.65
38.8700,0.08,0.11,-0.99,3.05,3.91,1.71
38.8850,0.07,0.12,-0.99,2.99,3.78,1.53
38.9000,0.08,0.11,-0.99,3.17,3.85,1.46
38.9150,0.08,0.11,-1.00,3.30,3.85,1.16
38.9300,0.07,0.12,-0.99,3.23,3.85,0.61
38.9450,0.08,0.11,-0.99,3.05,3.78,1.28
38.9560,0.08,0.11,-0.99,3.17,3.78,1.65
38.9720,0.08,0.12,-0.99,2.99,3.78,1.83
38.9880,0.08,0.12,-0.99,2.99,3.60,1.10
39.0060,0.08,0.11,-0.99,3.30,4.03,0.85
39.0220,0.08,0.12,-0.99,3.17,3.60,1.10
39.0380,0.08,0.11,-0.99,2.81,3.91,0.98
39.0540,0.08,0.11,-0.99,3.11,3.60,1.10
39.0710,0.09,0.11,-0.99,3.05,4.09,1.71
39.0870,0.08,0.11,-1.00,3.11,3.72,1.95
39.1030,0.08,0.11,-0.99,3.11,3.72,2.01
39.1180,0.07,0.11,-0.99,3.05,3.54,1.95
39.1230,0.08,0.11,-0.99,2.87,3.91,1.89
39.1380,0.08,0.11,-0.99,3.17,3.48,1.95
39.1610,0.08,0.11,-0.99,3.17,3.66,2.01
39.1780,0.08,0.11,-1.00,3.17,3.66,1.71
39.1950,0.07,0.11,-1.00,2.93,3.97,1.22
39.1950,0.08,0.11,-0.99,2.93,3.85,1.28
39.2120,0.08,0.11,-0.99,3.30,3.42,1.71
39.2400,0.08,0.11,-0.99,2.87,4.03,1.77
39.2450,0.09,0.12,-0.99,3.23,3.91,1.10
39.2620,0.09,0.12,-0.99,3.05,3.72,1.65
39.2880,0.08,0.11,-0.99,3.05,3.60,1.95
39.3050,0.08,0.12,-0.99,3.05,3.66,2.08
39.3190,0.08,0.12,-0.99,3.23,3.60,2.56
39.3340,0.08,0.11,-0.99,2.93,3.97,2.38
39.3460,0.08,0.11,-1.00,2.93,3.72,2.56
39.3610,0.08,0.11,-0.99,3.23,3.97,1.83
39.3790,0.07,0.11,-0.99,2.93,3.72,1.83
39.3960,0.08,0.11,-0.99,3.05,3.91,1.59
39.4120,0.08,0.11,-0.99,3.05,3.60,1.53
39.4270,0.08,0.11,-0.99,3.05,3.78,1.53
39.4430,0.08,0.11,-0.99,2.99,3.66,1.77
39.4590,0.08,0.11,-1.00,3.36,3.60,1.77
39.4750,0.07,0.11,-0.99,3.05,3.66,1.53
39.4910,0.09,0.11,-0.99,3.17,3.66,1.40
39.5070,0.07,0.11,-1.00,2.99,3.60,1.65
39.5240,0.08,0.11,-0.99,3.23,4.03,1.59
39.5390,0.08,0.12,-0.99,2.99,3.42,1.59
39.5450,0.08,0.12,-0.99,2.99,4.09,1.46
39.5610,0.08,0.12,-0.99,2.87,3.85,1.65
39.5830,0.08,0.11,-0.99,3.11,3.72,1.83
39.5990,0.08,0.11,-0.99,2.87,3.72,1.89
39.6160,0.08,0.11,-0.99,2.93,3.85,1.71
39.6320,0.08,0.11,-0.99,3.23,3.60,2.01
39.6480,0.08,0.11,-1.00,3.11,3.54,2.08
39.6640,0.07,0.11,-0.99,2.99,3.85,2.20
39.6790,0.08,0.11,-0.99,2.99,3.85,2.20
39.6950,0.08,0.11,-0.99,2.93,3.66,2.75
39.7090,0.08,0.11,-0.99,2.87,3.48,2.50
39.7240,0.08,0.11,-0.99,2.69,3.72,2.44
39.7390,0.08,0.11,-0.99,3.17,3.54,2.08
39.7490,0.08,0.12,-0.99,3.11,3.60,2.08
39.7660,0.08,0.11,-0.99,3.05,3.72,2.32
39.7820,0.08,0.11,-0.99,2.93,3.48,2.26
39.7990,0.08,0.11,-0.99,3.05,3.54,2.20
39.8140,0.08,0.12,-0.99,2.93,3.85,2.01
39.8300,0.08,0.12,-0.99,3.05,3.97,1.95
39.8360,0.08,0.11,-0.99,3.23,3.72,1.83
39.8620,0.08,0.11,-1.00,2.87,3.72,1.95
39.8770,0.08,0.11,-0.99,3.11,4.03,1.89
39.8820,0.08,0.12,-0.99,2.99,3.91,2.01
39.8980,0.08,0.11,-0.99,3.11,4.03,2.20
39.9230,0.08,0.11,-0.99,3.05,3.66,2.08
39.9390,0.09,0.11,-0.99,3.11,3.72,2.14
39.9540,0.08,0.11,-0.99,3.17,3.54,1.95
39.9560,0.08,0.11,-0.99,3.11,3.42,2.26
39.9720,0.07,0.11,-0.99,2.99,3.78,2.32
39.9950,0.08,0.12,-0.99,2.81,3.66,2.26
40.0120,0.08,0.11,-0.99,2.87,3.91,2.44
40.0280,0.09,0.11,-0.99,3.11,3.78,2.44
40.0450,0.08,0.11,-0.99,2.81,3.72,2.08
40.0610,0.08,0.11,-0.99,2.75,3.91,2.08
40.0770,0.08,0.11,-0.99,3.05,3.72,2.14
40.0930,0.08,0.11,-0.99,3.05,3.91,2.20
40.1100,0.08,0.11,-0.99,3.05,3.78,2.32
40.1250,0.08,0.11,-0.99,3.42,3.85,2.32
40.1410,0.08,0.11,-1.00,3.05,3.66,2.20
40.1570,0.08,0.11,-0.99,2.99,3.72,2.50
40.1730,0.08,0.11,-0.99,3.05,3.66,2.38
40.1890,0.07,0.12,-0.99,3.05,3.85,2.14
40.2050,0.08,0.12,-0.99,2.93,4.03,1.95
40.2120,0.08,0.12,-0.99,3.30,3.54,1.71
40.2280,0.08,0.12,-0.99,3.17,3.91,2.32
40.2510,0.08,0.12,-0.99,3.05,3.36,2.38
40.2660,0.08,0.11,-0.99,2.87,3.91,2.44
40.2690,0.08,0.11,-0.99,2.93,3.60,2.26
40.2850,0.08,0.11,-0.99,2.93,3.97,2.20
40.3080,0.08,0.11,-0.99,3.11,3.66,2.14
40.3250,0.08,0.11,-0.99,3.05,3.91,2.26
40.3420,0.08,0.11,-1.00,2.69,3.66,2.14
40.3580,0.08,0.11,-0.99,2.81,3.72,2.26
40.3750,0.08,0.11,-0.99,2.81,3.54,2.08
40.3910,0.08,0.11,-0.99,3.23,4.09,1.89
40.4070,0.08,0.12,-0.99,3.30,3.66,2.01
40.4230,0.08,0.12,-0.99,3.23,3.42,1.77
40.4390,0.08,0.12,-0.99,3.05,3.78,1.71
40.4560,0.08,0.12,-0.99,3.11,3.54,1.95
40.4710,0.08,0.12,-0.99,2.93,3.48,2.01
40.4750,0.08,0.12,-0.99,2.93,3.54,1.65
40.4910,0.08,0.11,-0.99,3.05,3.78,1.83
40.5160,0.08,0.11,-0.99,3.11,3.54,2.01
40.5320,0.07,0.11,-0.99,3.30,3.85,1.95
40.5490,0.07,0.11,-0.99,2.93,3.85,2.01
40.5650,0.08,0.11,-0.99,3.30,3.85,1.71
40.5660,0.08,0.11,-0.99,3.05,3.85,1.04
40.5820,0.08,0.11,-0.99,3.11,3.85,0.98
40.6050,0.08,0.12,-0.99,3.11,3.54,1.46
40.6220,0.08,0.12,-0.99,3.11,3.72,1.53
40.6370,0.08,0.12,-0.99,2.99,4.09,1.71
40.6570,0.08,0.12,-0.99,2.99,3.91,1.28
40.6730,0.09,0.12,-0.99,3.05,3.66,1.71
40.6880,0.08,0.12,-0.99,2.87,3.60,2.08
40.7040,0.08,0.12,-0.99,2.99,3.91,1.89
40.7200,0.09,0.11,-0.99,2.81,4.03,1.71
40.7350,0.08,0.11,-0.99,3.17,3.66,1.95
40.7420,0.08,0.12,-0.99,3.17,3.91,1.83
40.7570,0.08,0.11,-0.99,2.93,3.85,2.14
40.7810,0.08,0.11,-0.99,2.99,3.60,2.08
40.7980,0.08,0.11,-1.00,3.05,3.97,2.20
40.8140,0.08,0.11,-0.99,2.93,4.03,2.08
40.8290,0.07,0.12,-0.99,3.05,3.91,1.77
40.8460,0.07,0.11,-0.99,3.17,3.72,1.34
40.8620,0.07,0.11,-0.99,3.05,4.09,0.92
40.8790,0.09,0.11,-0.99,2.99,3.97,0.92
40.8940,0.08,0.12,-0.99,3.05,3.85,1.40
40.9110,0.08,0.12,-0.99,3.11,3.91,1.53
40.9250,0.08,0.12,-0.99,3.30,3.78,1.53
40.9370,0.07,0.12,-0.99,3.17,3.91,1.10
40.9490,0.08,0.11,-0.99,3.17,4.33,0.37
40.9720,0.09,0.11,-0.99,2.81,3.72,0.79
40.9880,0.08,0.11,-0.99,2.87,3.54,1.46
41.0030,0.08,0.11,-0.99,3.11,3.48,1.53
41.0200,0.07,0.11,-0.99,3.11,3.66,1.77
41.0360,0.08,0.11,-1.00,3.17,3.91,1.53
41.0390,0.08,0.11,-0.99,3.11,4.09,1.40
41.0540,0.08,0.11,-0.99,2.99,3.66,1.65
41.0780,0.08,0.11,-0.99,3.05,3.42,1.83
41.0930,0.07,0.11,-0.99,3.11,3.72,1.71
41.1110,0.07,0.12,-0.99,3.23,3.72,0.55
41.1270,0.08,0.12,-0.99,3.05,3.91,0.43
41.1370,0.09,0.12,-0.99,3.11,3.66,0.61
41.1470,0.08,0.12,-0.99,2.99,3.60,1.34
41.1710,0.08,0.12,-0.99,3.11,3.66,1.71
41.1870,0.08,0.12,-0.99,2.99,4.09,1.77
41.2040,0.08,0.11,-0.99,3.23,3.60,1.83
41.2210,0.08,0.11,-1.00,3.11,3.97,1.77
41.2350,0.08,0.11,-0.99,3.05,4.09,1.77
41.2510,0.08,0.11,-0.99,2.99,3.91,1.65
41.2660,0.08,0.11,-0.99,3.05,3.97,1.77
41.2820,0.07,0.11,-0.99,2.87,3.91,1.71
41.2980,0.08,0.11,-0.99,3.05,3.78,1.34
41.3030,0.08,0.11,-0.99,3.17,3.91,1.16
41.3190,0.08,0.12,-0.99,3.11,3.72,1.22
41.3430,0.08,0.12,-0.99,3.05,3.78,1.34
41.3600,0.08,0.12,-0.99,3.05,3.72,1.89
41.3780,0.08,0.12,-0.99,3.05,3.72,1.95
41.3930,0.08,0.11,-0.99,3.05,3.78,1.95
41.4100,0.07,0.11,-0.99,2.99,3.91,1.10
41.4260,0.08,0.12,-0.99,2.99,3.72,0.49
41.4380,0.08,0.12,-0.99,2.93,4.15,1.04
41.4430,0.08,0.11,-0.99,2.87,3.66,1.65
41.4590,0.08,0.11,-0.99,2.93,3.42,1.89
41.4750,0.08,0.11,-0.99,3.17,3.60,1.53
41.4960,0.08,0.11,-0.99,3.11,3.78,0.98
41.5120,0.08,0.11,-0.99,3.23,4.27,0.98
41.5280,0.08,0.11,-0.99,3.11,3.91,1.34
41.5470,0.08,0.11,-0.99,2.81,3.66,1.71
41.5620,0.07,0.12,-0.99,2.99,3.66,1.83
41.5790,0.07,0.12,-0.99,3.05,3.72,1.46
41.5940,0.08,0.12,-0.99,3.11,3.48,1.22
41.6110,0.08,0.12,-0.99,2.99,3.48,1.28
41.6120,0.08,0.11,-0.99,2.81,3.78,1.65
41.6380,0.08,0.11,-0.99,3.11,3.72,1.65
41.6440,0.07,0.12,-0.99,3.11,3.60,1.89
41.6720,0.07,0.11,-0.99,2.99,3.78,1.46
41.6840,0.08,0.11,-0.99,2.99,3.91,1.71
41.7010,0.08,0.11,-0.99,2.93,3.97,1.89
41.7170,0.07,0.11,-0.99,3.05,3.36,1.77
41.7330,0.08,0.11,-0.99,3.17,3.85,1.83
41.7490,0.08,0.11,-0.99,3.11,3.91,1.71
41.7650,0.08,0.11,-0.99,3.05,3.78,1.71
41.7670,0.08,0.12,-0.99,2.87,3.72,1.77
41.7830,0.08,0.12,-0.99,3.05,3.72,1.71
41.8070,0.08,0.11,-0.99,3.05,3.48,1.71
41.8230,0.08,0.11,-0.99,3.17,3.54,1.65
41.8400,0.08,0.11,-0.99,2.99,3.72,1.16
41.8560,0.08,0.11,-0.99,3.11,3.66,1.22
41.8730,0.08,0.12,-0.99,2.99,3.66,1.46
41.8900,0.07,0.11,-0.99,3.11,3.48,1.46
41.9060,0.07,0.11,-0.99,3.23,3.36,1.28
41.9220,0.08,0.11,-0.99,3.17,3.85,1.22
41.9370,0.08,0.12,-0.99,2.93,3.48,1.10
41.9540,0.08,0.12,-0.99,2.93,3.72,1.65
41.9700,0.08,0.11,-0.99,3.30,3.54,1.77
41.9730,0.08,0.11,-0.99,2.93,3.66,1.95
41.9890,0.08,0.12,-0.99,2.81,3.54,1.83
42.0110,0.08,0.11,-0.99,2.93,3.23,1.83
42.0280,0.08,0.11,-0.99,2.99,3.54,1.71
42.0450,0.08,0.12,-0.99,2.93,3.60,1.77
42.0630,0.08,0.11,-0.99,3.17,3.54,1.95
42.0780,0.08,0.11,-0.99,2.99,3.72,1.89
42.0940,0.08,0.11,-0.99,2.93,3.97,1.89
42.0950,0.08,0.11,-0.99,3.23,3.91,1.59
42.1250,0.08,0.12,-0.99,3.17,3.60,1.40
42.1400,0.08,0.12,-0.99,3.23,3.78,1.59
42.1560,0.08,0.11,-0.99,2.69,3.78,2.01
42.1720,0.08,0.11,-0.99,2.93,3.60,2.20
42.1880,0.08,0.11,-0.99,2.87,3.54,2.20
42.2040,0.07,0.12,-0.99,2.87,3.66,2.32
42.2190,0.08,0.11,-0.99,2.99,3.54,2.50
42.2350,0.08,0.11,-0.99,2.99,3.36,2.38
42.2450,0.08,0.11,-0.99,2.93,3.85,2.20
42.2610,0.08,0.11,-0.99,2.99,3.54,2.20
42.2780,0.08,0.11,-0.99,3.11,3.60,2.26
42.2950,0.08,0.12,-0.99,2.81,3.91,2.14
42.3120,0.08,0.11,-0.99,3.17,3.72,2.20
42.3270,0.08,0.11,-0.99,3.11,3.54,2.32
42.3440,0.08,0.12,-0.99,3.05,3.78,1.95
42.3610,0.08,0.12,-0.99,3.11,3.97,1.77
42.3770,0.08,0.11,-0.99,3.11,3.91,2.26
42.3920,0.08,0.11,-0.99,3.05,3.91,2.50
42.4070,0.08,0.11,-0.99,3.05,3.54,2.44
42.4230,0.08,0.11,-0.99,3.05,3.54,2.14
42.4290,0.08,0.12,-0.99,3.17,3.97,1.89
42.4530,0.08,0.11,-0.99,2.81,3.85,2.08
42.4690,0.08,0.11,-0.99,2.93,3.72,2.20
42.4780,0.08,0.11,-0.99,2.99,3.60,2.08
42.4930,0.08,0.11,-0.99,2.93,3.54,2.26
42.5100,0.08,0.11,-0.99,2.99,3.78,2.32
42.5260,0.08,0.12,-0.99,2.87,3.72,2.26
42.5480,0.08,0.12,-0.99,2.62,3.54,2.20
42.5620,0.08,0.11,-0.99,2.93,3.66,2.01
42.5780,0.08,0.11,-0.99,3.05,3.60,2.01
42.5940,0.08,0.11,-0.99,2.99,4.03,1.83
42.6090,0.08,0.11,-0.99,2.99,3.60,2.01
42.6240,0.08,0.11,-0.99,3.11,3.72,1.83
42.6400,0.08,0.11,-0.99,3.05,3.85,1.83
42.6480,0.08,0.11,-0.99,3.17,3.78,1.77
42.6710,0.08,0.11,-0.99,3.11,3.97,1.83
42.6870,0.08,0.11,-0.99,3.05,3.72,1.71
42.7020,0.08,0.11,-0.99,2.93,3.66,1.89
42.7160,0.07,0.11,-0.99,3.05,3.60,1.71
42.7320,0.08,0.12,-0.99,2.87,3.60,1.40
42.7400,0.08,0.12,-0.99,2.87,3.66,1.83
42.7530,0.07,0.12,-0.99,2.87,3.66,1.89
42.7750,0.08,0.11,-0.99,2.81,3.54,2.08
42.7930,0.09,0.11,-0.99,2.93,3.78,2.08
42.8080,0.08,0.11,-0.99,3.05,3.78,1.89
42.8100,0.08,0.11,-0.99,3.30,4.09,1.77
42.8400,0.08,0.11,-0.99,3.36,3.66,1.71
42.8420,0.08,0.11,-0.99,3.05,3.72,1.71
42.8730,0.08,0.11,-0.99,2.99,3.78,1.71
42.8750,0.08,0.11,-0.99,2.99,3.72,1.89
42.9050,0.08,0.11,-0.99,2.99,3.91,2.08
42.9080,0.08,0.11,-1.00,3.05,3.36,2.08
42.9260,0.08,0.11,-0.99,2.99,3.36,2.01
42.9420,0.08,0.11,-0.99,2.93,3.66,1.89
42.9670,0.08,0.12,-0.99,3.30,3.66,1.89
42.9760,0.08,0.11,-0.99,3.17,3.91,1.77
42.9930,0.08,0.11,-0.99,2.99,3.72,1.77
43.0100,0.08,0.11,-0.99,2.87,3.54,1.89
43.0260,0.08,0.11,-0.99,3.11,3.85,1.89
43.0420,0.08,0.11,-0.99,2.99,3.54,1.89
43.0570,0.08,0.11,-0.99,3.05,3.97,1.77
43.0580,0.08,0.11,-0.99,3.05,3.85,1.95
43.0760,0.08,0.12,-0.99,2.93,3.60,1.83
43.0920,0.08,0.11,-0.99,3.05,3.60,2.20
43.1100,0.08,0.11,-0.99,3.11,3.66,1.89
43.1260,0.08,0.12,-0.99,3.05,3.48,1.77
43.1420,0.08,0.11,-0.99,2.99,4.15,1.95
43.1590,0.08,0.11,-0.99,2.93,3.66,1.89
43.1760,0.08,0.11,-0.99,3.05,3.48,2.01
43.1920,0.08,0.11,-0.99,2.99,3.72,2.01
43.2080,0.08,0.11,-0.99,2.81,3.60,1.59
43.2260,0.08,0.12,-0.99,2.81,3.78,1.89
43.2420,0.08,0.12,-0.99,2.93,3.66,1.83
43.2430,0.08,0.11,-0.99,2.99,3.66,2.08
43.2590,0.08,0.11,-0.99,2.93,3.48,2.01
43.2910,0.08,0.11,-0.99,3.11,3.42,2.08
43.2920,0.08,0.11,-0.99,3.11,3.60,2.08
43.3090,0.08,0.11,-0.99,3.11,3.54,1.89
43.3250,0.08,0.11,-0.99,2.75,3.72,1.89
43.3490,0.08,0.11,-0.99,2.93,3.66,1.89
43.3640,0.08,0.11,-0.99,3.11,3.91,1.77
43.3810,0.08,0.11,-0.99,2.99,3.60,1.89
43.3980,0.08,0.12,-0.99,3.17,3.60,1.83
43.4150,0.08,0.11,-0.99,2.87,3.72,1.89
43.4300,0.08,0.12,-0.99,2.81,3.54,2.14
43.4470,0.08,0.11,-0.99,3.23,3.85,1.95
43.4620,0.08,0.11,-0.99,2.87,3.48,2.14
43.4790,0.08,0.12,-0.99,2.93,3.54,2.01
43.4940,0.08,0.11,-0.99,3.11,3.66,2.14
43.5100,0.07,0.11,-0.99,3.11,3.66,1.83
43.5250,0.08,0.11,-0.99,2.99,3.30,1.71
43.5400,0.08,0.11,-0.99,2.93,3.78,1.77
43.5560,0.08,0.11,-0.99,3.05,4.03,1.95
43.5700,0.08,0.12,-0.99,3.11,3.54,1.95
43.5840,0.08,0.11,-0.99,2.75,3.42,1.95
43.5990,0.08,0.12,-0.99,2.93,3.36,2.01
43.6150,0.08,0.12,-0.99,2.87,3.36,2.01
43.6300,0.08,0.12,-0.99,2.99,3.66,2.08
43.6450,0.08,0.11,-0.99,3.05,3.54,2.01
43.6480,0.08,0.11,-0.99,2.87,3.42,1.89
43.6780,0.08,0.11,-0.99,3.11,3.60,1.95
43.6940,0.09,0.11,-0.99,3.11,3.54,1.83
43.7100,0.08,0.11,-0.99,2.99,3.72,1.89
43.7260,0.08,0.11,-0.99,2.87,3.66,2.14
43.7410,0.08,0.11,-0.99,2.75,4.09,2.01
43.7480,0.08,0.11,-0.99,2.99,3.48,2.01
43.7640,0.08,0.11,-0.99,3.17,3.85,2.01
43.7870,0.08,0.11,-0.99,3.17,3.54,2.08
43.8030,0.08,0.11,-0.99,2.99,3.91,2.01
43.8200,0.08,0.11,-0.99,2.81,3.48,2.01
43.8360,0.08,0.11,-0.99,2.75,3.48,1.95
43.8510,0.08,0.11,-0.99,2.99,3.66,2.08
43.8660,0.08,0.11,-0.99,2.93,3.72,2.14
43.8710,0.08,0.11,-0.99,2.99,3.91,1.95
43.8860,0.08,0.11,-0.99,2.69,3.85,2.01
43.9080,0.07,0.11,-0.99,2.87,3.72,1.95
43.9250,0.08,0.11,-0.99,3.05,3.91,2.20
43.9420,0.08,0.11,-0.99,3.05,3.78,2.14
43.9580,0.09,0.11,-0.99,3.17,3.54,2.14
43.9740,0.08,0.11,-0.99,2.87,3.54,2.08
43.9900,0.08,0.11,-0.99,3.05,3.36,2.08
44.0060,0.08,0.12,-0.99,2.93,3.78,2.08
44.0220,0.08,0.12,-0.99,3.11,3.23,1.83
44.0380,0.08,0.12,-0.99,2.93,3.54,1.89
44.0540,0.08,0.11,-0.99,2.93,3.72,1.89
44.0700,0.08,0.11,-0.99,2.93,3.85,1.83
44.0860,0.08,0.11,-0.99,2.87,3.60,1.53
44.1000,0.08,0.12,-0.99,2.87,3.17,1.83
44.1150,0.08,0.11,-0.99,3.05,3.72,1.89
44.1250,0.08,0.11,-0.99,3.05,3.66,1.83
44.1410,0.08,0.11,-0.99,3.05,3.60,1.83
44.1610,0.08,0.11,-0.99,2.87,3.54,1.71
44.1760,0.08,0.11,-0.99,2.99,3.72,1.83
44.1930,0.08,0.11,-0.99,2.93,3.60,2.08
44.2090,0.08,0.11,-0.99,3.11,3.78,1.83
44.2240,0.08,0.11,-0.99,2.93,3.60,1.95
44.2280,0.08,0.11,-0.99,3.17,3.48,1.89
44.2440,0.08,0.11,-0.99,3.30,3.66,1.77
44.2670,0.08,0.12,-0.99,3.17,3.78,1.83
44.2830,0.08,0.11,-0.99,3.05,3.72,1.77
44.2980,0.07,0.11,-0.99,2.81,3.42,2.01
44.3150,0.07,0.11,-1.00,2.93,3.72,2.08
44.3310,0.08,0.11,-0.99,2.99,3.66,1.89
44.3470,0.08,0.12,-0.99,3.17,3.66,1.77
44.3620,0.08,0.12,-0.99,2.81,3.66,1.65
44.3800,0.08,0.12,-0.99,2.87,3.42,1.89
44.3840,0.08,0.11,-0.99,3.05,3.91,2.14
44.4000,0.08,0.11,-0.99,2.99,3.72,2.20
44.4150,0.08,0.11,-0.99,2.93,3.78,1.89
44.4370,0.08,0.11,-0.99,3.05,3.72,1.65
44.4550,0.08,0.12,-0.99,3.11,3.66,1.53
44.4700,0.08,0.12,-0.99,2.99,3.91,2.08
44.4880,0.08,0.11,-0.99,3.05,3.36,2.20
44.5040,0.08,0.11,-0.99,3.11,3.78,2.01
44.5210,0.08,0.11,-0.99,2.99,3.60,2.01
44.5360,0.08,0.12,-0.99,2.87,3.66,1.95
44.5510,0.08,0.12,-0.99,2.93,3.54,1.95
44.5550,0.08,0.11,-0.99,2.56,3.42,2.38
44.5820,0.08,0.11,-0.99,3.23,3.97,2.14
44.5980,0.08,0.11,-0.99,2.75,3.78,2.01
44.6060,0.08,0.11,-0.99,2.87,3.66,2.08
44.6210,0.08,0.12,-0.99,2.87,3.48,2.01
44.6440,0.08,0.11,-0.99,2.69,3.54,2.01
44.6610,0.07,0.11,-0.99,3.11,3.54,2.20
44.6760,0.08,0.11,-0.99,2.93,3.85,2.14
44.6920,0.08,0.11,-0.99,2.87,3.66,2.08
44.6940,0.08,0.11,-0.99,3.05,3.17,1.77
44.7100,0.07,0.11,-0.99,2.93,3.48,1.77
44.7330,0.08,0.12,-0.99,3.05,3.23,1.77
44.7490,0.08,0.11,-0.99,3.11,3.54,2.20
44.7660,0.08,0.11,-0.99,2.93,3.36,1.89
44.7820,0.08,0.11,-0.99,3.05,3.48,1.77
44.7980,0.08,0.12,-0.99,2.93,3.48,1.65
44.8140,0.08,0.11,-0.99,3.05,3.54,1.95
44.8160,0.08,0.11,-0.99,2.93,3.60,2.01
44.8420,0.08,0.11,-0.99,2.81,3.78,2.01
44.8550,0.07,0.11,-0.99,2.93,3.48,1.89
44.8720,0.08,0.11,-0.99,3.17,3.42,1.83
44.8890,0.08,0.11,-0.99,2.87,3.36,1.89
44.9050,0.07,0.11,-0.99,3.05,3.78,1.89
44.9210,0.08,0.11,-0.99,3.17,3.60,1.53
44.9370,0.08,0.11,-0.99,2.87,3.60,1.77
44.9510,0.08,0.11,-0.99,3.11,3.54,1.89
44.9560,0.08,0.12,-0.99,3.11,3.60,1.71
44.9720,0.08,0.11,-0.99,3.05,3.42,2.01
44.9930,0.08,0.11,-0.99,2.87,3.42,1.89
45.0100,0.08,0.11,-0.99,2.99,3.11,1.89
45.0270,0.08,0.11,-0.99,3.17,3.23,1.89
45.0430,0.08,0.11,-0.99,3.17,3.36,1.95
45.0600,0.08,0.11,-0.99,2.93,3.48,1.83
45.0760,0.08,0.11,-0.99,3.05,3.48,1.89
45.0910,0.08,0.11,-0.99,2.93,3.78,1.83
45.0930,0.08,0.12,-0.99,2.99,3.78,2.08
45.1090,0.08,0.12,-0.99,2.75,3.36,2.32
45.1340,0.08,0.11,-0.99,2.81,3.54,2.14
45.1510,0.07,0.12,-0.99,2.81,3.23,2.20
45.1680,0.08,0.11,-0.99,2.87,3.42,2.26
45.1840,0.08,0.11,-1.00,2.99,3.78,2.14
45.1990,0.08,0.11,-0.99,2.87,3.36,1.95
45.2140,0.08,0.11,-0.99,2.87,3.42,2.08
45.2180,0.08,0.11,-0.99,3.05,3.66,1.95
45.2420,0.08,0.11,-0.99,3.05,3.60,1.77
45.2590,0.08,0.12,-0.99,2.81,3.60,1.95
45.2590,0.08,0.11,-0.99,3.05,3.66,2.20
45.2760,0.08,0.11,-0.99,3.05,3.36,2.14
45.2930,0.08,0.11,-0.99,3.17,3.42,2.01
45.3080,0.08,0.11,-0.99,3.05,3.05,1.83
45.3310,0.08,0.11,-0.99,2.81,3.42,1.89
45.3480,0.08,0.11,-0.99,2.81,3.72,1.95
45.3630,0.08,0.12,-0.99,3.05,3.54,1.83
45.3810,0.08,0.11,-0.99,2.81,3.66,2.14
45.3960,0.08,0.11,-0.99,3.05,3.72,2.14
45.4120,0.07,0.11,-0.99,2.87,3.91,1.95
45.4280,0.08,0.11,-0.99,3.11,3.78,2.14
45.4440,0.08,0.11,-0.99,2.99,3.48,1.83
45.4600,0.08,0.11,-0.99,2.99,3.72,1.77
45.4640,0.08,0.11,-0.99,2.75,3.17,1.71
45.4800,0.08,0.11,-0.99,2.99,3.54,1.77
45.5030,0.08,0.11,-0.99,3.05,3.72,1.77
45.5190,0.08,0.11,-0.99,2.93,3.60,1.77
45.5390,0.08,0.12,-0.99,2.87,3.36,1.95
45.5530,0.08,0.11,-0.99,2.69,3.66,1.89
45.5690,0.08,0.11,-0.99,2.81,3.54,2.01
45.5840,0.08,0.12,-0.99,3.11,3.97,1.95
45.6000,0.08,0.11,-0.99,3.05,3.72,1.83
45.6150,0.08,0.11,-0.99,3.17,3.78,1.95
45.6310,0.08,0.11,-0.99,3.11,3.91,1.83
45.6430,0.08,0.11,-0.99,2.93,3.91,1.71
45.6520,0.08,0.11,-0.99,3.11,3.60,1.71
45.6740,0.08,0.11,-0.99,2.87,3.30,1.77
45.6910,0.07,0.11,-0.99,3.05,3.30,1.77
45.7060,0.08,0.11,-0.99,2.87,3.72,1.83
45.7230,0.09,0.11,-0.99,3.05,3.72,1.71
45.7250,0.08,0.11,-0.99,3.05,3.54,1.77
45.7540,0.08,0.11,-0.99,2.93,3.66,1.71
45.7700,0.08,0.11,-0.99,3.11,3.30,1.77
45.7750,0.08,0.12,-0.99,3.17,3.72,1.65
45.7910,0.08,0.11,-0.99,2.93,3.78,1.71
45.8140,0.08,0.12,-0.99,3.05,3.78,1.71
45.8300,0.07,0.12,-0.99,2.93,3.54,1.95
45.8470,0.07,0.12,-0.99,2.99,3.60,2.01
45.8630,0.07,0.12,-0.99,3.05,3.54,1.95
45.8640,0.08,0.11,-0.99,2.99,3.91,2.20
45.8800,0.08,0.11,-0.99,2.69,3.72,2.20
45.8970,0.08,0.11,-0.99,2.87,3.42,2.20
45.9140,0.08,0.11,-0.99,3.17,3.91,2.01
45.9410,0.08,0.11,-0.99,2.93,3.42,1.89
45.9470,0.08,0.12,-0.99,2.99,3.30,1.89
45.9720,0.08,0.11,-0.99,2.81,3.78,1.89
45.9800,0.08,0.11,-0.99,3.11,3.66,1.89
45.9950,0.08,0.11,-0.99,3.17,3.72,1.89
46.0160,0.08,0.12,-0.99,2.81,3.60,1.89
46.0200,0.08,0.12,-0.99,2.99,3.48,2.08
46.0460,0.08,0.11,-0.99,3.05,3.66,2.01
46.0620,0.08,0.11,-0.99,2.93,3.36,2.08
46.0760,0.08,0.11,-0.99,2.81,3.54,1.89
46.0870,0.08,0.11,-0.99,2.99,3.66,1.53
46.1020,0.08,0.12,-0.99,2.81,3.78,1.53
46.1240,0.08,0.11,-0.99,2.99,3.72,1.83
46.1260,0.08,0.11,-0.99,2.87,3.66,2.01
46.1440,0.08,0.11,-0.99,3.11,3.85,2.08
46.1590,0.08,0.12,-0.99,2.81,3.54,2.08
46.1750,0.08,0.12,-0.99,2.93,3.42,2.20
46.1950,0.08,0.12,-0.99,3.17,3.42,2.14
46.2110,0.07,0.12,-0.99,2.93,3.54,2.38
46.2290,0.08,0.11,-0.99,3.05,3.66,2.26
46.2450,0.08,0.11,-0.99,3.05,3.78,2.38
46.2620,0.08,0.12,-0.99,3.17,3.54,2.32
46.2780,0.08,0.12,-0.99,2.87,3.60,2.20
46.2940,0.08,0.12,-0.99,2.93,3.85,2.38
46.3100,0.08,0.12,-0.99,3.11,3.30,2.32
46.3250,0.08,0.11,-0.99,3.17,3.42,2.69
46.3400,0.08,0.11,-0.99,3.11,3.23,2.50
46.3570,0.08,0.11,-0.99,2.93,3.17,2.44
46.3610,0.08,0.12,-0.99,2.93,3.42,2.32
46.3770,0.08,0.11,-0.99,2.99,3.30,2.38
46.4020,0.08,0.12,-0.99,2.99,3.30,2.38
46.4180,0.08,0.11,-0.99,2.87,3.72,2.20
46.4340,0.08,0.12,-0.99,3.05,3.30,2.08
46.4500,0.08,0.12,-0.99,2.87,3.66,2.14
46.4650,0.08,0.12,-0.99,2.87,3.66,2.38
46.4670,0.08,0.11,-0.99,3.05,3.72,2.44
46.4830,0.08,0.11,-0.99,2.99,3.60,2.20
46.5060,0.08,0.11,-0.99,2.87,3.66,2.26
46.5230,0.08,0.12,-0.99,3.17,3.42,2.44
46.5390,0.08,0.11,-0.99,3.17,3.36,2.26
46.5550,0.08,0.11,-0.99,2.93,3.66,2.38
46.5730,0.08,0.11,-0.99,2.93,3.78,2.26
46.5890,0.08,0.11,-0.99,3.05,3.66,2.20
46.6050,0.08,0.12,-0.99,3.11,3.30,1.89
46.6220,0.08,0.12,-0.99,2.99,3.42,1.95
46.6380,0.08,0.12,-0.99,2.81,3.48,2.20
46.6530,0.08,0.12,-0.99,2.99,3.23,2.44
46.6560,0.08,0.11,-0.99,3.05,3.42,2.69
46.6720,0.08,0.12,-0.99,3.05,3.30,2.44
46.6930,0.09,0.11,-0.99,2.87,3.30,2.32
46.7110,0.08,0.11,-0.99,2.81,3.23,2.50
46.7270,0.08,0.11,-0.99,2.93,3.60,2.62
46.7430,0.08,0.11,-0.99,3.05,3.60,2.38
46.7450,0.08,0.11,-0.99,3.11,3.78,2.38
46.7740,0.08,0.11,-0.99,2.99,3.85,2.20
46.7780,0.08,0.11,-0.99,2.75,3.66,2.26
46.7940,0.08,0.12,-0.99,2.93,3.72,2.08
46.8170,0.08,0.12,-0.99,2.99,3.66,2.08
46.8330,0.08,0.11,-0.99,2.93,3.48,2.14
46.8500,0.08,0.11,-0.99,2.87,3.85,2.20
46.8660,0.08,0.11,-0.99,2.87,3.78,2.38
46.8820,0.08,0.11,-0.99,2.81,3.54,2.20
46.8980,0.08,0.12,-0.99,2.99,3.48,1.95
46.9140,0.08,0.12,-0.99,2.87,3.72,1.95
46.9290,0.07,0.11,-0.99,2.75,3.72,1.95
46.9440,0.08,0.11,-0.99,3.23,3.42,2.01
46.9600,0.07,0.11,-0.99,3.05,3.48,1.77
46.9770,0.07,0.11,-0.99,2.93,3.66,1.65
46.9930,0.08,0.11,-0.99,3.11,3.54,1.46
47.0070,0.08,0.11,-0.99,3.05,3.91,1.65
47.0230,0.08,0.12,-0.99,2.81,3.60,1.65
47.0330,0.08,0.12,-0.99,2.81,3.72,1.65
47.0500,0.09,0.12,-0.99,2.87,3.54,1.59
47.0670,0.08,0.11,-0.99,2.81,3.60,1.77
47.0830,0.08,0.11,-0.99,2.99,3.66,1.89
47.0840,0.08,0.12,-0.99,2.99,3.30,1.89
47.1150,0.08,0.11,-0.99,2.69,3.72,2.01
47.1310,0.08,0.12,-0.99,2.87,3.78,2.14
47.1460,0.08,0.11,-0.99,2.93,3.66,1.95
47.1490,0.08,0.11,-0.99,2.99,3.42,1.95
47.1770,0.08,0.11,-0.99,3.11,3.42,2.08
47.1880,0.08,0.12,-0.99,3.23,3.85,2.08
47.2050,0.08,0.11,-0.99,2.99,3.54,1.95
47.2220,0.08,0.11,-0.99,3.11,3.54,2.14
47.2380,0.08,0.11,-0.98,2.99,3.60,2.20
47.2540,0.08,0.11,-0.99,3.11,3.66,2.08
47.2710,0.08,0.11,-0.99,3.17,3.91,2.08
47.2870,0.08,0.11,-0.99,3.05,3.42,2.08
47.3030,0.08,0.11,-0.99,3.17,3.11,1.95
47.3180,0.08,0.11,-0.99,2.99,3.54,1.95
47.3220,0.08,0.11,-0.99,2.87,3.54,2.01
47.3460,0.08,0.12,-1.00,3.11,3.60,2.14
47.3550,0.08,0.11,-0.99,3.05,3.78,2.26
47.3710,0.08,0.11,-0.99,2.87,3.85,2.08
47.3880,0.08,0.11,-0.99,3.17,3.54,2.01
47.4060,0.08,0.12,-0.99,2.99,3.42,2.01
47.4210,0.08,0.12,-0.99,3.11,3.72,2.01
47.4380,0.08,0.11,-0.99,2.99,3.72,1.89
47.4530,0.08,0.11,-0.99,2.87,3.42,1.89
47.4680,0.08,0.12,-0.99,2.75,3.66,2.08
47.4830,0.08,0.11,-0.99,3.05,3.72,2.01
47.4890,0.08,0.12,-0.99,3.11,3.78,2.20
47.5060,0.08,0.11,-0.99,2.87,3.48,2.01
47.5230,0.08,0.11,-0.99,2.99,3.42,2.01
47.5390,0.08,0.12,-0.99,3.05,3.60,1.89
47.5560,0.08,0.11,-0.99,2.87,3.48,1.77
47.5730,0.08,0.12,-0.99,2.93,3.30,1.89
47.5880,0.08,0.12,-0.99,2.99,3.54,2.08
47.6030,0.08,0.12,-0.99,2.99,3.66,1.95
47.6180,0.08,0.11,-0.99,2.93,3.60,2.08
47.6230,0.08,0.11,-0.99,2.87,3.42,2.08
47.6480,0.08,0.11,-0.99,2.81,3.85,2.08
47.6570,0.08,0.11,-0.99,2.93,3.36,2.08
47.6720,0.08,0.11,-0.99,2.93,3.54,2.14
47.6890,0.08,0.11,-0.99,2.99,3.30,1.95
47.7060,0.08,0.11,-0.99,3.11,3.42,1.83
47.7230,0.08,0.11,-0.99,2.87,3.42,2.08
47.7390,0.08,0.11,-0.99,2.75,3.36,2.08
47.7560,0.08,0.12,-1.00,3.23,3.66,2.08
47.7700,0.08,0.11,-0.99,2.99,3.54,2.08
47.7860,0.08,0.11,-0.99,2.93,3.54,1.89
47.8010,0.08,0.11,-0.99,2.87,3.30,2.01
47.8170,0.08,0.11,-0.99,3.05,3.66,2.01
47.8230,0.08,0.11,-0.99,3.05,3.54,2.08
47.8470,0.08,0.12,-0.99,2.87,3.85,2.38
47.8570,0.08,0.12,-0.99,2.93,3.66,3.17
