Timestamp, AccX, AccY, AccZ, GyroX, GyroY, GyroZ
0.0100,0.06,0.15,-1.00,3.23,3.66,1.89
0.0170,0.09,0.07,-0.98,5.25,2.75,2.01
0.0340,0.09,0.16,-1.00,6.35,2.14,2.01
0.0550,0.09,0.11,-0.98,2.44,1.77,1.65
0.0670,0.08,0.13,-0.98,2.81,2.20,1.95
0.0830,0.08,0.13,-0.99,4.15,2.44,1.89
0.0990,0.08,0.13,-0.99,3.42,2.26,1.89
0.1140,0.08,0.13,-0.98,3.42,2.20,1.89
0.1300,0.08,0.13,-0.98,2.87,1.95,1.83
0.1440,0.08,0.13,-0.98,3.36,2.38,2.01
0.1590,0.08,0.13,-0.98,3.11,2.26,1.89
0.1750,0.08,0.13,-0.98,3.23,1.89,1.83
0.1890,0.08,0.13,-0.99,3.23,1.95,1.77
0.2050,0.08,0.13,-0.99,3.23,2.32,1.83
0.2160,0.08,0.13,-0.98,3.30,2.38,2.01
0.2330,0.08,0.13,-0.98,3.17,2.14,1.83
0.2500,0.08,0.13,-0.98,3.17,2.20,1.77
0.2650,0.08,0.13,-0.98,3.36,2.32,1.83
0.2800,0.08,0.13,-0.98,3.23,2.08,1.89
0.2950,0.08,0.13,-0.98,3.30,1.95,1.83
0.3010,0.08,0.13,-0.98,3.54,1.71,1.83
0.3170,0.08,0.13,-0.98,3.23,2.01,1.89
0.3330,0.08,0.13,-0.98,3.05,2.20,1.83
0.3500,0.08,0.13,-0.98,3.30,2.26,1.77
0.3670,0.08,0.13,-0.98,3.17,2.20,2.01
0.3830,0.08,0.13,-0.98,3.17,2.69,2.14
0.4000,0.08,0.13,-0.98,3.17,2.56,1.95
0.4160,0.08,0.13,-0.98,3.11,2.26,2.01
0.4330,0.08,0.13,-0.98,3.11,2.26,1.77
0.4480,0.08,0.13,-0.98,3.17,2.14,1.83
0.4650,0.08,0.13,-0.98,3.30,1.77,1.89
0.4810,0.08,0.13,-0.98,3.17,2.32,1.89
0.4970,0.08,0.13,-0.98,3.17,2.32,1.77
0.5000,0.08,0.13,-0.98,3.36,2.38,1.89
0.5150,0.08,0.13,-0.98,3.30,1.89,1.89
0.5430,0.08,0.13,-0.98,3.36,2.50,1.89
0.5540,0.08,0.13,-0.98,3.30,2.32,1.83
0.5700,0.08,0.13,-0.98,3.17,2.32,1.95
0.5870,0.08,0.13,-0.98,3.17,2.08,2.01
0.6030,0.08,0.13,-0.98,3.36,2.08,1.83
0.6190,0.08,0.13,-0.98,3.23,2.32,1.83
0.6330,0.08,0.13,-0.98,3.30,2.20,1.95
0.6380,0.08,0.13,-0.98,3.36,2.56,2.01
0.6640,0.08,0.13,-0.98,3.30,2.08,1.77
0.6710,0.08,0.13,-0.98,3.11,2.44,2.08
0.6940,0.08,0.13,-0.98,3.05,2.75,1.95
0.7030,0.08,0.13,-0.98,3.36,2.01,1.71
0.7190,0.08,0.13,-0.98,3.42,2.01,1.77
0.7400,0.08,0.13,-0.98,3.30,2.20,1.89
0.7560,0.08,0.13,-0.98,3.23,2.14,1.83
0.7720,0.08,0.13,-0.98,3.11,2.08,1.83
0.7880,0.08,0.13,-0.98,3.11,2.62,1.83
0.8050,0.08,0.13,-0.98,3.30,2.01,2.01
0.8200,0.08,0.13,-0.98,3.17,2.26,1.89
0.8360,0.08,0.13,-0.98,3.23,1.77,1.83
0.8410,0.08,0.13,-0.98,3.23,1.71,1.77
0.8570,0.08,0.13,-0.98,3.23,2.26,1.77
0.8800,0.08,0.13,-0.98,3.48,2.08,1.83
0.8960,0.08,0.13,-0.98,3.30,2.26,1.89
0.9130,0.08,0.13,-0.98,3.36,2.20,1.89
0.9290,0.08,0.13,-0.98,3.23,2.32,2.08
0.9460,0.07,0.13,-0.98,3.36,1.89,2.01
0.9620,0.08,0.12,-0.98,2.56,2.50,2.20
0.9780,0.08,0.13,-0.99,3.60,2.14,1.95
0.9940,0.08,0.13,-0.98,3.17,2.75,1.95
1.0090,0.08,0.13,-0.98,3.23,1.95,1.89
1.0250,0.08,0.12,-0.98,2.99,2.44,1.77
1.0410,0.08,0.13,-0.98,3.42,2.08,1.83
1.0560,0.08,0.13,-0.98,3.11,2.20,1.83
1.0720,0.08,0.13,-0.98,3.17,2.14,1.83
1.0880,0.08,0.13,-0.98,3.30,2.38,1.89
1.1040,0.08,0.13,-0.98,3.23,2.20,1.95
1.1190,0.08,0.13,-0.98,3.11,2.20,2.01
1.1300,0.08,0.13,-0.98,3.30,2.38,1.89
1.1460,0.08,0.13,-0.98,3.30,1.89,1.89
1.1630,0.08,0.13,-0.98,2.93,2.26,1.89
1.1800,0.08,0.13,-0.98,3.23,2.01,1.83
1.1960,0.08,0.13,-0.98,3.23,2.01,1.71
1.2120,0.08,0.13,-0.98,3.36,1.83,1.71
1.2270,0.08,0.13,-0.98,3.17,2.26,1.89
1.2420,0.08,0.13,-0.98,3.11,2.32,1.95
1.2580,0.08,0.13,-0.98,3.36,2.26,1.89
1.2740,0.08,0.13,-0.98,3.30,2.44,1.89
1.2900,0.08,0.13,-0.98,3.30,2.14,1.95
1.2960,0.08,0.13,-0.98,3.30,2.20,1.95
1.3120,0.08,0.13,-0.98,3.23,2.50,1.83
1.3350,0.08,0.13,-0.98,3.17,2.44,1.83
1.3350,0.08,0.13,-0.98,3.23,2.32,1.71
1.3530,0.08,0.13,-0.98,3.23,2.20,1.83
1.3820,0.08,0.13,-0.98,3.11,2.01,2.01
1.3930,0.08,0.13,-0.98,3.11,2.50,2.20
1.4020,0.08,0.13,-0.98,3.30,2.14,1.89
1.4180,0.08,0.13,-0.98,3.23,2.08,1.77
1.4390,0.08,0.13,-0.98,3.30,2.32,1.77
1.4570,0.08,0.13,-0.98,3.30,2.38,1.71
1.4730,0.08,0.13,-0.98,3.23,2.20,1.77
1.4900,0.08,0.13,-0.98,3.11,2.26,1.89
1.5060,0.08,0.13,-0.98,3.11,2.26,1.77
1.5060,0.08,0.13,-0.98,3.05,2.20,1.83
1.5230,0.08,0.13,-0.98,3.23,2.08,1.71
1.5400,0.08,0.13,-0.98,3.17,2.20,1.83
1.5680,0.08,0.13,-0.98,3.23,2.08,1.83
1.5840,0.08,0.13,-0.98,3.23,2.44,1.83
1.5930,0.08,0.13,-0.98,3.05,2.20,1.89
1.6140,0.08,0.13,-0.98,3.23,1.95,1.83
1.6230,0.08,0.13,-0.98,3.30,2.38,1.77
1.6390,0.08,0.13,-0.98,3.23,2.20,1.83
1.6590,0.08,0.13,-0.98,3.23,2.50,1.95
1.6620,0.08,0.13,-0.98,3.05,2.75,2.01
1.6880,0.08,0.13,-0.98,3.30,2.62,2.01
1.7040,0.08,0.13,-0.98,3.11,2.08,1.83
1.7200,0.08,0.13,-0.98,3.42,2.14,1.83
1.7360,0.08,0.13,-0.98,3.30,2.20,1.95
1.7520,0.08,0.13,-0.98,3.23,1.95,1.71
1.7670,0.08,0.13,-0.98,3.11,2.62,1.89
1.7780,0.08,0.13,-0.98,2.99,2.69,1.89
1.7940,0.08,0.13,-0.98,3.23,2.50,1.83
1.8110,0.08,0.13,-0.98,3.30,2.20,1.95
1.8280,0.08,0.13,-0.98,3.36,1.95,1.83
1.8430,0.08,0.13,-0.98,3.42,2.20,1.83
1.8590,0.08,0.13,-0.98,3.42,2.14,1.77
1.8740,0.08,0.13,-0.98,3.36,2.08,1.71
1.8770,0.08,0.13,-0.98,3.30,1.83,1.77
1.8930,0.08,0.13,-0.98,3.30,2.50,1.89
1.9170,0.08,0.13,-0.98,3.17,2.50,1.83
1.9330,0.08,0.13,-0.98,3.05,2.62,1.89
1.9500,0.08,0.13,-0.98,3.23,2.38,1.89
1.9650,0.08,0.13,-0.98,3.17,2.20,1.95
1.9670,0.08,0.13,-0.98,3.11,2.32,1.95
1.9970,0.08,0.13,-0.98,3.48,1.71,1.95
2.0130,0.08,0.13,-0.98,3.30,2.26,1.83
2.0160,0.08,0.13,-0.98,3.42,2.20,1.95
2.0310,0.08,0.13,-0.98,3.48,2.14,1.83
2.0540,0.08,0.13,-0.98,3.23,2.20,1.89
2.0710,0.08,0.13,-0.98,3.17,2.01,1.83
2.0870,0.08,0.13,-0.98,3.11,2.38,1.89
2.1030,0.08,0.13,-0.98,3.30,2.44,1.83
2.1200,0.08,0.13,-0.98,3.30,2.32,1.89
2.1360,0.08,0.13,-0.98,3.42,2.14,1.83
2.1540,0.08,0.13,-0.98,3.23,2.20,1.95
2.1680,0.08,0.13,-0.98,3.23,2.01,1.95
2.1830,0.08,0.13,-0.98,3.30,2.56,1.95
2.1980,0.08,0.13,-0.98,3.17,2.44,1.95
2.2130,0.08,0.13,-0.98,3.42,2.50,1.89
2.2280,0.08,0.13,-0.98,3.17,2.56,1.89
2.2430,0.08,0.13,-0.98,3.17,2.38,1.89
2.2530,0.08,0.13,-0.98,3.23,2.14,1.89
2.2700,0.08,0.13,-0.98,3.30,1.95,1.89
2.2880,0.08,0.13,-0.98,3.23,2.44,1.95
2.2930,0.08,0.13,-0.98,3.23,2.32,1.95
2.3040,0.08,0.13,-0.98,3.23,2.08,1.89
2.3350,0.08,0.13,-0.98,3.23,2.38,1.83
2.3500,0.08,0.13,-0.98,3.11,2.26,1.95
2.3660,0.08,0.13,-0.98,3.30,2.32,1.95
2.3700,0.09,0.13,-0.99,1.10,2.08,1.71
2.3930,0.08,0.13,-0.98,2.50,2.26,1.83
2.4120,0.08,0.13,-0.99,2.32,2.32,1.89
2.4270,0.08,0.12,-0.98,1.77,2.26,1.77
2.4380,0.08,0.12,-0.98,2.62,2.32,1.83
2.4540,0.08,0.13,-0.98,3.30,2.20,1.83
2.4710,0.08,0.13,-0.98,2.99,2.44,1.83
2.4880,0.08,0.12,-0.98,2.50,2.20,1.89
2.4940,0.08,0.07,-0.97,5.31,2.32,1.95
2.5200,0.09,0.16,-1.03,7.32,1.40,2.14
2.5340,0.08,0.13,-0.98,3.91,1.83,1.77
2.5500,0.08,0.11,-0.97,1.89,2.14,1.71
2.5540,0.08,0.15,-0.99,4.88,1.71,1.89
2.5820,0.08,0.13,-0.98,2.32,2.26,1.89
2.5970,0.08,0.14,-0.99,4.03,1.83,2.01
2.6060,0.08,0.12,-0.98,2.75,2.32,1.89
2.6210,0.08,0.13,-0.98,3.48,1.89,1.71
2.6400,0.08,0.13,-0.98,3.11,2.14,1.77
2.6560,0.08,0.13,-0.98,3.17,2.08,2.01
2.6730,0.08,0.13,-0.98,3.23,1.95,1.71
2.6890,0.08,0.13,-0.98,3.17,1.83,1.83
2.7060,0.08,0.13,-0.98,3.42,1.89,1.89
2.7220,0.08,0.13,-0.98,3.42,2.01,1.77
2.7380,0.08,0.13,-0.98,3.23,2.20,1.95
2.7540,0.08,0.13,-0.98,3.30,2.14,1.77
2.7700,0.09,0.12,-1.00,0.92,2.32,1.71
2.7850,0.08,0.14,-0.99,4.21,2.44,1.83
2.8010,0.08,0.13,-0.99,2.26,2.08,1.83
2.8070,0.08,0.12,-0.98,3.05,2.01,1.89
2.8300,0.08,0.13,-0.98,3.60,2.14,1.83
2.8390,0.08,0.13,-0.98,4.09,2.26,1.89
2.8550,0.08,0.13,-0.98,3.17,1.89,1.77
2.8760,0.08,0.12,-0.98,2.14,2.26,1.71
2.8790,0.08,0.13,-0.98,3.11,2.20,1.71
2.9060,0.08,0.12,-0.98,3.05,2.38,1.77
2.9130,0.08,0.13,-0.99,3.42,2.14,1.89
2.9290,0.08,0.13,-0.98,2.20,2.14,1.71
2.9510,0.08,0.12,-0.98,2.93,2.38,1.83
2.9680,0.08,0.13,-0.99,2.75,2.20,1.77
2.9840,0.08,0.13,-0.98,2.50,2.08,1.71
2.9950,0.08,0.12,-0.98,2.93,2.01,1.95
3.0150,0.08,0.12,-0.98,4.03,1.95,1.95
3.0170,0.08,0.13,-0.98,4.76,2.14,1.83
3.0350,0.08,0.13,-0.98,4.76,1.89,2.08
3.0510,0.08,0.13,-0.99,4.82,1.77,2.01
3.0740,0.08,0.13,-0.98,3.78,2.38,1.89
3.0900,0.08,0.13,-0.98,3.42,1.95,1.83
3.1070,0.08,0.13,-0.98,3.72,1.59,1.77
3.1230,0.08,0.13,-0.98,3.42,2.01,1.83
3.1390,0.08,0.13,-0.98,2.99,2.14,1.71
3.1560,0.08,0.13,-0.98,2.75,2.44,2.01
3.1720,0.15,0.15,-0.97,3.48,1.53,1.28
3.1740,0.10,0.15,-0.98,3.30,2.32,-0.85
3.1950,0.05,0.12,-0.99,3.72,2.44,-0.98
3.2180,0.06,0.12,-0.98,3.36,2.14,-0.43
3.2290,0.07,0.13,-0.99,3.48,2.56,0.92
3.2450,0.10,0.14,-0.98,2.81,2.50,1.16
3.2610,0.11,0.13,-0.97,1.53,2.93,-0.37
3.2780,0.09,0.15,-0.97,1.95,2.93,-2.50
3.2960,0.06,0.12,-0.98,3.91,3.17,-2.99
3.3110,0.06,0.10,-0.99,4.64,2.44,-2.62
3.3260,0.07,0.13,-0.98,3.48,2.69,2.08
3.3410,0.08,0.12,-0.97,3.30,2.20,3.11
3.3450,0.08,0.11,-0.98,3.85,2.38,2.69
3.3610,0.08,0.13,-0.98,4.64,1.95,2.08
3.3840,0.09,0.14,-0.99,3.60,2.01,1.53
3.4020,0.10,0.14,-0.98,3.30,2.01,0.79
3.4170,0.07,0.13,-0.98,3.11,2.20,0.00
3.4350,0.06,0.13,-0.98,2.87,2.38,0.55
3.4360,0.07,0.11,-0.97,2.44,2.26,0.55
3.4520,0.08,0.13,-0.99,3.54,1.83,1.71
3.4830,0.08,0.13,-0.99,3.23,1.95,1.83
3.4950,0.08,0.12,-0.98,3.23,2.14,1.89
3.5140,0.08,0.13,-0.98,3.36,1.77,1.89
3.5310,0.04,0.15,-0.98,3.85,2.08,1.89
3.5470,0.09,0.12,-0.98,4.03,2.44,2.50
3.5630,0.09,0.13,-0.98,3.30,2.26,3.23
3.5710,0.08,0.14,-0.98,2.87,1.77,4.03
3.5930,0.09,0.12,-0.98,2.50,1.65,4.15
3.6080,0.09,0.13,-0.98,2.32,2.01,3.60
3.6210,0.07,0.13,-0.98,2.44,1.95,3.54
3.6370,0.09,0.12,-0.98,2.62,1.89,3.42
3.6530,0.08,0.13,-0.98,3.11,1.77,2.14
3.6700,0.07,0.14,-0.98,2.75,2.44,2.38
3.6720,0.09,0.13,-0.98,2.81,1.77,3.60
3.7010,0.09,0.12,-0.98,3.17,2.01,3.91
3.7170,0.08,0.12,-0.98,3.60,1.83,3.91
3.7330,0.08,0.12,-0.99,3.97,1.59,3.48
3.7370,0.08,0.13,-0.98,3.30,1.83,2.14
3.7530,0.08,0.14,-0.98,3.23,2.01,2.75
3.7800,0.08,0.12,-0.98,3.17,2.20,3.17
3.7910,0.08,0.12,-0.98,2.87,2.69,2.44
3.8070,0.08,0.14,-0.98,3.54,2.32,2.56
3.8250,0.08,0.14,-0.98,3.85,1.95,3.05
3.8410,0.08,0.11,-0.98,4.15,2.38,1.46
3.8570,0.08,0.13,-0.98,3.85,2.20,1.53
3.8720,0.08,0.13,-0.99,2.81,2.44,1.77
3.8890,0.08,0.13,-0.98,2.87,2.26,2.08
3.9060,0.08,0.13,-0.98,3.11,2.08,2.08
3.9220,0.08,0.13,-0.98,3.05,1.71,2.75
3.9380,0.08,0.13,-0.99,2.81,1.71,2.75
3.9540,0.08,0.15,-0.97,2.32,1.95,2.50
3.9690,0.08,0.15,-0.99,3.05,2.44,3.23
3.9850,0.08,0.12,-0.98,2.20,2.69,2.56
4.0000,0.08,0.13,-0.98,2.20,2.99,3.05
4.0150,0.07,0.11,-0.99,3.66,2.01,1.89
4.0300,0.08,0.12,-0.99,2.87,2.08,2.01
4.0410,0.08,0.13,-0.98,2.32,2.62,1.83
4.0590,0.08,0.13,-0.98,3.36,2.01,1.83
4.0740,0.08,0.12,-0.98,3.05,2.69,2.01
4.0910,0.08,0.13,-0.98,3.72,2.38,2.20
4.1070,0.08,0.13,-0.98,3.60,2.20,2.08
4.1230,0.08,0.14,-0.98,3.23,2.01,3.36
4.1390,0.09,0.13,-0.98,3.05,1.53,5.25
4.1540,0.09,0.13,-1.00,3.42,1.71,5.00
4.1710,0.08,0.12,-0.99,2.93,1.89,4.09
4.1750,0.08,0.12,-0.99,2.69,2.56,2.93
4.2030,0.07,0.12,-0.99,3.30,2.20,2.75
4.2200,0.07,0.12,-0.98,3.48,2.62,2.20
4.2360,0.08,0.13,-0.99,3.97,2.01,1.89
4.2520,0.08,0.13,-0.99,2.93,2.08,1.77
4.2680,0.08,0.13,-0.98,2.62,2.44,1.89
4.2840,0.08,0.13,-0.98,2.93,2.20,2.38
4.2990,0.08,0.13,-0.98,3.48,1.83,2.20
4.3150,0.08,0.13,-0.98,2.87,2.26,1.89
4.3290,0.08,0.13,-0.98,2.99,2.38,1.77
4.3410,0.09,0.14,-0.97,3.54,1.89,3.42
4.3580,0.08,0.11,-0.98,3.23,1.89,4.09
4.3740,0.08,0.11,-0.98,2.93,1.65,3.30
4.3910,0.07,0.11,-1.00,2.87,2.01,1.77
4.4060,0.08,0.12,-0.98,3.23,2.20,1.77
4.4230,0.08,0.13,-0.98,3.48,1.89,1.89
4.4380,0.08,0.13,-0.98,3.60,1.95,1.95
4.4550,0.08,0.12,-0.98,2.75,2.69,1.71
4.4710,0.08,0.13,-0.99,3.30,2.20,1.95
4.4870,0.08,0.13,-0.98,3.11,2.26,2.01
4.5040,0.08,0.14,-0.99,3.11,1.95,3.30
4.5200,0.08,0.12,-0.99,2.08,1.77,4.88
4.5360,0.09,0.11,-0.98,2.56,1.95,3.23
4.5520,0.09,0.12,-0.97,3.23,2.26,1.95
4.5670,0.08,0.13,-0.98,3.48,2.08,1.95
4.5810,0.08,0.13,-0.99,3.42,2.20,2.01
4.5960,0.08,0.13,-0.98,3.42,2.44,1.95
4.6070,0.08,0.13,-0.98,3.36,1.95,3.23
4.6250,0.08,0.13,-0.98,2.75,1.83,3.78
4.6410,0.08,0.13,-0.99,2.99,1.53,3.48
4.6570,0.08,0.12,-0.98,2.87,2.01,3.36
4.6730,0.08,0.12,-0.98,3.60,2.38,2.38
4.6890,0.08,0.14,-0.98,3.23,2.20,2.81
4.7060,0.08,0.14,-0.98,3.23,2.14,3.66
4.7220,0.07,0.15,-0.98,3.17,1.53,5.80
4.7370,0.09,0.12,-0.99,4.52,1.46,5.25
4.7540,0.08,0.12,-0.98,2.87,1.71,4.64
4.7690,0.07,0.14,-0.96,2.50,1.71,5.43
4.7850,0.10,0.14,-0.99,4.15,1.83,7.02
4.8010,0.08,0.11,-0.98,2.50,2.56,3.23
4.8170,0.08,0.10,-0.99,3.36,1.89,3.17
4.8320,0.08,0.12,-0.98,3.36,2.01,1.89
4.8410,0.08,0.13,-0.98,3.42,2.01,1.89
4.8570,0.08,0.13,-0.99,3.48,2.14,1.83
4.8780,0.08,0.13,-0.98,2.93,2.26,1.65
4.8800,0.08,0.13,-0.98,3.30,1.83,1.83
4.9090,0.08,0.13,-0.98,3.17,2.32,1.89
4.9250,0.08,0.13,-0.99,3.72,2.38,1.83
4.9390,0.08,0.13,-0.98,3.91,2.26,1.89
4.9540,0.08,0.13,-0.98,3.42,2.32,1.89
4.9700,0.08,0.13,-0.98,2.50,2.56,1.77
4.9810,0.08,0.13,-0.98,2.50,2.38,1.83
4.9970,0.08,0.13,-0.98,2.81,2.01,2.75
5.0170,0.08,0.13,-0.98,3.05,2.20,3.78
5.0320,0.08,0.14,-0.98,2.87,2.26,4.88
5.0470,0.09,0.14,-0.97,3.23,2.14,5.86
5.0620,0.08,0.13,-0.98,3.05,1.46,5.07
5.0770,0.08,0.14,-1.00,4.76,1.65,4.09
5.0930,0.07,0.12,-0.99,2.38,2.38,2.99
5.1020,0.08,0.13,-0.98,2.93,2.01,3.30
5.1180,0.07,0.12,-0.98,3.66,1.95,2.50
5.1350,0.07,0.12,-0.99,3.42,2.01,2.69
5.1510,0.08,0.12,-0.99,3.72,1.71,3.11
5.1690,0.08,0.13,-0.98,3.42,1.95,3.60
5.1750,0.08,0.13,-0.98,2.99,1.83,4.27
5.2000,0.08,0.13,-0.98,3.11,1.77,4.21
5.2150,0.07,0.12,-0.99,2.81,1.95,3.66
5.2300,0.08,0.13,-0.98,2.50,2.08,3.17
5.2410,0.08,0.14,-0.99,3.42,1.89,4.27
5.2570,0.07,0.13,-0.99,2.93,1.95,4.09
5.2730,0.07,0.13,-0.99,2.69,1.77,3.66
5.2910,0.08,0.13,-1.00,3.30,1.65,4.03
5.3070,0.08,0.11,-0.98,2.26,1.77,3.23
5.3090,0.08,0.13,-0.98,3.30,2.32,2.62
5.3250,0.08,0.13,-0.98,3.11,2.32,2.20
5.3470,0.08,0.13,-0.98,3.42,2.01,2.14
5.3640,0.08,0.13,-0.98,3.91,1.77,1.95
5.3800,0.07,0.12,-0.98,2.81,1.89,1.89
5.3980,0.08,0.13,-0.98,2.99,1.89,1.83
5.4140,0.08,0.12,-0.98,2.62,1.95,1.71
5.4300,0.08,0.13,-0.98,3.17,2.14,1.83
5.4470,0.08,0.13,-0.98,3.60,2.20,1.89
5.4630,0.08,0.13,-0.98,4.27,2.01,1.83
5.4790,0.08,0.13,-0.98,3.54,1.95,1.83
5.4950,0.08,0.13,-0.98,2.87,1.89,1.89
5.5100,0.08,0.13,-0.98,2.87,2.08,1.77
5.5140,0.08,0.13,-0.98,2.99,2.26,2.44
5.5300,0.08,0.13,-0.98,3.23,1.71,2.75
5.5520,0.08,0.13,-0.98,3.42,1.65,3.17
5.5690,0.08,0.12,-0.98,2.44,2.14,2.32
5.5860,0.08,0.14,-0.98,2.99,1.89,2.14
5.6020,0.08,0.14,-0.98,2.99,2.14,3.42
5.6190,0.08,0.13,-0.98,3.17,2.26,3.78
5.6350,0.08,0.13,-0.97,3.30,1.46,3.17
5.6510,0.08,0.13,-0.98,3.60,1.89,2.38
5.6670,0.08,0.12,-0.98,3.42,2.08,2.26
5.6830,0.08,0.12,-0.98,2.75,2.50,2.08
5.6980,0.08,0.14,-0.98,3.66,2.01,3.36
5.7140,0.08,0.12,-0.98,3.54,1.53,3.48
5.7210,0.08,0.13,-0.98,3.11,2.14,2.81
5.7470,0.09,0.14,-0.97,2.56,1.46,3.72
5.7540,0.08,0.11,-0.98,2.32,2.14,2.32
5.7700,0.08,0.12,-0.99,3.36,2.56,2.32
5.7850,0.09,0.12,-0.98,2.32,2.32,2.99
5.8080,0.08,0.13,-0.98,3.48,1.83,2.50
5.8230,0.08,0.12,-0.98,3.05,2.14,2.01
5.8390,0.08,0.13,-0.99,3.36,1.95,1.77
5.8540,0.08,0.13,-0.98,2.99,1.89,1.83
5.8700,0.08,0.13,-0.98,2.99,2.01,2.26
5.8860,0.08,0.13,-0.98,3.17,2.14,2.93
5.9020,0.08,0.12,-0.98,3.23,1.95,3.17
5.9180,0.08,0.13,-0.98,3.48,2.20,3.23
5.9320,0.08,0.12,-0.98,3.30,2.32,2.75
5.9470,0.08,0.13,-0.98,2.87,2.14,2.75
5.9590,0.08,0.13,-0.98,3.30,1.83,3.23
5.9750,0.08,0.13,-0.98,3.36,1.95,3.54
5.9910,0.07,0.12,-0.98,3.23,2.32,2.81
6.0080,0.08,0.12,-0.98,2.93,1.95,2.32
6.0240,0.08,0.13,-0.98,3.05,2.01,2.38
6.0400,0.07,0.13,-0.98,3.23,2.32,3.30
6.0560,0.08,0.13,-1.00,3.54,1.71,3.66
6.0590,0.08,0.12,-0.98,2.26,2.32,2.75
6.0740,0.08,0.14,-0.99,3.11,2.20,2.87
6.0970,0.09,0.13,-0.98,2.62,2.38,2.81
6.1130,0.08,0.12,-0.99,3.60,1.89,2.44
6.1300,0.08,0.12,-0.99,2.81,2.14,1.83
6.1460,0.08,0.12,-0.99,2.93,1.95,1.89
6.1620,0.08,0.13,-0.98,3.05,2.26,2.01
6.1780,0.08,0.13,-0.98,3.05,2.14,2.01
6.1940,0.08,0.13,-0.98,3.05,2.20,2.62
6.2090,0.08,0.12,-0.98,3.11,1.89,3.36
6.2240,0.08,0.12,-0.99,3.36,2.01,2.87
6.2380,0.08,0.13,-0.99,3.48,2.32,2.69
6.2530,0.08,0.12,-0.98,3.17,2.08,2.99
6.2680,0.08,0.13,-0.98,3.23,1.89,2.32
6.2800,0.08,0.13,-0.98,3.30,1.89,2.14
6.2970,0.08,0.12,-0.98,2.99,2.08,2.14
6.3120,0.08,0.13,-0.98,3.42,1.95,2.08
6.3290,0.08,0.13,-0.99,3.66,1.89,2.14
6.3460,0.08,0.13,-0.98,2.93,2.08,2.56
6.3620,0.08,0.12,-0.98,2.93,1.95,3.17
6.3780,0.07,0.13,-0.99,3.36,2.01,2.75
6.3940,0.08,0.12,-0.99,2.99,2.08,3.05
6.4100,0.08,0.14,-0.98,3.11,2.01,3.17
6.4130,0.08,0.13,-0.98,3.11,1.89,3.48
6.4280,0.09,0.15,-0.98,3.48,1.89,5.19
6.4500,0.08,0.12,-0.98,1.89,1.89,3.36
6.4660,0.08,0.14,-0.99,2.93,1.77,2.93
6.4820,0.09,0.13,-0.98,3.42,1.83,3.60
6.5000,0.07,0.11,-0.98,2.93,2.44,3.23
6.5170,0.07,0.10,-0.99,3.17,1.89,2.93
6.5340,0.08,0.11,-0.99,3.17,2.01,2.75
6.5500,0.08,0.13,-0.98,2.93,1.65,2.26
6.5660,0.08,0.13,-0.99,3.17,1.53,3.05
6.5810,0.08,0.12,-0.98,2.56,1.53,2.50
6.5970,0.08,0.13,-0.99,3.05,2.01,2.08
6.6000,0.08,0.13,-0.98,2.99,1.71,1.77
6.6290,0.08,0.13,-0.98,2.87,1.89,2.08
6.6450,0.08,0.13,-0.98,3.17,2.01,2.69
6.6510,0.08,0.13,-0.98,3.05,1.59,2.93
6.6670,0.08,0.13,-0.98,3.66,1.65,2.69
6.6840,0.08,0.13,-0.99,3.85,1.89,3.42
6.7000,0.08,0.12,-0.98,3.17,2.01,5.25
6.7180,0.08,0.12,-0.98,3.54,1.71,4.21
6.7340,0.07,0.14,-0.97,3.05,1.95,4.76
6.7500,0.08,0.11,-0.98,2.38,1.77,4.03
6.7660,0.07,0.12,-0.99,3.30,1.95,2.38
6.7830,0.08,0.12,-0.99,3.23,2.20,2.75
6.7990,0.08,0.12,-0.98,2.81,2.32,2.32
6.8140,0.08,0.13,-0.99,3.05,2.01,2.44
6.8170,0.08,0.13,-0.99,3.23,1.40,2.38
6.8330,0.08,0.13,-0.98,3.11,2.01,2.56
6.8610,0.08,0.12,-0.98,3.60,2.08,2.87
6.8730,0.08,0.13,-0.99,3.36,2.32,2.69
6.8900,0.07,0.11,-0.99,3.17,1.77,2.14
6.9070,0.08,0.13,-0.99,3.78,1.77,1.83
6.9220,0.08,0.13,-0.99,2.99,2.01,1.83
6.9380,0.08,0.13,-0.98,2.81,1.95,1.83
6.9540,0.08,0.14,-0.98,3.17,1.65,2.38
6.9700,0.08,0.13,-0.98,3.17,1.77,2.93
6.9850,0.08,0.12,-0.98,3.05,1.89,2.26
6.9970,0.08,0.13,-0.98,3.11,1.89,2.08
7.0050,0.07,0.14,-0.98,3.60,1.46,2.99
7.0280,0.07,0.12,-0.99,3.85,1.95,2.81
7.0450,0.08,0.12,-0.98,3.30,1.89,2.44
7.0610,0.08,0.13,-0.98,3.42,1.95,1.77
7.0780,0.08,0.13,-0.98,3.11,2.44,1.89
7.0940,0.08,0.13,-0.98,3.36,2.56,1.71
7.1100,0.08,0.13,-0.98,3.23,2.14,1.77
7.1250,0.08,0.13,-0.98,3.42,1.89,1.95
7.1280,0.08,0.13,-0.98,3.42,2.56,1.89
7.1440,0.08,0.13,-0.98,3.30,2.20,2.01
7.1670,0.08,0.13,-0.98,3.60,2.14,2.38
7.1840,0.08,0.12,-0.98,2.87,2.14,1.95
7.2000,0.08,0.13,-0.99,3.30,2.01,1.83
7.2160,0.08,0.13,-0.98,2.87,1.83,1.89
7.2240,0.08,0.13,-0.98,3.23,1.83,2.26
7.2460,0.08,0.13,-0.98,3.23,1.71,2.75
7.2570,0.08,0.14,-0.98,3.54,2.08,3.36
7.2740,0.08,0.13,-0.98,3.11,2.20,3.42
7.2900,0.08,0.14,-0.98,2.62,2.26,3.66
7.3070,0.08,0.14,-0.98,2.75,2.20,4.09
7.3220,0.09,0.13,-0.98,3.05,1.59,4.46
7.3360,0.07,0.13,-0.99,3.54,1.95,4.64
7.3530,0.10,0.14,-0.99,4.27,0.98,6.90
7.3630,0.08,0.12,-0.98,2.01,2.14,3.66
7.3800,0.07,0.11,-0.99,3.42,1.77,3.30
7.3980,0.07,0.11,-0.99,2.56,1.95,2.93
7.4130,0.08,0.13,-0.99,3.05,1.65,2.26
7.4290,0.08,0.13,-0.98,3.17,2.08,2.14
7.4460,0.08,0.13,-0.98,3.05,2.08,2.69
7.4630,0.08,0.13,-0.99,2.69,1.71,3.30
7.4780,0.08,0.12,-0.98,2.44,2.32,2.93
7.4950,0.08,0.13,-0.97,2.75,2.14,3.17
7.5090,0.08,0.12,-0.99,3.30,1.40,3.48
7.5240,0.08,0.13,-0.98,3.36,2.08,2.69
7.5400,0.08,0.13,-0.99,3.11,2.01,2.32
7.5560,0.08,0.13,-0.98,2.69,2.26,2.08
7.5710,0.08,0.13,-0.98,3.30,2.32,2.56
7.5860,0.08,0.13,-0.99,4.39,2.01,2.69
7.5990,0.08,0.13,-0.99,4.52,2.08,2.56
7.6120,0.09,0.13,-0.98,3.54,1.40,3.42
7.6320,0.08,0.12,-0.98,3.36,1.65,2.93
7.6480,0.08,0.13,-0.98,2.93,1.53,3.60
7.6630,0.08,0.12,-0.98,3.36,1.89,3.23
7.6690,0.08,0.13,-0.99,3.05,1.95,3.48
7.6940,0.08,0.12,-0.98,3.05,2.01,3.30
7.7090,0.08,0.13,-0.98,3.17,2.08,2.81
7.7240,0.09,0.15,-0.97,2.44,1.46,4.46
7.7340,0.07,0.12,-0.98,1.16,1.89,3.11
7.7520,0.07,0.12,-0.98,2.93,1.71,3.60
7.7680,0.08,0.12,-0.99,1.95,2.26,3.30
7.7840,0.08,0.13,-0.98,2.01,2.44,2.75
7.8010,0.07,0.11,-0.98,3.05,2.26,2.26
7.8180,0.08,0.12,-0.97,3.11,1.89,3.42
7.8340,0.08,0.12,-0.98,2.87,2.01,2.62
7.8490,0.08,0.12,-0.98,3.54,1.83,3.23
7.8640,0.08,0.12,-0.98,3.72,1.89,2.69
7.8790,0.08,0.12,-0.98,3.72,1.65,2.44
7.8940,0.08,0.13,-0.98,3.30,1.95,2.08
7.9090,0.08,0.12,-0.99,3.36,1.95,2.32
7.9240,0.08,0.13,-0.99,3.17,2.20,2.38
7.9350,0.08,0.13,-0.98,2.93,2.44,2.08
7.9510,0.07,0.13,-0.98,2.75,2.20,2.62
7.9680,0.08,0.13,-0.98,2.50,1.95,3.48
7.9840,0.07,0.13,-0.98,2.62,2.50,4.27
8.0010,0.08,0.12,-0.99,2.69,2.32,3.36
8.0170,0.08,0.12,-0.98,2.87,1.77,2.93
8.0320,0.08,0.13,-0.98,3.60,2.08,3.54
8.0470,0.08,0.12,-0.98,3.36,1.59,3.66
8.0620,0.07,0.12,-0.99,3.17,1.77,2.62
8.0770,0.07,0.13,-0.99,2.08,2.08,3.11
8.0840,0.08,0.13,-0.99,2.20,1.40,4.46
8.1000,0.07,0.14,-0.98,2.62,1.53,5.31
8.1230,0.08,0.14,-0.98,1.89,1.59,6.29
8.1380,0.09,0.14,-0.97,1.46,1.59,7.08
8.1520,0.08,0.12,-0.99,2.08,2.14,4.52
8.1680,0.08,0.12,-0.98,1.46,2.32,5.13
8.1740,0.08,0.12,-0.98,2.81,1.89,6.04
8.1980,0.06,0.13,-0.99,2.50,1.89,6.16
8.2130,0.08,0.12,-0.99,2.93,1.89,6.77
8.2280,0.08,0.11,-0.98,2.14,1.65,5.98
8.2390,0.08,0.11,-0.99,2.50,1.83,5.31
8.2560,0.09,0.12,-0.99,2.87,1.77,2.69
8.2720,0.08,0.12,-0.98,1.89,2.62,2.50
8.2880,0.08,0.11,-0.97,2.99,2.01,2.38
8.3030,0.07,0.12,-0.99,3.97,2.01,1.53
8.3180,0.08,0.12,-0.99,3.11,1.89,1.89
8.3340,0.08,0.12,-0.98,2.99,1.71,2.01
8.3490,0.07,0.13,-0.98,3.36,1.77,2.08
8.3560,0.07,0.12,-0.98,3.36,2.08,2.38
8.3790,0.08,0.13,-0.99,4.21,1.65,2.08
8.3940,0.08,0.13,-0.98,3.11,2.38,2.50
8.4060,0.08,0.12,-0.99,2.87,2.14,2.62
8.4230,0.09,0.12,-0.99,1.89,2.50,3.30
8.4390,0.08,0.12,-0.98,1.04,2.93,3.23
8.4540,0.08,0.11,-0.98,4.03,1.77,2.56
8.4700,0.08,0.13,-0.99,6.10,1.16,1.95
8.4860,0.08,0.13,-0.99,4.39,2.01,1.89
8.5020,0.08,0.12,-0.98,3.54,2.14,1.71
8.5180,0.08,0.13,-0.99,2.99,2.26,1.65
8.5340,0.08,0.12,-0.98,2.75,2.38,2.01
8.5400,0.08,0.12,-0.98,3.05,2.56,2.01
8.5560,0.08,0.12,-0.98,3.05,2.38,2.56
8.5780,0.08,0.12,-0.99,2.99,2.56,2.44
8.5950,0.08,0.12,-0.98,2.93,2.20,1.89
8.6110,0.08,0.13,-0.98,2.99,2.01,2.01
8.6270,0.08,0.13,-0.98,3.36,1.71,1.95
8.6430,0.08,0.12,-0.98,4.15,1.77,1.83
8.6580,0.08,0.11,-0.99,3.91,2.01,2.69
8.6730,0.08,0.13,-0.98,3.85,1.89,2.56
8.6780,0.07,0.13,-0.98,3.42,1.89,2.87
8.6990,0.08,0.13,-0.98,3.23,1.89,2.81
8.7160,0.08,0.13,-0.98,3.17,2.08,3.17
8.7340,0.08,0.13,-0.98,2.50,2.14,4.09
8.7500,0.08,0.13,-0.98,2.93,2.08,4.27
8.7500,0.08,0.13,-0.98,2.69,1.65,5.31
8.7670,0.07,0.13,-0.99,2.56,1.71,5.86
8.7830,0.10,0.15,-0.96,2.38,1.28,9.22
8.8000,0.09,0.10,-0.99,3.36,1.16,5.86
8.8150,0.08,0.11,-0.98,2.44,2.01,5.31
8.8320,0.09,0.12,-0.96,2.44,1.59,5.49
8.8490,0.08,0.11,-0.99,3.66,1.95,2.62
8.8660,0.06,0.09,-0.99,3.17,2.38,2.14
8.8840,0.08,0.12,-0.98,2.93,2.01,1.83
8.9000,0.08,0.13,-0.98,3.85,2.01,1.71
8.9180,0.08,0.12,-0.98,3.23,2.08,1.83
8.9340,0.08,0.12,-0.98,2.87,2.14,1.77
8.9500,0.08,0.13,-0.98,2.75,2.26,1.83
8.9530,0.07,0.13,-0.98,2.56,2.08,2.62
8.9810,0.08,0.12,-0.98,3.17,1.59,2.56
8.9960,0.08,0.13,-0.99,2.99,1.95,2.20
9.0070,0.08,0.13,-0.99,3.05,2.38,3.11
9.0240,0.08,0.13,-0.98,2.50,2.26,3.48
9.0400,0.07,0.13,-0.98,1.95,2.38,4.52
9.0560,0.08,0.12,-0.98,2.32,1.77,4.33
9.0630,0.08,0.13,-0.99,3.36,1.89,3.11
9.0860,0.08,0.12,-0.98,2.99,1.83,2.62
9.1010,0.07,0.11,-0.99,3.42,1.83,1.77
9.1130,0.08,0.12,-0.99,2.99,2.01,2.38
9.1290,0.08,0.13,-0.99,3.30,2.08,2.32
9.1460,0.08,0.13,-0.98,3.11,1.89,2.87
9.1620,0.08,0.13,-0.98,3.23,2.32,2.75
9.1760,0.09,0.13,-0.98,3.17,1.89,3.11
9.1920,0.08,0.12,-0.99,3.17,1.89,2.75
9.2070,0.07,0.12,-0.98,3.17,2.08,3.66
9.2230,0.07,0.11,-0.98,3.11,2.32,3.48
9.2380,0.08,0.12,-0.98,3.17,1.89,3.30
9.2460,0.07,0.11,-0.99,2.99,2.08,2.87
9.2620,0.08,0.12,-0.98,2.93,2.01,2.44
9.2840,0.08,0.13,-0.99,3.05,1.77,2.44
9.3000,0.08,0.14,-0.98,2.81,2.08,3.66
9.3160,0.09,0.14,-0.98,2.69,2.44,4.64
9.3310,0.07,0.13,-0.98,3.11,1.89,4.15
9.3460,0.08,0.13,-0.98,2.50,1.59,5.31
9.3620,0.07,0.12,-0.98,3.05,1.34,5.07
9.3770,0.07,0.12,-0.99,3.05,1.34,5.13
9.3930,0.08,0.11,-0.98,2.99,1.40,4.88
9.4080,0.07,0.11,-0.99,3.17,2.08,4.70
9.4190,0.07,0.11,-0.99,2.93,1.71,4.33
9.4340,0.07,0.12,-0.99,2.75,2.20,3.72
9.4510,0.07,0.12,-0.98,2.69,1.77,3.60
9.4680,0.07,0.15,-0.98,2.20,1.77,4.52
9.4850,0.09,0.13,-0.98,2.38,2.26,6.59
9.5000,0.07,0.12,-0.98,2.56,2.62,4.46
9.5160,0.07,0.11,-0.98,3.17,1.71,4.39
9.5320,0.07,0.10,-0.99,2.75,1.71,3.54
9.5490,0.07,0.12,-0.99,1.83,2.44,2.69
9.5640,0.07,0.13,-0.98,2.14,2.20,3.54
9.5800,0.08,0.13,-0.98,2.01,2.32,4.70
9.5960,0.07,0.13,-0.98,2.26,1.65,5.74
9.6020,0.06,0.13,-1.00,2.26,1.53,5.25
9.6260,0.10,0.14,-0.98,2.44,2.08,6.90
9.6410,0.07,0.12,-0.98,2.99,2.44,5.00
9.6510,0.08,0.11,-0.99,3.30,1.89,5.55
9.6670,0.08,0.11,-0.99,2.56,1.89,4.58
9.6870,0.07,0.10,-0.99,1.65,2.38,3.60
9.7020,0.07,0.11,-0.98,1.53,2.38,3.66
9.7180,0.08,0.12,-0.98,2.01,1.59,4.76
9.7330,0.08,0.11,-0.98,2.87,1.46,4.39
9.7500,0.07,0.11,-0.99,3.42,1.65,3.30
9.7660,0.07,0.12,-0.98,2.01,1.83,3.85
9.7820,0.08,0.11,-0.98,1.46,1.95,3.54
9.7890,0.07,0.12,-0.99,2.38,1.65,4.27
9.8040,0.07,0.13,-1.00,0.73,1.89,4.64
9.8260,0.08,0.14,-0.96,-1.53,2.01,7.20
9.8420,0.08,0.10,-0.97,0.55,1.89,7.02
9.8600,0.08,0.11,-0.99,2.99,1.28,6.35
9.8750,0.09,0.13,-0.97,-1.83,1.77,8.91
9.8910,0.10,0.12,-0.97,0.49,2.38,6.04
9.9060,0.06,0.09,-0.99,2.69,1.95,4.64
9.9220,0.07,0.11,-1.00,2.14,1.59,6.16
9.9370,0.09,0.11,-0.97,-0.85,1.77,8.12
9.9520,0.08,0.09,-0.98,2.56,1.59,5.92
9.9680,0.08,0.10,-0.99,3.78,1.65,4.70
9.9830,0.08,0.10,-0.99,2.99,2.44,4.21
9.9940,0.08,0.10,-0.98,3.30,2.01,3.85
10.0100,0.07,0.11,-0.99,4.15,1.83,2.81
10.0270,0.08,0.11,-0.99,3.30,1.95,2.20
10.0430,0.07,0.11,-0.99,3.30,2.44,2.32
10.0600,0.08,0.10,-0.98,3.78,1.95,1.95
10.0750,0.07,0.11,-0.99,3.78,2.26,1.83
10.0900,0.08,0.11,-0.99,4.15,2.32,2.26
10.1050,0.07,0.12,-0.99,3.30,2.14,2.26
10.1110,0.07,0.11,-0.98,3.17,1.89,2.01
10.1260,0.08,0.13,-0.98,4.94,1.46,2.50
10.1520,0.08,0.12,-0.99,5.37,1.71,2.44
10.1630,0.08,0.12,-0.99,4.46,2.81,3.36
10.1800,0.09,0.10,-0.98,2.32,2.26,3.23
10.1960,0.07,0.11,-0.98,2.32,2.50,1.65
10.2140,0.07,0.11,-0.97,3.30,2.32,2.69
10.2300,0.06,0.10,-0.99,5.00,1.71,2.38
10.2460,0.08,0.12,-0.99,4.58,1.83,2.01
10.2610,0.08,0.12,-0.99,3.60,2.20,2.08
10.2780,0.07,0.12,-0.98,3.60,1.89,2.50
10.2930,0.08,0.12,-0.99,3.23,2.26,2.62
10.3090,0.07,0.11,-0.98,1.22,2.75,1.89
10.3130,0.07,0.11,-0.99,2.69,2.38,2.26
10.3290,0.08,0.12,-0.99,2.69,2.32,2.56
10.3510,0.08,0.12,-0.98,3.11,2.62,2.81
10.3690,0.07,0.12,-0.99,3.78,1.83,3.36
10.3840,0.07,0.11,-0.99,3.97,2.32,2.81
10.4010,0.08,0.12,-0.99,3.17,2.62,2.56
10.4170,0.08,0.12,-0.98,3.30,2.50,2.32
10.4340,0.08,0.12,-0.99,4.03,2.08,2.50
10.4500,0.08,0.11,-0.98,2.50,1.95,3.30
10.4660,0.07,0.10,-0.98,3.11,2.26,2.26
10.4830,0.08,0.12,-0.98,4.39,2.20,2.99
10.4990,0.07,0.11,-1.00,4.64,2.32,2.08
10.5020,0.07,0.11,-0.98,3.85,2.20,2.38
10.5310,0.08,0.12,-0.98,4.46,1.77,2.93
10.5460,0.08,0.12,-0.99,4.09,1.95,2.81
10.5610,0.08,0.12,-0.99,3.72,2.08,2.14
10.5760,0.08,0.12,-0.99,2.20,2.75,1.77
10.5850,0.08,0.12,-0.98,2.26,2.56,2.14
10.6010,0.08,0.12,-0.98,3.30,2.01,3.23
10.6180,0.07,0.12,-0.99,3.23,2.32,3.72
10.6350,0.07,0.10,-0.98,3.30,2.20,3.17
10.6510,0.07,0.11,-0.99,3.60,2.20,2.32
10.6660,0.09,0.12,-0.98,2.32,2.26,2.20
10.6810,0.08,0.11,-0.98,2.93,2.62,1.95
10.6950,0.07,0.11,-0.99,3.54,2.26,2.08
10.7110,0.07,0.12,-0.99,3.23,2.38,2.87
10.7180,0.07,0.11,-0.99,2.99,2.44,2.32
10.7350,0.07,0.11,-0.99,3.17,1.59,2.20
10.7560,0.08,0.12,-0.99,2.81,1.83,1.95
10.7680,0.08,0.11,-0.98,3.11,1.77,2.01
10.7840,0.08,0.12,-0.99,3.60,1.89,1.89
10.8010,0.08,0.12,-0.99,2.32,2.69,1.89
10.8170,0.08,0.12,-0.98,2.14,2.56,2.38
10.8320,0.08,0.12,-0.98,2.26,2.69,2.38
10.8490,0.08,0.12,-0.98,3.30,2.26,2.44
10.8640,0.07,0.13,-0.99,3.05,2.62,3.42
10.8670,0.07,0.10,-0.99,2.38,2.56,2.14
10.8820,0.07,0.12,-0.99,3.05,2.38,2.87
10.9100,0.07,0.12,-0.98,3.48,2.20,2.44
10.9220,0.06,0.12,-0.98,3.48,1.77,2.32
10.9380,0.05,0.15,-1.01,2.75,2.20,3.60
10.9540,0.10,0.13,-0.98,3.54,1.59,5.86
10.9700,0.07,0.11,-0.99,4.33,2.01,4.64
10.9870,0.07,0.10,-0.99,2.93,2.20,4.21
11.0020,0.07,0.09,-0.99,2.44,2.44,3.05
11.0200,0.08,0.11,-0.98,2.38,2.69,2.08
11.0350,0.07,0.11,-0.99,2.69,2.44,2.01
11.0500,0.08,0.11,-0.99,3.11,2.44,1.89
11.0650,0.07,0.11,-0.98,2.56,2.56,1.95
11.0800,0.08,0.12,-0.99,2.93,2.32,1.95
11.0950,0.07,0.12,-0.99,1.95,2.56,2.44
11.1100,0.07,0.12,-0.98,1.95,2.14,2.75
11.1210,0.08,0.12,-0.99,2.01,2.14,2.75
11.1380,0.07,0.11,-0.98,0.73,3.30,2.81
11.1550,0.08,0.10,-0.98,3.11,1.71,2.93
11.1710,0.08,0.11,-0.99,4.03,2.01,1.89
11.1870,0.07,0.12,-0.99,3.17,2.38,1.83
11.2020,0.07,0.11,-0.98,3.48,2.20,2.81
11.2180,0.08,0.12,-0.99,3.54,2.26,3.23
11.2340,0.08,0.11,-0.98,2.08,2.62,2.56
11.2500,0.08,0.12,-0.98,2.56,2.44,2.75
11.2660,0.09,0.11,-0.98,1.71,2.38,3.66
11.2820,0.07,0.11,-0.98,2.20,2.08,2.75
11.2970,0.08,0.11,-0.98,2.38,2.20,4.03
11.3130,0.07,0.10,-0.99,3.36,2.44,2.26
11.3280,0.07,0.11,-0.99,2.50,2.26,2.75
11.3430,0.07,0.12,-0.99,0.73,2.08,2.93
11.3550,0.07,0.11,-0.98,1.34,2.56,2.81
11.3710,0.08,0.10,-1.00,3.17,2.20,2.26
11.3880,0.07,0.10,-0.98,0.92,3.23,1.40
11.4030,0.08,0.10,-0.98,1.53,2.99,1.89
11.4200,0.07,0.11,-0.98,3.66,2.62,1.89
11.4360,0.07,0.11,-0.99,4.33,2.32,1.77
11.4520,0.08,0.12,-0.99,3.54,1.83,1.95
11.4680,0.08,0.11,-0.98,2.01,2.81,1.95
11.4840,0.08,0.11,-0.99,2.69,2.44,1.89
11.4990,0.07,0.11,-0.99,2.75,2.81,2.56
11.5150,0.06,0.11,-0.98,1.89,3.54,2.32
11.5290,0.07,0.11,-0.98,2.14,2.56,2.08
11.5460,0.07,0.12,-0.99,2.38,2.20,2.44
11.5610,0.08,0.10,-0.98,2.26,2.26,3.54
11.5760,0.08,0.11,-0.99,2.26,2.14,2.44
11.5880,0.08,0.12,-0.98,1.59,2.50,3.11
11.6050,0.07,0.12,-0.98,2.56,1.71,4.27
11.6210,0.07,0.10,-1.01,2.20,2.20,3.78
11.6370,0.09,0.12,-0.97,-0.31,2.26,5.55
11.6550,0.07,0.11,-0.98,1.46,2.75,3.78
11.6700,0.07,0.09,-0.99,2.01,2.50,4.33
11.6720,0.05,0.09,-0.99,1.77,2.08,4.64
11.7000,0.08,0.09,-0.99,2.50,1.71,3.91
11.7170,0.08,0.11,-0.98,2.32,1.59,1.71
11.7340,0.06,0.11,-0.96,2.01,2.08,2.20
11.7500,0.07,0.11,-0.97,6.23,2.50,1.77
11.7650,0.08,0.11,-1.00,6.10,1.83,1.89
11.7700,0.08,0.11,-1.00,2.56,2.32,2.08
11.7860,0.07,0.10,-0.98,-0.43,3.11,2.50
11.8090,0.08,0.09,-0.98,0.37,2.87,2.62
11.8260,0.07,0.12,-0.98,0.55,2.44,2.81
11.8420,0.09,0.09,-0.99,0.55,3.11,4.52
11.8590,0.07,0.11,-1.00,0.92,3.23,2.50
11.8740,0.07,0.10,-0.97,-0.18,2.93,3.05
11.8900,0.06,0.08,-0.97,1.40,2.99,4.09
11.9050,0.07,0.12,-0.99,2.93,1.34,3.72
11.9200,0.08,0.10,-1.00,4.15,2.75,2.87
11.9350,0.07,0.10,-1.00,2.75,3.17,2.99
11.9490,0.08,0.08,-0.99,0.85,2.87,3.05
11.9650,0.07,0.09,-0.97,0.92,3.23,2.44
11.9750,0.07,0.10,-0.98,3.78,2.01,1.95
11.9920,0.07,0.10,-1.00,4.88,1.22,1.83
12.0080,0.07,0.11,-0.99,3.42,1.95,2.01
12.0250,0.07,0.11,-0.99,2.62,2.38,2.75
12.0410,0.08,0.11,-0.98,1.16,2.56,2.81
12.0570,0.08,0.10,-0.98,2.08,1.95,2.26
12.0720,0.07,0.10,-0.99,3.78,2.14,2.81
12.0880,0.07,0.08,-0.99,3.60,1.22,3.30
12.1040,0.07,0.09,-0.99,2.75,2.56,2.44
12.1200,0.07,0.10,-0.98,2.62,2.93,2.38
12.1350,0.08,0.11,-0.97,3.66,2.56,2.93
12.1510,0.06,0.09,-1.00,5.68,1.71,2.56
12.1670,0.07,0.09,-1.00,3.23,2.81,2.93
12.1820,0.07,0.11,-1.00,2.62,2.56,2.44
12.1970,0.08,0.10,-0.99,0.98,2.69,2.56
12.2100,0.07,0.09,-0.98,1.46,2.01,2.38
12.2260,0.07,0.10,-0.98,2.50,2.32,2.56
12.2420,0.08,0.11,-0.99,3.11,2.20,2.62
12.2590,0.08,0.09,-0.98,4.94,2.08,2.14
12.2750,0.07,0.09,-1.00,4.70,1.83,2.08
12.2920,0.07,0.09,-0.98,1.53,2.99,1.89
12.3080,0.07,0.10,-0.98,2.38,3.11,2.14
12.3230,0.07,0.09,-0.99,3.30,2.38,2.44
12.3380,0.07,0.10,-0.98,4.39,1.46,2.08
12.3530,0.07,0.11,-0.99,4.70,1.34,2.20
12.3590,0.07,0.11,-0.99,4.27,2.26,2.32
12.3740,0.07,0.11,-0.99,4.39,2.20,2.69
12.3950,0.07,0.11,-0.99,2.75,2.14,3.23
12.4110,0.07,0.09,-0.97,2.32,1.71,3.66
12.4280,0.06,0.09,-0.99,3.54,2.01,2.38
12.4440,0.05,0.13,-1.02,1.65,1.83,3.97
12.4600,0.07,0.09,-0.98,1.10,2.87,3.66
12.4750,0.08,0.10,-0.99,3.36,1.95,4.21
12.4910,0.06,0.09,-1.00,2.62,3.11,3.05
12.5070,0.06,0.10,-1.00,1.34,2.38,4.03
12.5110,0.09,0.10,-0.96,1.28,2.14,4.46
12.5270,0.07,0.08,-0.98,5.49,1.53,3.97
12.5500,0.07,0.09,-1.00,7.26,0.79,4.27
12.5670,0.08,0.09,-1.00,3.66,1.95,3.30
12.5820,0.07,0.10,-0.98,1.89,2.93,2.08
12.6000,0.07,0.10,-0.99,2.69,2.56,3.48
12.6160,0.07,0.10,-0.99,2.38,1.83,3.42
12.6330,0.07,0.11,-1.00,1.34,2.20,3.78
12.6480,0.08,0.10,-0.98,1.46,2.14,3.30
12.6640,0.08,0.09,-0.99,2.20,2.32,2.56
12.6800,0.08,0.10,-0.98,2.44,2.50,3.05
12.6960,0.07,0.09,-0.99,3.60,2.75,1.71
12.7110,0.07,0.10,-0.99,2.20,2.50,2.38
12.7260,0.08,0.10,-0.97,0.92,2.62,3.66
12.7410,0.07,0.09,-0.97,1.89,1.65,2.99
12.7510,0.05,0.11,-1.01,4.03,1.46,3.48
12.7670,0.08,0.11,-0.98,2.44,2.08,4.27
12.7850,0.08,0.10,-0.99,3.72,1.95,4.46
12.7920,0.08,0.10,-0.98,2.62,2.26,5.37
12.8160,0.06,0.11,-1.00,2.26,2.20,5.07
12.8310,0.08,0.09,-0.98,3.72,1.83,5.68
12.8430,0.07,0.08,-1.00,4.82,1.89,4.58
12.8590,0.07,0.08,-1.00,2.62,2.50,3.72
12.8750,0.07,0.08,-0.98,2.32,2.62,3.17
12.8920,0.06,0.08,-0.98,3.66,2.14,2.62
12.9080,0.07,0.09,-0.98,4.52,1.89,2.14
12.9240,0.07,0.10,-1.00,4.82,1.65,2.01
12.9390,0.07,0.10,-1.00,3.85,2.01,2.20
12.9550,0.07,0.10,-0.99,2.20,2.38,2.08
12.9580,0.07,0.10,-0.98,1.10,2.62,2.81
12.9740,0.07,0.09,-0.99,1.89,1.83,2.75
13.0020,0.07,0.10,-0.99,1.89,2.20,2.38
13.0130,0.07,0.09,-0.98,1.53,2.01,2.69
13.0290,0.07,0.10,-0.98,2.50,1.83,2.14
13.0460,0.07,0.10,-0.99,2.14,2.62,3.97
13.0620,0.07,0.11,-0.98,1.77,2.38,3.36
13.0790,0.09,0.12,-0.98,3.05,2.14,4.39
13.0950,0.07,0.12,-1.00,2.50,1.65,6.41
13.1110,0.09,0.10,-0.98,2.81,2.20,7.57
13.1280,0.06,0.08,-1.00,1.65,1.77,5.37
13.1440,0.08,0.09,-0.97,-0.31,2.08,6.84
13.1590,0.06,0.06,-0.98,4.39,1.53,6.23
13.1730,0.06,0.06,-1.01,5.25,1.65,4.64
13.1890,0.07,0.11,-0.99,1.65,2.32,3.17
13.2040,0.08,0.09,-0.99,0.12,3.30,2.93
13.2180,0.07,0.09,-0.98,0.61,3.17,2.32
13.2300,0.07,0.09,-0.99,1.59,2.56,2.44
13.2460,0.07,0.10,-0.98,2.69,2.26,2.20
13.2630,0.06,0.10,-1.00,3.42,2.44,3.54
13.2800,0.07,0.07,-0.99,1.28,2.44,3.30
13.2950,0.07,0.09,-0.98,0.92,2.62,2.62
13.3110,0.06,0.09,-0.99,2.01,2.50,3.11
13.3280,0.07,0.09,-0.99,2.93,1.89,3.30
13.3430,0.07,0.10,-0.99,1.95,2.69,2.99
13.3580,0.07,0.09,-0.97,1.16,3.11,3.54
13.3730,0.07,0.10,-0.97,3.42,1.16,3.05
13.3900,0.07,0.10,-0.99,4.58,1.40,2.44
13.4050,0.06,0.11,-1.01,4.09,2.01,3.23
13.4200,0.08,0.10,-0.98,0.43,2.14,5.13
13.4300,0.07,0.09,-0.97,1.10,1.71,5.49
13.4460,0.09,0.11,-0.97,1.65,1.22,8.24
13.4630,0.06,0.06,-0.99,3.91,1.95,6.35
13.4800,0.05,0.08,-1.02,4.15,0.55,6.53
13.4960,0.09,0.07,-0.99,0.67,2.50,6.71
13.5110,0.06,0.06,-0.99,1.65,2.50,4.21
13.5270,0.08,0.07,-0.99,2.50,2.50,3.60
13.5430,0.06,0.08,-0.98,4.46,1.77,2.20
13.5590,0.07,0.09,-0.99,6.10,1.34,2.20
13.5750,0.07,0.10,-1.00,5.07,1.22,2.32
13.5910,0.08,0.10,-1.00,1.95,2.01,2.32
13.6030,0.07,0.09,-0.99,0.24,2.93,2.75
13.6120,0.07,0.09,-0.98,-0.67,2.87,3.11
13.6340,0.06,0.08,-0.97,0.24,2.38,3.17
13.6490,0.08,0.09,-0.99,2.99,2.01,4.09
13.6660,0.06,0.10,-1.02,1.89,2.20,3.54
13.6830,0.08,0.08,-0.97,1.10,2.50,4.03
13.6840,0.07,0.10,-0.97,2.01,2.69,3.91
13.7150,0.07,0.09,-0.99,5.25,2.50,2.99
13.7310,0.09,0.10,-0.99,5.19,2.01,4.76
13.7470,0.09,0.08,-0.99,3.30,2.50,4.03
13.7620,0.08,0.08,-0.99,2.81,2.69,2.14
13.7770,0.08,0.09,-0.98,1.34,2.44,2.50
13.7930,0.07,0.08,-0.99,1.53,2.26,2.56
13.8030,0.05,0.06,-0.99,2.26,2.56,2.81
13.8150,0.07,0.08,-0.99,3.30,2.87,2.26
13.8380,0.07,0.07,-0.98,2.62,2.26,2.50
13.8540,0.08,0.08,-1.00,4.52,1.40,2.01
13.8690,0.08,0.08,-0.99,4.15,2.75,1.40
13.8850,0.07,0.09,-0.99,4.03,2.26,1.28
13.9010,0.07,0.09,-0.99,3.60,1.77,1.40
13.9170,0.07,0.09,-0.98,3.30,2.14,0.85
13.9330,0.07,0.10,-0.99,3.42,2.50,1.65
13.9490,0.07,0.09,-0.99,1.77,2.56,2.38
13.9650,0.06,0.08,-0.99,2.44,2.32,3.48
13.9800,0.07,0.07,-0.99,2.75,1.40,2.62
13.9880,0.08,0.08,-0.99,2.44,1.95,2.14
14.0040,0.07,0.08,-0.99,2.75,2.20,1.65
14.0270,0.07,0.08,-0.99,3.30,1.77,1.59
14.0430,0.07,0.09,-0.99,3.91,1.83,1.71
14.0590,0.07,0.09,-0.99,2.93,2.26,1.83
14.0730,0.07,0.09,-0.99,2.38,2.56,1.89
14.0770,0.07,0.08,-0.98,2.14,2.99,1.89
14.1030,0.06,0.08,-0.98,2.50,1.77,1.77
14.1130,0.07,0.09,-0.99,4.70,1.77,2.01
14.1310,0.08,0.09,-1.00,4.21,1.83,2.26
14.1470,0.08,0.09,-0.99,2.26,2.75,2.56
14.1650,0.07,0.10,-0.97,2.75,2.20,3.05
14.1810,0.08,0.10,-0.99,3.78,2.01,4.58
14.1960,0.07,0.07,-0.98,3.97,2.14,3.23
14.2030,0.07,0.08,-1.00,4.27,2.26,3.42
14.2140,0.07,0.09,-1.00,3.05,2.81,2.99
14.2320,0.08,0.08,-0.98,1.10,2.01,3.85
14.2480,0.07,0.09,-0.98,3.30,2.81,2.93
14.2760,0.07,0.10,-0.99,5.43,1.28,3.54
14.2920,0.06,0.08,-0.99,4.21,0.31,4.76
14.3060,0.08,0.08,-0.99,3.91,1.89,4.46
14.3160,0.08,0.08,-0.99,3.85,1.77,4.03
14.3330,0.07,0.09,-1.00,2.99,1.95,3.85
14.3510,0.09,0.10,-0.96,1.10,2.01,3.97
14.3670,0.07,0.08,-0.99,3.11,1.10,2.87
14.3830,0.08,0.09,-1.00,3.97,2.26,3.05
14.3990,0.07,0.08,-0.99,4.15,2.56,3.54
14.4150,0.05,0.07,-0.99,3.42,2.14,2.56
14.4310,0.07,0.09,-1.00,3.05,2.14,2.01
14.4480,0.08,0.09,-0.98,2.08,2.62,2.20
14.4640,0.06,0.08,-0.99,3.30,1.83,2.08
14.4790,0.07,0.08,-0.99,2.50,2.08,2.38
14.4830,0.07,0.09,-0.98,2.08,3.11,2.50
14.5040,0.07,0.09,-0.98,4.03,1.95,2.50
14.5250,0.07,0.08,-0.99,3.91,1.89,2.14
14.5370,0.07,0.09,-0.99,3.42,2.01,1.95
14.5550,0.08,0.09,-1.00,2.14,2.62,2.01
14.5700,0.07,0.09,-0.99,0.98,3.36,2.32
14.5870,0.07,0.08,-0.98,1.34,2.87,2.69
14.6020,0.08,0.10,-0.98,2.81,1.65,2.69
14.6190,0.07,0.09,-0.98,3.91,1.95,3.48
14.6350,0.06,0.07,-0.99,6.16,1.77,2.69
14.6500,0.07,0.07,-1.00,4.64,1.59,2.50
14.6660,0.07,0.08,-0.99,4.03,1.71,1.77
14.6810,0.07,0.10,-1.00,3.48,2.26,1.89
14.6870,0.07,0.08,-0.99,1.22,3.11,1.65
14.7040,0.07,0.09,-0.98,1.65,2.87,1.95
14.7250,0.07,0.09,-0.98,3.05,2.44,2.26
14.7420,0.07,0.10,-0.99,3.91,2.01,2.20
14.7580,0.07,0.10,-1.00,4.21,2.69,3.72
14.7750,0.06,0.07,-0.99,3.42,2.01,3.11
14.7900,0.07,0.08,-0.99,3.17,2.01,3.66
14.8060,0.06,0.08,-1.00,3.60,1.89,2.20
14.8090,0.07,0.09,-0.99,3.36,2.32,2.26
14.8240,0.06,0.11,-1.00,2.81,2.20,2.62
14.8460,0.09,0.10,-0.96,1.71,1.53,3.17
14.8630,0.08,0.08,-0.98,3.23,0.98,2.62
14.8810,0.07,0.09,-1.00,4.52,1.59,3.17
14.8960,0.07,0.08,-0.99,3.11,2.69,3.42
14.9120,0.07,0.08,-1.00,2.62,2.62,2.26
14.9280,0.07,0.09,-0.99,2.20,2.69,2.32
14.9300,0.07,0.09,-0.98,2.62,2.69,1.89
14.9450,0.07,0.09,-0.99,4.03,1.89,2.08
14.9700,0.08,0.09,-0.98,3.42,2.01,2.81
14.9860,0.07,0.09,-0.99,4.03,2.08,2.75
15.0030,0.07,0.07,-0.99,2.62,2.08,3.17
15.0190,0.06,0.07,-0.98,2.50,2.50,2.50
15.0360,0.08,0.10,-1.00,3.17,2.26,2.20
15.0510,0.07,0.08,-0.99,2.87,1.95,2.75
15.0670,0.08,0.09,-0.99,2.62,2.14,2.93
15.0820,0.09,0.09,-0.97,1.77,2.20,3.11
15.0980,0.06,0.08,-0.98,3.05,1.89,2.14
15.1140,0.06,0.08,-0.99,3.11,2.32,2.62
15.1290,0.07,0.08,-0.99,2.99,1.83,1.89
15.1450,0.08,0.09,-0.99,3.05,1.89,1.65
15.1530,0.07,0.10,-0.99,1.28,2.56,1.95
15.1680,0.07,0.08,-0.98,2.75,2.32,2.87
15.1890,0.08,0.11,-1.00,4.21,1.89,3.42
15.2060,0.09,0.10,-0.98,3.42,1.40,4.70
15.2210,0.06,0.09,-0.99,3.85,2.01,4.64
15.2360,0.07,0.08,-0.99,2.93,1.95,4.58
15.2520,0.07,0.08,-0.99,2.20,1.89,4.21
15.2670,0.07,0.08,-0.98,3.42,1.22,3.11
15.2730,0.07,0.08,-0.99,3.54,1.89,3.54
15.2880,0.07,0.08,-0.99,2.75,1.95,3.05
15.3110,0.07,0.08,-0.98,3.05,1.77,2.93
15.3280,0.07,0.09,-1.00,3.66,1.95,2.32
15.3440,0.08,0.09,-0.99,2.81,2.20,2.38
15.3600,0.07,0.09,-0.98,2.38,2.44,1.59
15.3750,0.07,0.09,-0.99,2.75,2.62,1.71
15.3910,0.06,0.09,-0.99,2.56,2.44,2.26
15.4050,0.07,0.08,-0.98,2.14,2.14,2.62
15.4110,0.08,0.08,-0.98,2.99,1.95,3.36
15.4330,0.06,0.08,-1.00,4.70,1.83,2.08
15.4500,0.07,0.09,-1.00,2.87,2.20,2.14
15.4660,0.07,0.09,-0.98,1.77,2.62,2.62
15.4830,0.08,0.08,-0.98,2.81,2.32,2.56
15.4990,0.08,0.09,-0.99,3.85,2.08,1.89
15.5160,0.08,0.10,-0.99,4.21,1.95,1.95
15.5320,0.08,0.10,-0.99,3.42,2.26,2.32
15.5480,0.08,0.10,-0.98,1.65,2.26,4.09
15.5630,0.07,0.09,-0.98,3.05,1.95,4.46
15.5780,0.08,0.09,-0.99,3.91,1.89,6.04
15.5930,0.06,0.06,-0.99,4.33,1.83,5.43
15.6060,0.05,0.05,-1.00,5.07,1.53,4.76
15.6170,0.07,0.09,-0.98,4.64,1.53,2.38
15.6340,0.07,0.09,-0.99,4.21,1.10,1.95
15.6500,0.05,0.11,-1.00,3.60,1.71,3.05
15.6680,0.06,0.10,-0.99,0.67,2.08,6.10
15.6830,0.07,0.09,-0.99,-1.59,2.56,4.33
15.6980,0.07,0.09,-0.99,-1.77,3.11,5.19
15.7060,0.07,0.08,-0.98,0.31,2.20,4.46
15.7310,0.08,0.08,-0.99,1.65,1.83,2.75
15.7470,0.07,0.08,-0.98,1.16,2.20,2.50
15.7500,0.07,0.08,-0.99,1.77,2.69,2.50
15.7660,0.07,0.08,-0.99,1.46,2.32,2.69
15.7890,0.07,0.09,-0.99,0.55,2.50,2.69
15.8060,0.07,0.09,-0.99,0.67,2.44,2.81
15.8220,0.07,0.09,-0.96,2.69,2.99,1.95
15.8370,0.07,0.09,-0.98,7.57,2.26,2.87
15.8520,0.08,0.08,-0.99,8.00,1.04,3.05
15.8680,0.07,0.08,-1.01,6.29,2.08,1.71
15.8840,0.07,0.08,-1.00,2.69,3.23,3.05
15.9010,0.06,0.07,-0.99,0.92,3.11,2.56
15.9170,0.06,0.08,-0.98,0.43,3.30,1.77
15.9320,0.06,0.08,-0.98,2.20,2.38,2.01
15.9470,0.07,0.09,-0.99,4.76,0.92,2.93
15.9560,0.07,0.08,-1.00,4.94,1.10,3.17
15.9720,0.07,0.10,-1.00,3.23,2.62,3.66
15.9920,0.07,0.09,-0.98,2.44,2.08,3.72
16.0070,0.07,0.08,-0.99,2.56,1.16,3.30
16.0110,0.03,0.06,-1.00,2.75,1.89,2.50
16.0270,0.07,0.08,-1.00,2.75,2.32,1.95
16.0540,0.07,0.09,-0.99,1.53,2.81,2.08
16.0650,0.08,0.09,-0.99,1.10,3.05,2.75
16.0820,0.08,0.12,-0.98,2.62,2.32,3.11
16.0980,0.07,0.08,-0.99,4.82,1.53,4.82
16.1150,0.06,0.06,-0.99,4.88,1.53,4.21
16.1300,0.06,0.07,-1.00,4.27,2.01,3.36
16.1450,0.07,0.09,-0.99,3.60,2.38,3.91
16.1600,0.06,0.07,-0.99,3.72,2.69,5.37
16.1750,0.06,0.06,-0.99,3.54,1.95,4.09
16.1910,0.06,0.09,-0.99,2.56,1.04,2.62
16.2060,0.08,0.08,-1.01,2.62,2.01,2.32
16.2210,0.07,0.08,-0.99,1.22,2.99,2.01
16.2310,0.07,0.08,-0.98,2.69,2.32,2.75
16.2480,0.08,0.10,-0.98,4.46,1.46,2.50
16.2650,0.07,0.10,-0.99,6.41,1.65,3.97
16.2810,0.07,0.09,-1.00,6.16,2.01,5.00
16.2970,0.06,0.08,-1.01,3.30,1.83,4.15
16.3130,0.08,0.10,-1.00,-0.55,3.23,4.76
16.3280,0.10,0.10,-0.95,-1.53,2.50,7.93
16.3430,0.06,0.07,-0.98,2.87,0.92,6.84
16.3580,0.07,0.08,-1.00,3.85,1.65,6.84
16.3730,0.07,0.07,-0.98,3.85,1.95,6.35
16.3810,0.06,0.05,-1.00,4.52,0.73,5.25
16.3970,0.06,0.06,-1.00,4.09,2.14,3.48
16.4180,0.07,0.08,-0.99,2.75,2.93,3.05
16.4340,0.07,0.10,-0.97,3.17,1.34,2.69
16.4510,0.07,0.11,-0.98,4.21,0.85,4.88
16.4660,0.08,0.11,-0.99,4.88,1.34,6.10
16.4810,0.06,0.07,-1.00,4.09,1.16,5.49
16.4990,0.08,0.09,-1.00,0.18,2.32,5.37
16.5140,0.06,0.07,-1.00,-1.04,3.23,4.33
16.5300,0.07,0.08,-0.96,0.37,2.38,5.68
16.5360,0.04,0.08,-0.99,6.04,1.04,6.96
16.5510,0.07,0.07,-0.99,3.78,0.79,6.77
16.5730,0.07,0.07,-0.98,3.54,1.65,4.64
16.5880,0.09,0.09,-1.00,2.81,1.71,4.88
16.6060,0.06,0.05,-0.98,1.46,2.75,3.66
16.6210,0.07,0.07,-0.98,2.08,1.89,2.87
16.6370,0.07,0.09,-0.99,3.78,1.10,2.20
16.6520,0.07,0.09,-0.99,3.66,1.83,2.20
16.6660,0.07,0.09,-1.00,2.01,2.44,2.32
16.6820,0.09,0.12,-0.98,0.43,3.36,2.99
16.6980,0.10,0.13,-0.97,3.60,3.05,4.76
16.7130,0.07,0.09,-0.98,6.29,0.61,7.14
16.7280,0.06,0.07,-0.99,6.71,0.92,7.08
16.7390,0.07,0.08,-1.01,5.13,1.10,6.90
16.7550,0.05,0.08,-1.00,2.56,1.34,6.84
16.7720,0.07,0.08,-0.99,3.23,2.38,7.81
16.7880,0.08,0.13,-0.99,2.44,1.34,10.07
16.8050,0.08,0.10,-0.96,1.65,1.34,11.23
16.8210,0.05,0.12,-0.99,4.64,0.79,11.84
16.8370,0.08,0.13,-0.98,4.76,0.85,14.53
16.8520,0.07,0.11,-0.98,6.23,0.43,15.93
16.8690,0.07,0.07,-1.00,8.24,0.12,14.83
16.8840,0.08,0.09,-1.01,3.23,1.16,12.02
16.9000,0.07,0.09,-0.96,-0.98,2.08,11.11
16.9160,0.06,0.06,-0.97,3.72,0.73,10.38
16.9310,0.03,0.01,-1.01,7.20,1.28,7.26
16.9460,0.05,0.02,-1.03,6.77,1.34,6.29
16.9560,0.07,0.06,-1.00,0.61,2.14,4.03
16.9720,0.07,0.07,-0.97,1.53,2.20,3.91
16.9930,0.07,0.08,-0.96,5.25,1.89,2.50
17.0090,0.07,0.10,-0.99,8.42,1.34,2.08
17.0250,0.08,0.10,-1.00,5.80,1.77,1.16
17.0410,0.06,0.09,-0.98,4.58,2.20,0.49
17.0560,0.07,0.09,-0.99,5.80,1.46,0.79
17.0620,0.07,0.10,-1.00,4.82,1.71,1.16
17.0770,0.07,0.10,-0.99,3.05,1.71,1.59
17.1000,0.07,0.09,-0.99,2.38,2.20,1.77
17.1160,0.07,0.09,-0.98,2.93,2.08,1.71
17.1330,0.07,0.09,-0.99,4.09,1.46,1.65
17.1500,0.07,0.10,-1.00,3.42,2.26,1.71
17.1650,0.07,0.09,-0.99,1.53,2.56,1.71
17.1670,0.07,0.09,-0.98,1.71,2.38,1.71
17.1960,0.07,0.09,-0.98,3.48,2.20,1.71
17.2070,0.07,0.09,-0.99,4.39,2.01,1.89
17.2150,0.06,0.10,-0.99,3.85,2.62,1.95
17.2380,0.07,0.10,-0.99,2.69,1.89,2.99
17.2550,0.07,0.08,-0.98,2.32,1.89,3.23
17.2720,0.07,0.09,-0.98,4.33,1.71,1.83
17.2870,0.07,0.09,-0.99,5.68,2.14,1.89
17.3020,0.07,0.10,-0.99,6.53,2.01,0.73
17.3180,0.08,0.11,-1.00,4.21,2.62,1.28
17.3220,0.09,0.11,-0.98,1.77,2.69,0.49
17.3380,0.08,0.12,-0.97,2.44,1.95,1.77
17.3600,0.06,0.09,-0.98,5.86,1.28,1.77
17.3770,0.05,0.09,-1.01,6.53,1.59,2.38
17.3940,0.05,0.07,-1.00,2.62,2.08,2.14
17.4120,0.07,0.09,-0.97,1.65,2.26,1.71
17.4270,0.07,0.09,-0.97,4.52,1.53,1.83
17.4440,0.07,0.10,-0.99,7.39,1.53,1.89
17.4600,0.07,0.11,-1.00,5.37,1.40,1.83
17.4760,0.07,0.09,-0.98,4.64,1.89,1.83
17.4920,0.07,0.10,-0.98,6.35,1.28,2.01
17.5080,0.07,0.11,-0.99,6.47,1.53,1.95
17.5240,0.07,0.10,-0.98,5.43,1.59,1.89
17.5270,0.07,0.10,-0.98,7.93,0.73,2.08
17.5430,0.08,0.11,-0.99,10.68,1.53,0.18
17.5660,0.08,0.11,-0.99,9.89,1.34,0.12
17.5840,0.07,0.11,-0.99,10.25,1.46,-0.12
17.5990,0.07,0.11,-0.99,9.22,0.98,-0.18
17.6160,0.06,0.11,-0.99,8.54,1.34,-0.24
17.6320,0.07,0.11,-0.98,8.36,0.98,1.95
17.6470,0.08,0.12,-0.99,7.39,1.04,2.08
17.6630,0.08,0.12,-0.98,6.65,1.34,1.95
17.6790,0.08,0.13,-0.99,5.80,1.71,1.95
17.6930,0.08,0.12,-0.98,4.58,2.14,1.71
17.7090,0.08,0.11,-0.98,3.97,2.20,1.04
17.7160,0.08,0.12,-0.98,6.16,1.77,-0.43
17.7320,0.07,0.13,-0.99,6.53,2.20,-0.85
17.7540,0.07,0.14,-0.99,5.98,2.20,0.18
17.7690,0.08,0.12,-0.98,4.39,1.83,0.43
17.7850,0.08,0.13,-0.98,3.85,2.26,0.79
17.8010,0.08,0.12,-0.98,3.42,1.65,1.71
17.8070,0.08,0.13,-0.98,3.05,2.38,1.22
17.8320,0.08,0.12,-0.98,3.23,2.26,1.22
17.8390,0.09,0.14,-0.97,3.91,2.20,-0.73
17.8540,0.08,0.13,-0.97,5.13,2.50,-2.38
17.8770,0.08,0.14,-0.98,6.71,1.95,-2.93
17.8940,0.08,0.13,-0.98,4.39,2.87,-3.60
17.9110,0.08,0.13,-0.98,2.99,2.99,-3.66
17.9270,0.07,0.11,-0.98,3.85,2.99,-4.27
17.9430,0.06,0.09,-0.99,3.42,2.38,-2.75
17.9590,0.08,0.14,-0.99,7.81,1.40,0.00
17.9740,0.08,0.13,-0.98,4.70,2.38,-0.98
17.9780,0.08,0.13,-0.98,5.55,1.83,0.92
17.9930,0.08,0.13,-0.99,4.46,2.14,1.10
18.0160,0.08,0.12,-0.98,3.05,2.69,0.00
18.0330,0.08,0.11,-0.98,2.56,2.62,-2.32
18.0490,0.08,0.13,-0.99,3.72,3.17,-3.72
18.0660,0.08,0.13,-0.98,3.42,2.62,-3.42
18.0820,0.08,0.19,-1.02,2.26,3.11,-1.16
18.0980,0.07,0.09,-0.95,12.27,2.69,1.40
18.1150,0.08,0.16,-1.00,6.77,1.59,2.01
18.1310,0.07,0.10,-0.97,0.55,2.38,1.71
18.1460,0.08,0.14,-1.00,4.58,2.01,2.01
18.1500,0.08,0.12,-0.98,2.75,2.26,1.77
18.1650,0.08,0.12,-0.98,2.87,2.20,1.83
18.1880,0.08,0.12,-0.98,2.56,2.08,1.77
18.2040,0.08,0.13,-0.99,3.23,2.50,1.77
18.2210,0.08,0.13,-0.98,3.48,2.20,1.83
18.2360,0.08,0.12,-0.98,2.87,2.44,1.77
18.2520,0.08,0.13,-0.98,3.48,2.08,1.89
18.2540,0.08,-0.03,-0.75,5.07,-0.43,1.59
18.2700,0.33,0.33,-1.28,18.80,-12.15,1.83
18.2970,0.09,0.01,-0.93,-7.32,0.31,0.92
18.3090,0.08,0.14,-0.95,8.67,0.49,2.14
18.3240,0.09,0.17,-0.99,6.96,-0.43,1.89
18.3430,0.07,0.12,-0.98,1.89,-0.73,1.46
18.3600,0.09,0.14,-0.98,3.36,0.18,1.65
18.3760,0.09,0.13,-0.98,4.52,-0.12,1.71
18.3920,0.08,0.14,-0.98,5.13,0.49,1.83
18.4080,0.09,0.13,-0.98,3.66,0.55,1.95
18.4240,0.09,0.13,-0.98,3.42,1.22,1.71
18.4280,0.09,0.13,-0.98,3.85,1.59,1.89
18.4440,0.08,0.14,-0.98,3.91,2.20,1.89
18.4650,0.08,0.13,-0.98,3.23,2.14,1.77
18.4820,0.08,0.13,-0.98,2.99,2.38,1.65
18.4980,0.08,0.13,-0.98,2.75,2.38,1.77
18.5150,0.09,0.13,-0.98,3.60,2.01,1.77
18.5310,0.08,0.13,-0.98,4.70,2.14,1.83
18.5460,0.08,0.13,-0.98,6.16,1.34,1.95
18.5620,0.08,0.14,-0.98,4.52,1.46,1.83
18.5780,0.09,0.14,-0.99,2.93,1.83,1.89
18.5940,0.09,0.13,-0.98,-0.18,3.91,1.89
18.6100,0.08,0.16,-1.00,-1.89,7.32,2.20
18.6250,0.15,0.06,-0.89,-10.31,12.76,4.39
18.6390,0.07,0.18,-1.04,8.97,3.11,0.67
18.6480,0.08,0.08,-0.97,-0.79,2.81,0.98
18.6650,0.08,0.14,-0.98,4.21,2.26,1.89
18.6810,0.08,0.11,-0.97,1.53,2.26,1.59
18.6990,0.08,0.14,-0.99,4.03,2.01,1.95
18.7150,0.08,0.12,-0.98,2.99,1.95,1.95
18.7300,0.08,0.13,-0.98,3.85,2.20,1.83
18.7340,0.08,0.12,-0.98,3.11,2.01,1.89
18.7500,0.08,0.13,-0.98,3.36,2.44,1.89
18.7730,0.08,0.13,-0.98,3.36,2.20,1.77
18.7900,0.08,0.13,-0.98,3.30,1.83,1.77
18.8070,0.08,0.13,-0.98,3.30,1.83,1.77
18.8210,0.08,0.13,-0.98,3.11,2.14,1.83
18.8360,0.08,0.13,-0.98,3.23,2.44,1.71
18.8520,0.08,0.13,-0.98,3.11,2.14,1.89
18.8670,0.08,0.13,-0.98,3.11,2.38,1.71
18.8820,0.08,0.13,-0.98,3.23,1.95,1.83
18.8970,0.08,0.13,-0.98,3.23,1.83,1.77
18.9120,0.08,0.13,-0.98,3.36,2.32,1.71
18.9240,0.08,0.13,-0.98,3.23,2.01,1.77
18.9400,0.08,0.13,-0.98,3.30,2.08,1.77
18.9570,0.08,0.13,-0.98,3.30,2.50,2.08
18.9720,0.08,0.13,-0.98,3.42,2.26,1.77
18.9890,0.08,0.13,-0.98,3.42,1.71,1.77
19.0040,0.08,0.13,-0.98,3.30,2.08,1.83
19.0190,0.08,0.13,-0.98,3.23,2.20,1.77
19.0350,0.08,0.13,-0.98,3.05,2.26,1.83
19.0500,0.08,0.13,-0.98,3.17,2.20,1.89
19.0660,0.08,0.13,-0.98,3.11,2.26,2.01
19.0810,0.08,0.13,-0.98,3.30,2.26,1.89
19.0960,0.08,0.13,-0.98,3.05,2.14,1.89
19.1080,0.08,0.13,-0.98,3.30,2.20,1.77
19.1230,0.08,0.13,-0.98,3.30,2.20,1.71
19.1400,0.08,0.13,-0.98,3.11,2.20,1.83
19.1560,0.08,0.13,-0.98,3.23,2.26,1.77
19.1720,0.08,0.13,-0.98,3.11,1.95,1.83
19.1880,0.08,0.13,-0.98,3.23,2.14,1.77
19.2030,0.08,0.13,-0.98,3.42,2.75,1.89
19.2190,0.08,0.13,-0.99,3.11,2.44,1.89
19.2230,0.08,0.13,-0.98,3.23,1.89,1.71
19.2390,0.08,0.13,-0.98,3.11,2.20,1.77
19.2600,0.08,0.13,-0.98,3.30,2.20,1.77
19.2770,0.08,0.13,-0.98,3.17,2.01,1.71
19.2930,0.08,0.13,-0.98,3.11,2.20,1.77
19.3100,0.08,0.13,-0.99,3.36,1.77,1.89
19.3260,0.08,0.13,-0.98,3.17,1.89,1.89
19.3420,0.07,0.12,-0.98,3.23,1.95,1.77
19.3580,0.08,0.13,-0.98,3.23,2.01,1.77
19.3740,0.08,0.13,-0.98,3.11,1.89,1.71
19.3900,0.08,0.13,-0.98,3.11,2.32,1.89
19.4050,0.08,0.13,-0.98,3.05,1.95,1.71
19.4210,0.08,0.13,-0.98,3.36,1.89,1.89
19.4360,0.08,0.13,-0.98,3.30,2.08,1.89
19.4440,0.08,0.13,-0.98,3.05,2.32,1.83
19.4650,0.07,0.13,-0.99,2.99,1.65,1.71
19.4770,0.08,0.13,-0.99,3.30,2.20,1.83
19.4930,0.08,0.13,-0.98,3.30,1.71,1.71
19.5100,0.08,0.13,-0.98,3.23,2.08,1.40
19.5260,0.08,0.13,-0.98,3.11,2.20,1.40
19.5430,0.08,0.12,-0.98,3.23,2.14,1.40
19.5590,0.07,0.14,-0.97,3.30,2.08,1.59
19.5750,0.07,0.13,-0.98,3.05,2.20,1.53
19.5910,0.08,0.13,-0.98,3.11,1.65,1.71
19.6070,0.08,0.14,-0.94,2.81,2.08,1.59
19.6220,0.07,0.13,-0.99,4.15,1.89,1.10
19.6270,0.05,0.11,-0.99,1.71,2.62,1.28
19.6420,0.09,0.13,-0.97,4.15,2.01,1.46
19.6670,0.08,0.13,-0.98,3.42,2.08,1.53
19.6820,0.08,0.13,-0.99,3.11,2.32,1.46
19.6990,0.08,0.11,-0.98,2.81,1.83,1.46
19.7150,0.07,0.13,-0.98,3.54,2.26,1.65
19.7310,0.08,0.13,-0.99,3.11,2.62,1.59
19.7470,0.08,0.12,-0.98,2.69,2.38,1.53
19.7630,0.08,0.12,-0.98,3.05,2.56,1.65
19.7790,0.08,0.13,-0.98,3.30,2.14,1.65
19.7830,0.08,0.12,-0.98,3.05,2.08,1.65
19.8090,0.07,0.12,-0.98,3.11,2.01,1.77
19.8200,0.08,0.13,-0.98,3.17,1.83,1.83
19.8370,0.08,0.13,-0.98,3.11,1.89,1.83
19.8540,0.08,0.13,-0.98,3.17,1.89,1.71
19.8700,0.07,0.13,-0.98,3.23,1.95,1.77
19.8860,0.07,0.13,-0.99,3.30,2.20,2.08
19.9010,0.07,0.13,-0.98,3.11,2.08,1.89
19.9150,0.08,0.13,-0.98,3.23,2.62,1.95
19.9260,0.08,0.13,-0.98,3.30,2.20,1.89
19.9410,0.07,0.13,-0.98,3.36,2.26,1.89
19.9610,0.07,0.11,-0.97,2.44,1.95,1.83
19.9760,0.07,0.13,-0.99,3.54,1.65,1.77
19.9810,0.08,0.12,-0.99,3.30,1.53,1.53
19.9960,0.08,0.13,-0.99,3.48,1.59,1.71
20.0180,0.08,0.13,-0.98,3.05,2.38,1.77
20.0360,0.07,0.13,-0.98,2.99,2.32,1.83
20.0510,0.08,0.12,-0.98,3.17,1.89,1.77
20.0670,0.08,0.12,-0.98,3.17,2.26,1.89
20.0830,0.08,0.13,-0.98,3.23,2.14,1.95
20.0990,0.08,0.13,-0.99,3.30,2.20,1.83
20.1150,0.08,0.13,-0.98,3.05,2.26,1.83
20.1300,0.07,0.13,-0.98,3.11,2.56,1.89
20.1470,0.07,0.13,-0.99,3.17,2.14,1.77
20.1530,0.08,0.12,-0.98,3.17,2.08,1.71
20.1680,0.08,0.13,-0.98,3.23,2.20,1.83
20.1910,0.08,0.13,-0.98,3.48,2.01,1.71
20.2080,0.08,0.13,-0.98,4.03,2.44,1.71
20.2250,0.08,0.13,-0.99,4.70,2.20,1.95
20.2410,0.08,0.13,-0.99,2.93,2.08,1.65
20.2570,0.08,0.12,-0.98,1.10,2.62,1.65
20.2730,0.08,0.13,-0.99,2.50,2.75,1.71
20.2880,0.08,0.11,-0.97,1.53,2.01,1.28
20.2910,0.08,0.14,-0.99,5.13,1.65,1.53
20.3100,0.08,0.12,-0.98,3.60,2.01,1.95
20.3290,0.08,0.13,-0.98,3.66,2.08,1.89
20.3450,0.08,0.13,-0.98,3.72,2.44,1.89
20.3610,0.08,0.12,-0.98,3.60,1.65,1.77
20.3800,0.08,0.13,-0.99,2.87,2.01,1.95
20.3950,0.08,0.13,-0.99,1.34,2.44,1.71
20.4110,0.08,0.13,-0.98,0.98,2.56,1.65
20.4150,0.08,0.11,-0.98,1.40,2.93,1.71
20.4300,0.08,0.12,-0.98,3.91,2.26,1.77
20.4530,0.07,0.13,-0.98,4.09,2.14,1.77
20.4690,0.08,0.13,-0.98,3.30,2.08,1.83
20.4850,0.08,0.13,-0.98,4.21,2.44,2.08
20.5010,0.08,0.13,-0.98,3.17,2.20,1.89
20.5170,0.08,0.13,-0.99,3.78,2.14,1.77
20.5330,0.08,0.12,-0.98,2.93,2.32,1.65
20.5360,0.08,0.13,-0.98,3.36,1.89,1.77
20.5520,0.08,0.13,-0.98,3.17,1.95,1.83
20.5750,0.08,0.13,-0.98,3.23,1.77,1.71
20.5910,0.08,0.11,-0.99,-1.77,2.81,1.46
20.6100,0.12,0.16,-0.95,0.98,3.05,0.92
20.6250,0.09,0.14,-0.95,4.21,3.48,-5.98
20.6410,0.05,0.07,-0.98,8.85,2.93,-7.14
20.6570,0.08,0.12,-1.00,7.81,2.20,-0.06
20.6740,0.11,0.07,-0.99,3.36,3.11,-3.17
20.6900,0.07,0.13,-1.01,8.00,4.76,-10.38
20.7060,0.07,0.11,-0.97,4.03,2.81,-3.42
20.7220,0.08,0.13,-0.99,3.42,2.26,1.95
20.7380,0.08,0.15,-0.98,2.99,1.53,5.80
20.7530,0.07,0.15,-0.98,3.60,1.53,4.09
20.7680,0.07,0.14,-0.99,4.64,1.46,3.54
20.7840,0.08,0.14,-0.98,3.85,2.08,1.95
20.8000,0.07,0.15,-0.99,3.23,2.32,0.92
20.8150,0.07,0.14,-0.98,2.81,2.38,1.22
20.8250,0.06,0.14,-0.98,2.08,2.62,1.34
20.8420,0.08,0.13,-0.98,1.89,1.83,1.77
20.8580,0.07,0.13,-0.98,2.20,2.26,1.77
20.8750,0.08,0.13,-0.98,2.26,2.01,1.65
20.8910,0.08,0.13,-0.99,1.10,2.14,1.53
20.9080,0.08,0.13,-0.98,-0.12,2.08,1.65
20.9240,0.08,0.13,-0.98,0.73,2.44,1.89
20.9400,0.08,0.16,-0.98,1.77,1.77,4.64
20.9560,0.10,0.16,-0.97,2.75,1.83,4.88
20.9720,0.09,0.17,-0.98,3.72,3.30,-3.78
20.9880,0.08,0.15,-0.99,5.19,3.42,-7.81
21.0030,0.06,0.10,-1.00,5.31,3.23,-8.12
21.0180,0.05,0.08,-0.99,2.81,3.23,-3.60
21.0340,0.06,0.08,-0.99,2.32,2.38,1.28
21.0500,0.07,0.09,-0.99,2.14,2.26,1.65
21.0650,0.08,0.12,-0.99,3.48,1.83,1.77
21.0750,0.08,0.14,-0.99,3.97,1.65,1.89
21.0920,0.08,0.12,-0.98,2.44,2.08,1.71
21.1080,0.08,0.15,-0.97,5.19,2.32,0.06
21.1260,0.09,0.16,-0.98,6.04,2.50,-2.44
21.1410,0.06,0.11,-0.99,5.37,3.23,-4.88
21.1580,0.06,0.10,-0.99,4.27,3.05,-1.71
21.1740,0.08,0.13,-0.99,2.69,2.38,1.89
21.1900,0.08,0.13,-0.99,1.10,2.44,1.71
21.2060,0.08,0.12,-0.98,1.65,2.56,1.89
21.2100,0.08,0.12,-0.98,2.93,2.08,1.95
21.2240,0.08,0.12,-0.98,3.05,1.59,1.95
21.2480,0.08,0.12,-0.98,3.17,1.83,2.01
21.2650,0.08,0.12,-0.98,3.42,2.26,1.77
21.2810,0.08,0.13,-0.98,4.15,2.56,1.83
21.2980,0.08,0.12,-0.98,4.64,1.83,1.95
21.3140,0.08,0.13,-0.99,4.39,2.26,1.77
21.3290,0.08,0.13,-0.99,3.54,2.26,1.89
21.3320,0.08,0.13,-0.98,3.05,2.26,1.77
21.3470,0.08,0.13,-0.98,2.93,2.50,1.83
21.3710,0.08,0.12,-0.98,3.54,1.83,1.89
21.3870,0.07,0.13,-0.99,3.91,2.01,2.20
21.4040,0.11,0.06,-0.98,1.83,1.65,3.91
21.4190,0.07,0.12,-0.98,0.12,1.16,8.00
21.4350,0.06,0.17,-0.98,3.05,1.71,5.07
21.4500,0.08,0.12,-0.99,3.23,2.26,1.77
21.4530,0.08,0.13,-0.98,3.54,2.26,1.89
21.4770,0.09,0.12,-0.99,3.48,2.75,1.95
21.4970,0.12,0.11,-0.98,1.59,2.20,1.65
21.5110,0.06,0.13,-0.98,2.14,2.26,1.10
21.5240,0.06,0.13,-0.98,3.05,1.95,0.79
21.5410,0.07,0.13,-0.99,3.54,1.77,1.46
21.5580,0.09,0.13,-0.99,2.81,2.38,1.83
21.5740,0.10,0.12,-0.98,0.92,2.93,0.79
21.5900,0.07,0.12,-0.98,1.16,2.93,0.67
21.6050,0.04,0.12,-0.98,2.01,2.56,0.85
21.6200,0.08,0.13,-0.98,4.33,1.53,1.77
21.6350,0.08,0.13,-0.99,3.54,1.89,1.83
21.6490,0.08,0.12,-0.98,3.42,1.71,1.83
21.6650,0.08,0.13,-0.99,3.54,2.44,1.65
21.6740,0.14,0.13,-0.97,1.83,2.44,0.31
21.6900,0.06,0.13,-0.98,2.93,2.62,-2.75
21.7110,0.06,0.11,-0.98,3.17,2.62,-2.32
21.7120,0.06,0.12,-0.98,3.54,2.56,-1.95
21.7290,0.06,0.12,-0.99,3.30,2.32,-0.49
21.7440,0.07,0.13,-0.98,3.36,2.08,0.79
21.7740,0.08,0.12,-0.98,3.11,2.50,1.04
21.7890,0.07,0.13,-0.99,3.85,2.38,1.34
21.8030,0.09,0.12,-0.99,2.87,2.14,1.53
21.8140,0.09,0.12,-0.98,2.87,2.44,0.55
21.8300,0.08,0.12,-0.99,3.78,2.32,-1.10
21.8480,0.09,0.12,-0.98,3.42,2.69,-1.89
21.8630,0.06,0.13,-0.98,4.64,2.56,-1.22
21.8790,0.05,0.13,-0.98,4.03,2.26,0.43
21.8960,0.08,0.13,-0.99,4.09,2.08,1.46
21.9120,0.09,0.12,-0.98,2.87,2.26,1.59
21.9280,0.09,0.12,-0.99,3.11,2.26,0.49
21.9430,0.07,0.12,-0.98,3.11,2.14,0.06
21.9470,0.08,0.13,-0.99,3.42,2.38,-0.06
21.9630,0.08,0.13,-0.98,3.23,2.62,0.12
21.9890,0.08,0.13,-0.98,3.42,2.14,1.40
22.0020,0.07,0.12,-0.98,3.17,1.95,1.77
22.0180,0.07,0.13,-0.98,3.42,1.77,1.89
22.0370,0.08,0.12,-0.98,3.54,1.89,1.83
22.0510,0.08,0.13,-0.99,3.23,2.20,1.89
22.0660,0.08,0.12,-0.98,2.99,2.01,2.14
22.0820,0.07,0.12,-0.98,3.54,1.89,2.75
22.0980,0.07,0.13,-0.98,4.03,1.77,2.56
22.1140,0.08,0.13,-0.99,3.54,2.08,1.89
22.1300,0.08,0.12,-0.98,2.38,2.20,2.08
22.1460,0.07,0.13,-0.98,2.62,2.20,2.26
22.1620,0.08,0.12,-0.98,3.42,2.01,2.20
22.1770,0.08,0.13,-0.99,3.54,2.14,2.01
22.1870,0.07,0.12,-0.98,2.14,1.95,2.14
22.2030,0.07,0.13,-0.98,2.81,1.77,2.93
22.2240,0.07,0.13,-0.99,4.27,1.95,2.44
22.2400,0.08,0.13,-0.98,3.78,2.26,2.62
22.2560,0.07,0.12,-0.98,3.17,2.44,2.32
22.2700,0.07,0.13,-0.99,3.17,2.26,1.77
22.2850,0.08,0.12,-0.98,2.69,2.20,1.71
22.2920,0.08,0.13,-0.99,2.44,2.38,1.89
22.3120,0.08,0.12,-0.98,2.56,2.32,1.83
22.3310,0.08,0.12,-0.98,3.36,1.65,1.77
22.3470,0.08,0.13,-0.99,3.17,2.01,1.83
22.3630,0.08,0.13,-0.99,2.69,2.26,1.83
22.3790,0.08,0.12,-0.98,2.44,2.75,1.89
22.3950,0.08,0.12,-0.98,3.48,2.01,1.89
22.4100,0.08,0.12,-0.98,4.03,2.50,1.89
22.4260,0.09,0.14,-0.99,2.99,1.95,1.34
22.4420,0.07,0.13,-0.98,2.20,2.62,1.16
22.4480,0.07,0.12,-0.99,2.93,2.32,1.04
22.4740,0.07,0.12,-0.98,2.87,2.32,1.46
22.4800,0.07,0.12,-0.98,2.87,1.89,1.77
22.4960,0.08,0.12,-0.98,2.87,1.77,1.77
22.5170,0.08,0.12,-0.98,3.36,2.01,2.01
22.5350,0.08,0.13,-0.99,3.66,2.50,1.95
22.5500,0.09,0.12,-0.98,4.09,2.01,1.89
22.5670,0.08,0.12,-0.98,3.97,2.56,1.28
22.5840,0.07,0.13,-0.99,3.78,2.14,1.28
22.5990,0.07,0.13,-0.99,2.87,2.56,1.77
22.6150,0.07,0.12,-0.98,3.30,2.08,2.01
22.6310,0.08,0.13,-0.98,3.60,2.26,1.95
22.6450,0.08,0.13,-0.98,3.42,2.20,1.83
22.6610,0.08,0.12,-0.98,2.56,2.56,1.71
22.6760,0.07,0.13,-0.99,3.30,2.50,1.46
22.6910,0.07,0.12,-0.98,3.36,2.08,1.46
22.6990,0.07,0.13,-0.98,3.17,2.38,1.53
22.7150,0.08,0.13,-0.99,3.42,1.83,1.77
22.7360,0.08,0.12,-0.98,2.26,1.89,1.59
22.7510,0.07,0.12,-0.98,2.69,2.01,1.59
22.7550,0.07,0.12,-0.98,2.69,2.32,1.83
22.7700,0.08,0.12,-0.99,2.75,2.50,1.77
22.7970,0.08,0.12,-0.98,3.17,2.14,1.83
22.8090,0.08,0.12,-0.99,3.11,2.44,1.83
22.8250,0.07,0.13,-0.99,3.48,2.20,1.71
22.8420,0.07,0.12,-0.98,3.17,2.50,2.08
22.8590,0.08,0.12,-0.98,3.97,1.95,1.89
22.8750,0.08,0.13,-0.98,3.97,2.26,1.77
22.8910,0.07,0.12,-0.99,3.48,2.08,1.71
22.9070,0.08,0.13,-0.98,3.54,2.44,1.59
22.9240,0.07,0.13,-0.98,3.48,1.83,1.59
22.9400,0.08,0.13,-0.98,2.69,2.32,1.95
22.9550,0.08,0.12,-0.98,2.50,2.50,1.83
22.9590,0.08,0.12,-0.98,3.36,2.20,1.83
22.9740,0.07,0.13,-0.99,3.78,2.32,1.77
22.9960,0.09,0.13,-0.99,3.42,2.56,1.71
23.0130,0.07,0.13,-0.98,2.93,2.38,1.83
23.0290,0.08,0.13,-0.99,2.62,2.44,1.89
23.0470,0.08,0.12,-0.98,2.81,2.08,1.59
23.0630,0.08,0.12,-0.98,2.50,2.26,1.77
23.0800,0.07,0.12,-0.97,2.99,2.32,1.83
23.0950,0.09,0.13,-0.98,4.33,2.26,1.95
23.1110,0.07,0.13,-0.99,3.23,2.44,1.65
23.1280,0.08,0.13,-0.98,3.30,2.32,1.59
23.1450,0.08,0.12,-0.98,3.42,2.44,1.53
23.1600,0.08,0.13,-0.98,2.69,2.56,1.46
23.1760,0.08,0.13,-0.99,3.42,2.26,1.34
23.1910,0.08,0.12,-0.98,3.36,2.75,1.77
23.2060,0.07,0.12,-0.97,4.64,2.44,2.32
23.2220,0.07,0.15,-0.98,5.07,1.77,2.08
23.2370,0.07,0.13,-0.99,4.58,2.32,2.08
23.2460,0.07,0.13,-0.99,4.15,2.62,2.01
23.2620,0.08,0.12,-0.98,1.46,1.71,1.46
23.2800,0.10,0.13,-0.99,3.05,2.26,1.59
23.2960,0.07,0.12,-0.98,0.73,2.38,1.59
23.3130,0.08,0.13,-0.98,2.75,2.32,2.56
23.3290,0.08,0.13,-0.98,2.08,1.77,4.03
23.3450,0.06,0.11,-0.99,2.32,1.71,3.11
23.3630,0.08,0.13,-0.99,3.60,2.01,1.71
23.3790,0.08,0.12,-0.98,3.48,2.50,1.89
23.3940,0.08,0.12,-0.98,3.78,2.20,1.89
23.4100,0.08,0.13,-0.98,4.70,2.01,1.83
23.4260,0.08,0.13,-0.99,5.13,2.26,1.83
23.4290,0.07,0.13,-0.99,4.03,1.95,0.67
23.4440,0.08,0.13,-0.98,4.46,2.26,0.92
23.4670,0.08,0.12,-0.98,4.52,2.08,0.73
23.4840,0.08,0.13,-0.99,5.00,1.89,1.28
23.5010,0.08,0.12,-0.98,3.17,2.38,1.65
23.5160,0.07,0.13,-0.98,3.66,2.38,1.65
23.5320,0.07,0.13,-0.99,2.81,2.26,1.53
23.5480,0.07,0.13,-0.99,2.69,2.69,1.65
23.5640,0.08,0.12,-0.98,2.08,2.56,1.59
23.5810,0.08,0.12,-0.98,3.30,2.01,1.53
23.5960,0.07,0.13,-0.98,3.42,2.14,1.65
23.6110,0.08,0.13,-0.98,3.85,2.20,1.65
23.6280,0.08,0.13,-0.98,3.23,2.14,1.83
23.6340,0.08,0.13,-0.98,3.05,2.56,1.83
23.6500,0.08,0.13,-0.98,2.81,2.38,1.77
23.6720,0.08,0.13,-0.98,2.93,2.38,1.77
23.6890,0.08,0.13,-0.98,2.62,2.20,1.77
23.7050,0.08,0.13,-0.99,2.93,2.44,1.83
23.7220,0.08,0.12,-0.98,2.44,2.38,1.77
23.7380,0.08,0.12,-0.98,3.11,2.44,1.83
23.7550,0.08,0.13,-0.98,4.03,2.08,1.89
23.7700,0.08,0.13,-0.98,3.36,2.14,1.77
23.7850,0.08,0.13,-0.98,2.93,2.38,1.77
23.8010,0.08,0.13,-0.98,2.87,2.01,1.77
23.8170,0.09,0.13,-0.98,2.44,2.14,1.83
23.8320,0.07,0.13,-0.98,2.69,2.14,2.01
23.8470,0.08,0.13,-0.99,2.87,2.08,2.14
23.8610,0.08,0.12,-0.98,2.44,2.26,2.32
23.8730,0.08,0.13,-0.98,3.17,2.26,2.50
23.8890,0.08,0.13,-0.98,3.17,2.20,2.20
23.9050,0.09,0.13,-0.99,2.99,2.32,2.01
23.9220,0.10,0.13,-0.97,1.16,1.77,3.36
23.9390,0.08,0.13,-0.98,1.22,2.26,3.48
23.9550,0.06,0.12,-0.98,2.20,1.77,3.42
23.9710,0.06,0.13,-0.98,3.66,2.44,2.01
23.9860,0.07,0.13,-0.99,3.54,2.32,1.95
23.9890,0.09,0.13,-0.98,3.30,2.50,1.89
24.0140,0.08,0.12,-0.98,3.05,1.53,1.83
24.0270,0.08,0.13,-0.99,3.48,1.95,1.65
24.0440,0.07,0.13,-0.98,2.93,2.44,1.95
24.0610,0.08,0.13,-0.98,3.17,2.08,2.14
24.0770,0.08,0.12,-0.97,3.42,2.01,1.95
24.0940,0.08,0.13,-0.98,3.30,2.20,1.89
24.0980,0.08,0.13,-0.98,3.11,2.38,2.01
24.1160,0.09,0.13,-0.98,2.93,2.44,2.14
24.1330,0.08,0.12,-0.98,2.81,2.26,2.01
24.1480,0.08,0.12,-0.98,3.36,2.32,1.46
24.1690,0.08,0.12,-0.98,3.72,2.32,1.22
24.1840,0.08,0.13,-0.99,4.03,2.32,1.40
24.1990,0.08,0.12,-0.99,3.97,2.44,1.95
24.2150,0.08,0.13,-0.98,3.23,2.20,2.14
24.2200,0.08,0.12,-0.98,2.56,2.38,3.17
24.2470,0.07,0.13,-0.99,3.11,2.26,2.87
24.2640,0.09,0.13,-0.98,2.99,2.20,2.69
24.2800,0.08,0.13,-0.97,2.75,1.95,2.69
24.2950,0.07,0.13,-0.98,3.23,2.08,2.01
24.3120,0.06,0.12,-0.98,3.11,2.08,1.95
24.3200,0.08,0.13,-0.98,3.30,2.14,1.59
24.3350,0.08,0.12,-0.98,3.05,2.20,1.53
24.3570,0.07,0.13,-0.99,3.17,2.26,1.71
24.3740,0.07,0.13,-0.98,3.42,1.95,1.89
24.3900,0.08,0.13,-0.98,3.30,2.32,1.83
24.4060,0.08,0.13,-0.99,3.05,1.95,1.83
24.4220,0.08,0.13,-0.98,3.17,2.32,1.95
24.4380,0.08,0.12,-0.98,3.17,2.62,1.83
24.4540,0.08,0.13,-0.98,3.60,2.38,1.83
24.4700,0.08,0.13,-0.99,3.60,2.08,1.83
24.4850,0.08,0.13,-0.98,3.05,2.32,1.77
24.5000,0.08,0.12,-0.98,2.44,2.56,1.83
24.5170,0.10,0.13,-0.99,2.93,1.83,1.77
24.5230,0.06,0.12,-0.98,2.75,2.20,1.71
24.5410,0.08,0.13,-0.99,3.60,2.26,1.89
24.5620,0.08,0.12,-0.98,2.87,2.38,2.08
24.5740,0.08,0.12,-0.98,3.30,2.56,1.89
24.5900,0.08,0.13,-0.98,3.72,2.32,1.71
24.6070,0.08,0.13,-0.98,3.72,2.20,1.71
24.6250,0.08,0.13,-0.98,3.23,2.62,1.71
24.6400,0.08,0.13,-0.98,3.48,2.44,1.71
24.6570,0.08,0.13,-0.98,3.17,2.08,1.65
24.6720,0.08,0.13,-0.98,2.81,2.14,2.01
24.6880,0.08,0.12,-0.98,2.01,2.20,2.38
24.7020,0.08,0.13,-0.98,2.81,2.50,2.75
24.7170,0.07,0.12,-0.98,3.42,2.32,2.87
24.7250,0.07,0.13,-1.00,4.03,1.89,2.38
24.7410,0.08,0.13,-0.99,2.99,2.44,1.83
24.7570,0.08,0.13,-0.98,2.62,2.32,2.01
24.7740,0.08,0.12,-0.98,3.11,2.32,2.14
24.7910,0.08,0.13,-0.99,3.17,2.26,2.26
24.8070,0.08,0.13,-0.98,2.50,2.32,2.44
24.8220,0.08,0.12,-0.97,2.56,2.44,2.44
24.8370,0.08,0.13,-0.99,3.48,2.50,2.32
24.8520,0.07,0.15,-0.98,3.42,2.14,2.32
24.8580,0.08,0.13,-0.98,3.11,2.20,2.20
24.8740,0.08,0.13,-0.98,2.32,2.75,2.32
24.8970,0.08,0.12,-0.98,2.93,2.75,2.44
24.9070,0.07,0.13,-0.98,3.05,2.44,2.08
24.9240,0.07,0.12,-0.98,3.30,2.20,1.77
24.9410,0.08,0.13,-0.99,3.17,2.20,1.65
24.9580,0.08,0.13,-0.98,2.81,2.26,1.65
24.9720,0.08,0.12,-0.98,3.54,2.26,1.77
24.9870,0.08,0.12,-0.99,3.60,2.26,1.59
25.0020,0.08,0.12,-0.99,3.48,2.75,1.77
25.0170,0.08,0.12,-0.98,3.17,2.50,2.20
25.0240,0.08,0.12,-0.98,2.56,2.14,3.48
25.0410,0.08,0.13,-0.99,2.69,1.95,4.15
25.0580,0.08,0.13,-0.98,2.87,1.95,3.66
25.0740,0.08,0.13,-0.98,3.05,2.08,3.48
25.0900,0.07,0.13,-0.98,2.99,2.20,3.36
25.1070,0.07,0.13,-0.98,3.11,2.14,3.36
25.1220,0.07,0.13,-0.98,3.17,2.01,2.87
25.1380,0.07,0.13,-0.98,3.30,2.01,2.38
25.1520,0.07,0.13,-0.98,3.05,2.50,2.01
25.1570,0.07,0.13,-0.98,3.48,2.44,1.71
25.1750,0.08,0.13,-0.99,2.87,2.50,1.83
25.1970,0.08,0.12,-0.98,2.87,2.99,1.77
25.2080,0.08,0.12,-0.98,2.87,2.26,1.89
25.2240,0.08,0.13,-0.99,3.23,2.20,1.89
25.2400,0.08,0.13,-0.99,3.05,2.14,1.71
25.2570,0.09,0.13,-0.98,2.69,2.20,1.59
25.2730,0.07,0.12,-0.98,2.56,2.26,1.65
25.2870,0.09,0.13,-0.99,3.60,2.50,1.53
25.3020,0.08,0.12,-0.98,2.87,2.14,1.28
25.3140,0.08,0.13,-0.99,3.60,2.01,1.22
25.3330,0.08,0.13,-0.99,3.11,2.50,1.34
25.3470,0.08,0.13,-0.98,3.11,2.44,1.40
25.3630,0.08,0.12,-0.98,2.99,2.62,1.53
25.3740,0.08,0.12,-0.98,3.11,2.38,1.65
25.3900,0.08,0.13,-0.98,3.42,2.26,1.59
25.4100,0.08,0.13,-0.98,3.23,2.99,1.34
25.4140,0.07,0.13,-0.98,3.36,2.69,1.16
25.4400,0.08,0.13,-0.99,3.30,2.62,1.04
25.4550,0.07,0.12,-0.98,2.81,2.56,1.28
25.4630,0.08,0.13,-0.99,3.72,2.56,1.65
25.4800,0.08,0.13,-0.99,3.54,2.26,1.46
25.4960,0.07,0.12,-0.98,3.05,2.50,1.53
25.5150,0.08,0.13,-0.98,3.17,2.44,1.59
25.5300,0.07,0.13,-0.98,3.17,2.62,1.65
25.5450,0.07,0.13,-0.99,2.87,2.81,1.46
25.5610,0.08,0.13,-0.99,2.56,2.87,1.65
25.5770,0.08,0.12,-0.98,1.95,2.69,1.65
25.5790,0.08,0.12,-0.99,3.11,2.38,2.14
25.5950,0.08,0.12,-0.99,2.87,2.14,2.14
25.6240,0.08,0.13,-0.99,3.30,2.44,2.32
25.6340,0.08,0.12,-0.98,2.99,2.32,1.95
25.6510,0.07,0.13,-0.98,2.69,2.38,1.89
25.6670,0.08,0.13,-0.98,2.20,2.62,1.59
25.6840,0.08,0.13,-0.98,2.32,2.56,1.40
25.7000,0.08,0.12,-0.98,2.01,2.20,1.28
25.7170,0.07,0.12,-0.99,3.36,2.20,1.53
25.7320,0.09,0.13,-0.99,3.85,2.44,1.53
25.7470,0.08,0.12,-0.98,2.56,2.81,1.10
25.7510,0.07,0.13,-0.99,2.69,2.38,0.85
25.7670,0.08,0.13,-0.99,3.23,2.26,0.49
25.7890,0.07,0.12,-0.98,3.23,2.20,0.00
25.8050,0.08,0.12,-0.99,4.33,2.20,0.31
25.8220,0.08,0.12,-0.98,3.23,2.93,0.67
25.8380,0.07,0.12,-0.98,3.60,2.50,0.61
25.8550,0.08,0.12,-0.98,3.23,2.44,0.85
25.8710,0.08,0.13,-0.99,3.97,2.56,1.40
25.8870,0.08,0.12,-0.99,3.36,2.20,1.77
25.9030,0.08,0.12,-0.98,3.42,2.20,2.38
25.9180,0.08,0.12,-0.98,3.36,2.69,2.87
25.9330,0.07,0.13,-0.99,3.78,2.38,2.69
25.9490,0.07,0.13,-0.98,2.87,2.38,2.38
25.9650,0.08,0.13,-0.98,2.75,2.75,1.95
25.9810,0.08,0.12,-0.98,2.32,2.99,1.89
25.9960,0.08,0.12,-0.98,3.42,2.20,1.71
26.0110,0.08,0.12,-0.98,3.48,2.08,1.71
26.0220,0.07,0.13,-0.98,4.15,2.08,1.46
26.0390,0.07,0.13,-0.98,3.54,2.26,1.71
26.0560,0.08,0.13,-0.98,2.38,2.26,1.65
26.0720,0.08,0.12,-0.98,2.01,2.32,1.46
26.0880,0.07,0.13,-0.99,2.56,2.44,1.40
26.1060,0.08,0.12,-0.98,3.17,2.32,1.83
26.1220,0.08,0.12,-0.98,3.60,2.50,1.77
26.1370,0.08,0.13,-0.99,4.15,2.20,1.71
26.1520,0.08,0.12,-0.98,3.30,2.62,1.77
26.1670,0.08,0.13,-0.98,3.17,2.14,1.71
26.1810,0.08,0.12,-0.98,2.99,2.56,1.65
26.1970,0.08,0.12,-0.98,3.05,2.50,1.53
26.2060,0.07,0.12,-0.98,3.72,2.56,1.65
26.2220,0.08,0.13,-0.99,4.09,2.08,1.46
26.2390,0.08,0.13,-0.99,2.75,2.50,1.28
26.2470,0.07,0.12,-0.99,2.50,2.38,1.53
26.2630,0.08,0.13,-0.98,3.30,2.20,1.46
26.2870,0.08,0.13,-0.99,3.66,2.38,1.59
26.3020,0.08,0.12,-0.98,3.17,2.20,1.65
26.3170,0.08,0.13,-0.98,2.99,2.14,1.77
26.3320,0.08,0.12,-0.98,2.62,2.32,1.59
26.3470,0.08,0.13,-0.98,2.93,2.26,1.46
26.3580,0.07,0.12,-0.99,2.81,2.32,1.59
26.3740,0.07,0.13,-0.99,2.81,2.08,1.40
26.3910,0.07,0.12,-0.99,2.87,2.26,1.65
26.3990,0.08,0.12,-0.98,2.99,2.20,1.65
26.4220,0.08,0.13,-0.99,3.23,2.01,1.83
26.4370,0.07,0.12,-0.98,2.69,2.20,1.53
26.4510,0.08,0.13,-0.98,3.05,2.44,1.65
26.4670,0.07,0.12,-0.98,3.11,2.32,1.65
26.4830,0.08,0.12,-0.99,3.17,2.38,1.71
26.4970,0.08,0.13,-0.98,2.87,2.69,1.83
26.5080,0.07,0.12,-0.98,2.93,2.38,1.53
26.5270,0.08,0.12,-0.98,3.30,2.62,1.83
26.5410,0.08,0.13,-0.98,3.30,2.38,1.59
26.5570,0.08,0.12,-0.98,3.23,2.08,1.53
26.5720,0.08,0.12,-0.98,3.11,2.62,1.65
26.5870,0.08,0.13,-0.98,3.17,2.69,1.71
26.6020,0.08,0.12,-0.98,3.36,2.14,1.77
26.6170,0.07,0.12,-0.98,3.36,2.44,1.59
26.6300,0.07,0.13,-0.99,3.17,2.50,1.71
26.6470,0.07,0.12,-0.99,3.11,2.38,1.46
26.6570,0.07,0.12,-0.98,3.17,2.50,1.77
26.6750,0.08,0.14,-0.99,1.95,2.69,1.65
26.6910,0.08,0.12,-0.98,2.44,2.38,1.65
26.7070,0.08,0.12,-0.98,3.05,2.20,1.53
26.7220,0.07,0.12,-0.99,3.48,2.08,1.46
26.7370,0.08,0.12,-0.99,3.42,1.89,1.65
26.7490,0.08,0.12,-0.98,3.23,2.26,1.71
26.7680,0.08,0.13,-0.98,3.30,2.44,1.65
26.7830,0.08,0.12,-0.98,2.87,2.26,1.59
26.7970,0.08,0.13,-0.99,3.36,2.50,1.28
26.8060,0.07,0.12,-0.98,3.11,2.26,1.16
26.8290,0.08,0.13,-0.98,3.66,2.14,1.28
26.8430,0.08,0.12,-0.98,2.93,2.32,1.28
26.8580,0.08,0.12,-0.98,3.72,2.20,1.53
26.8730,0.07,0.12,-0.98,3.60,2.32,1.34
26.8800,0.08,0.13,-0.99,3.78,2.20,1.53
26.8960,0.08,0.12,-0.98,3.30,2.32,1.40
26.9180,0.07,0.12,-0.98,3.60,2.01,1.16
26.9330,0.08,0.12,-0.98,3.48,2.44,1.53
26.9480,0.08,0.12,-0.98,3.85,2.44,1.40
26.9630,0.08,0.13,-0.99,3.30,2.32,1.10
26.9780,0.07,0.12,-0.98,2.81,2.50,1.10
26.9880,0.07,0.13,-0.99,3.48,2.26,1.40
27.0050,0.07,0.13,-0.99,2.81,2.50,1.77
27.0210,0.08,0.12,-0.98,2.44,2.87,1.83
27.0360,0.08,0.12,-0.98,3.17,2.32,1.89
27.0550,0.08,0.12,-0.98,3.42,2.44,1.83
27.0710,0.08,0.13,-0.98,3.72,2.32,1.71
27.0870,0.08,0.13,-0.98,3.30,2.62,1.89
27.1020,0.08,0.12,-0.98,3.42,2.50,1.59
27.1170,0.08,0.13,-0.98,2.93,2.26,1.71
27.1330,0.08,0.12,-0.98,2.75,2.56,1.83
27.1480,0.09,0.13,-0.98,2.69,2.44,1.40
27.1630,0.07,0.12,-0.98,2.81,2.38,1.16
27.1780,0.08,0.12,-0.98,3.17,2.56,1.65
27.1900,0.08,0.12,-0.98,3.48,2.69,1.71
27.2060,0.08,0.12,-0.98,3.66,1.71,1.46
27.2230,0.08,0.12,-0.98,3.23,2.38,1.53
27.2400,0.07,0.12,-0.98,2.87,2.20,1.59
27.2570,0.08,0.12,-0.98,3.05,2.26,1.77
27.2720,0.08,0.12,-0.99,3.17,2.32,1.77
27.2890,0.08,0.13,-0.98,2.69,2.81,1.77
27.3050,0.08,0.12,-0.97,2.26,2.75,1.59
27.3150,0.06,0.13,-0.99,3.11,2.50,1.04
27.3220,0.08,0.12,-0.98,2.56,2.32,1.77
27.3520,0.08,0.13,-0.98,2.81,2.38,1.83
27.3620,0.08,0.13,-0.99,1.95,2.38,1.83
27.3780,0.08,0.12,-0.98,1.34,2.75,1.77
27.3960,0.08,0.12,-0.98,2.26,2.44,1.89
27.4110,0.08,0.12,-0.98,2.81,2.69,1.83
27.4280,0.08,0.13,-0.99,3.36,2.56,1.83
27.4440,0.08,0.12,-0.99,2.62,2.50,1.83
27.4600,0.08,0.12,-0.98,2.44,2.38,1.83
27.4760,0.08,0.12,-0.98,2.81,2.56,1.77
27.4920,0.08,0.12,-0.98,3.60,2.56,1.95
27.5080,0.07,0.12,-0.98,3.78,2.75,1.95
27.5230,0.10,0.12,-0.98,3.36,2.20,1.65
27.5390,0.07,0.12,-0.98,3.42,2.44,2.08
27.5530,0.07,0.12,-0.98,3.54,2.20,1.95
27.5690,0.08,0.12,-0.99,3.36,2.08,1.95
27.5790,0.08,0.12,-0.97,3.11,2.50,2.14
27.5950,0.07,0.13,-0.98,3.42,1.95,1.83
27.6120,0.08,0.13,-0.99,2.81,2.44,1.83
27.6280,0.07,0.12,-0.98,0.12,2.93,1.77
27.6450,0.09,0.08,-0.93,-0.49,2.87,1.34
27.6620,0.08,0.12,-0.98,4.03,1.95,1.89
27.6780,0.08,0.12,-0.99,3.54,2.01,2.08
27.6940,0.08,0.11,-0.98,2.81,2.75,1.77
27.7100,0.08,0.12,-0.98,3.36,2.56,1.95
27.7270,0.11,0.12,-0.99,3.85,1.95,1.89
27.7420,0.07,0.12,-0.99,3.48,1.89,1.83
27.7450,0.07,0.12,-0.98,3.48,2.38,1.10
27.7600,0.08,0.12,-0.98,3.85,2.56,1.16
27.7880,0.07,0.12,-0.99,3.48,2.20,1.04
27.8000,0.08,0.12,-0.98,3.72,2.14,1.34
27.8170,0.08,0.12,-0.98,3.54,2.14,1.40
27.8330,0.07,0.12,-0.98,4.03,2.14,1.40
27.8480,0.07,0.13,-0.98,3.66,2.20,1.53
27.8640,0.08,0.12,-0.98,3.36,2.32,1.65
27.8800,0.08,0.12,-0.98,3.23,2.62,1.89
27.8960,0.08,0.12,-0.98,3.30,2.62,2.01
27.9120,0.09,0.12,-0.99,3.60,2.44,1.83
27.9290,0.08,0.12,-0.98,3.42,1.83,1.53
27.9440,0.08,0.13,-0.98,3.78,2.08,1.28
27.9500,0.07,0.12,-0.97,3.17,1.89,1.65
27.9670,0.07,0.13,-0.98,3.54,2.01,1.71
27.9820,0.08,0.12,-0.98,2.50,2.32,1.83
28.0060,0.07,0.12,-0.98,2.44,2.26,1.89
28.0210,0.08,0.12,-0.98,2.75,2.50,1.71
28.0230,0.08,0.13,-0.99,3.85,2.62,2.01
28.0540,0.08,0.13,-0.99,3.72,2.01,1.59
28.0690,0.08,0.12,-0.98,3.23,2.50,1.83
28.0840,0.08,0.12,-0.98,3.30,1.95,1.71
28.0990,0.08,0.12,-0.98,3.72,2.38,1.83
28.1050,0.08,0.13,-0.99,3.66,2.44,1.77
28.1210,0.09,0.12,-0.98,3.17,2.75,1.65
28.1440,0.08,0.12,-0.98,3.66,2.01,1.46
28.1600,0.07,0.13,-0.99,3.48,1.89,1.46
28.1610,0.08,0.13,-0.98,2.62,2.38,1.53
28.1770,0.08,0.12,-0.98,3.05,2.75,1.77
28.1940,0.08,0.12,-0.98,3.17,2.50,1.95
28.2160,0.09,0.12,-0.98,3.30,2.20,1.40
28.2270,0.07,0.13,-0.99,3.54,2.14,1.16
28.2540,0.08,0.12,-0.98,2.99,2.44,1.22
28.2600,0.07,0.13,-0.98,3.05,2.26,1.40
28.2770,0.08,0.12,-0.98,2.75,2.50,1.59
28.2930,0.07,0.12,-0.98,2.87,2.14,1.53
28.3090,0.07,0.13,-0.98,3.36,2.20,1.65
28.3300,0.08,0.12,-0.98,3.30,2.26,1.83
28.3460,0.08,0.12,-0.98,3.17,2.32,1.83
28.3620,0.08,0.12,-0.98,2.75,2.14,1.53
28.3770,0.08,0.12,-0.98,3.23,2.20,1.53
28.3920,0.08,0.12,-0.98,2.99,2.50,1.65
28.4000,0.08,0.12,-0.98,3.05,2.56,1.40
28.4160,0.08,0.13,-0.98,3.66,2.01,1.46
28.4360,0.07,0.13,-0.99,3.05,2.44,1.46
28.4530,0.08,0.13,-0.98,2.87,2.44,1.53
28.4690,0.08,0.12,-0.97,2.44,2.01,1.89
28.4850,0.07,0.12,-0.99,3.42,2.01,1.89
28.5010,0.08,0.13,-0.99,3.60,2.32,1.89
28.5150,0.08,0.12,-0.98,2.99,2.20,2.08
28.5310,0.08,0.12,-0.98,3.11,1.77,2.01
28.5490,0.08,0.13,-0.99,2.44,2.14,1.71
28.5530,0.08,0.12,-0.98,2.14,2.26,1.53
28.5680,0.07,0.12,-0.98,2.56,2.50,1.59
28.5930,0.07,0.12,-0.98,3.36,2.56,1.53
28.6100,0.08,0.12,-0.98,3.11,2.32,1.59
28.6260,0.07,0.12,-0.98,3.54,2.08,1.53
28.6420,0.08,0.12,-0.98,3.72,2.32,1.65
28.6430,0.08,0.12,-0.98,3.42,2.32,1.34
28.6740,0.09,0.12,-0.98,3.78,2.20,1.40
28.6760,0.08,0.13,-0.99,3.48,2.38,1.10
28.7060,0.08,0.13,-0.99,3.23,2.26,0.61
28.7170,0.08,0.12,-0.97,2.01,2.50,1.34
28.7270,0.08,0.12,-0.99,2.14,2.62,1.65
28.7430,0.07,0.11,-0.98,1.65,2.56,1.59
28.7590,0.07,0.12,-0.98,2.50,2.26,1.53
28.7760,0.07,0.13,-0.98,3.30,2.20,1.46
28.7920,0.08,0.12,-0.98,3.54,2.32,1.59
28.8170,0.07,0.13,-0.99,3.42,2.08,1.40
28.8260,0.07,0.13,-0.99,2.69,2.32,1.46
28.8420,0.08,0.12,-0.98,2.08,1.77,1.77
28.8600,0.08,0.12,-0.98,2.56,2.62,1.77
28.8760,0.08,0.12,-0.99,2.69,2.32,2.01
28.8930,0.08,0.11,-0.98,3.11,2.38,1.83
28.8940,0.08,0.12,-0.98,4.09,2.44,1.83
28.9170,0.07,0.13,-0.99,4.33,2.62,1.83
28.9260,0.10,0.13,-0.99,3.23,2.62,1.71
28.9570,0.10,0.13,-0.98,2.08,2.44,0.06
28.9600,0.08,0.12,-0.98,2.38,2.38,-0.12
28.9890,0.08,0.12,-0.98,3.23,2.62,-0.49
29.0050,0.06,0.12,-0.99,3.23,2.14,-0.24
29.0170,0.07,0.12,-0.99,3.91,2.08,0.98
29.0250,0.07,0.12,-0.98,3.36,2.01,1.59
29.0500,0.08,0.13,-0.98,2.93,2.08,1.95
29.0660,0.08,0.12,-0.98,2.50,2.44,1.71
29.0820,0.08,0.12,-0.98,2.81,2.32,1.89
29.0990,0.08,0.12,-0.98,2.81,2.08,1.89
29.1140,0.08,0.12,-0.98,2.93,2.50,1.77
29.1300,0.08,0.12,-0.98,2.69,2.62,1.83
29.1460,0.08,0.12,-0.98,2.93,2.93,1.83
29.1620,0.07,0.12,-0.99,3.48,2.50,1.83
29.1780,0.08,0.12,-0.98,3.60,2.20,1.95
29.1840,0.09,0.12,-0.99,3.30,1.59,1.83
29.2100,0.08,0.12,-1.00,3.42,1.59,1.77
29.2170,0.08,0.13,-0.98,2.44,2.08,1.89
29.2420,0.08,0.13,-0.99,2.99,2.20,1.89
29.2580,0.08,0.12,-0.98,2.81,1.89,1.71
29.2740,0.08,0.11,-0.98,2.62,2.44,1.83
29.2890,0.07,0.12,-0.98,3.36,3.23,1.71
29.2990,0.08,0.12,-0.98,3.17,2.38,1.77
29.3180,0.12,0.13,-0.99,3.05,1.59,1.46
29.3330,0.06,0.12,-0.98,3.17,1.95,1.77
29.3490,0.07,0.12,-0.99,2.62,2.50,1.77
29.3650,0.08,0.12,-0.98,2.38,2.26,1.83
29.3810,0.09,0.12,-0.98,3.30,1.77,1.83
29.3980,0.08,0.11,-0.98,2.93,1.95,1.83
29.4120,0.08,0.12,-0.99,3.97,2.20,1.89
29.4290,0.07,0.12,-0.99,3.23,2.62,1.77
29.4450,0.09,0.12,-0.98,3.36,2.44,1.71
29.4610,0.07,0.13,-1.00,3.78,2.14,1.34
29.4770,0.09,0.12,-0.98,2.99,2.14,1.10
29.4920,0.07,0.11,-0.97,3.17,2.32,1.04
29.5080,0.07,0.13,-0.99,4.15,2.50,1.34
29.5230,0.09,0.12,-0.98,3.54,2.75,1.22
29.5330,0.07,0.12,-0.98,3.42,2.38,0.92
29.5490,0.07,0.13,-0.98,4.15,2.08,0.92
29.5670,0.07,0.12,-0.98,2.99,2.56,1.22
29.5670,0.07,0.12,-0.99,2.87,2.32,1.59
29.5980,0.08,0.12,-0.98,2.56,2.38,1.71
29.6140,0.08,0.11,-0.98,2.81,2.62,1.71
29.6300,0.08,0.12,-0.98,3.36,2.26,1.83
29.6460,0.07,0.12,-0.98,3.60,2.14,1.59
29.6620,0.08,0.13,-0.99,4.39,1.89,1.71
29.6770,0.07,0.12,-0.98,3.30,1.77,1.71
29.6930,0.08,0.12,-0.98,2.38,2.20,1.83
29.6990,0.08,0.13,-0.99,2.81,2.56,1.71
29.7180,0.08,0.12,-0.98,1.46,2.26,1.71
29.7380,0.08,0.12,-0.99,1.95,2.44,1.65
29.7540,0.09,0.11,-0.98,2.56,2.44,1.77
29.7710,0.08,0.12,-0.98,4.27,1.65,1.59
29.7870,0.10,0.13,-0.99,4.82,1.77,0.85
29.8020,0.07,0.12,-0.98,3.11,2.50,0.55
29.8170,0.07,0.13,-0.98,3.30,2.38,0.98
29.8320,0.07,0.12,-0.99,2.38,2.81,1.53
29.8480,0.08,0.12,-0.98,2.44,2.87,1.22
29.8630,0.08,0.12,-0.99,3.17,2.14,1.28
29.8780,0.07,0.12,-0.98,3.42,2.26,1.10
29.8930,0.09,0.12,-0.99,4.70,2.44,1.22
29.9050,0.09,0.11,-0.98,4.15,2.56,0.12
29.9210,0.08,0.12,-0.99,5.13,2.20,-0.43
29.9380,0.07,0.12,-0.98,3.97,2.26,-0.31
29.9540,0.07,0.13,-0.99,4.03,2.14,-0.31
29.9710,0.08,0.12,-0.99,3.78,2.08,0.12
29.9880,0.07,0.12,-0.98,3.78,2.14,0.31
30.0050,0.08,0.12,-0.98,3.54,2.14,0.85
30.0200,0.07,0.12,-0.98,3.23,2.20,1.10
30.0350,0.07,0.12,-0.98,3.23,1.89,1.65
30.0500,0.08,0.12,-0.99,3.11,2.26,1.65
30.0660,0.08,0.12,-0.99,2.62,2.44,1.71
30.0810,0.08,0.12,-0.98,2.01,2.01,1.59
30.0960,0.09,0.12,-0.98,2.26,2.20,1.59
30.1110,0.07,0.12,-0.99,3.11,2.08,0.67
30.1260,0.07,0.12,-0.98,3.66,1.95,1.04
30.1380,0.07,0.12,-0.98,3.72,1.89,1.04
30.1550,0.08,0.12,-0.99,4.33,1.89,1.34
30.1720,0.07,0.12,-0.99,3.42,2.38,1.65
30.1870,0.08,0.12,-0.99,4.03,2.20,1.89
30.2030,0.09,0.12,-0.98,4.33,1.65,1.40
30.2190,0.08,0.13,-0.99,4.52,1.95,1.10
30.2350,0.08,0.12,-0.98,3.91,2.01,1.16
30.2500,0.08,0.12,-0.98,3.17,2.26,0.92
30.2650,0.07,0.12,-0.98,3.30,2.38,1.28
30.2810,0.10,0.13,-0.98,3.91,2.01,1.53
30.2970,0.08,0.12,-0.98,3.30,1.95,1.16
30.3120,0.08,0.12,-0.98,3.66,2.44,0.98
30.3270,0.08,0.12,-0.98,3.42,2.50,1.04
30.3420,0.07,0.12,-0.98,3.11,2.26,0.92
30.3550,0.07,0.12,-0.99,3.23,2.26,0.67
30.3710,0.08,0.12,-0.99,2.93,2.38,0.49
30.3890,0.07,0.12,-0.98,2.87,2.01,0.31
30.4040,0.08,0.12,-0.98,3.23,2.50,0.55
30.4200,0.08,0.12,-0.98,3.36,2.26,0.61
30.4360,0.07,0.12,-0.99,3.36,2.44,0.73
30.4510,0.07,0.12,-0.98,3.30,2.26,0.92
30.4660,0.08,0.12,-0.98,3.17,2.38,1.16
30.4820,0.08,0.12,-0.99,3.23,2.20,0.92
30.4980,0.07,0.12,-0.98,2.62,2.26,1.04
30.5130,0.08,0.12,-0.99,3.17,2.08,1.22
30.5280,0.08,0.12,-0.98,3.05,2.14,0.98
30.5370,0.08,0.12,-0.98,3.54,2.14,1.28
30.5530,0.08,0.12,-0.98,3.66,1.89,0.98
30.5740,0.08,0.12,-0.99,3.66,2.14,0.92
30.5900,0.09,0.13,-0.98,2.87,2.38,0.98
30.6060,0.09,0.12,-0.97,3.11,2.38,0.24
30.6180,0.08,0.12,-0.99,3.60,2.26,0.06
30.6260,0.06,0.12,-0.99,3.85,2.14,0.43
30.6480,0.07,0.13,-0.98,1.53,2.56,1.53
30.6650,0.08,0.11,-0.97,1.53,2.69,1.65
30.6810,0.08,0.12,-0.98,4.21,2.20,1.83
30.6970,0.09,0.12,-0.99,4.94,2.20,1.95
30.7120,0.08,0.12,-0.98,3.30,2.44,1.89
30.7190,0.08,0.12,-0.98,5.25,2.62,1.89
30.7420,0.08,0.13,-0.99,4.64,2.01,1.28
30.7570,0.08,0.12,-0.98,3.72,2.08,1.10
30.7690,0.08,0.13,-0.99,3.42,2.26,1.04
30.7860,0.09,0.13,-0.99,2.38,2.32,0.85
30.8020,0.08,0.11,-0.97,1.95,2.38,0.24
30.8190,0.10,0.13,-0.98,4.21,2.44,0.24
30.8350,0.07,0.12,-0.98,3.42,2.81,-1.10
30.8510,0.06,0.12,-0.99,3.78,2.69,-0.55
30.8660,0.07,0.15,-1.00,3.54,2.44,0.37
30.8810,0.07,0.13,-0.99,2.50,2.44,0.61
30.8960,0.06,0.12,-0.99,2.99,2.56,1.10
30.9110,0.08,0.12,-0.99,3.42,2.32,1.71
30.9270,0.08,0.12,-0.98,1.71,2.14,1.89
30.9420,0.07,0.12,-0.99,3.54,2.20,1.89
30.9570,0.08,0.13,-0.99,3.54,1.89,1.77
30.9700,0.08,0.12,-0.98,3.30,2.20,1.65
30.9860,0.08,0.12,-0.98,3.85,1.83,1.77
31.0020,0.08,0.12,-0.98,2.99,1.83,1.71
31.0190,0.08,0.12,-0.98,2.75,2.14,1.77
31.0350,0.08,0.11,-0.97,2.38,2.26,1.71
31.0500,0.08,0.12,-0.98,3.30,2.01,1.65
31.0650,0.08,0.12,-0.98,3.42,2.01,1.71
31.0680,0.08,0.12,-0.98,3.78,2.14,1.89
31.0840,0.08,0.12,-0.98,3.30,2.32,1.95
31.1110,0.08,0.12,-0.99,3.30,1.95,1.77
31.1230,0.08,0.12,-0.98,3.36,1.83,1.77
31.1390,0.08,0.12,-0.99,3.60,1.89,1.89
31.1560,0.08,0.12,-0.98,4.15,1.71,2.01
31.1730,0.08,0.12,-0.98,5.31,1.71,2.08
31.1890,0.10,0.17,-1.03,11.29,-0.92,2.01
31.2050,0.07,0.10,-0.96,1.89,1.46,1.46
31.2210,0.08,0.12,-0.99,4.58,1.40,1.77
31.2360,0.08,0.13,-0.98,4.03,2.01,1.77
31.2510,0.05,0.10,-0.97,3.54,2.26,1.77
31.2660,0.08,0.12,-0.97,3.66,1.77,1.77
31.2800,0.08,0.12,-0.98,4.09,1.34,1.71
31.2950,0.08,0.13,-0.98,4.70,1.10,1.71
31.3110,0.08,0.13,-0.98,4.52,1.40,1.65
31.3220,0.08,0.13,-0.98,4.46,1.65,1.77
31.3400,0.08,0.13,-0.98,4.03,1.89,1.83
31.3550,0.08,0.13,-0.98,3.54,1.46,1.71
31.3720,0.08,0.13,-0.98,2.93,2.69,1.83
31.3780,0.08,0.13,-0.98,2.81,3.05,1.95
31.3970,0.08,0.13,-0.99,2.81,2.87,2.01
31.4120,0.08,0.13,-0.99,1.95,3.85,1.95
31.4300,0.06,0.14,-1.00,2.01,4.58,1.95
31.4450,0.08,0.13,-0.98,3.11,3.36,2.01
31.4620,0.08,0.15,-1.01,5.37,2.14,1.83
31.4790,0.08,0.15,-1.00,1.16,2.26,1.71
31.4970,0.08,0.13,-0.99,-0.92,2.44,1.65
31.5110,0.08,0.11,-0.97,0.00,2.44,1.59
31.5280,0.08,0.12,-0.98,3.91,1.95,1.77
31.5440,0.08,0.12,-0.98,4.88,2.08,1.83
31.5610,0.08,0.13,-0.99,5.49,2.08,1.89
31.5760,0.08,0.13,-0.99,4.64,2.20,1.89
31.5800,0.08,0.13,-0.99,2.62,2.93,1.89
31.6090,0.08,0.13,-0.99,2.14,2.44,1.89
31.6200,0.10,0.17,-1.03,0.79,2.62,1.65
31.6290,0.06,0.05,-0.91,-4.76,3.23,1.10
31.6450,0.08,0.16,-1.02,6.41,1.77,2.20
31.6680,0.08,0.06,-0.95,0.37,3.05,1.71
31.6840,0.07,0.21,-1.01,16.72,3.17,0.37
31.7000,0.07,0.12,-0.97,3.11,4.39,-7.93
31.7170,0.08,0.12,-0.98,2.26,4.21,-7.39
31.7330,0.09,0.16,-1.00,5.98,3.42,-3.72
31.7490,0.08,0.13,-0.96,3.17,2.81,0.12
31.7650,0.08,0.13,-0.98,3.36,2.20,1.71
31.7810,0.08,0.13,-0.98,3.48,2.14,1.95
31.7830,0.08,0.12,-0.98,2.99,2.38,2.14
31.7990,0.08,0.13,-0.98,3.42,2.14,1.89
31.8210,0.08,0.12,-0.98,3.30,2.56,2.01
31.8380,0.08,0.13,-0.99,3.54,2.32,1.95
31.8550,0.08,0.13,-0.98,3.17,2.14,1.89
31.8710,0.08,0.13,-0.98,3.30,2.38,2.08
31.8880,0.08,0.13,-0.98,3.42,2.44,1.95
31.9050,0.08,0.13,-0.98,3.23,2.26,1.95
31.9200,0.08,0.13,-0.98,3.11,2.08,1.89
31.9370,0.08,0.12,-0.98,3.11,2.56,1.95
31.9530,0.08,0.13,-0.98,3.36,2.14,1.83
31.9700,0.08,0.13,-0.98,3.23,2.01,1.83
31.9860,0.08,0.13,-0.98,3.11,2.26,1.89
32.0010,0.08,0.12,-0.98,2.99,2.44,1.71
32.0160,0.08,0.13,-0.98,3.11,2.56,1.46
32.0310,0.08,0.13,-0.98,3.11,2.26,1.83
32.0450,0.08,0.12,-0.98,3.30,1.95,1.71
32.0610,0.08,0.13,-0.98,3.17,2.38,1.65
32.0710,0.08,0.13,-0.98,3.30,2.32,1.71
32.0890,0.08,0.13,-0.98,3.23,2.50,1.71
32.1050,0.07,0.13,-0.98,3.54,2.08,1.53
32.1210,0.08,0.13,-0.98,3.42,2.20,1.89
32.1380,0.07,0.12,-0.98,3.42,1.77,1.95
32.1550,0.05,0.14,-0.98,4.70,1.89,2.26
32.1710,0.12,0.12,-0.99,4.21,2.56,2.01
32.1880,0.07,0.12,-0.99,3.42,2.62,1.83
32.2050,0.08,0.13,-1.00,7.57,1.89,2.32
32.2210,0.09,0.15,-1.01,4.39,2.93,0.85
32.2370,0.08,0.11,-1.00,3.17,2.32,1.16
32.2530,0.07,0.14,-0.98,1.28,2.14,3.66
32.2680,0.08,0.15,-0.98,1.71,2.26,3.17
32.2830,0.08,0.13,-0.98,1.59,2.38,1.59
32.2990,0.08,0.12,-0.98,1.71,2.50,1.71
32.3130,0.08,0.12,-0.98,4.03,1.95,1.77
32.3290,0.08,0.13,-0.98,4.70,2.01,2.01
32.3440,0.08,0.13,-0.99,5.37,1.65,2.01
32.3540,0.08,0.13,-0.98,3.85,2.69,1.89
32.3720,0.08,0.14,-0.98,3.30,2.87,1.89
32.3880,0.10,0.12,-0.98,2.14,2.69,1.22
32.4040,0.07,0.13,-0.98,2.69,2.69,-2.38
32.4210,0.05,0.13,-0.99,4.82,2.38,-1.46
32.4370,0.07,0.13,-0.98,4.58,2.32,-0.37
32.4530,0.11,0.10,-0.97,4.58,2.32,-0.37
32.4690,0.06,0.16,-1.01,5.37,2.26,-2.50
32.4860,0.07,0.11,-0.98,1.83,2.93,-1.53
32.5010,0.06,0.13,-0.98,3.97,2.26,-1.28
32.5170,0.08,0.13,-0.98,3.42,2.75,-1.83
32.5210,0.07,0.13,-0.98,3.91,2.08,-0.37
32.5370,0.08,0.13,-0.99,4.15,2.08,1.59
32.5630,0.08,0.09,-0.99,3.05,1.77,2.99
32.5780,0.08,0.10,-0.99,2.69,1.22,4.33
32.5950,0.08,0.12,-0.98,3.48,1.40,2.62
32.6100,0.07,0.14,-0.98,3.42,2.38,-0.85
32.6270,0.07,0.16,-0.99,4.09,2.56,-1.34
32.6420,0.07,0.15,-0.98,3.17,2.08,1.16
32.6450,0.08,0.14,-0.98,3.30,1.89,1.40
32.6620,0.08,0.13,-0.99,2.81,2.14,1.65
32.6780,0.08,0.13,-0.98,2.75,1.89,1.59
32.7010,0.08,0.13,-0.98,3.23,1.89,1.83
32.7200,0.08,0.13,-0.98,4.27,1.65,1.71
32.7340,0.08,0.13,-0.98,4.76,1.65,1.77
32.7510,0.08,0.13,-0.99,5.55,2.08,1.89
32.7670,0.07,0.12,-0.98,4.64,2.56,1.46
32.7830,0.07,0.12,-0.98,3.30,2.32,1.10
32.7990,0.08,0.14,-0.98,2.93,1.95,1.77
32.8140,0.08,0.14,-0.99,2.87,1.89,1.71
32.8280,0.08,0.13,-0.98,2.75,2.20,1.77
32.8450,0.08,0.13,-0.98,3.42,2.08,1.89
32.8590,0.08,0.13,-0.98,3.78,1.89,1.83
32.8760,0.08,0.13,-0.98,3.97,2.01,2.01
32.8920,0.07,0.12,-0.99,3.66,1.89,2.01
32.9080,0.07,0.11,-0.99,3.23,1.89,2.32
32.9240,0.08,0.13,-0.98,2.62,2.32,2.69
32.9260,0.08,0.14,-0.98,3.66,1.95,2.75
32.9540,0.07,0.11,-0.98,3.60,2.26,2.20
32.9610,0.08,0.13,-0.97,2.32,2.62,1.59
32.9780,0.08,0.14,-0.98,2.62,2.26,0.98
32.9950,0.08,0.14,-0.98,3.97,2.44,0.37
33.0150,0.08,0.14,-0.98,3.97,1.95,1.10
33.0280,0.08,0.15,-0.98,4.03,1.89,0.98
33.0430,0.08,0.14,-0.98,3.42,1.71,1.71
33.0610,0.08,0.13,-0.98,2.99,1.89,1.77
33.0770,0.08,0.13,-0.98,2.75,2.08,1.77
33.0930,0.08,0.13,-0.98,2.93,1.95,1.89
33.1080,0.08,0.13,-0.98,3.85,2.01,1.83
33.1200,0.08,0.13,-0.98,3.48,2.38,1.89
33.1280,0.08,0.13,-0.98,3.17,2.01,2.01
33.1540,0.08,0.13,-0.98,2.75,2.32,1.83
33.1690,0.08,0.13,-0.98,2.87,2.26,1.83
33.1850,0.08,0.13,-0.98,2.87,2.26,1.71
33.2000,0.08,0.13,-0.98,3.30,2.75,1.77
33.2140,0.08,0.13,-0.98,3.42,2.38,1.95
33.2290,0.08,0.13,-0.98,3.54,2.44,1.77
33.2390,0.08,0.13,-0.98,4.03,2.26,1.95
33.2550,0.08,0.13,-0.98,3.91,1.95,1.89
33.2730,0.08,0.13,-0.98,3.42,2.08,1.77
33.2890,0.07,0.12,-0.98,3.05,1.95,1.28
33.3060,0.08,0.12,-0.98,2.44,2.20,1.34
33.3200,0.08,0.13,-0.98,3.17,1.95,1.22
33.3230,0.08,0.13,-0.98,3.97,1.95,0.73
33.3520,0.08,0.13,-0.99,3.97,2.14,-0.85
33.3680,0.08,0.14,-0.98,2.99,2.50,0.12
33.3840,0.08,0.13,-0.98,2.87,2.01,-0.24
33.3890,0.08,0.14,-0.98,2.62,2.50,0.18
33.4040,0.08,0.14,-0.98,3.30,2.81,-0.61
33.4260,0.08,0.14,-0.98,3.23,2.87,-0.24
33.4430,0.08,0.13,-0.98,3.42,2.99,0.43
33.4610,0.08,0.12,-0.98,3.72,2.50,0.85
33.4760,0.08,0.13,-0.99,3.42,2.44,0.06
33.4920,0.08,0.15,-0.98,3.17,2.20,0.18
33.4940,0.08,0.14,-0.98,4.15,1.83,1.65
33.5200,0.08,0.13,-0.98,4.03,1.89,1.77
33.5390,0.08,0.12,-0.98,3.72,1.59,1.65
33.5550,0.08,0.13,-0.98,3.23,2.50,1.46
33.5600,0.07,0.12,-0.99,2.99,2.26,1.04
33.5780,0.07,0.13,-0.98,3.23,2.50,-0.06
33.6000,0.08,0.13,-0.98,3.30,1.89,1.04
33.6170,0.07,0.13,-0.98,3.36,2.50,-0.67
33.6330,0.08,0.14,-0.98,3.48,2.44,-0.18
33.6450,0.08,0.14,-0.98,3.91,2.44,-0.18
33.6610,0.08,0.14,-0.98,3.36,2.69,0.85
33.6790,0.08,0.13,-0.98,3.23,2.01,0.98
33.6950,0.08,0.12,-0.98,3.05,2.32,0.24
33.7100,0.08,0.13,-0.98,3.17,2.26,-0.12
33.7260,0.08,0.13,-0.98,3.54,2.38,0.24
33.7400,0.08,0.15,-0.98,3.36,2.38,0.73
33.7510,0.08,0.15,-0.98,3.60,2.26,1.89
33.7660,0.08,0.13,-0.98,2.75,2.08,1.71
33.7850,0.08,0.13,-0.98,1.89,1.71,1.71
33.8010,0.08,0.13,-0.98,1.77,1.89,1.71
33.8170,0.08,0.13,-0.98,2.08,1.77,1.83
33.8320,0.08,0.13,-0.98,2.56,2.20,1.83
33.8470,0.08,0.13,-0.98,2.62,2.20,1.77
33.8630,0.08,0.13,-0.98,3.48,2.14,1.89
33.8780,0.08,0.13,-0.98,4.15,2.20,1.89
33.8950,0.08,0.13,-0.98,4.09,1.89,1.89
33.9100,0.08,0.13,-0.98,3.36,1.95,1.77
33.9210,0.08,0.13,-0.98,3.17,1.83,1.89
33.9340,0.08,0.13,-0.98,3.30,2.20,1.89
33.9560,0.08,0.13,-0.98,3.91,2.08,1.83
33.9730,0.08,0.13,-0.98,4.27,1.77,1.83
33.9890,0.08,0.13,-0.98,4.27,2.20,1.77
34.0040,0.08,0.13,-0.98,3.97,2.38,2.01
34.0110,0.08,0.13,-0.98,4.15,2.01,1.77
34.0210,0.08,0.13,-0.98,3.85,1.95,1.71
34.0500,0.08,0.13,-0.98,3.72,1.77,1.77
34.0590,0.08,0.13,-0.98,3.30,2.01,1.83
34.0820,0.08,0.13,-0.98,3.05,2.01,1.59
34.0920,0.08,0.13,-0.98,3.23,2.08,1.77
34.1080,0.08,0.13,-0.98,3.48,2.20,1.77
34.1250,0.08,0.13,-0.98,3.91,1.89,1.71
34.1420,0.07,0.10,-0.99,2.87,2.08,0.61
34.1570,0.08,0.15,-0.97,3.17,2.08,0.73
34.1610,0.08,0.13,-0.98,4.09,1.89,-0.31
34.1760,0.07,0.13,-0.98,3.05,2.44,-0.61
34.2050,0.08,0.13,-0.98,2.99,2.08,-0.92
34.2200,0.08,0.14,-0.98,3.30,2.20,-0.85
34.2260,0.08,0.14,-0.98,3.60,1.95,0.67
34.2440,0.08,0.13,-0.98,2.81,1.59,0.85
34.2580,0.08,0.14,-0.98,3.85,2.08,1.40
34.2760,0.08,0.13,-0.98,3.42,2.08,1.65
34.2920,0.08,0.13,-0.98,3.30,2.38,1.59
34.3090,0.08,0.13,-0.98,3.42,1.89,1.83
34.3250,0.08,0.13,-0.98,3.36,2.44,1.59
34.3420,0.08,0.13,-0.98,3.36,1.77,1.22
34.3580,0.08,0.14,-0.98,3.05,1.83,1.65
34.3740,0.08,0.13,-0.98,3.05,2.26,1.89
34.3760,0.08,0.13,-0.98,3.23,2.01,1.77
34.4070,0.08,0.13,-0.98,3.30,2.38,1.83
34.4220,0.08,0.13,-0.98,3.78,2.32,1.83
34.4380,0.08,0.13,-0.98,3.54,2.14,1.83
34.4420,0.08,0.13,-0.98,3.48,2.20,1.65
34.4610,0.08,0.12,-0.98,3.42,2.44,0.49
34.4740,0.08,0.11,-0.99,3.66,2.62,-0.43
34.5000,0.08,0.11,-0.99,3.78,2.69,-0.61
34.5150,0.08,0.12,-0.98,3.05,2.20,-0.73
34.5300,0.07,0.13,-0.99,3.48,2.50,-1.83
34.5450,0.08,0.15,-0.98,3.72,2.50,-1.46
34.5500,0.08,0.15,-0.98,5.43,2.32,-1.71
34.5660,0.08,0.15,-0.98,4.64,2.26,-0.79
34.5900,0.08,0.14,-0.98,3.78,2.01,0.98
34.6080,0.08,0.13,-0.98,3.05,2.20,1.83
34.6240,0.08,0.13,-0.98,3.05,2.38,2.01
34.6400,0.08,0.13,-0.98,2.93,2.62,1.89
34.6410,0.08,0.14,-0.98,3.85,2.08,1.83
34.6580,0.08,0.14,-0.98,3.05,2.14,1.71
34.6870,0.08,0.13,-0.98,3.11,2.14,1.65
34.6910,0.08,0.13,-0.98,3.60,2.08,1.83
34.7110,0.08,0.12,-0.98,3.91,2.14,1.40
34.7300,0.08,0.12,-0.98,3.91,2.08,-0.37
34.7460,0.08,0.13,-0.98,3.85,2.26,-0.37
34.7620,0.08,0.12,-0.98,3.48,2.08,-0.98
34.7790,0.07,0.11,-0.99,3.42,2.69,-2.69
34.7790,0.07,0.13,-0.98,3.85,3.17,-3.05
34.8100,0.07,0.15,-0.98,3.30,2.56,-1.16
34.8270,0.09,0.17,-0.97,3.42,2.26,-0.61
34.8430,0.08,0.15,-0.98,2.50,2.20,1.77
34.8590,0.08,0.14,-0.98,2.44,2.38,1.71
34.8750,0.08,0.13,-0.98,2.44,1.95,1.65
34.8900,0.08,0.13,-0.98,2.87,1.65,1.77
34.9060,0.08,0.13,-0.98,3.66,1.53,1.89
34.9220,0.08,0.13,-0.98,3.23,2.14,1.95
34.9290,0.08,0.13,-0.98,3.42,1.89,1.89
34.9520,0.08,0.14,-0.98,3.48,2.01,2.01
34.9670,0.08,0.13,-0.98,3.48,2.38,1.95
34.9820,0.08,0.13,-0.98,3.85,1.83,1.89
34.9970,0.07,0.14,-0.98,4.15,1.89,1.83
35.0120,0.08,0.14,-0.98,4.46,1.95,1.83
35.0280,0.08,0.13,-0.98,4.82,1.89,1.83
35.0430,0.08,0.08,-0.99,3.60,2.62,-0.79
35.0580,0.08,0.13,-0.98,2.69,2.38,-2.01
35.0680,0.07,0.14,-0.97,3.17,2.75,-2.69
35.0840,0.08,0.15,-0.98,4.09,2.50,-0.85
35.1010,0.08,0.14,-0.98,4.03,2.62,-1.46
35.1170,0.08,0.16,-0.98,3.36,2.38,-1.04
35.1340,0.08,0.16,-0.98,3.54,2.44,0.85
35.1490,0.08,0.14,-0.98,3.54,1.95,1.77
35.1640,0.08,0.14,-0.98,2.93,2.26,1.71
35.1800,0.08,0.14,-0.98,2.69,2.20,1.77
35.1850,0.08,0.13,-0.98,2.50,2.26,1.65
35.2010,0.08,0.13,-0.98,3.11,2.01,1.71
35.2230,0.08,0.13,-0.98,3.36,2.08,1.83
35.2390,0.08,0.13,-0.98,3.48,2.01,0.98
35.2550,0.08,0.14,-0.98,3.42,2.20,0.67
35.2730,0.08,0.14,-0.98,3.11,2.26,1.59
35.2890,0.08,0.13,-0.98,3.23,2.20,1.59
35.3060,0.08,0.13,-0.99,3.66,2.26,1.34
35.3210,0.08,0.11,-0.99,3.42,2.50,0.43
35.3270,0.07,0.13,-0.98,3.23,2.38,-0.31
35.3520,0.08,0.14,-0.98,3.23,2.14,0.49
35.3670,0.08,0.13,-0.98,2.99,2.01,0.37
35.3820,0.08,0.14,-0.98,2.75,2.32,0.06
35.3970,0.08,0.14,-0.98,2.93,2.38,-0.12
35.4060,0.08,0.14,-0.98,3.23,2.26,0.37
35.4220,0.08,0.13,-0.98,3.72,2.20,0.67
35.4380,0.08,0.13,-0.98,3.48,2.32,0.73
35.4480,0.08,0.14,-0.98,3.36,2.62,0.31
35.4660,0.08,0.13,-0.98,3.30,2.50,0.55
35.4820,0.08,0.13,-0.98,3.05,2.26,-0.24
35.4990,0.08,0.13,-0.98,2.81,2.26,-0.12
35.5150,0.08,0.13,-0.98,3.78,2.08,-0.37
35.5310,0.08,0.12,-0.99,3.91,2.20,-1.28
35.5480,0.08,0.12,-0.98,3.72,2.75,-2.38
35.5620,0.08,0.13,-0.98,2.93,2.62,-2.56
35.5780,0.08,0.13,-0.98,3.30,2.26,-1.77
35.5930,0.08,0.13,-0.98,3.42,2.20,-0.85
35.6090,0.08,0.12,-0.98,3.72,2.44,-0.85
35.6240,0.07,0.11,-0.99,4.09,2.26,-1.65
35.6400,0.07,0.13,-0.98,3.17,2.56,-2.20
35.6550,0.08,0.17,-0.98,3.17,1.77,-0.55
35.6650,0.09,0.17,-0.98,3.11,2.20,0.49
35.6820,0.09,0.16,-0.98,3.30,2.08,1.16
35.6980,0.08,0.14,-0.98,3.17,2.14,1.46
35.7140,0.08,0.13,-0.98,2.14,2.32,1.71
35.7300,0.08,0.13,-0.98,2.69,2.20,1.71
35.7460,0.08,0.13,-0.98,3.36,2.01,1.95
35.7610,0.08,0.13,-0.98,3.23,2.01,1.71
35.7760,0.08,0.14,-0.98,2.56,1.89,1.77
35.7910,0.08,0.13,-0.98,1.83,2.08,1.65
35.8060,0.08,0.12,-0.98,1.77,2.26,1.77
35.8200,0.08,0.13,-0.98,3.54,1.83,1.83
35.8320,0.08,0.13,-0.98,3.85,1.95,1.83
35.8490,0.08,0.13,-0.98,4.88,2.14,1.83
35.8650,0.08,0.13,-0.98,4.03,2.38,1.89
35.8800,0.08,0.13,-0.98,3.85,2.50,1.65
35.8960,0.08,0.10,-0.99,3.97,2.26,0.98
35.8980,0.08,0.10,-0.99,2.20,2.01,1.22
35.9270,0.08,0.13,-0.98,2.69,2.14,0.43
35.9390,0.07,0.12,-0.98,3.48,2.50,-1.77
35.9550,0.07,0.13,-0.98,3.54,2.20,-1.10
35.9720,0.08,0.13,-0.98,3.05,2.08,-1.65
35.9890,0.08,0.14,-0.98,3.54,2.62,-1.71
36.0040,0.08,0.14,-0.98,3.60,2.08,-0.31
36.0200,0.09,0.13,-0.98,3.78,1.83,0.43
36.0360,0.08,0.11,-0.98,4.09,2.38,0.73
36.0520,0.08,0.15,-0.98,3.66,1.89,0.55
36.0680,0.08,0.15,-0.98,3.85,1.89,1.34
36.0830,0.08,0.14,-0.98,4.03,2.20,1.59
36.0890,0.08,0.14,-0.98,3.30,2.56,0.73
36.1130,0.08,0.15,-0.98,2.81,2.32,0.92
36.1230,0.08,0.14,-0.98,3.11,2.20,1.77
36.1390,0.08,0.13,-0.98,3.78,2.20,1.95
36.1550,0.08,0.13,-0.98,3.85,2.50,1.89
36.1720,0.08,0.12,-0.98,3.23,2.14,2.20
36.1880,0.08,0.12,-0.99,3.11,2.01,2.32
36.2050,0.08,0.13,-0.98,3.11,2.01,2.69
36.2210,0.08,0.14,-0.98,3.30,2.01,2.62
36.2360,0.08,0.15,-0.98,2.99,1.83,3.05
36.2520,0.08,0.14,-0.98,3.11,2.01,2.32
36.2560,0.08,0.13,-0.98,3.66,2.38,1.89
36.2800,0.08,0.12,-0.98,3.60,1.95,1.34
36.2870,0.08,0.12,-0.98,2.87,2.26,1.04
36.3120,0.08,0.14,-0.98,3.30,1.83,1.40
36.3280,0.08,0.12,-0.98,3.60,1.95,1.46
36.3310,0.08,0.13,-0.98,2.99,2.20,0.31
36.3600,0.08,0.15,-0.98,3.17,1.83,0.85
36.3760,0.08,0.15,-0.98,3.48,2.32,1.28
36.3920,0.08,0.14,-0.98,3.42,1.95,1.77
36.3980,0.08,0.13,-0.98,3.30,2.26,1.83
36.4250,0.08,0.12,-0.98,3.17,2.14,1.71
36.4300,0.08,0.12,-0.99,2.69,2.32,1.10
36.4460,0.08,0.13,-0.98,2.75,2.44,0.49
36.4700,0.08,0.13,-0.98,2.93,2.08,-0.18
36.4860,0.08,0.15,-0.98,3.05,2.62,0.37
36.5020,0.08,0.14,-0.98,3.48,2.08,1.10
36.5180,0.08,0.14,-0.98,3.54,2.01,1.40
36.5330,0.08,0.13,-0.98,3.48,2.38,1.34
36.5480,0.08,0.12,-0.99,3.30,2.44,1.16
36.5630,0.08,0.12,-0.99,3.36,2.56,-0.12
36.5780,0.08,0.13,-0.98,3.05,2.14,-0.18
36.5930,0.08,0.14,-0.98,3.17,2.38,0.06
36.6040,0.08,0.13,-0.98,3.60,2.44,0.24
36.6200,0.08,0.13,-0.98,3.17,2.75,-0.12
36.6370,0.08,0.14,-0.98,3.23,3.11,-0.06
36.6520,0.08,0.14,-0.98,3.72,2.01,0.73
36.6680,0.08,0.14,-0.98,3.42,1.95,0.61
36.6850,0.08,0.14,-0.98,2.87,2.20,0.98
36.7000,0.08,0.15,-0.98,3.05,2.01,0.98
36.7040,0.08,0.13,-0.98,2.62,1.95,1.59
36.7240,0.08,0.13,-0.98,2.08,2.14,1.71
36.7440,0.08,0.13,-0.98,2.81,2.01,1.53
36.7600,0.08,0.13,-0.98,3.85,2.62,1.04
36.7770,0.08,0.13,-0.98,4.21,2.38,0.24
36.7940,0.08,0.13,-0.98,4.03,2.56,-0.43
36.7950,0.08,0.13,-0.98,3.66,2.26,-1.10
36.8240,0.08,0.13,-0.99,3.66,2.20,-0.61
36.8400,0.08,0.13,-0.98,3.17,2.44,-0.98
36.8440,0.08,0.14,-0.98,3.48,2.14,-0.06
36.8690,0.08,0.14,-0.98,3.54,2.08,0.49
36.8840,0.08,0.13,-0.98,3.60,2.38,0.92
36.8930,0.08,0.13,-0.98,3.30,2.20,0.43
36.9110,0.08,0.13,-0.98,3.30,2.69,0.31
36.9280,0.08,0.14,-0.98,3.60,2.08,0.49
36.9440,0.08,0.14,-0.98,3.54,1.89,0.49
36.9600,0.08,0.14,-0.98,3.11,2.32,0.79
36.9610,0.08,0.14,-0.98,3.11,2.01,0.92
36.9770,0.08,0.14,-0.98,3.23,2.08,1.28
36.9940,0.08,0.13,-0.98,3.17,2.08,1.40
37.0200,0.08,0.13,-0.98,3.48,2.08,1.34
37.0280,0.08,0.12,-0.98,3.48,2.38,0.55
37.0430,0.08,0.13,-0.98,3.54,2.32,-0.85
37.0610,0.08,0.13,-0.98,3.48,2.26,-0.79
37.0770,0.08,0.13,-0.98,3.60,2.20,-0.37
37.0920,0.08,0.14,-0.98,3.23,2.44,0.00
37.1110,0.08,0.15,-0.98,3.23,2.44,0.85
37.1260,0.08,0.13,-0.98,3.78,2.08,1.34
37.1310,0.08,0.13,-0.98,3.17,2.32,0.98
37.1580,0.08,0.12,-0.98,3.23,2.62,0.18
37.1730,0.08,0.13,-0.98,3.48,2.56,0.24
37.1800,0.08,0.12,-0.98,3.85,2.56,-0.37
37.1960,0.08,0.14,-0.98,3.66,2.81,-0.24
37.2190,0.08,0.13,-0.98,3.60,2.01,-0.73
37.2350,0.08,0.14,-0.98,3.11,2.75,-1.46
37.2520,0.08,0.14,-0.98,3.30,2.69,-1.71
37.2680,0.08,0.14,-0.98,3.30,2.56,-0.49
37.2860,0.08,0.14,-0.98,3.17,2.62,-0.67
37.3010,0.08,0.14,-0.98,3.11,2.44,-0.31
37.3160,0.08,0.13,-0.98,3.36,2.69,-0.18
37.3240,0.08,0.11,-0.98,3.30,2.56,-0.73
37.3340,0.08,0.12,-0.98,3.17,2.87,-2.81
37.3560,0.08,0.13,-0.98,3.17,2.56,-2.14
37.3730,0.08,0.13,-0.98,3.42,3.11,-1.53
37.3890,0.08,0.13,-0.98,3.17,3.05,-1.59
37.4080,0.08,0.15,-0.98,3.60,2.38,-1.40
37.4230,0.08,0.13,-0.98,3.30,2.44,-0.61
37.4370,0.08,0.14,-0.98,4.09,2.50,0.43
37.4550,0.08,0.14,-0.98,3.60,2.08,-0.06
37.4700,0.08,0.15,-0.98,3.17,2.50,0.49
37.4870,0.08,0.15,-0.98,3.48,1.83,1.53
37.4920,0.08,0.13,-0.98,3.54,1.95,1.65
37.5180,0.08,0.13,-0.98,3.23,2.38,1.59
37.5250,0.08,0.13,-0.98,2.99,2.38,1.53
37.5480,0.08,0.13,-0.98,3.23,2.87,1.46
37.5580,0.08,0.13,-0.98,3.48,2.56,0.92
37.5740,0.08,0.14,-0.98,2.93,2.32,0.55
37.5900,0.08,0.14,-0.98,2.81,2.38,1.04
37.6060,0.08,0.13,-0.98,2.99,2.32,1.46
37.6260,0.08,0.13,-0.98,2.87,2.14,1.40
37.6420,0.08,0.12,-0.98,2.87,2.50,0.37
37.6570,0.08,0.12,-0.98,3.23,2.26,-1.28
37.6720,0.08,0.11,-0.98,3.60,2.50,-3.54
37.6800,0.07,0.12,-0.99,3.60,2.56,-5.13
37.6960,0.07,0.12,-0.98,3.54,2.87,-3.72
37.7170,0.08,0.15,-0.98,3.48,2.44,-2.69
37.7330,0.08,0.15,-0.97,3.17,2.50,-0.92
37.7500,0.08,0.14,-0.98,3.30,2.14,0.85
37.7660,0.08,0.14,-0.98,2.99,1.95,0.79
37.7810,0.07,0.13,-0.98,2.81,2.26,-0.24
37.7970,0.08,0.13,-0.98,3.17,2.14,0.06
37.8120,0.08,0.12,-0.98,3.36,2.20,-0.06
37.8270,0.08,0.12,-0.99,3.48,2.62,-1.04
37.8340,0.08,0.12,-0.98,3.17,2.50,-1.10
37.8560,0.08,0.13,-0.98,3.05,2.38,-1.53
37.8710,0.08,0.13,-0.98,3.60,2.38,-2.62
37.8830,0.08,0.15,-0.98,3.23,2.38,-2.62
37.9000,0.08,0.17,-0.97,3.23,1.95,-1.22
37.9160,0.08,0.13,-0.98,3.05,1.95,1.46
37.9330,0.08,0.13,-0.98,3.42,1.95,1.71
37.9490,0.08,0.12,-0.98,3.36,2.75,1.22
37.9660,0.08,0.12,-0.98,3.66,2.26,0.79
37.9810,0.08,0.12,-0.98,3.85,2.01,0.24
37.9960,0.08,0.13,-0.99,3.54,2.38,0.18
38.0120,0.08,0.14,-0.98,3.42,2.38,0.31
38.0250,0.08,0.14,-0.98,3.60,2.20,1.40
38.0320,0.08,0.13,-0.98,3.42,2.01,1.71
38.0580,0.08,0.13,-0.98,3.36,2.08,1.65
38.0720,0.08,0.12,-0.99,3.17,2.20,1.34
38.0880,0.08,0.12,-0.98,3.11,2.50,0.98
38.1050,0.08,0.12,-0.98,3.11,2.62,0.67
38.1070,0.08,0.11,-0.98,3.48,2.01,-1.59
38.1360,0.08,0.13,-0.98,3.48,2.32,-2.62
38.1400,0.08,0.14,-0.98,3.60,2.56,-1.83
38.1680,0.08,0.13,-0.98,3.30,2.75,-1.10
38.1730,0.08,0.14,-0.99,3.54,2.69,-1.04
38.1890,0.08,0.13,-0.98,3.05,2.75,-1.83
38.2050,0.08,0.15,-0.98,3.48,2.62,-1.65
38.2260,0.08,0.15,-0.98,3.78,1.59,0.67
38.2440,0.08,0.13,-0.98,3.54,1.59,1.46
38.2610,0.08,0.12,-0.98,2.99,2.38,1.04
38.2770,0.08,0.12,-0.98,2.93,2.44,-0.18
38.2930,0.08,0.13,-0.98,3.23,2.20,-0.61
38.3090,0.08,0.13,-0.98,3.66,2.01,0.18
38.3250,0.08,0.12,-0.98,3.60,2.32,-0.06
38.3410,0.08,0.13,-0.98,3.17,3.23,-0.43
38.3570,0.08,0.13,-0.98,2.99,2.81,-0.92
38.3730,0.08,0.13,-0.98,2.62,2.69,-0.92
38.3770,0.08,0.12,-0.98,2.08,2.44,0.31
38.3920,0.08,0.14,-0.98,1.59,2.81,0.49
38.4170,0.08,0.14,-0.98,1.89,2.81,0.61
38.4330,0.08,0.13,-0.98,2.62,2.32,-0.37
38.4360,0.08,0.13,-0.98,2.93,2.75,-0.98
38.4510,0.08,0.12,-0.98,4.03,2.50,-1.59
38.4780,0.08,0.12,-0.99,4.33,2.38,-1.28
38.4850,0.07,0.13,-0.98,3.97,2.32,-1.10
38.5030,0.08,0.15,-0.98,3.48,1.77,0.24
38.5190,0.08,0.15,-0.98,2.87,2.01,0.98
38.5350,0.08,0.13,-0.98,3.11,2.14,1.65
38.5510,0.08,0.13,-0.98,2.87,2.01,1.71
38.5680,0.08,0.12,-0.98,2.81,2.32,1.65
38.5840,0.08,0.12,-0.98,3.85,2.50,1.46
38.6010,0.08,0.12,-0.98,3.66,2.08,0.31
38.6170,0.08,0.13,-0.98,3.66,2.14,0.37
38.6340,0.08,0.12,-0.98,3.66,2.26,0.37
38.6500,0.08,0.12,-0.98,3.23,2.32,0.18
38.6650,0.08,0.12,-0.98,3.36,2.14,-0.12
38.6800,0.08,0.13,-0.98,3.17,2.44,0.43
38.6950,0.08,0.14,-0.98,3.60,2.01,0.49
38.7100,0.08,0.14,-0.98,3.11,2.38,0.55
38.7250,0.08,0.13,-0.98,3.36,2.38,1.04
38.7410,0.08,0.13,-0.98,2.99,2.44,0.85
38.7520,0.08,0.14,-0.98,3.42,1.71,1.16
38.7690,0.08,0.14,-0.98,3.78,2.20,1.71
38.7850,0.08,0.13,-0.98,2.99,2.38,1.89
38.8020,0.08,0.13,-0.99,3.11,2.14,1.83
38.8170,0.08,0.13,-0.98,3.17,1.59,1.77
38.8330,0.08,0.13,-0.98,3.60,1.71,1.71
38.8480,0.08,0.13,-0.98,2.14,2.08,1.59
38.8630,0.08,0.12,-0.98,1.16,2.26,1.65
38.8790,0.08,0.12,-0.98,2.62,1.89,1.71
38.8940,0.08,0.13,-0.98,3.30,2.50,1.83
38.9090,0.08,0.13,-0.98,4.09,2.32,1.95
38.9240,0.08,0.13,-0.98,4.33,2.56,1.95
38.9350,0.08,0.13,-0.98,4.09,2.32,2.01
38.9510,0.08,0.13,-0.98,3.85,2.32,1.95
38.9680,0.08,0.12,-0.98,3.85,2.38,1.40
38.9840,0.08,0.10,-0.99,2.08,2.01,1.83
39.0010,0.08,0.13,-0.98,2.75,2.20,2.01
39.0170,0.08,0.12,-0.98,2.99,2.14,0.85
39.0250,0.08,0.13,-0.99,3.30,1.83,0.18
39.0490,0.08,0.13,-0.98,3.11,2.38,-0.55
39.0650,0.08,0.14,-0.98,3.66,2.20,-0.06
39.0690,0.08,0.12,-0.99,3.48,2.50,-0.49
39.0850,0.08,0.13,-0.98,3.30,2.44,-0.67
39.1090,0.08,0.13,-0.98,3.66,2.01,-0.55
39.1260,0.08,0.12,-0.99,3.60,2.32,-0.61
39.1260,0.08,0.13,-0.99,3.30,2.81,-1.22
39.1560,0.08,0.15,-0.98,2.14,2.69,-0.98
39.1720,0.08,0.14,-0.98,1.46,2.81,0.00
39.1870,0.08,0.13,-0.98,2.08,2.38,1.28
39.1920,0.08,0.13,-0.99,2.69,2.62,1.83
39.2080,0.08,0.12,-0.98,2.81,2.87,1.59
39.2320,0.08,0.12,-0.98,3.30,2.38,0.43
39.2470,0.08,0.12,-0.98,4.09,2.44,0.31
39.2490,0.08,0.12,-0.98,4.09,2.62,0.43
39.2650,0.08,0.12,-0.98,4.15,1.89,0.73
39.2900,0.08,0.12,-0.98,4.27,2.32,0.92
39.3060,0.08,0.12,-0.99,4.03,2.32,0.92
39.3230,0.08,0.12,-0.99,2.81,2.81,0.18
39.3380,0.08,0.13,-0.98,2.81,2.62,0.18
39.3400,0.08,0.13,-0.98,3.85,1.95,0.98
39.3690,0.08,0.12,-0.99,3.97,1.71,1.65
39.3850,0.08,0.11,-0.99,4.09,1.65,2.81
39.3900,0.07,0.11,-0.98,5.49,0.18,5.68
39.4050,0.09,0.17,-0.97,2.81,0.43,7.51
39.4270,0.08,0.14,-0.98,3.17,1.71,3.85
39.4440,0.08,0.12,-0.98,2.99,2.01,2.20
39.4610,0.08,0.14,-0.98,2.99,1.89,1.77
39.4770,0.08,0.13,-0.98,3.42,1.83,1.40
39.4920,0.08,0.13,-0.98,3.11,2.38,-0.31
39.5080,0.08,0.14,-0.98,3.17,2.38,0.24
39.5240,0.08,0.13,-0.98,3.85,2.14,0.49
39.5390,0.08,0.13,-0.99,3.91,2.20,0.92
39.5550,0.08,0.15,-0.98,3.42,2.08,1.53
39.5610,0.08,0.15,-0.98,3.17,2.01,2.44
39.5770,0.08,0.13,-0.98,3.05,2.44,1.83
39.6010,0.08,0.11,-0.99,3.42,2.26,1.95
39.6170,0.08,0.12,-0.99,2.81,2.08,2.26
39.6330,0.08,0.13,-0.98,2.44,2.38,2.26
39.6340,0.08,0.12,-0.98,3.30,1.95,1.89
39.6650,0.08,0.13,-0.98,3.30,2.50,1.53
39.6810,0.08,0.15,-0.98,3.17,1.89,1.89
39.6960,0.08,0.15,-0.98,3.11,2.01,1.95
39.7120,0.08,0.13,-0.98,3.05,1.95,1.77
39.7270,0.08,0.13,-0.98,3.11,2.26,1.77
39.7430,0.08,0.13,-0.98,3.05,2.14,1.71
39.7590,0.08,0.13,-0.98,3.91,1.65,1.77
39.7660,0.07,0.09,-0.99,2.93,1.95,1.83
39.7820,0.08,0.13,-0.98,2.75,1.77,2.62
39.8030,0.08,0.14,-0.99,3.17,1.71,1.83
39.8200,0.08,0.13,-0.98,3.23,2.01,1.59
39.8370,0.08,0.13,-0.98,3.42,2.01,1.77
39.8520,0.08,0.12,-0.98,2.93,2.26,1.22
39.8680,0.08,0.13,-0.99,2.93,1.77,1.46
39.8840,0.08,0.13,-0.98,2.81,2.20,0.98
39.9010,0.08,0.13,-0.98,2.93,2.69,0.79
39.9030,0.08,0.14,-0.98,2.93,2.32,0.55
39.9250,0.08,0.13,-0.98,3.42,2.56,0.98
39.9480,0.08,0.13,-0.98,3.36,2.01,0.85
39.9580,0.08,0.14,-0.98,3.30,2.26,1.04
39.9750,0.08,0.13,-0.98,3.85,2.50,1.34
39.9910,0.08,0.12,-0.99,3.48,2.44,1.10
40.0080,0.08,0.14,-0.98,2.99,2.14,1.65
40.0250,0.08,0.14,-0.98,2.87,2.32,1.95
40.0410,0.08,0.14,-0.99,1.77,2.08,1.89
40.0570,0.08,0.13,-0.98,0.49,2.81,1.71
40.0730,0.08,0.12,-0.98,0.73,2.99,1.77
40.0880,0.08,0.12,-0.98,2.62,2.38,1.71
40.1020,0.08,0.12,-0.98,3.30,2.08,1.89
40.1080,0.08,0.12,-0.98,4.27,2.38,1.83
40.1250,0.08,0.13,-0.99,4.76,2.14,1.77
40.1480,0.08,0.09,-0.99,3.48,2.38,0.73
40.1650,0.08,0.14,-0.98,3.23,2.08,1.10
40.1800,0.08,0.13,-0.99,4.82,1.71,2.44
40.1950,0.08,0.11,-0.99,4.15,1.95,3.17
40.2100,0.08,0.12,-0.98,3.17,1.77,4.70
40.2250,0.08,0.13,-0.98,3.36,1.65,5.25
40.2410,0.08,0.12,-0.99,4.21,1.34,4.82
40.2550,0.08,0.11,-0.98,3.66,1.83,4.76
40.2710,0.08,0.13,-0.98,3.66,1.89,4.58
40.2810,0.08,0.14,-0.98,3.72,1.65,4.39
40.2980,0.08,0.16,-0.98,3.60,1.53,4.27
40.3150,0.08,0.14,-0.98,4.21,1.53,3.72
40.3310,0.08,0.13,-0.98,3.48,2.20,2.62
40.3470,0.08,0.13,-0.98,3.23,2.14,2.26
40.3630,0.08,0.12,-0.99,3.72,2.14,1.89
40.3780,0.08,0.11,-0.99,2.93,2.20,0.61
40.3930,0.08,0.13,-0.98,3.17,1.95,0.43
40.3980,0.08,0.14,-0.98,3.23,1.89,2.20
40.4250,0.08,0.13,-0.98,3.72,1.65,2.38
40.4380,0.09,0.15,-0.98,3.30,1.95,2.32
40.4550,0.08,0.13,-0.98,3.30,2.26,2.20
40.4710,0.08,0.13,-0.98,3.91,2.14,1.71
40.4870,0.08,0.11,-0.98,3.48,2.08,1.71
40.5030,0.08,0.11,-0.98,2.81,2.20,2.08
40.5050,0.08,0.13,-0.98,2.81,1.89,1.83
40.5250,0.08,0.15,-0.98,3.30,2.26,2.01
40.5380,0.08,0.14,-0.98,3.42,2.32,2.14
40.5540,0.08,0.13,-0.98,2.81,2.50,1.83
40.5700,0.08,0.13,-0.98,3.30,2.20,1.83
40.5980,0.08,0.13,-0.98,3.85,2.20,1.77
40.6090,0.08,0.13,-0.98,4.15,1.89,1.77
40.6250,0.08,0.12,-0.99,3.54,1.95,1.53
40.6420,0.08,0.13,-0.98,2.62,2.20,1.95
40.6590,0.08,0.13,-0.98,3.17,2.01,1.95
40.6750,0.08,0.12,-0.98,3.48,1.89,1.65
40.6910,0.08,0.10,-0.99,3.05,2.38,1.59
40.6930,0.07,0.11,-0.99,2.81,2.38,0.55
40.7220,0.08,0.11,-0.98,3.30,2.08,0.24
40.7260,0.07,0.14,-0.98,3.05,2.01,1.22
40.7440,0.08,0.15,-0.98,3.05,1.83,2.81
40.7600,0.09,0.16,-0.98,3.36,1.77,2.75
40.7760,0.08,0.13,-0.98,3.48,2.32,1.89
40.8000,0.08,0.12,-0.99,3.36,2.20,1.71
40.8090,0.08,0.12,-0.98,3.36,2.44,1.83
40.8250,0.08,0.11,-0.98,3.05,1.89,1.77
40.8460,0.08,0.11,-0.98,2.56,2.01,1.28
40.8610,0.08,0.16,-0.97,2.50,2.38,3.23
40.8680,0.08,0.14,-0.98,2.99,2.20,3.66
40.8840,0.08,0.10,-0.98,2.87,1.89,2.93
40.9070,0.08,0.10,-0.99,3.54,1.77,2.75
40.9220,0.08,0.12,-0.98,2.93,2.32,1.59
40.9250,0.08,0.14,-0.98,2.75,2.26,1.83
40.9530,0.08,0.14,-0.98,3.17,2.26,3.42
40.9680,0.08,0.15,-0.98,2.93,2.01,2.56
40.9730,0.08,0.16,-0.98,2.75,1.71,2.50
40.9880,0.08,0.13,-0.98,2.38,2.20,1.71
41.0120,0.08,0.13,-0.98,3.30,2.08,1.77
41.0280,0.08,0.13,-0.98,3.78,2.32,1.83
41.0430,0.08,0.13,-0.98,3.54,2.26,1.83
41.0580,0.08,0.13,-0.98,3.17,2.26,1.95
41.0630,0.08,0.13,-0.98,3.42,1.95,1.77
41.0780,0.08,0.13,-0.98,3.60,2.26,1.77
41.1010,0.08,0.13,-0.98,3.54,2.32,1.89
41.1180,0.08,0.07,-0.99,2.26,2.08,2.38
41.1340,0.08,0.09,-0.99,2.01,1.59,4.33
41.1500,0.08,0.13,-0.98,2.44,1.46,4.82
41.1660,0.08,0.13,-0.98,2.93,1.53,3.85
41.1810,0.08,0.14,-0.98,2.99,2.14,1.71
41.1970,0.08,0.14,-0.98,2.99,2.01,2.08
41.2110,0.08,0.13,-0.98,2.99,1.89,2.20
41.2280,0.08,0.13,-0.98,2.56,1.65,2.62
41.2420,0.08,0.14,-0.98,2.56,1.71,2.81
41.2570,0.08,0.14,-0.98,3.17,1.83,2.99
41.2680,0.08,0.13,-0.99,3.91,1.65,2.56
41.2840,0.08,0.11,-0.99,2.99,2.50,2.69
41.3050,0.08,0.12,-0.98,2.93,1.71,2.44
41.3190,0.08,0.13,-0.98,2.87,1.95,2.50
41.3350,0.08,0.14,-0.98,2.75,1.83,2.99
41.3500,0.09,0.15,-0.98,3.42,1.83,2.56
41.3640,0.08,0.14,-0.98,3.23,2.20,2.01
41.3740,0.08,0.13,-0.98,3.23,2.26,1.77
41.3900,0.08,0.13,-0.98,3.60,1.89,1.71
41.4070,0.08,0.13,-0.98,3.54,1.71,1.95
41.4230,0.08,0.13,-0.98,3.36,1.89,1.71
41.4390,0.08,0.12,-0.99,3.23,2.32,1.83
41.4550,0.08,0.11,-0.98,2.75,1.53,2.26
41.4700,0.08,0.14,-0.98,2.75,1.83,2.50
41.4730,0.08,0.13,-0.98,2.69,2.32,2.44
41.4890,0.08,0.13,-0.98,2.99,2.01,2.44
41.5120,0.08,0.14,-0.98,3.05,1.89,2.20
41.5280,0.08,0.13,-0.98,3.05,2.14,1.95
41.5440,0.08,0.13,-0.98,3.11,2.20,1.77
41.5610,0.08,0.13,-0.98,3.72,1.65,1.83
41.5770,0.08,0.13,-0.98,3.85,1.59,1.71
41.5930,0.08,0.12,-0.98,4.15,1.71,1.71
41.6090,0.08,0.12,-0.98,4.70,1.16,1.83
41.6240,0.11,0.13,-0.98,5.74,0.79,1.83
41.6410,0.08,0.13,-0.98,5.62,0.98,1.77
41.6570,0.08,0.14,-0.98,5.00,0.67,1.59
41.6730,0.08,0.14,-0.99,3.91,0.98,1.71
41.6880,0.08,0.13,-0.99,2.81,1.22,1.71
41.7040,0.09,0.13,-0.98,3.36,1.10,1.71
41.7190,0.09,0.13,-0.99,3.48,1.71,1.77
41.7340,0.08,0.13,-0.98,3.36,2.69,1.83
41.7450,0.08,0.13,-0.98,4.03,2.26,1.89
41.7620,0.08,0.14,-0.98,3.72,2.20,1.89
41.7780,0.08,0.13,-0.98,2.75,2.44,1.77
41.7950,0.08,0.14,-0.98,2.08,3.30,1.83
41.8110,0.07,0.13,-0.98,1.04,3.72,2.08
41.8270,0.09,0.12,-0.97,-0.06,3.85,1.95
41.8430,0.06,0.11,-0.98,0.37,2.99,1.71
41.8590,-0.02,0.11,-1.01,1.10,2.75,9.16
41.8740,0.10,0.13,-0.97,1.34,1.53,8.61
41.8910,0.08,0.21,-1.03,10.86,1.95,2.81
41.9070,0.08,0.12,-0.99,-0.24,2.99,1.59
41.9230,0.08,0.12,-0.98,2.56,2.44,1.77
41.9390,0.08,0.12,-0.98,2.50,2.75,1.83
41.9550,0.08,0.13,-0.98,4.15,1.89,1.89
41.9700,0.08,0.13,-0.98,4.39,1.59,1.83
41.9790,0.08,0.13,-0.98,2.50,2.20,1.77
41.9940,0.08,0.13,-0.98,2.26,1.95,1.65
42.0160,0.08,0.12,-0.98,2.50,1.95,1.77
42.0320,0.08,0.13,-0.99,3.23,1.95,1.77
42.0350,0.08,0.13,-0.98,2.93,2.32,1.83
42.0630,0.08,0.13,-0.98,3.48,1.83,1.77
42.0780,0.08,0.13,-0.98,3.48,1.95,1.83
42.0930,0.08,0.13,-0.99,2.75,2.20,1.77
42.1020,0.08,0.13,-0.98,1.95,2.14,1.65
42.1180,0.08,0.13,-0.98,3.17,1.95,1.83
42.1390,0.08,0.12,-0.98,2.81,2.08,1.77
42.1550,0.08,0.13,-0.99,2.99,1.83,1.71
42.1710,0.08,0.13,-0.98,3.23,2.14,1.89
42.1870,0.08,0.13,-0.98,3.11,2.01,1.71
42.2020,0.08,0.13,-0.98,2.87,2.32,1.71
42.2080,0.08,0.13,-0.98,2.69,1.95,1.89
42.2260,0.08,0.12,-0.98,2.93,1.95,1.71
42.2480,0.08,0.13,-0.99,4.70,1.95,1.89
42.2630,0.08,0.13,-0.98,3.17,2.50,1.83
42.2780,0.08,0.13,-0.98,2.56,2.01,1.95
42.2940,0.08,0.13,-0.98,3.11,2.08,1.89
42.2980,0.08,0.14,-0.99,3.54,2.01,1.83
42.3130,0.08,0.13,-0.98,1.89,2.32,1.65
42.3370,0.08,0.12,-0.98,2.69,2.26,1.77
42.3540,0.08,0.12,-0.98,2.99,2.08,1.83
42.3700,0.08,0.12,-0.98,3.60,1.77,1.77
42.3720,0.08,0.12,-0.98,4.88,1.89,2.01
42.3880,0.07,0.12,-0.98,4.21,2.14,1.59
42.4030,0.08,0.14,-0.98,3.91,2.75,-0.67
42.4270,0.09,0.15,-0.98,2.56,2.38,1.16
42.4420,0.06,0.07,-0.93,2.75,1.40,1.71
42.4610,0.08,0.14,-0.99,8.85,-0.55,1.77
42.4760,0.08,0.14,-0.98,5.49,0.55,1.77
42.4920,0.08,0.13,-0.98,3.30,1.40,1.71
42.5080,0.08,0.13,-0.98,2.01,1.95,1.71
42.5240,0.07,0.13,-0.99,6.23,-0.12,1.77
42.5410,0.08,0.12,-0.98,8.36,-0.18,2.01
42.5570,0.08,0.14,-0.98,7.08,0.49,1.89
42.5720,0.09,0.15,-0.99,5.62,0.73,1.83
42.5870,0.09,0.14,-0.98,1.95,2.01,1.65
42.6030,0.09,0.13,-0.99,0.98,3.11,1.77
42.6100,0.08,0.12,-0.98,1.46,3.30,1.77
42.6270,0.08,0.13,-0.98,4.39,3.17,1.95
42.6480,0.08,0.13,-0.99,3.85,2.87,2.08
42.6640,0.08,0.14,-0.98,2.93,3.11,2.01
42.6800,0.13,0.16,-1.01,0.92,3.42,1.77
42.6950,0.08,0.13,-0.99,0.31,4.09,1.77
42.6980,0.08,0.12,-0.97,2.44,3.42,1.89
42.7270,0.08,0.13,-0.99,6.90,2.75,1.10
42.7430,0.07,0.11,-0.96,-2.62,5.49,-9.83
42.7580,0.07,0.14,-0.96,2.75,3.54,-7.14
42.7720,0.08,0.14,-0.98,2.26,3.05,-1.10
42.7880,0.08,0.14,-0.99,4.52,1.89,2.01
42.7980,0.08,0.14,-0.99,2.26,2.32,1.89
42.8150,0.08,0.13,-0.98,0.55,3.23,1.83
42.8310,0.08,0.14,-0.98,0.12,3.05,1.95
42.8480,0.08,0.14,-1.00,1.40,3.54,1.83
42.8640,0.02,-0.19,-0.83,-20.75,5.98,0.24
42.8790,0.13,0.37,-1.18,28.93,-1.59,5.00
42.8940,0.05,0.02,-0.91,-7.69,3.17,1.22
42.9090,0.10,0.19,-1.03,11.60,1.95,2.14
42.9240,0.08,0.06,-0.93,-3.23,2.69,1.46
42.9400,0.09,0.16,-1.01,6.53,2.32,2.20
42.9570,0.08,0.11,-0.97,2.20,2.01,1.83
42.9720,0.08,0.12,-0.98,2.62,2.38,1.83
42.9870,0.08,0.14,-0.99,4.39,1.83,1.89
42.9980,0.08,0.13,-0.98,2.50,2.20,1.77
43.0160,0.08,0.13,-0.99,3.78,2.50,1.89
43.0320,0.08,0.12,-0.98,2.75,2.14,1.95
43.0480,0.08,0.13,-0.99,3.48,1.89,1.83
43.0650,0.09,0.13,-0.98,3.36,2.20,1.83
43.0800,0.08,0.12,-0.98,2.81,2.20,1.89
43.0950,0.08,0.13,-0.98,3.36,1.71,1.89
43.1100,0.08,0.13,-0.98,3.11,1.95,1.95
43.1150,0.08,0.13,-0.98,3.30,2.20,1.95
43.1310,0.08,0.13,-0.98,3.23,2.20,1.83
43.1530,0.08,0.13,-0.98,3.11,2.20,1.83
43.1690,0.08,0.13,-0.98,3.30,2.08,1.89
43.1860,0.08,0.13,-0.98,3.36,2.08,1.83
43.2020,0.08,0.13,-0.98,3.17,2.44,1.77
43.2190,0.08,0.12,-0.97,3.11,2.38,1.95
43.2350,0.09,0.12,-1.00,5.13,1.59,1.65
43.2510,0.09,0.16,-1.05,8.54,1.71,2.14
43.2670,0.02,-0.03,-1.00,0.24,1.89,3.60
43.2820,0.02,0.00,-1.00,1.89,1.40,8.00
43.2970,0.07,0.05,-1.00,3.85,1.95,4.70
43.3120,0.10,0.10,-0.98,2.69,2.44,3.91
43.3200,0.10,0.29,-0.94,-2.69,3.60,1.65
43.3360,0.18,0.30,-0.96,2.01,0.85,7.39
43.3530,0.08,0.10,-0.98,-0.85,2.08,1.65
43.3690,0.04,0.14,-0.98,3.11,2.32,2.26
43.3860,0.06,0.14,-0.99,1.28,2.14,3.42
43.4010,0.11,0.12,-0.98,1.46,1.95,5.49
43.4160,0.08,0.12,-0.98,0.61,1.77,6.10
43.4320,0.10,0.12,-0.98,2.99,1.10,5.80
43.4470,0.10,0.11,-0.99,2.81,1.59,4.94
43.4610,0.08,0.12,-0.98,2.56,2.01,2.87
43.4690,0.08,0.12,-0.98,2.44,2.14,3.30
43.4860,0.08,0.13,-0.98,2.26,1.95,2.81
43.5030,0.08,0.15,-0.99,2.26,2.32,3.11
43.5190,0.08,0.15,-0.98,1.53,2.50,3.66
43.5370,0.09,0.13,-0.98,1.28,2.99,2.56
43.5520,0.09,0.12,-0.99,2.93,2.56,1.65
43.5680,0.11,0.13,-0.96,1.83,2.62,1.46
43.5830,0.08,0.10,-0.98,4.27,2.81,-2.08
43.6000,0.06,0.07,-0.98,4.58,2.62,-2.75
43.6030,0.04,0.04,-0.99,3.85,2.44,-1.65
43.6280,0.08,0.12,-0.99,4.82,1.59,1.83
43.6450,0.08,0.12,-0.99,3.60,2.26,1.83
43.6530,0.08,0.12,-0.98,3.17,2.26,1.77
43.6680,0.08,0.12,-0.99,3.91,1.83,1.71
43.6860,0.08,0.12,-0.99,3.91,1.34,1.65
43.7040,0.08,0.12,-0.98,3.54,1.89,1.77
43.7200,0.08,0.12,-0.98,3.36,2.26,1.77
43.7380,0.08,0.12,-0.98,4.21,1.83,1.77
43.7540,0.08,0.12,-0.98,4.27,1.53,1.53
43.7700,0.08,0.12,-0.99,4.82,1.10,1.71
43.7880,0.08,0.12,-0.98,3.54,1.77,1.77
43.7880,0.08,0.12,-0.98,3.97,1.65,1.89
43.8040,0.08,0.12,-0.98,4.03,1.77,1.83
43.8290,0.08,0.12,-0.98,4.33,1.46,1.71
43.8380,0.08,0.13,-0.99,3.54,1.22,1.77
43.8530,0.08,0.12,-0.98,2.69,1.59,1.83
43.8820,-0.02,0.10,-1.00,3.17,1.95,2.75
43.8910,0.10,0.12,-0.99,4.03,1.59,8.18
43.9070,0.11,0.14,-0.98,3.17,1.22,6.53
43.9240,0.11,0.14,-0.98,2.75,1.46,3.42
43.9420,0.09,0.12,-0.98,1.89,1.28,2.38
43.9570,0.07,0.12,-0.98,2.08,2.32,2.08
43.9740,0.07,0.12,-0.99,3.05,1.95,2.69
43.9740,0.07,0.12,-0.98,3.30,2.08,3.42
44.0040,0.08,0.12,-0.98,4.27,1.59,3.66
44.0190,0.11,0.12,-0.99,3.78,1.46,2.93
44.0350,0.09,0.12,-0.98,3.36,1.89,2.26
44.0410,0.08,0.12,-0.98,3.11,2.01,1.71
44.0650,0.08,0.12,-0.99,2.99,2.08,1.83
44.0740,0.05,0.12,-0.97,2.50,2.01,1.83
44.0900,0.03,0.12,-0.98,4.33,2.01,3.72
44.1120,0.10,0.11,-0.98,4.03,1.65,3.30
44.1270,0.07,0.13,-0.99,4.21,2.14,2.99
44.1430,0.07,0.12,-0.98,3.30,1.89,3.05
44.1580,0.09,0.12,-0.99,3.17,1.77,3.36
44.1750,0.08,0.12,-0.98,3.17,1.95,3.11
44.1900,0.08,0.12,-0.98,3.17,2.32,3.05
44.2060,0.08,0.12,-0.99,3.60,2.08,2.87
44.2210,0.08,0.12,-0.98,3.36,2.08,2.93
44.2310,0.09,0.12,-0.98,3.17,1.89,3.17
44.2480,0.08,0.12,-0.98,2.87,1.89,2.38
44.2640,0.08,0.12,-0.98,3.36,1.95,2.50
44.2800,0.08,0.12,-0.99,3.72,1.77,2.50
44.2960,0.08,0.12,-0.98,3.48,1.95,2.26
44.3110,0.08,0.12,-0.99,3.60,1.89,2.44
44.3260,0.09,0.12,-0.98,3.36,1.77,2.38
44.3310,0.08,0.12,-0.98,3.17,2.01,2.20
44.3470,0.08,0.13,-0.99,3.30,2.14,2.14
44.3710,0.07,0.12,-0.98,2.93,2.01,2.08
44.3880,0.08,0.12,-0.98,3.17,2.26,2.50
44.4030,0.08,0.12,-0.98,2.99,1.65,2.38
44.4180,0.08,0.12,-0.99,3.30,1.65,2.38
44.4340,0.07,0.12,-0.98,3.05,2.08,2.44
44.4510,0.09,0.13,-0.98,3.30,2.01,2.75
44.4550,0.08,0.12,-0.98,2.99,1.71,2.44
44.4820,0.07,0.12,-0.98,3.17,1.83,2.81
44.4880,0.09,0.12,-0.98,2.75,2.01,2.87
44.5130,0.08,0.12,-0.98,3.48,1.95,2.50
44.5210,0.09,0.12,-0.98,3.11,2.20,2.38
44.5380,0.09,0.13,-0.99,2.81,2.56,2.20
44.5550,0.08,0.12,-0.98,2.20,2.50,2.01
44.5710,0.08,0.12,-0.98,2.99,1.89,1.95
44.5880,0.07,0.12,-0.99,3.78,2.01,2.08
44.6040,0.07,0.12,-0.98,3.30,2.01,2.32
44.6190,0.09,0.13,-0.98,3.30,1.95,2.44
44.6350,0.08,0.12,-0.98,2.69,2.26,2.14
44.6490,0.08,0.12,-0.99,3.23,2.01,2.26
44.6550,0.07,0.12,-0.99,3.48,2.38,2.26
44.6700,0.08,0.12,-0.98,2.99,2.32,2.50
44.6860,0.08,0.12,-0.98,1.89,2.32,2.44
44.7100,0.08,0.12,-0.98,2.56,1.77,3.05
44.7250,0.08,0.12,-0.99,3.30,1.71,2.87
44.7410,0.07,0.12,-0.98,3.05,2.32,2.93
44.7440,0.09,0.12,-0.98,3.23,1.95,2.87
44.7590,0.09,0.12,-0.98,2.75,1.89,2.38
44.7870,0.09,0.12,-0.99,3.11,1.95,2.20
44.7970,0.08,0.12,-0.98,3.11,2.20,1.95
44.8140,0.08,0.12,-0.98,3.48,2.08,1.83
44.8300,0.08,0.12,-0.98,3.30,2.44,1.77
44.8470,0.08,0.13,-0.99,3.78,2.26,1.89
44.8630,0.08,0.12,-0.98,3.05,2.26,1.59
44.8790,0.08,0.12,-0.98,2.69,2.20,1.71
44.8950,0.08,0.12,-0.98,3.17,2.08,1.71
44.9100,0.08,0.12,-0.98,3.23,2.01,1.83
44.9140,0.08,0.12,-0.98,3.60,1.71,1.77
44.9300,0.08,0.12,-0.98,3.91,1.71,1.83
44.9530,0.08,0.12,-0.98,3.54,2.01,1.89
44.9690,0.08,0.12,-0.98,3.36,1.83,1.95
44.9850,0.08,0.13,-0.99,3.36,2.26,1.77
45.0020,0.08,0.12,-0.98,2.87,2.38,1.83
45.0180,0.08,0.12,-0.98,3.30,2.26,1.89
45.0350,0.05,0.13,-0.99,3.97,2.14,2.38
45.0510,0.10,0.12,-0.98,3.23,2.44,2.56
45.0670,0.07,0.12,-0.98,3.60,2.08,1.89
45.0690,0.09,0.12,-0.98,3.60,1.89,2.20
45.0850,0.08,0.13,-0.99,4.03,2.01,2.08
45.1090,0.08,0.12,-0.98,3.66,1.89,1.77
45.1270,0.08,0.12,-0.99,3.78,1.95,1.83
45.1410,0.08,0.12,-0.98,3.23,2.14,1.77
45.1590,0.08,0.12,-0.98,3.72,2.26,1.77
45.1750,0.08,0.12,-0.98,3.72,2.32,2.50
45.1910,0.09,0.13,-0.99,3.42,2.38,2.44
45.2060,0.07,0.12,-0.99,2.99,2.20,2.01
45.2220,0.08,0.13,-0.98,3.17,2.26,2.20
45.2300,0.07,0.12,-0.98,2.62,2.08,2.20
45.2540,0.07,0.12,-0.98,3.54,2.08,2.62
45.2600,0.07,0.12,-0.98,3.17,2.08,2.62
45.2750,0.08,0.13,-0.99,3.54,2.14,2.87
45.2990,0.08,0.12,-0.98,3.36,1.83,2.81
45.3080,0.09,0.12,-0.98,3.60,2.01,2.75
45.3300,0.08,0.12,-0.98,2.87,2.14,2.50
45.3410,0.09,0.12,-0.98,3.72,1.95,2.44
45.3580,0.08,0.12,-0.98,3.17,2.38,2.14
45.3740,0.08,0.12,-0.98,2.87,1.95,2.01
45.3890,0.07,0.12,-0.98,2.93,2.38,2.14
45.3990,0.08,0.12,-0.98,3.23,2.32,2.08
45.4160,0.09,0.12,-0.98,4.03,2.20,2.08
45.4310,0.08,0.13,-0.98,4.21,2.01,1.95
45.4510,0.08,0.13,-0.99,3.42,1.89,1.83
45.4660,0.08,0.13,-0.99,3.11,1.65,1.77
45.4710,0.08,0.12,-0.98,2.56,2.20,1.65
45.4860,0.08,0.12,-0.98,2.75,1.83,1.65
45.5020,0.08,0.12,-0.99,3.11,2.14,1.77
45.5240,0.07,0.12,-0.98,2.75,2.26,1.89
45.5420,0.09,0.13,-0.98,2.81,2.26,1.83
45.5580,0.07,0.12,-0.98,2.56,1.89,1.89
45.5590,0.07,0.12,-0.98,3.23,2.32,2.01
45.5880,0.08,0.13,-0.98,2.99,2.32,2.20
45.5910,0.08,0.13,-0.98,3.30,2.26,1.95
45.6180,0.07,0.12,-0.98,2.99,2.01,2.14
45.6310,0.08,0.13,-0.99,3.17,1.83,2.20
45.6480,0.08,0.12,-0.98,3.11,2.20,2.32
45.6590,0.09,0.12,-0.98,3.05,2.08,2.32
45.6750,0.08,0.13,-0.99,2.62,1.77,2.14
45.6900,0.08,0.12,-0.98,2.56,2.32,2.50
45.7090,0.08,0.12,-0.99,2.99,2.14,2.38
45.7240,0.10,0.12,-0.98,2.99,2.14,2.26
45.7410,0.08,0.12,-0.98,2.75,2.38,1.71
45.7470,0.08,0.12,-0.99,3.23,2.08,1.89
45.7620,0.08,0.12,-0.98,2.56,2.38,1.95
45.7860,0.08,0.12,-0.98,2.87,2.20,1.95
45.8020,0.08,0.12,-0.98,2.75,2.20,1.95
45.8030,0.07,0.12,-0.99,2.87,2.50,1.95
45.8310,0.09,0.12,-0.98,2.87,2.08,1.89
45.8370,0.08,0.12,-0.98,2.99,2.14,1.83
45.8530,0.08,0.12,-0.98,3.23,2.08,1.83
45.8700,0.08,0.12,-0.98,3.60,2.14,1.89
45.8880,0.08,0.12,-0.99,3.48,2.01,1.95
45.9040,0.08,0.12,-0.98,3.48,2.26,1.95
45.9200,0.07,0.12,-0.98,3.48,2.08,1.95
45.9360,0.07,0.12,-0.98,3.11,2.38,1.95
45.9530,0.08,0.12,-0.99,3.30,2.32,2.08
45.9710,0.09,0.12,-0.98,3.42,2.01,1.95
45.9860,0.07,0.12,-0.99,3.91,1.95,1.95
46.0020,0.08,0.12,-0.99,3.42,2.32,1.95
46.0030,0.09,0.12,-0.98,3.85,2.08,1.95
46.0320,0.08,0.12,-0.98,2.93,2.32,1.83
46.0370,0.09,0.12,-0.98,2.75,2.14,1.89
46.0520,0.08,0.13,-0.99,2.50,2.20,1.95
46.0750,0.09,0.12,-0.98,2.99,2.20,2.14
46.0920,0.08,0.12,-0.98,3.11,2.32,2.08
46.1080,0.08,0.12,-0.98,3.91,1.89,2.01
46.1090,0.08,0.12,-0.99,3.54,1.77,1.83
46.1400,0.08,0.12,-0.98,3.48,2.32,1.65
46.1560,0.09,0.12,-0.98,3.36,2.44,1.71
46.1590,0.08,0.12,-0.98,3.36,1.95,1.71
46.1860,0.08,0.12,-0.99,3.78,2.44,1.77
46.1920,0.08,0.12,-0.98,3.60,1.95,1.65
46.2080,0.08,0.12,-0.99,2.87,2.20,1.65
46.2310,0.08,0.12,-0.98,2.50,1.89,1.77
46.2470,0.08,0.12,-0.98,2.20,2.32,1.77
46.2620,0.08,0.12,-0.98,1.95,2.56,1.59
46.2660,0.08,0.12,-0.99,2.81,2.01,1.83
46.2810,0.08,0.11,-0.98,2.32,2.01,1.83
46.3040,0.08,0.12,-0.99,3.60,2.08,1.77
46.3220,0.07,0.12,-0.99,3.72,2.08,1.89
46.3380,0.09,0.12,-0.98,3.78,2.26,2.14
46.3540,0.07,0.12,-0.99,3.97,1.95,2.01
46.3710,0.08,0.12,-0.98,3.60,1.65,2.14
46.3860,0.08,0.12,-0.98,3.48,1.95,2.01
46.4020,0.08,0.12,-0.98,3.54,2.26,2.20
46.4180,0.08,0.12,-0.98,3.05,1.77,2.38
46.4330,0.08,0.12,-0.99,2.93,2.26,2.38
46.4490,0.08,0.12,-0.98,3.05,2.32,2.26
46.4640,0.08,0.12,-0.98,3.42,2.32,2.08
46.4750,0.08,0.12,-0.98,3.30,2.44,2.08
46.4900,0.08,0.12,-0.99,3.05,2.32,2.08
46.5090,0.08,0.12,-0.98,2.81,2.38,1.77
46.5270,0.06,0.12,-0.98,2.99,2.44,1.83
46.5420,0.09,0.12,-0.98,3.05,2.20,2.62
46.5590,0.09,0.12,-0.98,2.99,2.14,2.38
46.5740,0.08,0.12,-0.98,3.30,1.95,2.08
46.5770,0.08,0.13,-0.99,3.72,2.38,2.14
46.6040,0.08,0.12,-0.98,2.99,2.26,1.77
46.6190,0.07,0.12,-0.99,2.69,2.44,2.38
46.6330,0.08,0.12,-0.98,2.81,2.08,2.56
46.6410,0.08,0.12,-0.98,3.36,2.08,2.01
46.6600,0.07,0.12,-0.99,3.36,2.50,2.08
46.6760,0.07,0.12,-0.98,3.17,2.01,2.50
46.6930,0.07,0.12,-0.99,2.87,2.14,2.75
46.7090,0.08,0.12,-0.99,2.93,2.32,2.99
46.7240,0.07,0.12,-0.98,2.99,2.01,2.75
46.7390,0.07,0.12,-0.97,2.75,2.38,3.05
46.7550,0.09,0.12,-0.99,3.17,1.89,2.99
46.7700,0.08,0.12,-0.98,3.42,1.89,2.26
46.7770,0.08,0.12,-0.99,3.30,2.32,2.14
46.7930,0.08,0.12,-0.99,3.66,1.95,2.01
46.8080,0.08,0.12,-0.98,3.48,2.32,1.46
46.8300,0.09,0.12,-0.99,3.54,2.38,1.53
46.8460,0.08,0.12,-0.98,2.62,2.50,1.71
46.8610,0.09,0.12,-0.98,3.05,1.95,1.71
46.8770,0.09,0.12,-0.98,3.36,2.32,1.71
46.8810,0.09,0.12,-0.98,3.78,2.32,1.83
46.8960,0.08,0.12,-0.98,3.66,2.38,1.71
46.9200,0.09,0.12,-0.98,3.54,2.08,1.65
46.9360,0.08,0.12,-0.98,2.87,2.01,1.89
46.9530,0.08,0.12,-0.98,3.36,1.65,1.71
46.9540,0.07,0.12,-0.98,3.48,2.38,1.83
46.9830,0.08,0.12,-0.98,3.54,2.14,1.65
46.9860,0.08,0.12,-0.98,3.05,1.71,1.77
47.0030,0.07,0.12,-0.98,2.99,2.20,1.65
47.0190,0.08,0.12,-0.99,3.30,2.32,1.71
47.0350,0.08,0.12,-0.98,3.11,2.01,2.01
47.0600,0.07,0.12,-0.98,3.36,2.08,1.89
47.0760,0.08,0.12,-0.98,3.23,2.26,2.01
47.0910,0.06,0.13,-0.99,2.87,2.14,1.89
47.1060,0.07,0.12,-0.98,2.81,2.50,2.26
47.1220,0.08,0.12,-0.99,3.11,2.56,2.20
47.1380,0.07,0.12,-0.99,3.78,2.44,1.95
47.1450,0.09,0.12,-0.98,3.42,2.08,1.95
47.1670,0.08,0.12,-0.98,3.05,1.95,1.77
47.1780,0.09,0.12,-0.99,3.78,2.32,1.71
47.1950,0.09,0.12,-0.99,3.42,2.32,1.65
47.2120,0.08,0.12,-0.98,2.87,2.56,1.65
47.2280,0.08,0.12,-0.98,2.93,2.38,1.65
47.2430,0.08,0.12,-0.98,2.50,2.50,1.71
47.2570,0.07,0.12,-0.98,3.48,2.20,1.71
47.2730,0.08,0.12,-0.98,3.48,2.32,1.65
47.2880,0.07,0.12,-0.99,3.78,1.83,1.65
47.2950,0.09,0.12,-0.99,3.85,2.26,1.59
47.3120,0.08,0.13,-0.99,2.93,2.20,1.77
47.3280,0.08,0.12,-0.98,2.93,2.08,1.89
47.3440,0.08,0.12,-0.98,3.11,2.38,2.01
47.3610,0.08,0.12,-0.98,3.17,2.01,1.89
47.3790,0.09,0.12,-0.98,3.48,2.01,1.95
47.3800,0.08,0.12,-0.98,3.30,2.08,1.89
47.3950,0.08,0.12,-0.98,3.23,2.32,1.71
47.4180,0.08,0.12,-0.98,3.11,2.14,1.77
47.4360,0.08,0.12,-0.98,2.99,2.32,1.83
47.4510,0.08,0.12,-0.99,2.75,1.89,1.95
47.4680,0.07,0.12,-0.98,3.36,1.83,2.14
47.4850,0.08,0.12,-0.98,3.05,2.08,2.14
47.5020,0.08,0.12,-0.99,3.97,1.71,1.95
47.5170,0.08,0.12,-0.98,3.42,2.32,1.89
47.5320,0.09,0.12,-0.99,3.23,2.01,1.83
47.5350,0.08,0.12,-0.98,2.81,1.89,1.83
47.5510,0.08,0.12,-0.99,3.23,2.32,2.14
47.5750,0.09,0.12,-0.98,3.17,2.44,2.20
47.5900,0.07,0.12,-0.99,3.42,2.14,1.95
47.6080,0.09,0.12,-0.98,3.66,2.44,2.08
47.6240,0.07,0.12,-0.98,3.23,2.08,1.77
47.6400,0.08,0.12,-0.99,3.42,2.14,1.83
47.6420,0.08,0.12,-0.99,3.05,2.08,1.71
47.6720,0.08,0.12,-0.98,2.87,2.20,1.65
