Timestamp, AccX, AccY, AccZ, GyroX, GyroY, GyroZ
0.0110,0.08,0.13,-0.99,2.99,4.33,2.20
0.0250,0.09,0.12,-0.99,2.38,4.21,1.77
0.0330,0.08,0.13,-0.98,2.14,3.91,1.83
0.0500,0.09,0.13,-0.99,2.38,3.91,1.89
0.0670,0.08,0.13,-0.99,2.38,3.54,1.95
0.0830,0.08,0.13,-0.99,2.32,3.91,2.01
0.0990,0.08,0.12,-0.98,2.26,4.09,2.14
0.1160,0.08,0.13,-0.99,3.05,3.42,2.08
0.1310,0.09,0.13,-0.99,3.05,3.60,2.20
0.1460,0.09,0.13,-0.99,3.30,3.48,2.01
0.1610,0.08,0.12,-0.99,2.56,3.97,2.14
0.1760,0.08,0.12,-0.99,2.69,4.21,2.08
0.1910,0.08,0.12,-0.98,2.56,4.46,2.08
0.2060,0.08,0.13,-0.98,3.17,4.09,2.08
0.2160,0.08,0.13,-0.99,3.54,4.03,2.14
0.2330,0.08,0.13,-0.99,2.69,3.78,2.08
0.2490,0.08,0.12,-0.99,1.71,4.27,2.14
0.2660,0.07,0.12,-0.99,1.89,4.52,2.14
0.2810,0.09,0.12,-0.99,2.87,3.54,1.95
0.2960,0.08,0.12,-0.99,3.23,3.78,2.08
0.3090,0.08,0.12,-0.99,3.17,3.78,1.95
0.3160,0.08,0.13,-0.99,2.87,3.78,1.95
0.3440,0.09,0.12,-0.99,2.81,3.85,2.14
0.3590,0.09,0.12,-0.99,3.30,3.85,1.77
0.3710,0.08,0.12,-0.99,2.62,3.97,1.95
0.3870,0.09,0.11,-0.98,2.32,3.91,1.89
0.4040,0.09,0.12,-0.99,3.11,3.60,1.89
0.4210,0.08,0.12,-0.99,3.97,3.72,2.01
0.4370,0.08,0.12,-0.99,3.72,3.97,2.14
0.4530,0.08,0.13,-0.99,3.60,3.78,1.95
0.4690,0.08,0.12,-0.98,2.62,3.36,2.08
0.4840,0.09,0.12,-0.99,3.91,3.60,1.95
0.4980,0.09,0.12,-0.98,4.03,3.66,2.08
0.5140,0.08,0.13,-0.99,4.33,3.85,2.01
0.5210,0.08,0.12,-0.99,3.60,4.09,2.26
0.5440,0.08,0.12,-0.98,2.50,4.46,2.01
0.5530,0.08,0.12,-0.98,3.54,4.03,2.01
0.5710,0.08,0.12,-0.99,3.42,3.91,2.01
0.5870,0.08,0.12,-0.98,3.17,3.97,2.20
0.6040,0.08,0.12,-0.99,2.81,3.42,1.95
0.6190,0.08,0.12,-0.98,2.75,3.78,2.14
0.6340,0.08,0.13,-0.99,2.75,3.78,2.01
0.6500,0.08,0.12,-0.98,2.32,3.60,2.08
0.6660,0.09,0.13,-0.99,3.78,3.42,1.77
0.6820,0.08,0.11,-0.99,4.03,3.91,2.01
0.6980,0.08,0.12,-0.99,3.42,3.72,2.08
0.7140,0.08,0.13,-0.98,2.99,3.72,2.08
0.7300,0.08,0.13,-0.98,3.17,3.66,2.44
0.7370,0.08,0.12,-0.99,3.97,3.78,3.17
0.7530,0.08,0.12,-0.99,3.91,3.48,2.62
0.7750,0.08,0.12,-0.99,4.03,3.17,2.62
0.7920,0.09,0.13,-0.99,3.60,3.72,2.08
0.8070,0.09,0.13,-0.99,2.38,3.54,2.14
0.8240,0.08,0.12,-0.98,2.01,3.60,2.01
0.8400,0.09,0.14,-0.99,3.78,3.42,2.87
0.8550,0.08,0.11,-0.99,2.93,3.91,3.11
0.8700,0.08,0.12,-0.99,3.30,3.72,2.62
0.8860,0.08,0.12,-0.99,3.60,3.11,2.56
0.9030,0.09,0.13,-0.99,3.30,3.42,2.32
0.9180,0.09,0.14,-0.99,3.30,3.23,3.05
0.9330,0.09,0.12,-0.99,2.93,3.42,2.69
0.9480,0.08,0.11,-0.99,2.93,3.66,2.14
0.9630,0.08,0.12,-0.99,3.36,3.72,1.95
0.9750,0.08,0.13,-0.99,2.93,3.91,1.95
0.9910,0.09,0.13,-0.99,3.11,3.85,1.89
1.0110,0.08,0.16,-0.98,3.11,4.21,3.17
1.0260,0.08,0.11,-0.99,3.11,3.97,3.42
1.0410,0.08,0.12,-0.99,3.05,3.66,2.87
1.0560,0.08,0.12,-0.99,3.30,3.78,2.32
1.0720,0.09,0.12,-0.99,3.72,3.60,1.83
1.0870,0.08,0.13,-0.99,3.60,3.78,1.77
1.0970,0.08,0.13,-0.99,2.87,3.91,2.01
1.1140,0.08,0.12,-0.98,2.87,3.78,1.83
1.1300,0.09,0.13,-0.99,3.36,3.85,2.14
1.1460,0.08,0.13,-0.99,2.99,4.03,2.26
1.1630,0.08,0.13,-0.99,2.93,3.91,2.14
1.1790,0.08,0.13,-0.99,2.87,3.72,1.95
1.1950,0.08,0.13,-0.99,2.69,3.85,2.08
1.2110,0.08,0.12,-0.99,2.69,3.97,2.01
1.2270,0.08,0.12,-0.98,3.23,4.03,2.01
1.2440,0.09,0.13,-0.99,3.78,4.09,2.08
1.2470,0.08,0.13,-0.99,3.66,4.21,2.32
1.2630,0.11,0.15,-0.98,3.72,3.48,3.11
1.2900,0.08,0.13,-0.99,3.72,2.99,3.72
1.3060,0.08,0.11,-0.99,2.44,3.36,3.72
1.3170,0.08,0.12,-0.99,2.14,3.72,2.26
1.3340,0.09,0.12,-0.99,3.23,3.97,2.26
1.3510,0.09,0.12,-0.98,2.93,4.27,2.14
1.3670,0.08,0.12,-0.99,3.66,3.91,2.01
1.3830,0.09,0.13,-0.98,3.97,3.91,2.14
1.3990,0.09,0.14,-0.99,4.52,3.42,3.30
1.4160,0.08,0.13,-0.99,2.93,3.78,3.97
1.4320,0.08,0.12,-0.99,2.08,3.97,3.05
1.4480,0.08,0.12,-0.99,2.87,3.78,2.44
1.4640,0.08,0.12,-0.99,3.54,3.48,2.14
1.4680,0.08,0.13,-0.99,3.60,3.66,2.14
1.4830,0.08,0.13,-0.99,3.05,3.91,2.26
1.5050,0.09,0.13,-0.99,3.05,4.09,2.20
1.5210,0.09,0.12,-0.99,2.99,4.09,2.14
1.5370,0.08,0.13,-0.99,2.99,3.78,2.01
1.5570,0.08,0.12,-0.99,3.05,3.91,2.08
1.5630,0.08,0.13,-0.99,3.97,3.42,2.56
1.5870,0.07,0.13,-0.99,2.87,3.66,2.20
1.6030,0.08,0.12,-0.99,2.44,3.30,2.01
1.6180,0.08,0.12,-0.99,2.44,3.48,1.95
1.6290,0.09,0.13,-0.99,2.75,3.85,2.08
1.6450,0.09,0.12,-0.99,3.11,3.66,2.08
1.6620,0.08,0.13,-0.99,3.54,4.15,2.14
1.6790,0.08,0.12,-0.99,2.87,4.21,2.14
1.6950,0.08,0.12,-0.98,3.17,3.91,2.08
1.7100,0.08,0.13,-0.99,3.66,3.85,2.20
1.7250,0.08,0.13,-0.99,2.99,3.66,1.95
1.7400,0.08,0.12,-0.99,2.38,4.03,1.77
1.7550,0.09,0.12,-0.98,2.81,4.03,2.14
1.7700,0.08,0.12,-0.99,3.23,4.09,2.20
1.7850,0.12,0.15,-0.97,3.66,4.09,2.44
1.7950,0.07,0.12,-0.99,4.33,3.11,4.58
1.8130,0.07,0.12,-0.99,1.89,3.97,2.69
1.8290,0.08,0.12,-0.99,2.75,3.48,2.20
1.8460,0.08,0.12,-0.98,3.17,3.48,2.20
1.8610,0.09,0.13,-0.99,3.05,3.42,2.01
1.8770,0.08,0.13,-0.98,2.44,4.03,2.14
1.8920,0.08,0.12,-0.98,2.87,3.97,2.08
1.9070,0.08,0.13,-0.99,3.42,3.36,1.95
1.9120,0.08,0.13,-0.99,3.05,4.09,2.08
1.9280,0.08,0.12,-0.99,2.81,4.15,2.08
1.9490,0.08,0.14,-0.98,2.93,4.09,2.44
1.9670,0.09,0.14,-0.98,3.42,3.48,4.94
1.9820,0.08,0.11,-0.99,2.50,3.48,4.88
1.9980,0.08,0.12,-0.99,2.75,3.85,2.20
2.0140,0.08,0.12,-0.98,3.17,3.54,2.14
2.0300,0.08,0.13,-0.99,3.05,3.42,2.08
2.0460,0.08,0.13,-0.99,2.69,3.60,2.26
2.0610,0.08,0.13,-0.99,3.30,3.48,2.56
2.0760,0.08,0.13,-0.99,3.48,3.60,2.81
2.0820,0.08,0.12,-0.99,2.75,3.97,3.17
2.0980,0.08,0.12,-0.99,2.56,3.91,2.69
2.1190,0.08,0.13,-0.98,2.62,3.85,3.11
2.1360,0.08,0.12,-0.99,2.99,3.54,4.09
2.1520,0.08,0.12,-0.99,2.38,3.78,3.54
2.1680,0.08,0.12,-0.99,3.17,4.09,2.26
2.1690,0.08,0.12,-0.99,3.17,3.54,2.26
2.1850,0.08,0.13,-0.99,3.48,3.72,2.32
2.2130,0.08,0.13,-0.99,2.99,3.48,2.20
2.2180,0.08,0.13,-0.99,3.05,3.91,2.56
2.2460,0.08,0.13,-0.98,2.93,3.72,4.15
2.2610,0.08,0.12,-0.99,2.81,3.78,4.88
2.2770,0.08,0.12,-0.99,2.56,3.91,3.11
2.2860,0.08,0.12,-0.99,3.05,3.78,2.14
2.3020,0.08,0.12,-0.99,3.17,3.78,2.08
2.3240,0.08,0.13,-0.99,3.36,3.54,2.01
2.3390,0.08,0.12,-0.98,3.11,3.54,2.08
2.3540,0.08,0.13,-0.99,3.72,3.42,2.14
2.3700,0.08,0.12,-0.99,3.11,3.60,2.38
2.3860,0.08,0.15,-0.98,2.93,3.54,2.44
2.4010,0.09,0.12,-0.99,2.93,3.78,2.69
2.4130,0.08,0.12,-0.99,3.05,3.91,2.44
2.4260,0.08,0.13,-0.99,3.42,3.97,2.14
2.4460,0.09,0.13,-0.99,3.91,3.85,2.20
2.4630,0.09,0.14,-0.98,3.60,3.66,3.48
2.4790,0.08,0.11,-0.99,3.05,3.36,4.21
2.4950,0.08,0.12,-0.98,2.62,3.91,2.20
2.5100,0.08,0.12,-0.99,2.87,3.97,2.14
2.5250,0.08,0.13,-0.99,3.91,3.72,2.38
2.5390,0.08,0.13,-0.99,3.05,3.97,1.95
2.5550,0.08,0.12,-0.98,2.44,3.78,2.08
2.5630,0.08,0.13,-0.99,3.66,3.91,2.62
2.5860,0.09,0.13,-0.99,3.42,3.78,2.87
2.5970,0.09,0.14,-0.99,3.54,3.48,3.66
2.6140,0.08,0.13,-0.99,2.75,3.48,4.09
2.6310,0.08,0.12,-0.99,2.93,3.60,4.15
2.6470,0.08,0.11,-0.99,2.81,3.48,3.78
2.6620,0.08,0.11,-0.99,2.81,3.42,2.08
2.6770,0.08,0.12,-0.99,3.36,3.91,2.14
2.6920,0.08,0.12,-0.99,3.54,4.09,2.01
2.7080,0.08,0.13,-0.99,3.23,3.97,2.20
2.7140,0.08,0.12,-0.99,3.17,3.72,2.01
2.7300,0.08,0.12,-0.99,3.11,3.60,2.08
2.7510,0.08,0.13,-0.99,3.23,3.66,2.08
2.7690,0.08,0.13,-0.98,2.93,3.36,2.26
2.7860,0.08,0.12,-0.99,2.99,3.72,2.32
2.8010,0.09,0.14,-0.98,2.81,3.72,2.56
2.8170,0.08,0.12,-0.99,3.54,3.48,3.91
2.8320,0.09,0.13,-0.98,2.99,3.72,3.05
2.8360,0.08,0.13,-0.99,3.05,3.05,4.15
2.8630,0.08,0.12,-0.99,3.11,3.36,4.76
2.8690,0.08,0.11,-0.99,2.50,3.48,4.09
2.8850,0.08,0.12,-0.99,2.87,3.48,2.44
2.9080,0.08,0.12,-0.99,2.99,3.78,2.08
2.9240,0.08,0.13,-0.99,2.87,3.72,2.01
2.9400,0.08,0.13,-0.99,2.56,3.97,2.08
2.9560,0.08,0.12,-0.99,2.56,3.85,1.89
2.9720,0.08,0.12,-0.98,2.87,3.60,2.14
2.9870,0.08,0.12,-0.99,3.78,3.85,2.69
3.0020,0.08,0.13,-0.99,3.11,3.78,1.95
3.0140,0.08,0.12,-0.99,2.75,4.03,2.01
3.0250,0.08,0.12,-0.99,2.87,3.54,2.08
3.0470,0.08,0.12,-0.99,3.23,3.42,1.95
3.0640,0.08,0.12,-0.98,2.99,3.97,2.08
3.0800,0.08,0.13,-0.99,3.66,3.66,2.38
3.0950,0.08,0.12,-0.99,3.17,3.48,2.08
3.1110,0.08,0.12,-0.99,3.60,3.60,2.14
3.1260,0.08,0.13,-0.99,3.30,3.42,2.01
3.1410,0.08,0.13,-0.99,2.93,3.36,2.01
3.1560,0.08,0.12,-0.99,2.87,4.03,1.95
3.1720,0.08,0.12,-0.99,3.23,3.23,1.89
3.1800,0.08,0.13,-0.99,3.54,3.60,2.08
3.1960,0.08,0.13,-0.99,2.93,3.78,2.14
3.2170,0.08,0.13,-0.99,3.11,3.78,2.01
3.2190,0.08,0.13,-0.99,2.81,3.78,2.08
3.2480,0.08,0.12,-0.98,3.17,3.30,2.01
3.2520,0.08,0.13,-0.99,3.60,3.85,2.14
3.2670,0.08,0.13,-0.99,3.36,3.85,2.14
3.2940,0.08,0.12,-0.99,3.05,3.85,2.14
3.3050,0.08,0.12,-0.99,2.99,3.72,2.14
3.3220,0.08,0.13,-0.99,3.05,3.85,2.08
3.3390,0.08,0.12,-0.99,2.87,3.78,1.95
3.3550,0.08,0.12,-0.99,2.69,3.66,2.14
3.3720,0.08,0.13,-0.98,3.17,3.78,2.32
3.3870,0.08,0.12,-0.99,3.60,3.36,2.69
3.4040,0.09,0.15,-0.98,3.30,3.66,3.23
3.4200,0.09,0.13,-0.98,3.30,3.23,5.13
3.4350,0.08,0.12,-0.99,2.81,3.54,4.33
3.4390,0.08,0.11,-0.99,2.56,3.66,2.50
3.4550,0.08,0.12,-0.99,3.36,3.91,2.14
3.4770,0.08,0.13,-0.99,3.11,3.48,1.95
3.4950,0.08,0.13,-0.99,2.99,3.85,2.20
3.5100,0.08,0.12,-0.99,2.93,3.85,1.95
3.5260,0.08,0.13,-0.99,3.17,3.72,2.14
3.5420,0.08,0.13,-0.98,2.99,4.03,2.20
3.5580,0.09,0.14,-0.98,2.99,3.91,3.36
3.5730,0.08,0.12,-0.99,2.87,3.60,4.33
3.5880,0.08,0.11,-0.99,2.56,3.91,2.99
3.5930,0.08,0.12,-0.99,2.93,3.60,2.44
3.6140,0.08,0.13,-0.99,4.03,3.91,2.32
3.6320,0.08,0.13,-0.99,3.66,3.78,2.26
3.6480,0.09,0.14,-0.98,3.17,3.60,3.11
3.6640,0.09,0.12,-0.99,2.93,3.30,4.21
3.6800,0.08,0.11,-0.99,2.44,3.48,3.54
3.6950,0.08,0.11,-0.99,2.99,3.66,2.56
3.7110,0.08,0.13,-0.99,3.91,4.03,2.38
3.7160,0.08,0.13,-0.99,3.48,3.66,2.14
3.7310,0.08,0.13,-0.99,2.81,4.15,2.32
3.7550,0.08,0.14,-0.98,3.30,3.85,3.23
3.7710,0.09,0.13,-0.99,2.99,3.97,3.78
3.7880,0.08,0.12,-0.98,2.62,3.78,3.17
3.8040,0.08,0.13,-0.99,2.87,3.42,2.99
3.8150,0.08,0.12,-0.99,3.30,3.78,3.11
3.8340,0.08,0.12,-0.99,2.93,3.66,2.75
3.8500,0.08,0.16,-0.99,2.93,3.85,2.69
3.8650,0.08,0.13,-0.98,2.87,3.78,3.05
3.8810,0.08,0.13,-0.98,2.87,3.36,3.23
3.8970,0.08,0.13,-0.98,2.81,3.60,4.09
3.9130,0.08,0.13,-0.99,2.93,3.30,4.21
3.9220,0.08,0.12,-0.99,3.30,3.17,4.03
3.9450,0.08,0.12,-0.99,2.69,3.54,3.23
3.9550,0.08,0.12,-0.99,2.99,3.42,2.87
3.9710,0.08,0.12,-0.99,3.05,3.97,2.44
3.9870,0.08,0.12,-0.99,2.93,3.72,2.14
4.0050,0.09,0.12,-0.99,3.17,3.54,2.08
4.0210,0.08,0.13,-0.99,3.48,3.91,2.81
4.0370,0.09,0.13,-0.99,3.60,3.60,4.03
4.0520,0.08,0.12,-0.99,2.87,3.78,3.97
4.0680,0.08,0.12,-0.99,2.69,3.66,3.48
4.0840,0.08,0.13,-0.99,2.93,3.60,3.05
4.0990,0.08,0.12,-0.99,3.78,3.30,4.21
4.1140,0.08,0.11,-0.99,2.81,3.66,3.54
4.1210,0.08,0.12,-0.99,2.69,3.85,2.75
4.1370,0.08,0.13,-0.99,3.05,3.85,2.08
4.1530,0.08,0.12,-0.99,2.81,3.91,2.01
4.1750,0.08,0.12,-0.99,2.75,3.48,2.14
4.1920,0.08,0.13,-0.98,2.87,3.85,2.32
4.2070,0.08,0.14,-0.98,3.54,3.60,2.56
4.2240,0.08,0.14,-0.99,3.36,3.54,3.17
4.2400,0.09,0.11,-0.99,3.48,3.66,3.17
4.2420,0.08,0.12,-0.99,2.50,4.03,1.89
4.2720,0.08,0.12,-0.99,3.17,3.85,2.08
4.2870,0.08,0.13,-0.99,2.99,4.09,2.14
4.3020,0.08,0.12,-0.99,2.62,3.72,2.14
4.3160,0.08,0.12,-0.98,2.62,3.78,2.26
4.3290,0.08,0.14,-0.98,3.78,3.48,2.56
4.3460,0.08,0.13,-0.99,4.03,3.42,4.39
4.3620,0.08,0.11,-0.99,2.44,3.48,2.69
4.3770,0.08,0.12,-0.98,2.32,3.91,2.01
4.3920,0.08,0.12,-0.99,3.30,3.66,1.89
4.4070,0.08,0.13,-0.99,3.11,3.66,2.14
4.4230,0.08,0.12,-0.98,2.99,3.72,2.20
4.4400,0.08,0.12,-0.99,3.42,3.78,2.44
4.4550,0.08,0.12,-0.99,3.30,3.72,2.44
4.4630,0.08,0.12,-0.99,3.42,3.78,2.26
4.4780,0.08,0.13,-0.99,3.36,3.54,2.01
4.5010,0.08,0.12,-0.98,2.81,3.78,2.01
4.5170,0.08,0.12,-0.99,3.17,3.72,2.08
4.5190,0.08,0.12,-0.98,3.48,3.72,2.32
4.5340,0.08,0.13,-0.99,3.78,3.48,2.32
4.5510,0.08,0.12,-0.99,3.78,3.66,1.95
4.5680,0.08,0.13,-0.99,3.05,3.48,2.08
4.5840,0.08,0.12,-0.99,2.81,3.66,2.01
4.6010,0.08,0.13,-0.99,2.93,3.42,1.95
4.6170,0.08,0.12,-0.98,2.81,3.54,2.14
4.6370,0.08,0.13,-0.99,3.48,3.54,2.50
4.6540,0.08,0.13,-0.99,3.42,3.72,2.81
4.6710,0.09,0.13,-0.98,3.48,3.42,2.93
4.6880,0.08,0.13,-0.99,3.23,3.54,2.38
4.7030,0.08,0.12,-0.99,3.60,3.85,2.20
4.7180,0.08,0.12,-0.99,3.54,3.54,2.26
4.7340,0.08,0.13,-0.99,3.30,3.36,2.08
4.7490,0.08,0.13,-0.99,2.87,3.66,2.08
4.7650,0.08,0.13,-0.99,2.93,3.36,2.20
4.7710,0.08,0.13,-0.98,3.42,3.72,2.20
4.7860,0.08,0.13,-0.99,3.54,3.48,2.26
4.8090,0.09,0.13,-0.98,2.99,3.66,2.69
4.8250,0.09,0.10,-0.99,3.30,3.48,3.05
4.8270,0.09,0.12,-0.98,3.23,3.54,2.87
4.8420,0.08,0.12,-0.99,3.60,3.54,2.44
4.8710,0.09,0.14,-0.98,3.48,3.91,2.81
4.8830,0.08,0.13,-0.99,3.42,3.17,4.15
4.8990,0.08,0.13,-0.99,2.50,3.23,4.27
4.9160,0.08,0.12,-0.99,2.44,3.17,4.58
4.9320,0.08,0.11,-0.99,2.75,3.48,3.36
4.9480,0.08,0.12,-0.99,3.23,3.72,2.14
4.9640,0.08,0.13,-0.99,3.36,3.66,2.14
4.9800,0.08,0.13,-0.99,3.23,3.54,2.08
4.9830,0.08,0.12,-0.99,2.99,3.60,2.08
4.9980,0.08,0.12,-0.99,3.30,3.78,1.95
5.0220,0.08,0.13,-0.99,3.30,3.42,2.01
5.0380,0.08,0.13,-0.99,3.42,3.60,2.01
5.0540,0.08,0.13,-0.99,2.87,3.42,2.08
5.0700,0.08,0.12,-0.99,2.87,3.36,2.08
5.0880,0.08,0.12,-0.99,2.99,3.91,2.32
5.1030,0.08,0.13,-0.99,3.54,3.48,2.56
5.1180,0.09,0.14,-0.99,3.54,3.30,2.99
5.1270,0.08,0.14,-0.99,2.93,3.60,4.64
5.1430,0.08,0.13,-0.98,2.32,3.48,5.19
5.1600,0.08,0.12,-0.98,2.44,3.42,5.55
5.1760,0.08,0.11,-0.99,2.56,3.36,4.03
5.1930,0.08,0.11,-0.99,2.56,3.60,2.93
5.2080,0.08,0.13,-0.99,3.36,3.36,2.32
5.2170,0.08,0.13,-0.99,2.99,3.66,2.44
5.2310,0.08,0.14,-0.98,3.36,3.23,3.42
5.2510,0.08,0.14,-0.99,3.66,3.11,4.70
5.2670,0.08,0.12,-0.99,2.50,3.42,5.13
5.2690,0.08,0.11,-0.98,2.26,3.23,4.27
5.2990,0.08,0.12,-0.99,3.05,3.36,2.38
5.3150,0.08,0.13,-0.99,3.48,3.48,2.01
5.3320,0.08,0.12,-0.99,2.99,4.09,2.01
5.3350,0.08,0.12,-0.99,2.56,3.30,1.89
5.3510,0.08,0.12,-0.98,2.93,3.54,1.95
5.3790,0.08,0.12,-0.99,3.11,3.91,1.95
5.3890,0.08,0.12,-0.99,3.54,3.54,1.95
5.4060,0.08,0.13,-0.99,3.42,3.42,2.08
5.4220,0.08,0.13,-0.99,2.81,3.60,2.01
5.4390,0.08,0.12,-0.99,2.87,3.78,2.14
5.4550,0.08,0.16,-0.99,3.23,3.42,2.32
5.4720,0.08,0.13,-0.99,3.42,3.54,2.93
5.4880,0.08,0.14,-0.98,3.48,3.60,3.05
5.4900,0.09,0.11,-0.99,3.36,3.72,3.42
5.5190,0.08,0.12,-0.98,2.81,3.97,2.26
5.5230,0.08,0.13,-0.99,4.15,3.36,2.01
5.5380,0.08,0.13,-0.99,2.99,3.54,1.89
5.5560,0.08,0.13,-0.99,2.38,3.78,2.44
5.5710,0.08,0.13,-0.98,2.56,3.66,2.99
5.5950,0.09,0.12,-0.99,2.99,3.60,3.11
5.6110,0.08,0.12,-0.99,3.17,3.72,2.32
5.6270,0.08,0.12,-0.99,3.48,3.97,2.08
5.6420,0.08,0.12,-0.98,2.87,3.91,1.95
5.6570,0.08,0.13,-0.99,3.05,3.85,2.69
5.6620,0.08,0.14,-0.98,3.05,3.54,2.75
5.6770,0.08,0.13,-0.98,2.99,3.36,4.46
5.6990,0.08,0.12,-0.99,2.75,3.11,4.15
5.7180,0.08,0.11,-0.99,3.23,3.42,3.60
5.7310,0.08,0.11,-0.99,3.30,3.66,2.44
5.7480,0.08,0.12,-0.99,2.87,3.54,2.08
5.7640,0.08,0.13,-0.99,2.69,3.48,2.01
5.7790,0.08,0.12,-0.98,3.11,3.30,2.26
5.7950,0.08,0.12,-0.99,3.30,3.30,2.01
5.8100,0.08,0.13,-0.99,3.42,3.54,2.08
5.8250,0.08,0.13,-0.99,3.30,3.42,2.01
5.8400,0.08,0.13,-0.99,2.69,3.42,2.08
5.8540,0.08,0.13,-0.98,3.66,3.78,2.62
5.8650,0.09,0.12,-0.99,3.54,3.48,3.36
5.8800,0.08,0.12,-0.98,2.69,3.66,2.38
5.9020,0.08,0.14,-0.97,2.87,3.54,2.93
5.9170,0.09,0.13,-0.99,4.27,3.11,4.15
5.9330,0.09,0.12,-0.98,2.44,3.60,3.72
5.9490,0.08,0.11,-0.99,3.54,3.54,3.48
5.9640,0.08,0.12,-0.99,2.81,3.42,2.38
5.9800,0.08,0.12,-0.98,3.11,3.54,2.08
5.9950,0.08,0.13,-0.98,3.11,3.72,1.89
6.0020,0.08,0.13,-0.99,2.99,3.72,1.89
6.0180,0.08,0.12,-0.99,3.11,3.66,2.01
6.0340,0.08,0.12,-0.99,3.36,3.78,2.14
6.0550,0.08,0.13,-0.98,2.93,3.85,2.44
6.0710,0.08,0.13,-0.99,3.54,3.72,3.60
6.0870,0.08,0.12,-0.99,2.50,3.85,2.62
6.1020,0.08,0.12,-0.98,2.81,3.36,2.26
6.1180,0.08,0.12,-0.99,3.91,3.60,2.50
6.1220,0.08,0.12,-0.99,3.17,3.54,2.50
6.1380,0.08,0.13,-0.98,3.17,3.54,2.56
6.1650,0.08,0.13,-0.99,3.17,3.91,2.69
6.1760,0.08,0.12,-0.99,3.42,3.11,3.17
6.1920,0.08,0.12,-0.99,2.87,3.54,3.23
6.2090,0.08,0.12,-0.99,2.56,3.48,2.50
6.2260,0.08,0.12,-0.99,3.05,3.72,2.38
6.2410,0.08,0.13,-0.99,3.42,3.66,2.32
6.2560,0.08,0.13,-0.99,3.23,3.48,2.56
6.2710,0.08,0.13,-0.98,3.36,3.17,2.75
6.2860,0.08,0.13,-0.99,3.05,3.78,3.36
6.3010,0.08,0.12,-0.98,3.05,3.66,3.48
6.3100,0.08,0.12,-0.99,2.50,3.91,3.17
6.3320,0.08,0.12,-0.99,3.11,3.48,3.23
6.3430,0.08,0.12,-0.99,3.42,3.36,3.30
6.3590,0.08,0.12,-0.99,2.81,3.54,3.42
6.3760,0.08,0.12,-0.99,3.30,3.60,2.93
6.3920,0.08,0.12,-0.99,3.17,3.60,2.26
6.4080,0.08,0.13,-0.99,3.30,3.66,1.89
6.4230,0.08,0.13,-0.99,2.87,3.66,1.89
6.4390,0.08,0.12,-0.98,2.44,3.91,2.14
6.4540,0.08,0.12,-0.99,3.30,3.85,1.95
6.4690,0.08,0.13,-0.98,4.09,4.09,2.01
6.4840,0.08,0.13,-0.99,3.23,3.60,2.56
6.5000,0.08,0.13,-0.98,3.05,3.72,2.99
6.5150,0.08,0.12,-0.99,2.93,3.60,2.87
6.5260,0.08,0.11,-0.99,2.81,3.54,2.38
6.5430,0.08,0.12,-0.99,3.17,3.54,1.89
6.5600,0.08,0.12,-0.99,2.87,3.54,1.89
6.5760,0.08,0.12,-0.99,2.81,3.72,2.01
6.5930,0.08,0.12,-0.99,3.54,3.97,2.14
6.6080,0.08,0.13,-0.99,3.30,3.78,2.32
6.6230,0.08,0.13,-0.98,3.30,3.85,2.56
6.6380,0.08,0.13,-0.99,3.54,3.78,2.14
6.6540,0.08,0.12,-0.99,2.75,3.97,1.89
6.6690,0.08,0.12,-0.99,3.36,3.85,2.08
6.6840,0.08,0.12,-0.99,3.36,3.78,2.14
6.6990,0.08,0.13,-0.98,3.54,3.48,2.50
6.7090,0.08,0.13,-0.99,3.91,3.42,3.30
6.7260,0.08,0.12,-0.99,2.69,3.72,3.11
6.7430,0.08,0.12,-0.99,3.48,3.60,2.50
6.7590,0.08,0.12,-0.99,2.93,3.48,2.20
6.7750,0.08,0.13,-0.98,3.11,3.97,2.01
6.7900,0.08,0.13,-0.99,3.42,3.17,2.32
6.8060,0.08,0.13,-0.99,3.48,3.36,2.99
6.8220,0.08,0.12,-0.99,2.69,3.60,2.75
6.8370,0.08,0.12,-0.99,3.42,3.11,3.23
6.8520,0.08,0.11,-0.99,3.42,4.03,2.26
6.8680,0.08,0.12,-0.99,2.75,4.09,1.95
6.8760,0.08,0.13,-0.99,3.60,3.72,2.01
6.8920,0.08,0.13,-0.99,2.99,3.54,2.08
6.9130,0.08,0.12,-0.99,2.32,3.85,1.95
6.9280,0.09,0.13,-0.98,3.48,3.72,2.20
6.9440,0.08,0.12,-0.99,3.54,3.72,2.38
6.9610,0.08,0.13,-0.99,3.05,4.09,2.56
6.9760,0.08,0.12,-0.99,3.30,3.60,3.11
6.9910,0.08,0.12,-0.99,2.87,3.60,2.81
7.0050,0.08,0.12,-0.99,3.05,3.97,2.38
7.0210,0.08,0.12,-0.98,2.87,3.66,2.50
7.0360,0.08,0.13,-0.99,3.17,3.42,2.44
7.0470,0.08,0.12,-0.99,3.17,3.66,2.44
7.0630,0.08,0.13,-0.99,2.99,3.78,2.69
7.0800,0.08,0.13,-0.99,3.05,4.09,2.62
7.0970,0.08,0.13,-0.99,2.87,3.78,2.87
7.1120,0.08,0.12,-0.99,2.81,3.54,2.87
7.1280,0.08,0.12,-0.98,2.93,3.91,2.62
7.1440,0.08,0.12,-0.99,3.72,3.78,2.32
7.1590,0.08,0.13,-0.99,3.54,3.66,2.01
7.1740,0.08,0.13,-0.99,2.81,3.97,2.08
7.1800,0.08,0.14,-0.98,2.62,3.97,2.81
7.1960,0.09,0.14,-0.98,2.69,3.91,3.72
7.2200,0.08,0.11,-0.99,3.05,3.36,4.52
7.2350,0.08,0.12,-0.99,2.38,3.42,2.56
7.2520,0.08,0.12,-0.99,2.99,3.30,2.08
7.2670,0.08,0.13,-0.99,3.05,3.78,2.01
7.2830,0.08,0.12,-0.99,2.69,3.72,2.01
7.2980,0.08,0.13,-0.99,2.93,3.78,2.20
7.3140,0.08,0.13,-0.99,3.48,3.66,2.44
7.3290,0.08,0.13,-0.98,2.62,3.66,2.38
7.3460,0.09,0.12,-0.99,2.81,3.30,3.23
7.3610,0.08,0.12,-0.99,2.62,3.42,2.44
7.3770,0.08,0.12,-0.98,2.87,3.72,2.08
7.3850,0.08,0.13,-0.99,3.48,3.66,2.01
7.4010,0.08,0.12,-0.99,3.17,3.48,2.20
7.4220,0.08,0.13,-0.99,3.48,3.72,2.20
7.4370,0.08,0.12,-0.99,3.23,3.54,2.44
7.4530,0.08,0.12,-0.99,2.99,3.66,2.50
7.4680,0.08,0.12,-0.99,2.87,4.15,2.14
7.4840,0.08,0.12,-0.99,2.99,3.97,2.08
7.4990,0.08,0.13,-0.99,3.05,3.85,2.08
7.5140,0.08,0.13,-0.98,3.23,3.72,2.75
7.5280,0.08,0.13,-0.98,3.23,3.66,4.09
7.5390,0.09,0.11,-0.99,2.93,3.60,3.85
7.5570,0.08,0.12,-0.99,2.75,3.66,2.08
7.5730,0.08,0.12,-0.98,3.17,3.85,2.14
7.5890,0.08,0.13,-0.99,3.48,3.72,1.89
7.6060,0.08,0.12,-0.99,2.75,3.66,2.01
7.6210,0.08,0.13,-0.99,2.99,3.36,1.89
7.6370,0.08,0.12,-0.99,2.93,3.54,2.14
7.6530,0.08,0.13,-0.99,3.54,3.78,2.20
7.6700,0.08,0.13,-0.99,3.23,3.72,2.20
7.6860,0.08,0.13,-0.99,3.17,3.54,2.08
7.7010,0.08,0.13,-0.99,2.75,3.60,1.95
7.7160,0.08,0.13,-0.99,3.05,3.36,2.26
7.7310,0.08,0.13,-0.99,3.36,3.66,3.23
7.7460,0.08,0.12,-0.99,2.44,3.97,3.60
7.7570,0.09,0.12,-0.99,3.23,3.91,3.42
7.7730,0.08,0.12,-0.99,2.99,4.21,2.62
7.7890,0.08,0.13,-0.99,3.23,3.97,2.32
7.8070,0.08,0.13,-0.99,2.81,3.91,2.32
7.8230,0.08,0.14,-0.99,2.62,3.42,3.97
7.8390,0.09,0.13,-0.99,2.69,3.23,5.92
7.8540,0.09,0.12,-0.97,2.20,3.30,5.25
7.8700,0.09,0.11,-0.99,2.69,3.42,3.85
7.8860,0.08,0.11,-0.98,2.69,3.48,2.81
7.9020,0.08,0.13,-0.99,3.97,3.72,2.14
7.9060,0.08,0.13,-0.99,3.36,3.66,2.01
7.9220,0.08,0.12,-0.99,2.62,4.03,1.89
7.9460,0.08,0.12,-0.99,2.87,3.72,2.01
7.9620,0.08,0.13,-0.99,3.54,3.60,2.01
7.9790,0.08,0.13,-0.99,3.30,3.11,2.01
7.9940,0.08,0.13,-0.99,3.17,3.48,1.95
8.0100,0.08,0.13,-0.99,2.69,3.72,2.14
8.0250,0.08,0.12,-0.99,3.60,3.78,2.32
8.0400,0.08,0.12,-0.99,3.54,3.60,2.08
8.0550,0.08,0.13,-0.99,3.30,3.72,2.56
8.0710,0.08,0.14,-0.99,3.17,3.97,2.87
8.0800,0.08,0.12,-0.99,3.11,3.66,3.72
8.1010,0.08,0.12,-0.99,2.87,3.66,2.26
8.1120,0.08,0.12,-0.99,3.54,3.72,1.95
8.1290,0.08,0.13,-0.99,3.42,3.54,2.01
8.1450,0.08,0.13,-0.99,3.11,3.85,2.20
8.1600,0.08,0.13,-0.99,3.78,3.60,2.93
8.1770,0.08,0.12,-0.99,3.72,3.78,3.05
8.1930,0.08,0.12,-0.99,2.50,3.78,1.89
8.2080,0.08,0.13,-0.99,2.93,3.66,2.08
8.2230,0.08,0.13,-0.99,3.05,3.66,2.01
8.2390,0.08,0.12,-0.99,3.23,3.97,1.95
8.2550,0.08,0.12,-0.99,3.30,3.78,2.14
8.2710,0.08,0.13,-0.99,3.36,3.72,2.01
8.2870,0.08,0.13,-0.98,3.30,3.66,1.77
8.3020,0.08,0.12,-0.99,3.60,3.48,1.40
8.3170,0.08,0.12,-0.98,2.99,3.78,1.95
8.3280,0.08,0.12,-0.99,3.36,3.60,2.01
8.3450,0.08,0.12,-0.99,2.81,3.60,2.08
8.3610,0.09,0.13,-0.99,3.36,3.91,2.14
8.3780,0.08,0.13,-0.98,3.48,3.78,2.81
8.3950,0.08,0.12,-0.99,3.30,3.97,3.54
8.4120,0.07,0.12,-0.99,3.11,3.36,3.42
8.4270,0.08,0.12,-0.99,2.62,3.66,2.69
8.4420,0.08,0.13,-0.99,2.99,3.54,2.87
8.4560,0.08,0.13,-0.99,3.23,3.36,3.30
8.4730,0.08,0.12,-0.99,2.87,3.85,3.42
8.4870,0.08,0.12,-0.99,2.38,4.09,2.50
8.5040,0.08,0.12,-0.98,2.93,3.97,2.44
8.5190,0.08,0.13,-0.99,3.36,3.48,2.32
8.5350,0.08,0.13,-0.99,2.99,3.60,2.50
8.5450,0.08,0.13,-0.98,3.05,3.30,2.99
8.5610,0.08,0.12,-0.99,3.11,3.36,3.54
8.5780,0.08,0.12,-0.99,2.69,3.48,2.08
8.5950,0.08,0.13,-0.99,3.05,3.48,2.01
8.6110,0.08,0.13,-0.99,3.05,3.66,1.95
8.6270,0.08,0.13,-0.99,2.87,3.66,2.01
8.6420,0.08,0.13,-0.99,2.81,3.66,2.26
8.6570,0.08,0.13,-0.99,3.66,3.17,2.75
8.6620,0.09,0.13,-0.98,3.48,3.30,3.85
8.6780,0.08,0.11,-0.99,3.17,3.66,3.48
8.7040,0.08,0.12,-0.99,3.17,3.54,2.14
8.7150,0.08,0.13,-0.99,3.42,3.42,2.01
8.7310,0.08,0.13,-0.99,3.78,3.54,2.01
8.7490,0.08,0.13,-0.99,2.69,3.54,1.89
8.7510,0.08,0.12,-0.98,2.50,3.91,1.89
8.7670,0.08,0.12,-0.99,3.11,3.48,2.01
8.7840,0.08,0.12,-0.99,3.66,3.54,1.95
8.8010,0.08,0.13,-0.99,3.48,3.91,2.01
8.8210,0.08,0.13,-0.99,3.11,3.60,2.14
8.8350,0.08,0.13,-0.99,2.93,3.60,1.89
8.8510,0.08,0.13,-0.99,3.17,3.97,1.95
8.8680,0.08,0.13,-0.99,3.42,3.85,1.95
8.8840,0.08,0.13,-0.99,2.93,3.60,2.08
8.9010,0.08,0.13,-0.98,2.93,3.78,2.50
8.9170,0.09,0.14,-0.99,3.54,3.30,3.30
8.9340,0.08,0.12,-0.99,3.17,3.91,3.72
8.9350,0.08,0.12,-0.99,2.32,3.72,2.75
8.9510,0.08,0.12,-0.99,3.05,3.85,2.69
8.9680,0.08,0.13,-0.99,3.11,3.72,2.38
8.9860,0.08,0.13,-0.99,2.81,3.66,2.56
9.0010,0.08,0.13,-0.99,2.75,3.66,2.99
9.0210,0.08,0.13,-0.99,2.50,3.48,3.11
9.0390,0.08,0.12,-0.99,2.81,3.78,2.87
9.0560,0.08,0.12,-0.99,2.75,3.66,2.38
9.0720,0.08,0.12,-0.99,3.05,3.85,2.32
9.0880,0.08,0.13,-0.99,3.05,3.66,2.08
9.1050,0.08,0.12,-0.98,3.11,3.54,1.95
9.1210,0.08,0.12,-0.99,3.05,3.54,2.32
9.1370,0.08,0.13,-0.99,3.30,3.60,2.08
9.1530,0.08,0.12,-0.99,2.99,3.78,2.14
9.1560,0.08,0.13,-0.99,3.17,3.66,2.08
9.1720,0.08,0.12,-0.99,3.11,3.36,2.08
9.1880,0.08,0.13,-0.99,3.23,3.54,2.01
9.2090,0.08,0.12,-0.99,3.05,3.72,1.95
9.2260,0.08,0.12,-0.99,3.11,3.48,1.95
9.2420,0.08,0.12,-0.99,3.42,3.36,1.95
9.2590,0.08,0.13,-0.99,3.23,3.66,1.89
9.2740,0.08,0.13,-0.99,3.23,3.23,1.77
9.2890,0.08,0.12,-0.99,3.05,3.85,1.95
9.3060,0.08,0.13,-0.99,3.17,3.54,2.01
9.3200,0.08,0.12,-0.99,2.87,3.72,1.89
9.3360,0.08,0.13,-0.99,3.17,3.66,1.89
9.3510,0.08,0.12,-0.99,2.75,3.78,1.95
9.3670,0.08,0.12,-0.99,2.69,3.66,1.95
9.3820,0.08,0.12,-0.99,2.81,3.72,2.01
9.3930,0.08,0.13,-0.99,2.56,3.97,1.89
9.4090,0.08,0.12,-0.99,2.44,3.85,1.83
9.4260,0.08,0.12,-0.99,2.87,3.78,2.08
9.4420,0.08,0.12,-0.99,2.93,3.85,2.08
9.4580,0.08,0.13,-0.99,3.72,3.66,1.95
9.4730,0.08,0.13,-0.99,3.48,3.48,1.77
9.4750,0.08,0.13,-0.99,2.87,3.17,1.83
9.4910,0.08,0.12,-0.99,2.99,3.05,1.71
9.5190,0.08,0.12,-0.99,3.54,2.99,1.77
9.5290,0.08,0.13,-0.99,3.54,3.23,1.83
9.5460,0.09,0.13,-0.98,2.44,3.36,1.77
9.5630,0.08,0.11,-0.99,2.62,4.03,1.10
9.5790,0.08,0.12,-0.99,3.23,3.91,1.83
9.5940,0.08,0.12,-0.98,3.91,4.09,2.01
9.6090,0.08,0.13,-0.99,3.85,3.17,2.01
9.6220,0.08,0.13,-0.99,3.23,3.97,2.01
9.6290,0.09,0.13,-0.99,2.81,3.85,1.89
9.6520,0.08,0.13,-0.99,3.11,3.78,2.08
9.6680,0.08,0.12,-0.98,3.05,3.36,2.01
9.6840,0.09,0.13,-0.99,3.42,3.72,2.01
9.6850,0.09,0.12,-0.99,3.11,3.85,2.01
9.7000,0.08,0.12,-0.99,3.11,3.91,1.95
9.7220,0.09,0.12,-0.99,3.05,4.03,2.08
9.7340,0.09,0.15,-0.99,2.87,3.97,2.01
9.7500,0.08,0.13,-0.99,2.93,3.78,2.01
9.7780,0.08,0.12,-0.98,3.23,3.78,1.95
9.7880,0.08,0.12,-0.99,3.36,3.91,2.08
9.8050,0.08,0.12,-0.99,3.42,3.60,2.01
9.8220,0.08,0.13,-0.99,3.78,3.54,2.08
9.8380,0.09,0.13,-0.99,3.30,3.85,2.14
9.8550,0.09,0.13,-0.99,3.17,3.66,2.01
9.8710,0.08,0.12,-0.99,2.87,4.39,1.95
9.8870,0.08,0.12,-0.98,3.30,3.91,2.08
9.9030,0.08,0.13,-0.99,3.78,3.78,2.08
9.9180,0.08,0.13,-0.99,3.36,3.72,2.08
9.9220,0.08,0.13,-0.99,2.87,3.78,2.08
9.9370,0.08,0.09,-0.99,2.44,3.91,1.89
9.9600,0.08,0.12,-0.99,2.20,3.60,1.95
9.9760,0.08,0.12,-0.99,3.30,3.85,2.01
9.9940,0.08,0.12,-0.99,2.75,4.21,2.14
10.0090,0.08,0.12,-0.98,2.93,4.03,2.14
10.0250,0.08,0.13,-0.99,3.66,3.78,2.14
10.0400,0.08,0.13,-0.99,3.23,4.09,2.08
10.0560,0.08,0.12,-0.99,2.56,3.85,1.95
10.0720,0.08,0.12,-0.99,2.81,3.60,1.89
10.0870,0.08,0.12,-0.99,3.05,3.36,1.89
10.1030,0.08,0.13,-0.99,3.30,3.78,1.95
10.1190,0.08,0.12,-0.99,2.81,3.66,1.89
10.1360,0.09,0.12,-0.99,3.11,3.48,2.08
10.1520,0.08,0.13,-0.99,3.05,3.85,1.95
10.1680,0.08,0.11,-0.99,3.78,4.33,0.37
10.1760,0.08,0.12,-0.99,2.81,4.27,1.04
10.1920,0.08,0.12,-0.99,2.81,4.21,1.28
10.2140,0.08,0.12,-0.99,2.81,3.60,1.89
10.2300,0.08,0.12,-0.98,3.05,3.85,2.14
10.2320,0.08,0.13,-0.99,3.72,3.42,2.01
10.2480,0.09,0.13,-0.99,2.81,4.03,2.20
10.2720,0.08,0.12,-0.98,2.62,3.97,2.08
10.2890,0.08,0.12,-0.99,2.75,4.15,2.01
10.3050,0.08,0.12,-0.98,2.50,4.15,2.20
10.3220,0.08,0.12,-0.99,3.36,3.78,2.01
10.3370,0.08,0.12,-0.99,3.17,3.66,2.20
10.3530,0.08,0.12,-0.99,3.05,3.66,2.20
10.3690,0.08,0.12,-0.99,2.75,3.78,2.01
10.3850,0.08,0.12,-0.98,2.44,4.09,2.08
10.4000,0.08,0.13,-0.99,4.09,3.72,2.01
10.4060,0.08,0.12,-0.99,2.93,4.09,2.50
10.4220,0.08,0.12,-0.98,3.23,3.97,2.14
10.4380,0.08,0.12,-0.99,3.66,3.60,2.32
10.4600,0.08,0.12,-0.98,3.42,3.85,2.14
10.4750,0.08,0.13,-0.99,3.48,3.36,2.01
10.4900,0.09,0.13,-0.99,3.11,3.54,2.08
10.5070,0.08,0.12,-0.99,2.93,3.54,1.89
10.5210,0.08,0.12,-0.99,3.17,3.78,1.95
10.5380,0.08,0.13,-0.99,3.42,3.72,2.14
10.5540,0.09,0.13,-0.99,3.05,3.60,1.89
10.5610,0.09,0.12,-0.99,2.81,3.66,1.95
10.5770,0.08,0.12,-0.99,3.17,4.21,2.38
10.5990,0.08,0.12,-0.99,3.85,4.15,2.81
10.6140,0.08,0.13,-0.98,3.54,4.15,2.69
10.6300,0.08,0.13,-0.99,3.23,3.11,3.30
10.6450,0.08,0.12,-0.99,2.69,3.48,2.69
10.6600,0.09,0.12,-0.99,2.93,3.48,2.50
10.6750,0.09,0.12,-0.99,3.17,3.60,2.20
10.6900,0.09,0.13,-0.99,3.60,4.27,2.26
10.7040,0.09,0.13,-0.99,3.42,3.85,2.20
10.7160,0.08,0.13,-0.99,3.54,4.33,2.44
10.7330,0.08,0.12,-0.99,3.72,3.97,3.11
10.7490,0.09,0.12,-0.99,3.30,3.48,4.39
10.7650,0.08,0.12,-0.99,2.20,3.97,2.38
10.7820,0.08,0.12,-0.98,2.56,3.85,2.32
10.7970,0.08,0.12,-0.99,3.42,4.03,2.14
10.8130,0.08,0.12,-0.99,3.30,3.72,2.08
10.8270,0.08,0.13,-0.99,2.93,4.15,2.14
10.8430,0.08,0.14,-0.98,2.81,3.91,2.50
10.8490,0.09,0.14,-0.98,3.30,3.48,4.15
10.8660,0.08,0.12,-0.99,3.30,3.30,4.09
10.8820,0.08,0.10,-0.99,2.93,3.54,3.17
10.9040,0.08,0.12,-0.98,3.91,3.78,2.20
10.9150,0.09,0.13,-1.00,3.72,3.91,2.20
10.9310,0.09,0.14,-0.98,3.30,3.66,2.26
10.9490,0.08,0.13,-0.98,2.01,3.72,2.08
10.9650,0.08,0.11,-0.99,1.65,3.91,1.89
10.9810,0.08,0.12,-0.98,2.99,4.09,2.01
10.9960,0.09,0.13,-0.99,4.21,3.66,2.08
11.0000,0.08,0.13,-0.99,3.60,3.66,2.08
11.0230,0.08,0.12,-0.99,2.38,4.21,2.08
11.0380,0.08,0.12,-0.99,2.32,3.91,1.71
11.0560,0.08,0.12,-0.98,3.60,3.60,1.89
11.0720,0.09,0.13,-0.99,3.66,3.54,1.95
11.0870,0.08,0.12,-0.98,2.56,3.91,2.14
11.0940,0.08,0.12,-0.99,2.93,4.09,2.01
11.1180,0.08,0.12,-0.99,3.66,3.85,2.32
11.1270,0.08,0.13,-0.99,3.48,3.60,2.01
11.1420,0.08,0.12,-0.99,3.17,3.85,1.95
11.1630,0.08,0.12,-0.99,2.69,3.91,2.01
11.1800,0.08,0.12,-0.99,3.36,3.23,2.08
11.1950,0.09,0.13,-0.99,3.42,3.66,2.08
11.2100,0.09,0.12,-0.98,3.36,3.66,2.50
11.2240,0.08,0.12,-0.99,2.75,3.97,2.01
11.2300,0.08,0.12,-0.99,2.75,4.03,1.83
11.2460,0.08,0.13,-0.99,2.75,3.78,2.01
11.2690,0.08,0.12,-0.99,2.38,3.66,2.01
11.2840,0.08,0.12,-0.99,2.44,3.78,1.95
11.3000,0.08,0.12,-0.98,2.93,3.91,2.26
11.3170,0.08,0.12,-0.99,4.21,4.21,2.26
11.3330,0.08,0.13,-0.99,3.66,4.03,2.20
11.3490,0.08,0.12,-0.99,2.32,3.97,2.01
11.3650,0.08,0.12,-0.99,2.75,3.60,2.14
11.3810,0.08,0.12,-0.98,3.36,3.54,2.14
11.3840,0.09,0.12,-0.99,3.72,3.36,2.20
11.4000,0.09,0.13,-0.99,3.48,4.03,2.20
11.4270,0.08,0.12,-0.99,2.99,4.33,2.14
11.4380,0.08,0.13,-0.99,3.30,3.85,2.08
11.4550,0.08,0.12,-0.99,2.81,3.72,2.08
11.4720,0.09,0.13,-0.98,3.23,3.60,2.44
11.4880,0.08,0.12,-0.99,3.66,3.66,2.75
11.5040,0.08,0.13,-0.99,3.30,3.85,2.87
11.5210,0.08,0.12,-0.99,2.99,3.91,2.62
11.5370,0.08,0.12,-0.99,2.56,3.91,1.95
11.5530,0.08,0.12,-0.99,2.62,3.72,1.77
11.5690,0.08,0.12,-0.99,2.62,3.97,1.95
11.5850,0.09,0.12,-0.98,3.36,3.85,2.20
11.6010,0.08,0.13,-0.99,3.60,3.91,2.08
11.6050,0.08,0.12,-0.99,2.87,3.72,1.89
11.6230,0.08,0.13,-0.98,2.44,4.09,1.89
11.6420,0.09,0.14,-0.98,2.87,3.78,2.14
11.6590,0.07,0.13,-0.99,3.60,3.17,3.78
11.6750,0.08,0.11,-0.99,2.38,3.17,4.03
11.6920,0.08,0.11,-0.99,2.32,3.42,2.56
11.7090,0.08,0.12,-0.99,3.30,4.33,2.08
11.7250,0.08,0.13,-0.99,3.60,3.78,2.14
11.7250,0.08,0.13,-0.99,2.81,3.78,2.01
11.7470,0.08,0.12,-0.99,2.56,3.85,1.83
11.7640,0.08,0.12,-0.99,3.30,3.42,2.32
11.7800,0.08,0.12,-0.99,3.72,3.60,2.32
11.8000,0.09,0.12,-0.99,2.81,3.78,2.32
11.8170,0.08,0.12,-0.99,2.81,4.21,2.14
11.8320,0.08,0.12,-0.99,3.17,4.03,2.08
11.8480,0.08,0.13,-0.99,3.23,4.21,2.08
11.8620,0.08,0.13,-0.98,3.42,3.85,2.20
11.8790,0.09,0.12,-0.99,3.23,3.36,2.69
11.8950,0.08,0.12,-0.99,2.81,3.60,2.38
11.9110,0.08,0.12,-0.99,3.23,3.85,2.08
11.9260,0.08,0.12,-0.99,3.60,3.91,2.20
11.9410,0.08,0.13,-0.99,3.23,4.15,2.38
11.9510,0.08,0.14,-0.98,2.87,3.91,2.50
11.9690,0.08,0.12,-0.99,2.81,3.60,4.09
11.9840,0.08,0.11,-0.99,2.62,3.78,2.75
12.0020,0.08,0.12,-0.98,2.87,3.91,2.26
12.0180,0.08,0.12,-0.99,3.85,4.15,2.32
12.0330,0.08,0.13,-0.99,3.30,4.15,2.26
12.0490,0.08,0.13,-0.99,2.75,3.91,1.83
12.0640,0.08,0.13,-0.99,3.36,3.60,2.14
12.0680,0.08,0.13,-0.99,3.11,3.42,2.62
12.0830,0.08,0.12,-0.99,2.50,3.48,2.56
12.1110,0.09,0.12,-0.98,2.81,4.03,2.75
12.1250,0.08,0.12,-0.99,3.66,3.97,2.69
12.1390,0.08,0.12,-0.99,3.85,4.46,2.26
12.1550,0.08,0.12,-0.99,3.78,3.66,2.01
12.1720,0.08,0.13,-0.99,3.60,3.91,1.83
12.1880,0.08,0.12,-0.99,2.62,3.54,1.95
12.2040,0.08,0.13,-0.99,2.93,3.66,2.08
12.2200,0.08,0.13,-0.99,2.87,3.54,2.26
12.2350,0.08,0.12,-0.99,2.87,3.54,2.14
12.2510,0.08,0.12,-0.99,3.23,4.03,2.26
12.2550,0.08,0.13,-0.98,3.17,3.91,2.32
12.2710,0.08,0.13,-0.98,3.23,3.36,3.48
12.2950,0.08,0.12,-0.99,2.99,3.78,3.78
12.3110,0.09,0.13,-0.99,2.38,3.48,3.78
12.3260,0.08,0.12,-0.99,2.75,3.60,3.60
12.3410,0.08,0.11,-0.99,2.87,3.91,2.93
12.3560,0.08,0.13,-0.98,3.11,3.97,2.44
12.3720,0.08,0.13,-0.99,3.36,3.30,2.87
12.3870,0.08,0.13,-0.99,3.11,3.42,2.99
12.4030,0.08,0.13,-0.99,2.93,3.42,3.23
12.4180,0.08,0.13,-0.99,3.42,3.48,3.42
12.4280,0.08,0.13,-0.99,3.23,3.23,4.03
12.4450,0.08,0.11,-0.99,2.44,3.60,3.48
12.4620,0.08,0.12,-0.99,2.56,3.72,3.05
12.4780,0.08,0.12,-0.99,3.11,3.66,2.50
12.4930,0.08,0.13,-0.99,2.56,3.91,2.20
12.5080,0.08,0.13,-0.98,2.69,3.78,2.32
12.5250,0.08,0.13,-0.98,3.17,3.66,2.56
12.5300,0.08,0.14,-0.98,3.85,3.78,3.91
12.5520,0.08,0.12,-0.99,3.23,3.54,3.85
12.5690,0.08,0.12,-0.99,2.62,3.54,3.30
12.5850,0.08,0.12,-0.98,2.75,3.30,2.93
12.6020,0.08,0.11,-0.99,2.93,3.60,2.38
12.6170,0.08,0.12,-0.99,3.48,3.91,2.14
12.6340,0.08,0.13,-0.99,3.05,3.97,2.20
12.6500,0.08,0.12,-0.99,2.62,3.91,2.69
12.6660,0.08,0.13,-0.98,3.17,3.54,3.11
12.6690,0.08,0.12,-0.99,3.23,3.72,2.81
12.6850,0.08,0.12,-0.98,2.81,3.72,1.95
12.7130,0.08,0.12,-0.99,3.23,3.60,1.89
12.7250,0.08,0.13,-0.99,3.05,3.54,2.14
12.7400,0.08,0.12,-0.99,2.81,3.85,2.14
12.7560,0.08,0.12,-0.99,2.93,3.66,2.08
12.7730,0.08,0.12,-0.99,3.23,3.54,2.01
12.7880,0.08,0.12,-0.99,3.54,3.54,2.01
12.8020,0.08,0.13,-0.99,3.85,3.85,2.01
12.8180,0.08,0.12,-0.99,3.60,3.78,2.08
12.8290,0.08,0.13,-0.99,3.30,3.66,1.89
12.8450,0.08,0.13,-0.98,3.42,3.91,2.01
12.8620,0.09,0.12,-0.99,3.72,4.15,2.56
12.8790,0.08,0.12,-0.99,2.99,3.78,2.26
12.8950,0.09,0.12,-0.98,3.23,3.91,2.14
12.9120,0.08,0.13,-0.99,3.85,3.72,2.14
12.9280,0.08,0.13,-0.99,2.99,4.21,2.08
12.9440,0.08,0.12,-0.98,2.99,3.97,2.08
12.9600,0.08,0.13,-0.99,3.05,3.85,2.01
12.9760,0.08,0.12,-0.99,2.87,3.60,2.01
12.9910,0.08,0.12,-0.99,3.11,3.60,2.01
13.0060,0.08,0.13,-0.99,3.17,3.72,1.95
13.0220,0.08,0.12,-0.99,2.62,3.78,2.08
13.0370,0.08,0.12,-0.99,2.56,3.85,2.01
13.0530,0.08,0.12,-0.99,2.50,3.60,2.01
13.0680,0.08,0.12,-0.99,2.75,3.60,1.95
13.0780,0.08,0.13,-0.98,2.81,3.78,2.14
13.0950,0.09,0.13,-0.98,3.11,3.66,3.60
13.1120,0.08,0.12,-0.99,2.62,3.42,2.50
13.1290,0.08,0.12,-0.98,3.11,3.85,1.89
13.1450,0.08,0.12,-0.99,3.54,3.66,1.89
13.1620,0.08,0.13,-0.99,3.48,3.54,1.95
13.1770,0.08,0.13,-0.99,3.36,3.60,1.95
13.1940,0.08,0.13,-0.98,2.99,3.91,2.14
13.2090,0.09,0.12,-0.99,3.48,3.66,2.93
13.2240,0.08,0.12,-0.99,2.75,3.78,2.01
13.2400,0.08,0.12,-0.99,3.17,3.97,2.08
13.2580,0.08,0.13,-0.99,3.23,4.15,2.20
13.2620,0.08,0.15,-0.98,3.17,3.66,3.91
13.2780,0.08,0.15,-0.98,3.36,3.23,6.53
13.3030,0.08,0.11,-0.99,2.62,3.42,6.77
13.3030,0.08,0.10,-0.99,2.38,3.30,3.91
13.3340,0.09,0.12,-0.98,3.66,3.78,2.01
13.3500,0.08,0.13,-0.99,3.97,4.09,2.01
13.3660,0.08,0.13,-0.99,3.23,3.91,1.95
13.3820,0.08,0.12,-0.99,3.17,3.85,2.14
13.3980,0.08,0.12,-0.99,3.60,3.66,2.14
13.4010,0.08,0.12,-0.99,3.60,3.48,2.08
13.4260,0.08,0.12,-0.99,3.23,3.48,1.95
13.4430,0.08,0.12,-0.99,3.42,3.78,1.95
13.4570,0.08,0.12,-0.98,3.36,3.66,2.01
13.4720,0.08,0.13,-0.99,3.60,3.54,1.95
13.4910,0.08,0.13,-0.99,2.81,3.97,1.95
13.5060,0.08,0.12,-0.98,2.81,4.03,1.89
13.5220,0.08,0.13,-0.99,3.42,4.03,2.08
13.5270,0.08,0.13,-0.99,3.36,4.21,1.95
13.5430,0.08,0.13,-0.99,2.81,3.54,2.01
13.5660,0.08,0.12,-0.98,2.69,3.66,1.83
13.5810,0.08,0.13,-0.99,2.14,3.97,1.89
13.5980,0.08,0.12,-0.98,2.62,4.09,1.89
13.6150,0.08,0.13,-0.98,3.23,3.78,2.08
13.6310,0.08,0.13,-0.99,4.09,3.91,2.32
13.6480,0.08,0.13,-0.99,3.72,4.09,2.08
13.6640,0.08,0.13,-0.99,3.23,4.15,2.20
13.6800,0.08,0.14,-0.99,2.93,3.48,2.69
13.6960,0.08,0.13,-0.99,3.23,3.30,4.52
13.7120,0.08,0.11,-0.99,2.56,3.72,4.03
13.7270,0.08,0.10,-0.99,3.11,4.27,3.05
13.7430,0.08,0.12,-0.98,3.85,4.09,2.14
13.7570,0.08,0.13,-0.99,3.78,4.21,2.20
13.7730,0.08,0.12,-0.99,2.69,3.97,1.95
13.7870,0.08,0.12,-0.99,3.11,3.66,1.95
13.7990,0.08,0.13,-0.99,3.42,3.66,1.95
13.8150,0.08,0.13,-0.99,3.23,3.91,2.08
13.8310,0.08,0.12,-0.98,3.17,3.78,1.95
13.8480,0.08,0.12,-0.99,3.11,3.97,2.14
13.8650,0.08,0.12,-0.99,3.23,4.09,2.14
13.8810,0.08,0.13,-0.99,3.17,3.78,2.08
13.8980,0.08,0.13,-0.98,2.75,3.91,2.14
13.9140,0.08,0.14,-0.99,3.48,2.93,3.72
13.9290,0.08,0.12,-0.99,2.08,3.60,4.58
13.9450,0.08,0.12,-0.98,2.44,3.91,3.91
13.9610,0.08,0.11,-0.99,2.99,3.72,3.17
13.9770,0.08,0.12,-0.99,3.42,4.03,2.20
13.9930,0.08,0.13,-0.99,2.99,3.78,2.01
14.0080,0.08,0.13,-0.99,1.59,3.97,1.83
14.0230,0.08,0.12,-0.99,2.38,4.03,2.44
14.0370,0.08,0.12,-0.99,2.56,3.23,2.56
14.0490,0.09,0.12,-0.99,2.56,3.48,2.50
14.0650,0.08,0.12,-0.98,3.78,3.85,2.26
14.0820,0.08,0.13,-0.99,3.54,4.03,2.08
14.0980,0.08,0.13,-0.99,2.81,4.03,2.01
14.1150,0.08,0.13,-0.99,3.05,3.85,2.44
14.1310,0.08,0.13,-0.99,3.30,3.54,3.60
14.1470,0.08,0.12,-0.99,3.11,3.30,3.48
14.1620,0.08,0.12,-0.99,2.99,3.48,3.30
14.1650,0.08,0.11,-0.99,3.42,3.85,3.05
14.1810,0.08,0.12,-0.99,2.81,4.03,2.14
14.2100,0.08,0.13,-0.99,2.99,3.97,2.01
14.2200,0.08,0.13,-0.98,2.69,3.78,2.14
14.2360,0.08,0.13,-0.99,3.17,3.36,2.56
14.2530,0.09,0.13,-0.99,3.05,3.60,3.05
14.2690,0.08,0.12,-0.99,2.99,3.60,3.05
14.2860,0.08,0.12,-0.98,3.17,3.85,2.99
14.3020,0.08,0.12,-0.99,3.66,3.30,2.81
14.3180,0.08,0.13,-0.99,3.42,3.85,2.26
14.3340,0.08,0.13,-0.99,3.17,3.11,3.17
14.3500,0.08,0.13,-0.99,2.50,3.54,3.97
14.3530,0.08,0.13,-0.98,2.32,3.11,4.21
14.3680,0.08,0.12,-0.97,2.50,3.23,3.85
14.3920,0.08,0.11,-0.99,3.30,3.30,3.91
14.4090,0.08,0.12,-0.99,3.30,3.42,3.36
14.4270,0.08,0.13,-0.99,3.30,3.60,2.56
14.4420,0.08,0.13,-0.99,3.66,3.72,2.93
14.4590,0.08,0.13,-0.99,3.11,3.72,3.48
14.4740,0.08,0.13,-0.99,2.62,3.54,3.66
14.4900,0.08,0.12,-0.99,3.05,3.66,4.03
14.5050,0.08,0.11,-0.99,3.11,3.97,3.05
14.5220,0.08,0.12,-0.99,2.81,3.91,1.95
14.5270,0.08,0.13,-0.99,3.36,3.30,1.83
14.5410,0.08,0.13,-0.98,2.81,3.72,2.08
14.5640,0.09,0.14,-0.98,3.97,3.54,2.69
14.5810,0.08,0.14,-0.98,3.78,3.48,4.27
14.5970,0.08,0.12,-0.99,2.69,3.11,5.07
14.6140,0.08,0.11,-0.99,1.89,3.66,3.36
14.6300,0.08,0.11,-0.99,2.44,3.78,2.32
14.6460,0.08,0.12,-0.99,3.60,3.42,1.95
14.6480,0.08,0.13,-0.99,3.30,3.85,2.01
14.6780,0.08,0.12,-0.99,2.38,3.97,1.95
14.6930,0.08,0.12,-0.99,2.69,4.21,2.01
14.7090,0.08,0.12,-0.98,2.75,3.91,2.32
14.7250,0.08,0.12,-0.98,3.36,3.78,2.26
14.7400,0.08,0.12,-0.99,3.48,3.36,2.08
14.7480,0.08,0.13,-0.98,2.87,3.54,2.26
14.7700,0.08,0.13,-0.99,3.05,3.54,2.87
14.7850,0.08,0.13,-0.99,2.87,3.66,3.17
14.7970,0.08,0.12,-0.99,3.05,3.48,3.23
14.8150,0.08,0.12,-0.99,2.99,4.09,2.62
14.8310,0.08,0.12,-0.99,3.17,3.97,2.08
14.8470,0.08,0.12,-0.99,3.23,3.91,2.01
14.8640,0.08,0.13,-0.99,2.56,3.97,2.08
14.8800,0.08,0.13,-0.99,3.17,3.60,2.38
14.8960,0.09,0.13,-0.98,3.23,3.60,3.42
14.9120,0.08,0.12,-0.99,2.99,3.54,3.48
14.9280,0.08,0.12,-0.98,2.75,3.54,3.54
14.9440,0.08,0.11,-0.99,3.48,4.03,2.87
14.9600,0.08,0.12,-0.99,3.05,3.72,2.08
14.9750,0.08,0.12,-0.99,2.87,3.78,2.01
14.9900,0.08,0.12,-0.99,2.81,3.91,2.20
15.0060,0.08,0.13,-0.98,2.93,3.78,2.26
15.0220,0.08,0.13,-0.98,3.30,3.36,3.48
15.0320,0.08,0.13,-0.99,3.05,3.72,3.91
15.0470,0.08,0.11,-0.99,2.20,3.78,3.42
15.0630,0.08,0.12,-0.98,2.26,3.85,2.56
15.0840,0.08,0.12,-0.99,3.78,3.78,2.38
15.0990,0.08,0.13,-0.99,3.30,3.72,2.26
15.1160,0.08,0.15,-0.98,3.23,3.54,2.87
15.1320,0.08,0.14,-0.99,3.36,3.17,4.94
15.1480,0.08,0.13,-0.99,3.11,3.42,5.49
15.1640,0.08,0.11,-0.98,2.87,3.48,5.07
15.1670,0.08,0.10,-0.99,2.81,3.48,3.97
15.1830,0.08,0.11,-0.99,3.23,3.66,2.50
15.2060,0.08,0.12,-0.99,4.03,3.54,2.26
15.2210,0.08,0.13,-0.99,3.11,3.54,2.08
15.2380,0.08,0.13,-0.99,2.20,3.72,2.20
15.2550,0.08,0.12,-0.99,2.14,3.78,2.50
15.2720,0.08,0.12,-0.99,2.69,3.48,2.50
15.2870,0.08,0.12,-0.99,3.11,3.91,2.01
15.3030,0.08,0.12,-0.99,3.66,3.85,2.32
15.3200,0.08,0.14,-0.98,3.30,3.66,2.69
15.3350,0.08,0.14,-0.99,2.87,3.78,4.03
15.3500,0.08,0.11,-0.98,2.62,3.60,3.72
15.3540,0.08,0.10,-0.99,3.11,3.42,3.60
15.3700,0.08,0.11,-0.99,3.42,3.66,2.56
15.3930,0.08,0.13,-0.99,3.72,3.60,2.20
15.4100,0.08,0.13,-0.99,2.75,3.60,2.01
15.4250,0.09,0.13,-0.98,2.69,3.48,2.38
15.4420,0.08,0.13,-0.99,3.11,3.42,2.50
15.4440,0.08,0.12,-0.99,2.99,3.85,3.05
15.4740,0.08,0.12,-0.99,2.87,3.48,2.87
15.4880,0.08,0.12,-0.99,2.93,4.03,2.38
15.5040,0.08,0.13,-0.99,3.11,3.66,2.50
15.5200,0.08,0.13,-0.99,3.30,3.66,3.11
15.5340,0.08,0.13,-0.99,3.05,3.54,3.42
15.5490,0.08,0.14,-0.98,2.87,3.42,3.91
15.5610,0.08,0.13,-0.98,2.99,3.48,5.00
15.5780,0.08,0.12,-0.99,2.62,3.66,4.88
15.5950,0.08,0.11,-0.99,2.44,3.23,3.97
15.6110,0.08,0.11,-0.98,2.62,3.48,2.32
15.6270,0.08,0.12,-0.99,3.23,3.78,1.89
15.6440,0.08,0.12,-0.99,3.17,3.91,1.89
15.6600,0.08,0.12,-0.99,2.93,3.54,1.95
15.6760,0.08,0.13,-0.99,2.99,3.85,2.01
15.6910,0.08,0.13,-0.98,2.93,3.91,2.93
15.7060,0.08,0.12,-0.99,2.99,3.30,2.87
15.7220,0.08,0.12,-0.99,2.38,3.48,2.26
15.7280,0.08,0.12,-0.99,3.17,3.23,1.89
15.7430,0.09,0.12,-0.99,3.23,3.72,1.83
15.7670,0.08,0.12,-0.98,2.44,3.72,2.14
15.7830,0.08,0.12,-0.99,3.23,3.91,2.56
15.7840,0.09,0.12,-0.99,2.81,3.85,2.32
15.8140,0.09,0.12,-0.99,3.97,3.48,2.44
15.8290,0.08,0.12,-0.99,3.48,3.54,2.01
15.8470,0.08,0.12,-0.99,3.54,4.03,1.89
15.8510,0.08,0.12,-0.98,3.23,3.60,1.95
15.8660,0.08,0.13,-0.98,3.30,3.30,2.14
15.8830,0.08,0.14,-0.98,3.66,3.17,2.93
15.9000,0.09,0.12,-0.99,3.05,3.48,2.99
15.9160,0.08,0.12,-0.98,2.56,3.66,2.62
15.9350,0.08,0.12,-0.99,3.11,3.60,2.44
15.9580,0.08,0.13,-0.99,3.60,3.60,2.62
15.9670,0.08,0.13,-0.99,3.17,3.48,2.93
15.9850,0.08,0.13,-0.99,3.05,3.36,2.87
16.0000,0.08,0.12,-0.99,2.44,3.48,2.08
16.0180,0.08,0.12,-0.99,3.23,3.66,2.08
16.0340,0.08,0.12,-0.99,3.48,3.60,2.08
16.0500,0.08,0.13,-0.99,2.93,3.36,2.08
16.0670,0.08,0.15,-0.98,3.05,3.60,2.75
16.0840,0.09,0.14,-0.99,3.42,3.05,5.25
16.0840,0.08,0.13,-0.99,1.83,3.05,5.68
16.1130,0.08,0.12,-0.99,1.89,3.60,5.37
16.1310,0.08,0.11,-0.99,3.54,3.85,5.19
16.1460,0.09,0.10,-0.99,2.50,3.36,3.66
16.1510,0.08,0.12,-0.99,3.36,3.78,2.01
16.1670,0.08,0.12,-0.99,3.11,3.54,2.08
16.1830,0.08,0.12,-0.99,2.75,3.85,1.83
16.1990,0.08,0.13,-0.99,2.93,3.66,1.95
16.2200,0.08,0.13,-0.99,3.11,3.42,2.20
16.2370,0.08,0.13,-0.99,2.62,3.42,2.38
16.2530,0.08,0.12,-0.99,2.87,3.66,2.75
16.2700,0.08,0.12,-0.99,3.54,3.54,2.14
16.2860,0.08,0.12,-0.99,3.05,3.48,2.01
16.3020,0.08,0.13,-0.99,2.93,4.21,2.50
16.3180,0.08,0.14,-0.98,2.99,3.11,4.09
16.3340,0.08,0.13,-0.99,3.48,3.42,4.94
16.3500,0.08,0.11,-0.99,2.93,3.36,4.70
16.3540,0.08,0.10,-0.99,3.11,3.66,3.30
16.3800,0.08,0.12,-0.99,3.23,3.54,1.95
16.3960,0.08,0.12,-0.99,3.17,3.91,1.95
16.4110,0.08,0.13,-0.99,2.56,3.48,1.83
16.4260,0.08,0.12,-0.98,2.93,3.85,2.38
16.4370,0.08,0.13,-0.98,3.05,3.72,2.50
16.4540,0.08,0.13,-0.98,3.11,3.85,2.87
16.4710,0.08,0.13,-0.98,2.99,3.85,3.17
16.4860,0.08,0.12,-0.99,2.32,3.42,2.69
16.5030,0.08,0.12,-0.98,2.56,3.66,2.50
16.5200,0.08,0.12,-0.99,2.93,3.30,2.87
16.5360,0.08,0.13,-0.99,3.05,3.66,3.05
16.5520,0.08,0.13,-0.99,3.11,4.09,3.30
16.5680,0.08,0.13,-0.99,2.99,3.97,3.48
16.5840,0.08,0.13,-0.99,3.11,3.66,3.66
16.6000,0.08,0.11,-0.99,2.44,3.78,3.11
16.6040,0.08,0.12,-0.99,2.56,3.66,2.44
16.6200,0.08,0.12,-0.99,3.17,3.42,2.50
16.6360,0.08,0.12,-0.99,3.54,3.36,2.44
16.6520,0.08,0.13,-0.99,3.05,3.54,2.26
16.6760,0.08,0.14,-0.98,3.23,3.54,2.75
16.6900,0.08,0.12,-0.99,3.66,3.48,3.60
16.7060,0.08,0.11,-0.99,2.75,3.60,3.23
16.7220,0.08,0.12,-0.99,3.11,3.78,2.87
16.7310,0.08,0.11,-0.99,3.36,3.48,2.08
16.7440,0.08,0.12,-0.99,3.11,3.85,1.83
16.7680,0.08,0.13,-0.99,2.62,3.72,2.14
16.7840,0.08,0.13,-0.99,3.17,3.66,2.44
16.8010,0.09,0.13,-0.99,3.23,3.23,4.09
16.8170,0.08,0.11,-0.99,2.44,3.42,4.09
16.8330,0.08,0.12,-0.99,2.32,3.72,3.36
16.8480,0.08,0.12,-0.99,2.93,3.60,3.60
16.8640,0.08,0.12,-0.99,3.05,3.66,3.36
16.8670,0.08,0.12,-0.99,2.44,3.72,2.50
16.8830,0.08,0.12,-0.99,2.99,3.66,2.38
16.9100,0.08,0.12,-0.99,2.99,3.60,2.01
16.9260,0.08,0.13,-0.99,2.99,3.78,2.01
16.9380,0.08,0.13,-0.99,3.17,3.54,2.38
16.9540,0.08,0.14,-0.98,3.72,3.30,3.36
16.9710,0.08,0.13,-0.99,3.97,2.93,4.46
16.9870,0.08,0.11,-0.99,2.93,3.42,4.70
17.0040,0.08,0.11,-0.99,2.99,3.66,3.11
17.0190,0.08,0.12,-0.99,3.42,3.60,2.44
17.0360,0.08,0.12,-0.99,2.87,3.60,2.01
17.0520,0.08,0.12,-0.98,2.81,3.42,2.14
17.0680,0.08,0.13,-0.99,3.23,3.48,2.38
17.0840,0.08,0.13,-0.99,2.93,3.23,3.36
17.1000,0.08,0.13,-0.99,3.05,3.11,3.91
17.1040,0.08,0.13,-0.98,2.56,3.17,4.21
17.1200,0.08,0.11,-0.99,2.87,2.75,4.58
17.1440,0.08,0.11,-0.99,2.62,3.42,3.30
17.1610,0.08,0.11,-0.99,2.75,3.72,2.32
17.1770,0.08,0.12,-0.99,3.11,3.66,1.95
17.1930,0.08,0.12,-0.99,2.62,3.85,2.08
17.2090,0.08,0.13,-0.98,2.81,4.09,2.38
17.2250,0.08,0.13,-0.98,3.23,3.54,2.87
17.2400,0.08,0.12,-0.99,3.36,3.30,3.66
17.2550,0.08,0.12,-0.99,2.69,3.48,3.36
17.2610,0.08,0.12,-0.99,2.99,3.54,2.75
17.2760,0.08,0.12,-0.99,2.81,3.36,2.56
17.3010,0.08,0.12,-0.99,2.81,3.60,2.50
17.3130,0.08,0.12,-0.99,2.99,3.54,2.62
17.3310,0.08,0.13,-0.98,2.75,3.85,2.69
17.3460,0.08,0.13,-0.98,3.23,3.60,3.36
17.3620,0.08,0.12,-0.99,3.11,3.66,3.78
17.3780,0.08,0.12,-0.99,2.62,3.54,3.17
17.3940,0.08,0.12,-0.99,2.99,3.54,3.05
17.4090,0.08,0.13,-0.99,2.99,3.54,3.48
17.4250,0.08,0.12,-0.99,2.87,3.54,3.60
17.4310,0.08,0.11,-0.99,2.44,3.66,2.81
17.4480,0.08,0.12,-0.99,2.75,3.36,1.89
17.4630,0.08,0.12,-0.98,2.81,3.78,2.20
17.4810,0.08,0.12,-0.99,3.17,4.03,2.20
17.4960,0.08,0.13,-0.98,3.11,4.15,2.14
17.5130,0.08,0.13,-0.99,3.60,3.60,3.17
17.5300,0.08,0.12,-0.99,2.93,3.05,4.15
17.5440,0.08,0.11,-0.99,2.50,3.17,3.42
17.5590,0.08,0.11,-0.99,3.11,3.72,2.20
17.5630,0.08,0.12,-0.99,3.66,3.23,2.14
17.5790,0.08,0.12,-0.99,2.93,3.97,2.01
17.6000,0.08,0.12,-0.99,2.75,3.60,1.77
17.6180,0.08,0.12,-0.99,2.93,3.78,2.14
17.6340,0.08,0.12,-0.99,3.17,3.60,1.89
17.6510,0.08,0.13,-0.99,3.11,3.48,2.14
17.6670,0.08,0.13,-0.99,3.30,3.85,2.20
17.6680,0.08,0.12,-0.99,3.23,3.72,2.32
17.6990,0.08,0.12,-0.99,2.99,3.72,2.08
17.7150,0.08,0.13,-0.99,3.42,3.60,2.01
17.7300,0.08,0.12,-0.99,3.36,3.60,2.32
17.7340,0.08,0.13,-0.99,3.23,3.72,2.44
17.7490,0.08,0.13,-0.99,3.05,3.17,3.30
17.7760,0.08,0.12,-0.99,2.99,3.66,3.36
17.7880,0.08,0.12,-0.99,2.75,4.09,2.62
17.8040,0.08,0.12,-0.99,3.05,3.78,2.38
17.8220,0.08,0.12,-0.99,3.11,3.42,2.69
17.8370,0.08,0.13,-0.99,2.93,3.60,3.05
17.8530,0.08,0.12,-0.99,3.05,3.54,3.48
17.8690,0.08,0.12,-0.99,3.05,3.78,2.56
17.8850,0.08,0.12,-0.99,3.23,3.91,1.95
17.9020,0.08,0.12,-0.99,3.05,3.66,1.95
17.9170,0.08,0.13,-0.99,3.05,3.42,2.14
17.9320,0.08,0.13,-0.99,2.81,3.78,2.14
17.9370,0.08,0.12,-0.99,3.11,3.48,2.32
17.9590,0.08,0.12,-0.99,3.05,3.91,2.56
17.9770,0.08,0.12,-0.99,2.93,3.78,2.69
17.9930,0.08,0.13,-0.99,3.36,3.48,3.60
18.0090,0.08,0.12,-0.99,2.50,3.36,3.48
18.0250,0.08,0.12,-0.99,2.81,3.97,3.48
18.0400,0.08,0.12,-0.99,2.99,3.85,2.81
18.0560,0.08,0.12,-0.99,2.99,3.78,2.14
18.0590,0.08,0.13,-0.99,3.11,4.09,1.95
18.0750,0.08,0.13,-0.99,3.23,3.66,2.50
18.0980,0.08,0.14,-0.99,3.05,3.42,3.54
18.1140,0.08,0.13,-0.99,3.05,3.36,4.21
18.1320,0.08,0.12,-0.99,2.81,3.05,4.82
18.1470,0.08,0.11,-0.99,2.38,3.66,4.39
18.1630,0.08,0.11,-0.99,2.93,3.48,3.11
18.1800,0.08,0.12,-0.99,3.05,3.60,2.01
18.1960,0.08,0.13,-0.99,2.93,3.97,1.89
18.2120,0.08,0.13,-0.98,2.69,3.66,2.50
18.2280,0.08,0.12,-0.99,2.99,3.85,2.75
18.2440,0.08,0.12,-0.98,2.99,3.36,2.62
18.2600,0.08,0.12,-0.99,3.30,3.78,2.44
18.2640,0.08,0.12,-0.99,3.23,3.60,2.14
18.2800,0.08,0.12,-0.99,3.23,3.72,2.08
18.3030,0.08,0.12,-0.99,3.36,3.60,2.01
18.3190,0.08,0.12,-0.99,2.81,3.72,2.01
18.3350,0.08,0.13,-0.98,3.60,3.78,2.81
18.3520,0.08,0.14,-0.98,3.72,3.72,2.99
18.3690,0.08,0.12,-0.99,3.17,3.60,4.15
18.3840,0.08,0.11,-0.99,2.75,3.78,3.85
18.4000,0.08,0.11,-0.99,2.56,3.60,2.99
18.4160,0.08,0.12,-0.99,2.56,3.48,2.26
18.4190,0.08,0.12,-0.99,3.11,3.72,2.14
18.4340,0.08,0.12,-0.99,3.36,3.78,2.32
18.4580,0.08,0.13,-0.98,3.23,3.42,2.08
18.4740,0.08,0.13,-0.99,2.99,3.36,2.26
18.4910,0.08,0.12,-1.00,2.87,3.30,2.38
18.5060,0.08,0.12,-0.99,3.23,3.30,2.69
18.5230,0.08,0.12,-0.98,3.05,3.78,3.23
18.5370,0.08,0.11,-0.99,3.11,3.85,3.17
18.5520,0.08,0.12,-0.98,2.93,3.78,2.08
18.5620,0.08,0.13,-0.99,3.36,3.17,2.01
18.5780,0.08,0.13,-0.99,2.69,3.91,2.44
18.5990,0.08,0.12,-0.99,2.69,3.30,2.87
18.6130,0.09,0.12,-0.99,3.17,3.36,3.23
18.6300,0.08,0.11,-0.99,3.23,3.60,3.05
18.6460,0.08,0.12,-0.98,2.93,3.78,1.89
18.6620,0.08,0.12,-0.99,3.30,3.66,2.08
18.6670,0.08,0.13,-0.99,3.05,3.66,2.14
18.6830,0.08,0.12,-0.99,2.62,3.78,1.95
18.7070,0.08,0.12,-0.99,3.05,3.60,1.95
18.7230,0.08,0.12,-0.99,3.11,4.03,2.08
18.7330,0.08,0.12,-0.99,3.30,3.97,2.14
18.7540,0.08,0.13,-0.99,3.11,3.66,1.95
18.7710,0.08,0.12,-0.99,2.62,3.91,1.95
18.7730,0.08,0.12,-0.99,2.69,3.97,2.01
18.8040,0.08,0.12,-0.99,2.81,4.03,2.14
18.8190,0.08,0.12,-0.99,3.54,3.30,1.95
18.8360,0.08,0.12,-0.99,3.30,3.78,2.14
18.8520,0.08,0.12,-0.99,2.93,3.60,1.95
18.8680,0.08,0.12,-0.99,2.75,3.72,2.08
18.8830,0.08,0.12,-0.99,2.87,3.72,2.32
18.8930,0.08,0.12,-0.99,3.05,3.72,2.32
18.9080,0.08,0.12,-0.99,3.11,3.48,2.38
18.9300,0.08,0.13,-0.99,3.36,3.54,2.38
18.9470,0.08,0.12,-0.99,3.72,3.30,3.23
18.9640,0.08,0.11,-0.99,2.20,3.66,2.56
18.9790,0.08,0.12,-0.98,2.87,3.60,2.08
18.9960,0.08,0.12,-0.99,3.42,3.48,1.77
19.0120,0.08,0.12,-0.99,2.69,3.54,1.95
19.0280,0.08,0.12,-0.99,2.81,3.30,1.83
19.0330,0.08,0.12,-0.99,3.23,3.17,2.08
19.0460,0.08,0.12,-0.99,2.75,3.42,2.08
19.0690,0.08,0.12,-0.99,2.75,3.60,1.83
19.0860,0.09,0.12,-0.99,2.38,3.30,2.08
19.1030,0.08,0.12,-0.99,3.05,3.60,1.77
19.1200,0.08,0.12,-0.99,3.48,3.85,2.01
19.1360,0.08,0.12,-0.99,3.54,3.60,1.95
19.1520,0.08,0.12,-0.99,3.60,3.36,1.89
19.1680,0.08,0.13,-0.98,4.27,2.93,1.83
19.1710,0.09,0.12,-0.99,4.15,3.17,1.89
19.1990,0.08,0.13,-0.99,4.27,3.23,1.83
19.2140,0.08,0.13,-0.99,2.93,3.30,1.89
19.2300,0.08,0.12,-0.99,2.38,3.60,1.65
19.2460,0.08,0.12,-0.99,2.26,3.72,1.89
19.2530,0.08,0.12,-0.98,2.44,3.60,1.89
19.2690,0.08,0.12,-0.99,2.99,3.72,2.01
19.2940,0.08,0.12,-0.99,3.11,3.78,1.95
19.3080,0.09,0.12,-0.99,3.17,3.85,2.01
19.3240,0.08,0.12,-0.99,2.69,4.15,1.89
19.3390,0.08,0.12,-0.99,2.69,3.85,1.95
19.3540,0.08,0.12,-0.99,2.62,3.78,1.95
19.3690,0.08,0.12,-0.99,2.87,3.97,2.01
19.3790,0.08,0.12,-0.98,3.30,3.60,2.08
19.3980,0.08,0.12,-0.99,3.54,3.23,2.01
19.4130,0.09,0.13,-0.99,3.05,3.36,2.01
19.4290,0.08,0.12,-0.99,2.56,3.78,2.08
19.4460,0.09,0.12,-0.99,2.14,3.91,1.95
19.4620,0.08,0.12,-0.99,2.32,4.27,1.89
19.4780,0.08,0.12,-0.99,3.36,3.97,2.08
19.4940,0.08,0.12,-0.99,3.36,3.91,2.14
19.4960,0.08,0.12,-0.99,2.69,3.60,2.14
19.5270,0.08,0.12,-0.99,2.38,3.72,1.83
19.5430,0.09,0.12,-0.98,2.62,3.78,1.95
19.5580,0.08,0.12,-0.98,3.17,3.48,2.14
19.5730,0.08,0.12,-0.99,3.54,3.85,2.08
19.5840,0.08,0.12,-0.99,3.23,3.91,2.08
19.6000,0.08,0.12,-0.99,2.62,3.48,1.89
19.6170,0.08,0.12,-0.99,2.99,3.23,1.89
19.6340,0.09,0.12,-0.99,3.30,3.05,1.83
19.6500,0.09,0.12,-0.99,3.78,3.66,1.83
19.6650,0.09,0.12,-0.99,3.54,3.66,2.08
19.6800,0.08,0.12,-0.98,3.48,4.03,2.08
19.6850,0.08,0.12,-0.99,3.36,3.97,2.20
19.7010,0.08,0.13,-0.99,3.30,3.30,1.83
19.7260,0.08,0.12,-0.99,2.38,3.42,1.77
19.7430,0.09,0.14,-0.97,2.62,3.11,1.77
19.7510,0.08,0.11,-1.00,3.05,3.78,0.92
19.7740,0.08,0.13,-0.99,3.11,3.85,1.71
19.7890,0.08,0.12,-0.99,4.33,4.15,1.65
19.8000,0.08,0.13,-0.99,3.30,3.85,2.01
19.8170,0.08,0.12,-0.99,2.93,4.09,1.83
19.8340,0.08,0.12,-0.98,2.87,3.97,1.83
19.8520,0.08,0.12,-0.99,4.15,3.60,2.20
19.8680,0.09,0.12,-0.99,4.27,3.85,2.20
19.8840,0.09,0.13,-0.99,4.03,4.21,2.01
19.8880,0.08,0.12,-0.99,2.93,4.21,2.01
19.9040,0.08,0.12,-0.99,2.99,3.91,2.08
19.9260,0.08,0.12,-0.99,3.05,3.60,2.01
19.9430,0.08,0.12,-0.98,3.48,3.36,1.95
19.9600,0.08,0.12,-0.99,4.03,3.36,2.01
19.9760,0.09,0.13,-0.99,3.72,3.60,1.89
19.9920,0.09,0.13,-0.99,2.99,3.72,2.08
20.0080,0.08,0.12,-0.99,2.99,3.78,1.83
20.0230,0.08,0.12,-0.99,2.56,4.09,2.08
20.0390,0.08,0.12,-0.99,3.17,3.78,2.08
20.0550,0.08,0.12,-0.99,3.78,3.42,2.14
20.0710,0.09,0.13,-0.99,3.91,3.48,2.08
20.0870,0.09,0.13,-0.99,2.99,3.85,1.95
20.0930,0.09,0.12,-0.99,2.62,3.97,1.95
20.1090,0.08,0.12,-0.99,2.44,3.78,1.83
20.1310,0.08,0.12,-0.99,2.50,3.72,1.83
20.1480,0.08,0.12,-0.99,2.99,3.54,1.95
20.1650,0.08,0.12,-0.99,2.87,3.66,1.89
20.1820,0.09,0.13,-0.99,2.87,3.66,2.08
20.1980,0.09,0.12,-0.99,1.83,4.09,1.95
20.2150,0.08,0.12,-0.98,1.89,4.39,1.83
20.2310,0.09,0.13,-0.98,2.26,3.97,2.01
20.2480,0.07,0.10,-1.00,4.94,3.54,1.89
20.2630,0.08,0.12,-0.99,2.32,3.91,2.01
20.2800,0.09,0.12,-0.99,2.32,3.85,2.20
20.2960,0.09,0.12,-0.99,2.87,3.42,2.14
20.3120,0.08,0.12,-0.99,3.23,3.30,1.83
20.3150,0.08,0.12,-0.99,3.23,3.72,2.01
20.3350,0.08,0.12,-0.99,3.23,3.78,1.95
20.3550,0.08,0.12,-0.99,2.56,3.60,1.83
20.3720,0.08,0.12,-0.99,2.69,3.72,2.01
20.3880,0.09,0.12,-0.99,3.23,3.48,2.44
20.4050,0.09,0.12,-0.99,3.78,3.66,2.75
20.4210,0.08,0.12,-0.99,3.91,4.15,2.01
20.4370,0.08,0.12,-0.99,3.05,4.21,1.95
20.4530,0.08,0.12,-0.99,2.38,4.09,1.95
20.4680,0.08,0.12,-0.98,2.56,3.66,1.83
20.4840,0.08,0.12,-0.99,3.72,3.48,2.93
20.5000,0.09,0.11,-0.99,3.48,3.17,2.99
20.5060,0.09,0.12,-0.99,3.30,3.66,2.08
20.5210,0.08,0.12,-0.99,2.99,4.15,2.14
20.5450,0.08,0.13,-0.99,2.87,3.78,2.26
20.5610,0.08,0.12,-0.98,2.75,3.54,2.99
20.5780,0.08,0.12,-0.99,2.75,3.66,2.75
20.5940,0.09,0.12,-0.98,2.69,3.23,2.56
20.6100,0.09,0.16,-0.98,2.69,3.42,4.39
20.6260,0.10,0.10,-0.98,3.48,2.87,7.81
20.6410,0.08,0.10,-1.00,3.23,3.60,4.76
20.6560,0.08,0.09,-0.99,1.04,3.85,2.81
20.6710,0.08,0.12,-0.98,3.17,3.36,1.77
20.6860,0.09,0.12,-0.99,3.48,3.36,1.77
20.7010,0.08,0.12,-0.98,2.81,3.78,1.95
20.7160,0.08,0.12,-0.98,2.81,3.66,1.83
20.7290,0.08,0.12,-0.99,3.36,3.66,1.95
20.7450,0.08,0.12,-0.99,3.36,3.78,1.89
20.7610,0.08,0.12,-0.98,3.11,3.72,1.95
20.7780,0.08,0.12,-0.99,3.30,3.72,1.95
20.7940,0.08,0.12,-0.99,3.17,3.48,1.83
20.8110,0.08,0.12,-0.99,3.66,3.42,1.95
20.8280,0.08,0.12,-0.99,3.72,3.66,1.95
20.8450,0.08,0.12,-0.99,3.48,3.78,1.95
20.8600,0.08,0.12,-0.99,3.17,3.72,2.01
20.8770,0.08,0.12,-0.99,3.54,3.36,1.95
20.8930,0.08,0.12,-0.99,3.91,3.60,1.89
20.9090,0.08,0.12,-0.99,4.03,3.60,2.01
20.9110,0.08,0.12,-0.99,3.54,3.66,2.01
20.9360,0.08,0.12,-0.99,3.42,3.85,2.01
20.9490,0.08,0.12,-0.99,3.97,3.60,2.01
20.9660,0.08,0.12,-0.99,3.91,3.36,2.08
20.9840,0.08,0.12,-0.99,3.60,3.66,1.95
20.9990,0.08,0.12,-0.99,3.60,3.97,1.95
21.0150,0.08,0.12,-0.99,3.42,3.60,1.95
21.0320,0.08,0.12,-0.99,3.42,3.72,1.89
21.0360,0.08,0.13,-0.98,3.54,3.11,1.95
21.0490,0.09,0.13,-0.99,4.03,3.30,1.83
21.0670,0.09,0.12,-0.98,3.36,3.11,2.08
21.0820,0.09,0.12,-0.99,2.75,3.97,2.01
21.1090,0.08,0.13,-0.99,2.81,3.97,1.95
21.1200,0.08,0.12,-0.99,2.56,3.66,1.83
21.1380,0.08,0.12,-0.98,3.30,3.66,1.83
21.1540,0.08,0.12,-0.99,3.97,3.85,1.95
21.1710,0.08,0.12,-0.99,3.72,3.17,2.01
21.1870,0.08,0.12,-0.99,3.48,3.30,2.01
21.2040,0.09,0.12,-0.98,2.93,3.72,1.95
21.2190,0.08,0.13,-0.99,3.91,3.66,2.01
21.2350,0.08,0.12,-0.99,2.75,3.85,1.77
21.2510,0.09,0.12,-0.99,3.05,3.72,1.89
21.2670,0.08,0.12,-0.99,3.66,3.66,2.14
21.2840,0.08,0.13,-0.99,3.42,3.54,2.01
21.2990,0.09,0.13,-0.98,2.32,3.66,1.95
21.3040,0.08,0.13,-0.99,2.99,3.60,2.20
21.3200,0.08,0.13,-0.99,3.11,3.72,2.14
21.3390,0.08,0.13,-0.99,2.81,3.97,1.95
21.3560,0.08,0.12,-0.99,3.11,3.66,1.95
21.3730,0.08,0.12,-0.99,3.36,3.60,2.01
21.3890,0.08,0.13,-0.99,3.05,3.54,2.01
21.4050,0.09,0.12,-0.99,2.87,3.60,1.89
21.4210,0.08,0.12,-0.99,3.11,3.78,2.14
21.4370,0.09,0.13,-0.99,3.23,4.09,1.95
21.4520,0.08,0.12,-0.99,2.62,3.97,1.83
21.4680,0.08,0.13,-0.99,3.05,3.85,1.95
21.4840,0.08,0.12,-0.99,3.23,3.30,2.01
21.4980,0.09,0.13,-0.99,3.11,3.72,1.95
21.5070,0.09,0.12,-0.99,2.38,4.03,1.89
21.5230,0.08,0.12,-0.99,2.44,4.15,2.08
21.5430,0.08,0.12,-0.99,2.87,4.39,2.01
21.5600,0.08,0.13,-0.99,2.81,4.27,2.08
21.5760,0.08,0.13,-0.99,2.62,4.15,1.95
21.5920,0.08,0.12,-0.98,1.77,3.78,1.95
21.6060,0.08,0.12,-0.98,2.69,3.36,1.95
21.6220,0.09,0.13,-0.99,3.85,3.66,2.08
21.6370,0.09,0.13,-0.99,2.81,4.09,2.01
21.6520,0.08,0.12,-0.99,2.56,4.52,1.95
21.6670,0.08,0.12,-0.99,2.38,4.46,2.01
21.6820,0.08,0.12,-0.99,2.62,4.03,2.14
21.6940,0.08,0.12,-0.99,3.11,3.78,2.01
21.7110,0.08,0.12,-0.99,2.93,3.48,1.95
21.7270,0.08,0.13,-0.99,2.56,3.60,2.01
21.7420,0.08,0.12,-0.98,2.44,3.85,2.01
21.7570,0.08,0.12,-0.99,2.62,4.39,2.14
21.7720,0.08,0.12,-0.99,3.05,4.39,2.01
21.7880,0.08,0.12,-0.99,2.62,3.91,1.95
21.8030,0.08,0.13,-0.99,2.50,3.85,1.89
21.8180,0.08,0.12,-0.99,2.93,3.97,1.95
21.8330,0.08,0.12,-0.99,3.60,3.66,2.08
21.8430,0.08,0.12,-0.99,2.99,3.97,1.89
21.8590,0.08,0.12,-0.99,2.50,3.85,2.08
21.8800,0.08,0.12,-0.99,2.14,3.97,2.08
21.8950,0.08,0.12,-0.99,2.99,4.21,2.20
21.9110,0.08,0.13,-0.98,2.87,4.09,2.32
21.9260,0.08,0.13,-0.99,3.72,3.66,2.81
21.9420,0.08,0.11,-0.99,2.87,3.60,2.81
21.9480,0.08,0.12,-0.99,2.75,3.66,2.08
21.9640,0.08,0.12,-0.99,3.42,4.03,2.20
21.9860,0.08,0.12,-0.99,3.66,4.09,1.95
22.0030,0.08,0.12,-0.99,3.17,3.85,2.08
22.0180,0.08,0.12,-0.99,2.69,3.91,2.01
22.0200,0.08,0.12,-0.99,3.05,3.91,2.20
22.0370,0.08,0.12,-0.99,3.30,3.17,2.01
22.0520,0.09,0.12,-0.99,3.54,3.54,1.89
22.0760,0.08,0.12,-0.99,3.42,3.78,2.01
22.0920,0.08,0.13,-0.99,3.54,4.52,2.26
22.1090,0.08,0.12,-0.99,2.56,4.58,2.26
22.1250,0.08,0.12,-0.98,2.56,3.91,1.95
22.1410,0.08,0.12,-0.99,2.75,3.42,1.89
22.1570,0.08,0.12,-0.99,2.56,3.42,1.89
22.1720,0.08,0.12,-0.99,2.62,3.78,1.89
22.1870,0.08,0.12,-0.99,3.05,4.15,2.01
22.2020,0.08,0.12,-0.99,2.93,4.33,2.14
22.2130,0.08,0.12,-0.99,3.23,4.21,2.32
22.2300,0.08,0.12,-0.98,2.87,3.60,2.26
22.2470,0.08,0.12,-0.99,2.56,3.30,2.14
22.2630,0.08,0.12,-0.99,2.32,3.30,2.38
22.2800,0.09,0.12,-0.98,3.48,4.03,3.36
22.2970,0.08,0.12,-0.99,3.60,3.66,2.56
22.3130,0.08,0.12,-0.99,3.54,3.72,1.95
22.3290,0.08,0.12,-0.99,3.66,3.42,2.01
22.3450,0.08,0.12,-0.99,2.56,3.48,2.01
22.3610,0.08,0.12,-0.99,2.38,3.54,1.95
22.3770,0.08,0.12,-0.99,2.75,3.78,2.08
22.3930,0.08,0.12,-0.98,2.75,3.91,1.95
22.4080,0.08,0.12,-0.99,2.93,3.97,1.95
22.4240,0.08,0.12,-0.99,2.99,4.39,2.14
22.4390,0.08,0.12,-0.99,2.20,4.39,1.95
22.4540,0.08,0.12,-0.98,1.89,3.91,2.14
22.4690,0.08,0.12,-0.99,3.85,3.42,2.81
22.4800,0.08,0.11,-0.99,2.87,3.66,2.38
22.4970,0.08,0.12,-0.99,2.81,3.91,2.01
22.5140,0.08,0.12,-0.99,2.87,4.21,2.20
22.5300,0.08,0.12,-0.99,3.42,3.54,2.01
22.5470,0.08,0.12,-0.99,3.42,3.72,1.95
22.5630,0.08,0.12,-0.99,2.75,3.97,2.01
22.5780,0.08,0.12,-0.99,2.87,3.78,2.08
22.5950,0.08,0.12,-0.98,3.11,3.91,2.32
22.6110,0.08,0.12,-0.98,3.60,3.85,2.50
22.6270,0.08,0.13,-0.99,3.72,3.42,2.44
22.6430,0.07,0.12,-0.99,3.54,3.54,3.30
22.6600,0.08,0.12,-0.98,2.56,3.78,3.11
22.6740,0.08,0.12,-0.99,3.36,3.11,3.48
22.6890,0.08,0.12,-0.99,3.42,4.21,2.56
22.7030,0.08,0.12,-0.98,3.17,3.91,2.20
22.7140,0.08,0.12,-0.99,3.66,3.85,2.08
22.7300,0.08,0.12,-0.99,3.05,4.03,2.01
22.7510,0.08,0.12,-0.99,3.23,3.72,1.95
22.7670,0.08,0.12,-0.99,3.30,3.97,2.01
22.7840,0.08,0.12,-0.99,2.75,3.85,2.14
22.7990,0.08,0.12,-0.99,3.66,3.72,2.56
22.8150,0.08,0.13,-0.99,4.15,3.48,2.99
22.8310,0.08,0.12,-0.99,3.72,3.30,3.36
22.8460,0.08,0.12,-0.99,1.71,3.91,2.08
22.8610,0.08,0.12,-0.98,1.83,3.97,1.95
22.8770,0.08,0.12,-0.99,2.99,3.54,1.77
22.8920,0.08,0.12,-0.99,3.54,3.78,2.08
22.9010,0.08,0.12,-0.99,3.72,4.27,2.38
22.9170,0.08,0.13,-0.98,3.66,3.78,2.62
22.9380,0.08,0.12,-0.99,3.42,3.78,2.26
22.9550,0.08,0.12,-0.99,2.26,3.78,1.89
22.9710,0.08,0.12,-0.99,3.05,3.78,1.95
22.9870,0.08,0.12,-0.99,3.48,3.78,1.83
23.0030,0.08,0.12,-0.99,3.36,3.97,1.77
23.0190,0.08,0.13,-0.99,3.66,4.15,2.01
23.0350,0.08,0.12,-0.99,3.11,3.72,2.01
23.0500,0.08,0.12,-0.99,2.69,3.97,1.95
23.0560,0.08,0.12,-0.98,2.44,3.66,2.08
23.0720,0.08,0.12,-0.99,2.56,3.42,1.95
23.0950,0.08,0.12,-0.99,3.30,3.85,2.01
23.1120,0.08,0.12,-0.98,3.05,3.72,2.08
23.1270,0.08,0.13,-0.99,3.48,3.36,2.50
23.1430,0.08,0.12,-0.99,2.38,3.23,3.05
23.1460,0.08,0.12,-0.99,1.71,3.85,2.87
23.1620,0.08,0.11,-0.98,2.75,3.60,2.62
23.1830,0.08,0.11,-0.99,3.42,3.54,2.50
23.1990,0.08,0.13,-0.99,3.66,3.23,1.95
23.2140,0.08,0.13,-0.99,2.87,3.97,2.50
23.2350,0.08,0.13,-0.99,2.44,3.60,3.54
23.2510,0.08,0.11,-0.99,2.56,3.54,3.23
23.2660,0.08,0.11,-0.99,2.56,3.85,1.95
23.2810,0.08,0.12,-0.99,3.54,3.72,1.95
23.2860,0.08,0.13,-0.99,4.03,3.78,2.08
23.3020,0.08,0.14,-0.98,3.17,3.48,2.32
23.3260,0.08,0.14,-0.99,3.30,3.60,3.97
23.3410,0.08,0.13,-0.99,2.81,3.60,4.88
23.3560,0.08,0.11,-0.99,1.83,3.66,4.46
23.3590,0.08,0.10,-0.99,1.46,3.05,3.05
23.3750,0.08,0.12,-0.99,3.48,3.60,1.89
23.4020,0.08,0.13,-0.99,3.78,3.78,2.01
23.4130,0.08,0.13,-0.99,2.93,3.72,2.01
23.4300,0.08,0.12,-0.98,2.20,3.72,2.01
23.4460,0.08,0.13,-0.98,2.56,3.85,2.93
23.4630,0.08,0.12,-0.99,3.60,3.72,4.03
23.4790,0.08,0.11,-0.99,2.93,3.78,3.17
23.4960,0.08,0.11,-0.99,3.42,3.48,2.26
23.5110,0.08,0.12,-0.99,3.97,3.60,2.01
23.5270,0.08,0.12,-0.99,3.42,3.54,2.01
23.5430,0.08,0.12,-0.99,2.56,3.66,2.01
23.5590,0.08,0.12,-0.99,2.99,3.78,2.20
23.5740,0.08,0.12,-0.99,2.62,3.66,2.26
23.5900,0.08,0.12,-0.99,2.93,3.72,2.08
23.6060,0.08,0.13,-0.98,2.81,3.91,2.99
23.6200,0.08,0.13,-0.99,3.23,3.60,3.78
23.6350,0.08,0.13,-0.99,2.87,3.72,3.66
23.6460,0.08,0.12,-0.99,2.87,3.30,3.66
23.6630,0.08,0.12,-0.99,2.99,3.48,3.54
23.6800,0.08,0.11,-0.99,2.87,3.23,3.23
23.6970,0.08,0.11,-0.99,2.69,3.66,2.01
23.7120,0.08,0.12,-0.99,3.11,3.17,2.01
23.7290,0.08,0.13,-0.99,2.93,3.85,2.20
23.7440,0.08,0.13,-0.98,2.62,3.91,2.69
23.7590,0.08,0.13,-0.99,3.11,3.91,3.97
23.7740,0.08,0.12,-0.99,2.44,3.85,4.03
23.7890,0.08,0.11,-0.99,2.56,3.42,3.30
23.8040,0.08,0.11,-0.99,2.62,3.23,2.81
23.8190,0.08,0.12,-0.99,3.05,3.66,2.26
23.8340,0.08,0.13,-0.99,3.36,3.97,2.20
23.8460,0.08,0.14,-0.98,3.11,4.03,3.60
23.8630,0.08,0.14,-0.98,2.75,3.78,5.43
23.8790,0.08,0.12,-0.99,2.14,3.48,5.43
23.8950,0.08,0.09,-1.00,2.26,3.30,4.64
23.9010,0.08,0.11,-0.98,2.44,3.54,2.20
23.9180,0.08,0.13,-0.99,4.64,3.72,2.08
23.9390,0.08,0.12,-0.99,3.11,3.36,1.95
23.9560,0.08,0.12,-0.99,2.14,3.54,2.01
23.9700,0.08,0.12,-0.99,2.01,3.48,2.08
23.9870,0.08,0.13,-0.98,2.50,3.66,3.23
24.0020,0.09,0.11,-0.99,2.93,3.48,3.54
24.0180,0.08,0.12,-0.99,2.50,3.72,2.01
24.0330,0.08,0.12,-0.99,3.36,4.03,2.08
24.0490,0.08,0.12,-0.99,3.36,3.60,2.01
24.0650,0.07,0.13,-0.98,2.20,3.54,2.38
24.0800,0.08,0.13,-0.99,3.42,3.17,4.33
24.0950,0.08,0.12,-0.99,2.87,3.11,4.70
24.1060,0.08,0.11,-0.99,3.54,3.17,4.03
24.1210,0.08,0.10,-0.98,3.54,3.36,2.26
24.1410,0.08,0.12,-0.99,3.42,3.42,1.89
24.1560,0.09,0.12,-0.99,3.11,3.91,2.14
24.1710,0.08,0.12,-0.99,3.05,3.91,1.89
24.1870,0.08,0.12,-0.99,3.11,3.91,2.14
24.2020,0.08,0.12,-0.99,3.17,3.78,1.83
24.2180,0.08,0.12,-0.99,2.93,3.72,1.95
24.2340,0.08,0.12,-0.99,3.05,3.78,2.01
24.2490,0.08,0.12,-0.99,3.48,3.78,2.01
24.2640,0.08,0.12,-0.99,2.75,3.97,1.95
24.2750,0.08,0.12,-0.99,2.69,3.91,2.08
24.2920,0.08,0.12,-0.99,2.50,3.60,2.50
24.3080,0.08,0.12,-0.99,2.99,3.78,2.87
24.3260,0.08,0.12,-0.99,3.05,3.85,2.69
24.3420,0.08,0.11,-0.99,3.23,4.09,2.44
24.3580,0.08,0.12,-0.99,3.23,3.85,1.89
24.3730,0.08,0.12,-0.99,2.99,3.91,2.14
24.3890,0.08,0.12,-0.99,3.11,4.09,2.08
24.3920,0.08,0.12,-0.98,2.93,3.72,2.69
24.4080,0.08,0.12,-0.99,3.11,3.36,3.91
24.4350,0.08,0.12,-0.99,3.05,3.48,3.78
24.4460,0.08,0.11,-0.99,2.69,3.78,2.81
24.4620,0.08,0.12,-0.99,2.99,4.15,2.01
24.4790,0.08,0.12,-0.99,2.93,3.60,2.14
24.4950,0.08,0.12,-0.99,2.01,3.60,2.26
24.5110,0.08,0.13,-0.99,2.62,3.48,2.56
24.5260,0.08,0.12,-0.99,2.75,3.17,3.66
24.5410,0.08,0.12,-0.99,2.69,3.42,3.36
24.5500,0.08,0.11,-0.99,3.23,3.72,3.54
24.5720,0.08,0.11,-0.99,2.69,4.03,2.20
24.5880,0.08,0.12,-0.99,2.44,3.91,1.89
24.6030,0.08,0.12,-0.99,3.17,3.30,2.01
24.6190,0.08,0.12,-0.99,3.23,3.48,2.14
24.6350,0.08,0.12,-0.99,2.44,3.66,2.99
24.6510,0.09,0.11,-0.99,2.50,3.85,3.36
24.6670,0.08,0.12,-0.99,2.75,4.15,2.32
24.6830,0.08,0.12,-0.99,2.69,3.60,2.14
24.6980,0.08,0.12,-0.98,2.75,3.72,2.32
24.7050,0.08,0.12,-0.98,2.81,3.30,2.44
24.7290,0.08,0.12,-0.99,3.30,3.60,2.20
24.7410,0.08,0.12,-0.99,3.78,3.78,2.01
24.7560,0.08,0.12,-0.99,3.60,4.03,1.83
24.7710,0.08,0.12,-0.99,2.75,4.52,1.95
24.7900,0.08,0.12,-0.99,2.44,3.54,1.89
24.8060,0.08,0.12,-0.99,2.62,3.48,1.77
24.8080,0.08,0.12,-0.99,2.75,4.03,2.08
24.8240,0.08,0.12,-0.99,2.87,4.15,1.95
24.8480,0.09,0.13,-0.99,3.48,3.97,1.89
24.8640,0.08,0.12,-0.99,3.78,3.60,1.95
24.8810,0.08,0.12,-0.99,3.17,4.03,1.95
24.8980,0.08,0.12,-0.99,3.36,3.42,2.50
24.9130,0.08,0.12,-0.99,2.81,3.91,2.56
24.9300,0.08,0.12,-0.99,2.75,3.66,2.50
24.9460,0.09,0.12,-0.99,2.81,3.72,2.38
24.9610,0.08,0.11,-0.99,2.93,3.66,2.87
24.9650,0.08,0.12,-0.99,2.56,4.03,1.95
24.9940,0.08,0.12,-0.98,3.05,4.09,2.01
25.0090,0.08,0.12,-0.99,3.48,3.17,1.95
25.0140,0.08,0.12,-0.99,3.42,3.36,2.01
25.0300,0.09,0.12,-0.98,3.11,3.48,2.50
25.0510,0.08,0.12,-0.99,3.30,3.30,3.42
25.0680,0.08,0.11,-0.99,2.20,3.78,2.50
25.0840,0.08,0.11,-0.98,3.05,3.78,2.20
25.1000,0.08,0.12,-0.99,3.97,3.66,2.26
25.1160,0.09,0.14,-0.99,3.54,3.42,2.44
25.1330,0.08,0.14,-0.99,3.23,3.23,4.88
25.1490,0.08,0.12,-0.99,1.95,3.54,6.10
25.1640,0.08,0.09,-0.99,2.50,3.78,4.58
25.1670,0.07,0.10,-0.98,3.30,3.60,2.50
25.1830,0.08,0.12,-0.99,4.21,3.54,2.01
25.2110,0.08,0.12,-0.99,3.17,3.66,1.89
25.2260,0.08,0.12,-0.99,2.32,3.54,1.95
25.2390,0.08,0.12,-0.98,2.26,4.03,1.95
25.2540,0.08,0.12,-0.99,3.42,3.60,2.08
25.2720,0.08,0.12,-0.99,3.72,3.85,2.01
25.2880,0.08,0.12,-0.99,3.36,3.78,2.01
25.3050,0.08,0.12,-0.98,3.05,3.66,2.32
25.3200,0.08,0.12,-0.99,3.30,3.78,2.26
25.3350,0.08,0.12,-0.99,3.11,3.78,2.38
25.3500,0.09,0.13,-0.98,2.99,3.54,2.81
25.3610,0.09,0.13,-0.98,3.42,3.11,3.91
25.3770,0.08,0.13,-0.99,3.48,3.11,5.80
25.3970,0.08,0.12,-0.99,2.32,3.78,5.92
25.3990,0.08,0.11,-0.99,2.50,3.66,5.25
25.4150,0.08,0.09,-0.99,2.50,3.54,4.09
25.4440,0.08,0.12,-0.99,3.23,3.48,2.08
25.4590,0.08,0.12,-0.99,4.03,3.97,2.08
25.4750,0.08,0.12,-0.99,2.93,3.97,1.95
25.4830,0.08,0.13,-0.98,3.05,3.72,2.99
25.4990,0.08,0.13,-0.99,2.99,3.05,4.64
25.5140,0.08,0.12,-0.99,2.69,3.23,4.33
25.5370,0.08,0.11,-0.99,3.11,3.66,3.85
25.5530,0.08,0.11,-0.99,3.11,3.78,2.99
25.5690,0.08,0.12,-0.98,3.05,3.78,2.32
25.5850,0.08,0.12,-0.99,3.30,3.91,2.08
25.6010,0.08,0.12,-0.99,3.17,3.72,2.08
25.6160,0.08,0.13,-0.98,2.81,3.78,2.50
25.6320,0.08,0.13,-0.99,3.17,3.60,4.39
25.6470,0.08,0.12,-0.99,2.81,3.54,4.64
25.6630,0.08,0.10,-0.99,2.01,3.54,3.66
25.6790,0.08,0.11,-0.99,2.81,3.78,2.26
25.6880,0.08,0.12,-0.99,3.78,3.85,1.89
25.7090,0.08,0.12,-0.99,2.75,3.78,1.95
25.7200,0.08,0.13,-0.98,2.44,4.03,2.44
25.7360,0.08,0.13,-0.98,3.05,3.85,2.93
25.7550,0.08,0.12,-0.98,2.56,3.60,3.54
25.7700,0.08,0.12,-0.99,2.75,3.48,3.60
25.7850,0.08,0.12,-0.99,3.30,3.60,3.42
25.7940,0.08,0.12,-0.99,3.11,3.54,3.48
25.8100,0.08,0.13,-0.99,2.32,3.60,3.42
25.8320,0.08,0.13,-0.99,2.08,3.30,4.15
25.8480,0.08,0.13,-0.98,2.62,3.36,5.07
25.8630,0.08,0.12,-0.99,3.17,3.30,6.47
25.8790,0.08,0.10,-0.99,2.20,3.17,5.74
25.8820,0.08,0.09,-0.99,2.44,3.54,3.85
25.8980,0.08,0.12,-0.99,3.30,3.97,2.14
25.9160,0.08,0.12,-0.99,3.72,4.21,2.01
25.9320,0.08,0.12,-0.99,2.62,3.97,2.08
25.9480,0.08,0.13,-0.99,2.75,3.48,2.99
25.9670,0.08,0.13,-0.99,2.50,2.99,4.46
25.9840,0.08,0.12,-0.98,2.69,3.23,5.86
26.0000,0.08,0.11,-0.99,2.99,3.48,5.98
26.0160,0.08,0.09,-0.99,2.32,3.60,4.46
26.0310,0.08,0.11,-0.98,2.93,3.97,2.38
26.0470,0.08,0.12,-0.99,3.30,3.91,1.95
26.0510,0.08,0.12,-0.99,2.69,3.66,1.89
26.0660,0.08,0.12,-0.99,2.62,3.85,2.08
26.0930,0.08,0.13,-0.99,2.93,3.66,2.69
26.1040,0.09,0.14,-0.99,3.66,3.30,3.36
26.1210,0.08,0.11,-0.99,2.62,3.66,3.97
26.1370,0.08,0.10,-0.99,2.08,3.85,3.30
26.1550,0.08,0.12,-0.98,2.69,3.66,2.87
26.1710,0.08,0.13,-0.99,3.11,3.36,3.17
26.1860,0.08,0.13,-0.99,3.11,3.36,4.70
26.2020,0.08,0.13,-0.99,3.11,3.17,5.68
26.2170,0.08,0.10,-0.99,2.81,3.36,5.55
26.2340,0.08,0.10,-0.99,2.32,3.36,3.60
26.2500,0.08,0.11,-0.99,3.05,3.85,2.50
26.2660,0.08,0.12,-0.99,3.30,3.36,1.83
26.2810,0.08,0.12,-0.99,2.32,3.72,2.14
26.2970,0.08,0.12,-0.98,2.14,3.85,2.50
26.3050,0.08,0.12,-0.98,3.11,3.78,3.66
26.3280,0.08,0.12,-0.99,3.48,3.54,3.85
26.3430,0.08,0.14,-0.98,3.54,3.36,3.91
26.3540,0.08,0.12,-0.99,3.48,2.99,5.62
26.3710,0.08,0.11,-0.99,1.77,3.42,5.49
26.3880,0.08,0.11,-0.99,2.44,3.36,4.58
26.4030,0.08,0.09,-0.99,2.69,3.05,3.78
26.4190,0.08,0.12,-0.99,3.42,3.54,2.08
26.4350,0.08,0.12,-0.99,3.48,3.72,1.95
26.4520,0.08,0.12,-0.99,2.44,3.66,2.01
26.4680,0.08,0.14,-0.98,3.05,3.66,3.05
26.4850,0.08,0.13,-0.99,3.11,3.17,5.43
26.5010,0.08,0.11,-0.99,2.32,2.99,5.92
26.5170,0.08,0.10,-0.99,2.26,3.30,4.88
26.5330,0.08,0.10,-1.00,2.87,3.05,3.30
26.5490,0.08,0.10,-0.98,3.48,3.48,2.32
26.5540,0.08,0.12,-0.99,3.54,3.48,2.01
26.5800,0.08,0.12,-0.99,2.93,3.60,2.26
26.5910,0.08,0.14,-0.98,3.30,3.30,3.05
26.6070,0.08,0.11,-0.99,3.48,3.36,4.09
26.6240,0.08,0.11,-0.99,2.75,3.54,3.60
26.6410,0.08,0.11,-0.99,3.66,3.42,3.60
26.6560,0.08,0.11,-0.99,3.42,3.42,3.05
26.6720,0.08,0.12,-0.99,2.75,3.72,2.38
26.6880,0.08,0.13,-0.98,2.62,4.21,2.32
26.7040,0.08,0.13,-0.99,3.11,3.72,3.42
26.7200,0.08,0.12,-0.99,2.93,3.36,4.39
26.7240,0.08,0.12,-0.99,2.32,3.66,4.58
26.7450,0.08,0.11,-0.98,2.44,4.15,4.03
26.7620,0.08,0.10,-0.99,2.87,3.78,3.48
26.7790,0.07,0.11,-0.99,3.36,3.91,2.44
26.7950,0.08,0.12,-0.99,3.54,3.72,2.01
26.8120,0.08,0.12,-0.99,2.69,3.48,1.95
26.8280,0.08,0.12,-0.98,2.75,3.54,2.20
26.8450,0.08,0.13,-0.98,3.54,3.42,2.87
26.8610,0.08,0.11,-0.99,3.42,3.42,3.48
26.8770,0.08,0.11,-0.99,2.99,3.78,2.69
26.8930,0.08,0.11,-0.99,2.75,3.85,2.56
26.9080,0.08,0.11,-0.99,2.81,3.60,2.20
26.9230,0.08,0.12,-0.99,3.42,3.36,2.38
26.9400,0.08,0.13,-0.99,2.93,3.54,2.20
26.9550,0.08,0.13,-0.99,3.42,3.66,3.42
26.9690,0.08,0.12,-0.99,2.81,3.72,3.54
26.9840,0.08,0.12,-0.99,2.87,3.85,3.48
27.0000,0.08,0.11,-0.99,2.81,3.72,3.11
27.0120,0.08,0.11,-0.99,2.99,3.48,2.81
27.0290,0.08,0.12,-0.99,3.05,3.54,2.32
27.0440,0.08,0.12,-0.99,3.05,3.42,2.87
27.0610,0.08,0.13,-0.98,2.99,3.30,3.11
27.0760,0.08,0.13,-0.99,3.23,3.97,3.72
27.0790,0.08,0.12,-0.99,2.75,3.78,3.78
27.0950,0.08,0.12,-0.99,2.87,3.36,3.85
27.1230,0.08,0.11,-0.99,2.87,3.23,4.03
27.1380,0.08,0.11,-0.99,2.75,3.30,3.42
27.1490,0.08,0.11,-0.99,2.87,3.42,2.87
27.1660,0.08,0.12,-0.99,2.93,3.91,2.32
27.1830,0.08,0.13,-0.99,3.23,4.03,2.56
27.1990,0.08,0.13,-0.99,3.36,3.42,3.48
27.2150,0.08,0.12,-0.99,2.56,3.48,3.91
27.2310,0.08,0.12,-0.99,2.99,3.36,4.58
27.2460,0.08,0.12,-0.99,3.05,3.36,5.07
27.2480,0.08,0.11,-0.99,2.69,3.36,4.88
27.2770,0.08,0.11,-0.99,2.44,3.85,3.54
27.2870,0.08,0.12,-0.99,3.05,4.15,3.17
27.3030,0.08,0.13,-0.99,3.36,3.60,3.30
27.3210,0.08,0.13,-0.99,2.87,3.30,4.03
27.3370,0.08,0.11,-0.99,2.81,3.36,3.85
27.3460,0.08,0.10,-0.99,2.87,3.42,3.42
27.3680,0.08,0.11,-0.99,3.23,3.72,2.87
27.3840,0.08,0.12,-0.99,3.36,3.54,2.69
27.4000,0.08,0.13,-0.99,2.93,3.66,3.85
27.4150,0.08,0.13,-0.99,2.75,3.48,5.00
27.4320,0.08,0.12,-0.98,2.69,3.85,4.70
27.4470,0.08,0.10,-0.99,2.69,3.48,4.03
27.4640,0.08,0.11,-0.99,2.81,3.78,2.44
27.4710,0.08,0.12,-0.99,3.60,3.85,2.26
27.4860,0.08,0.13,-0.99,3.23,3.72,2.26
27.5080,0.08,0.13,-0.98,3.48,3.54,3.11
27.5250,0.08,0.12,-0.99,2.99,3.30,4.09
27.5410,0.08,0.12,-0.99,2.87,3.42,3.85
27.5580,0.08,0.11,-0.99,3.23,3.60,3.97
27.5730,0.08,0.11,-0.99,3.17,4.21,3.66
27.5880,0.08,0.12,-0.99,3.05,3.78,3.60
27.5910,0.08,0.12,-0.99,3.17,3.85,3.11
27.6070,0.08,0.11,-0.99,3.42,3.30,2.75
27.6340,0.08,0.12,-0.99,3.11,4.03,2.32
27.6460,0.08,0.12,-0.99,3.11,3.78,2.44
27.6610,0.08,0.12,-0.99,2.75,3.66,2.69
27.6780,0.08,0.11,-0.99,2.69,3.30,3.42
27.6940,0.08,0.11,-0.99,2.56,3.30,3.11
27.7090,0.08,0.11,-0.98,3.11,3.42,2.75
27.7110,0.08,0.12,-0.99,3.42,3.72,2.50
27.7410,0.08,0.13,-0.99,3.23,3.78,2.87
27.7560,0.08,0.12,-0.99,3.54,3.42,3.17
27.7660,0.08,0.11,-0.99,3.11,3.60,2.62
27.7830,0.08,0.12,-0.99,3.30,3.60,3.05
27.7990,0.08,0.12,-0.99,3.60,3.36,3.17
27.8160,0.08,0.12,-0.99,3.30,3.42,3.30
27.8320,0.08,0.12,-0.99,2.69,3.72,3.48
27.8480,0.08,0.11,-0.99,2.69,4.03,3.36
27.8640,0.08,0.12,-0.99,2.75,3.85,2.69
27.8790,0.08,0.11,-0.99,2.93,3.54,2.69
27.8830,0.08,0.11,-0.99,2.81,3.72,2.20
27.8990,0.08,0.12,-0.99,2.75,3.66,2.20
27.9150,0.08,0.12,-0.99,3.05,3.78,2.08
27.9370,0.08,0.12,-0.99,3.30,3.97,2.20
27.9540,0.08,0.12,-0.99,3.05,3.91,2.44
27.9710,0.08,0.12,-0.99,3.36,3.60,3.42
27.9870,0.08,0.11,-0.99,3.42,3.78,3.17
28.0040,0.08,0.12,-0.99,3.36,3.54,3.66
28.0190,0.08,0.11,-0.99,3.05,3.54,3.30
28.0350,0.08,0.12,-0.99,2.56,3.54,2.62
28.0500,0.08,0.12,-0.99,2.87,3.72,2.75
28.0660,0.08,0.13,-0.98,2.99,3.48,2.93
28.0710,0.08,0.13,-0.99,3.23,3.36,3.66
28.0870,0.08,0.12,-0.99,2.87,3.42,4.46
28.1100,0.08,0.12,-0.99,2.56,3.17,4.76
28.1260,0.08,0.11,-0.99,2.93,3.60,4.88
28.1440,0.08,0.11,-0.99,2.75,3.23,3.60
28.1600,0.08,0.11,-0.99,2.87,3.42,2.56
28.1760,0.08,0.12,-0.99,3.17,3.54,2.26
28.1920,0.08,0.13,-0.99,3.60,3.72,2.50
28.2070,0.08,0.13,-0.99,3.54,2.81,4.21
28.2220,0.08,0.13,-0.99,2.62,3.36,5.68
28.2380,0.08,0.11,-0.99,2.62,3.42,5.25
28.2540,0.08,0.10,-0.99,2.87,3.48,4.21
28.2600,0.08,0.11,-0.98,3.36,3.66,2.87
28.2760,0.08,0.12,-0.99,3.48,3.97,2.32
28.2980,0.08,0.12,-0.99,2.69,3.85,2.20
28.3140,0.08,0.12,-0.99,2.56,3.66,2.38
28.3160,0.08,0.13,-0.99,2.56,3.72,3.30
28.3310,0.09,0.12,-0.98,2.56,3.72,3.78
28.3480,0.08,0.12,-0.99,3.17,3.30,4.09
28.3660,0.08,0.12,-0.99,3.30,3.23,4.88
28.3810,0.07,0.11,-0.99,2.81,3.54,5.00
28.3980,0.08,0.10,-0.99,2.26,3.97,4.03
28.4140,0.08,0.11,-0.99,2.32,3.23,2.50
28.4410,0.08,0.11,-0.99,2.99,3.78,2.14
28.4510,0.08,0.12,-0.99,3.30,3.91,2.08
28.4680,0.09,0.13,-0.98,3.17,3.42,2.44
28.4850,0.08,0.13,-0.99,3.66,3.36,3.60
28.5010,0.08,0.11,-0.99,2.62,3.54,4.09
28.5170,0.08,0.11,-0.99,2.81,3.11,4.21
28.5330,0.08,0.11,-0.99,3.11,3.11,3.36
28.5490,0.08,0.11,-0.99,3.30,3.23,2.81
28.5510,0.08,0.12,-0.99,3.05,3.60,2.14
28.5670,0.08,0.12,-0.99,3.48,3.54,2.01
28.5950,0.08,0.12,-0.99,3.23,3.72,2.01
28.6060,0.08,0.12,-0.99,2.93,3.85,2.20
28.6240,0.08,0.12,-0.99,2.87,3.97,2.20
28.6390,0.08,0.13,-0.99,3.30,3.48,2.87
28.6560,0.09,0.13,-0.99,2.99,3.36,4.94
28.6710,0.08,0.12,-0.99,2.44,3.05,5.74
28.6860,0.08,0.10,-0.99,2.50,2.93,4.70
28.7010,0.08,0.10,-0.99,2.62,3.23,4.03
28.7170,0.08,0.11,-0.99,2.62,3.97,3.23
28.7220,0.08,0.12,-0.99,3.17,3.78,1.95
28.7480,0.08,0.12,-0.99,3.48,3.85,2.08
28.7590,0.08,0.12,-0.99,3.48,3.60,2.20
28.7760,0.08,0.13,-0.99,3.54,3.42,2.93
28.7930,0.08,0.13,-0.99,3.54,3.11,4.39
28.8090,0.08,0.12,-0.99,3.23,3.11,4.58
28.8250,0.08,0.12,-0.99,3.17,3.42,4.39
28.8390,0.08,0.11,-0.99,2.75,3.42,3.97
28.8480,0.08,0.11,-0.99,2.62,3.97,2.62
28.8630,0.08,0.12,-0.99,2.99,3.85,2.32
28.8850,0.08,0.12,-0.99,3.05,3.72,2.32
28.9000,0.08,0.13,-0.99,3.36,3.11,3.97
28.9160,0.08,0.13,-0.99,2.32,3.30,5.49
28.9320,0.08,0.12,-0.99,2.44,3.23,5.80
28.9460,0.08,0.10,-0.99,2.99,3.66,4.82
28.9620,0.08,0.10,-0.99,3.17,3.54,3.60
28.9780,0.08,0.11,-0.99,3.66,3.91,3.23
28.9940,0.09,0.12,-0.99,3.36,3.36,2.50
29.0010,0.08,0.12,-0.99,2.50,3.78,2.44
29.0160,0.08,0.12,-0.99,2.75,3.66,2.93
29.0390,0.08,0.13,-0.98,3.42,3.42,3.17
29.0550,0.08,0.14,-0.99,3.36,2.99,5.19
29.0710,0.08,0.13,-0.99,3.30,3.17,6.59
29.0860,0.08,0.11,-0.99,2.38,2.93,7.51
29.1010,0.08,0.09,-0.99,2.50,3.78,5.25
29.1170,0.08,0.10,-0.98,3.05,3.66,2.56
29.1330,0.08,0.12,-0.99,4.52,3.78,2.14
29.1490,0.08,0.12,-0.99,2.38,3.72,1.95
29.1650,0.08,0.12,-0.98,1.71,3.42,2.14
29.1720,0.08,0.14,-0.98,2.32,3.30,4.27
29.1880,0.08,0.13,-0.99,3.91,3.30,5.92
29.2100,0.08,0.11,-0.99,2.62,3.60,5.74
29.2270,0.08,0.09,-0.99,2.38,3.48,4.33
29.2430,0.08,0.10,-0.98,2.50,3.36,2.38
29.2590,0.08,0.12,-0.99,4.46,3.54,2.08
29.2750,0.08,0.12,-0.99,3.48,3.17,1.83
29.2910,0.08,0.12,-0.99,2.26,3.66,2.38
29.3060,0.08,0.14,-0.98,2.20,3.91,2.93
29.3220,0.09,0.13,-0.99,3.54,3.11,5.25
29.3380,0.08,0.11,-0.99,2.75,3.48,5.55
29.3480,0.08,0.10,-0.99,2.99,3.66,4.76
29.3690,0.08,0.10,-0.99,2.87,3.48,2.99
29.3840,0.08,0.12,-0.99,3.78,3.60,2.01
29.3990,0.08,0.12,-0.99,3.85,3.42,2.14
29.4100,0.08,0.12,-0.99,2.69,3.91,2.32
29.4270,0.09,0.14,-0.98,2.87,3.91,3.66
29.4430,0.08,0.13,-0.99,2.99,3.36,5.25
29.4600,0.08,0.11,-0.98,2.14,3.11,5.43
29.4760,0.08,0.10,-0.99,3.17,3.42,4.09
29.4920,0.08,0.10,-0.99,3.23,3.36,2.99
29.5080,0.08,0.12,-0.99,3.54,3.78,2.20
29.5240,0.08,0.12,-0.99,2.93,3.48,1.83
29.5390,0.08,0.11,-0.98,2.69,3.78,2.08
29.5550,0.08,0.12,-0.99,3.48,3.78,2.20
29.5600,0.08,0.13,-0.99,3.54,3.66,2.56
29.5760,0.08,0.13,-0.99,3.23,3.42,3.48
29.5990,0.08,0.12,-0.99,2.32,3.48,4.09
29.6160,0.08,0.11,-0.99,2.20,3.42,3.91
29.6320,0.08,0.11,-0.99,3.11,3.30,3.30
29.6480,0.08,0.12,-0.99,3.72,3.78,2.62
29.6490,0.08,0.13,-0.99,3.36,3.72,2.81
29.6650,0.08,0.13,-0.99,2.75,3.54,3.91
29.6830,0.08,0.12,-0.99,2.81,3.60,4.64
29.6990,0.08,0.11,-0.99,2.81,3.48,4.76
29.7150,0.08,0.11,-0.99,2.93,3.23,4.46
29.7410,0.08,0.12,-0.99,2.81,3.72,4.21
29.7490,0.08,0.11,-0.99,3.11,3.48,4.21
29.7640,0.08,0.12,-0.99,2.87,3.48,3.42
29.7810,0.08,0.12,-0.99,2.93,3.42,3.48
29.7970,0.08,0.11,-0.99,2.62,3.60,3.48
29.8170,0.08,0.11,-0.98,2.75,3.66,3.17
29.8330,0.08,0.11,-0.99,2.99,3.05,2.81
29.8470,0.08,0.12,-0.99,3.54,3.48,2.01
29.8630,0.08,0.12,-0.99,2.75,3.72,2.08
29.8690,0.08,0.13,-0.99,2.87,3.85,2.50
29.8850,0.09,0.15,-0.98,3.23,3.30,4.94
29.9080,0.08,0.14,-0.99,3.17,2.50,7.45
29.9240,0.08,0.12,-0.99,2.50,2.56,8.85
29.9390,0.08,0.07,-0.99,2.87,2.93,8.00
29.9550,0.08,0.08,-0.99,2.81,3.17,4.76
29.9700,0.08,0.09,-0.99,3.30,3.78,3.17
29.9740,0.08,0.12,-0.99,4.09,3.66,2.20
29.9900,0.08,0.12,-0.99,2.93,3.60,1.95
30.0130,0.08,0.12,-0.99,2.20,4.03,2.14
30.0290,0.08,0.12,-0.98,2.87,3.72,2.38
30.0450,0.08,0.12,-0.99,3.42,3.78,2.62
30.0620,0.08,0.12,-0.99,3.30,3.66,2.32
30.0780,0.08,0.13,-0.98,3.17,3.78,2.62
30.0940,0.08,0.13,-0.99,3.48,3.11,4.46
30.1100,0.08,0.12,-0.99,2.87,3.17,5.55
30.1130,0.08,0.10,-0.99,2.32,3.48,5.07
30.1330,0.08,0.10,-0.99,2.87,3.30,2.87
30.1510,0.08,0.12,-0.99,3.23,3.54,2.01
30.1670,0.08,0.12,-0.99,4.03,3.78,2.01
30.1840,0.09,0.12,-0.99,2.81,3.97,2.08
30.2000,0.08,0.12,-0.98,2.75,3.85,2.01
30.2160,0.09,0.14,-0.98,3.66,3.11,3.91
30.2320,0.08,0.12,-0.99,3.60,2.99,5.07
30.2480,0.08,0.11,-0.99,1.71,3.11,4.70
30.2510,0.08,0.09,-0.99,2.87,3.23,3.48
30.2790,0.08,0.12,-0.99,4.58,3.17,2.14
30.2940,0.09,0.12,-0.99,4.03,3.54,2.01
30.3000,0.08,0.12,-0.99,2.32,4.09,1.83
30.3160,0.08,0.12,-0.98,2.14,4.46,1.83
30.3360,0.08,0.12,-0.98,2.62,3.72,2.01
30.3520,0.08,0.11,-0.98,3.30,3.78,2.01
30.3700,0.08,0.12,-0.99,3.48,3.60,2.01
30.3860,0.08,0.12,-0.99,2.81,3.60,2.01
30.4010,0.08,0.12,-0.99,2.81,3.42,2.26
30.4170,0.08,0.12,-0.99,3.30,3.60,2.14
30.4330,0.08,0.12,-0.99,3.05,3.85,2.08
30.4490,0.08,0.12,-0.98,2.93,3.97,2.44
30.4650,0.08,0.13,-0.99,2.75,3.54,4.33
30.4690,0.08,0.10,-0.99,2.38,3.17,4.76
30.4850,0.08,0.10,-0.99,2.08,3.78,3.17
30.5080,0.08,0.11,-0.98,3.42,3.66,2.14
30.5250,0.08,0.13,-0.99,3.85,3.91,2.20
30.5250,0.08,0.14,-0.99,2.56,4.03,2.62
30.5560,0.08,0.13,-0.99,2.14,3.48,5.07
30.5710,0.08,0.12,-0.99,1.95,3.36,6.16
30.5880,0.08,0.10,-0.99,2.38,3.48,6.10
30.6040,0.08,0.10,-0.99,3.05,3.42,3.78
30.6190,0.08,0.11,-0.98,2.87,3.66,2.56
30.6350,0.08,0.12,-0.99,3.85,3.60,1.71
30.6500,0.08,0.12,-0.99,3.54,3.23,1.95
30.6660,0.08,0.12,-0.99,3.60,3.11,1.95
30.6810,0.08,0.12,-0.99,3.17,3.42,2.08
30.6900,0.08,0.11,-0.99,2.93,3.85,2.01
30.7060,0.08,0.12,-0.99,3.23,4.09,1.89
30.7250,0.08,0.12,-0.99,3.42,3.78,2.01
30.7420,0.08,0.12,-0.98,2.93,3.60,1.89
30.7590,0.08,0.12,-0.99,3.60,3.60,1.89
30.7740,0.08,0.12,-0.99,3.42,2.81,1.77
30.7910,0.08,0.12,-0.99,2.87,3.60,2.01
30.8060,0.08,0.12,-0.99,3.48,3.60,2.01
30.8220,0.08,0.12,-0.99,3.42,3.72,1.95
30.8360,0.08,0.12,-0.99,3.17,4.03,2.01
30.8510,0.08,0.12,-0.99,3.30,3.60,1.95
30.8660,0.08,0.12,-0.99,3.60,3.05,1.95
30.8810,0.09,0.12,-0.99,3.30,3.23,1.89
30.8920,0.08,0.12,-0.98,3.42,3.23,1.95
30.9080,0.08,0.12,-0.99,3.60,3.60,1.95
30.9250,0.08,0.12,-0.99,3.23,3.85,2.08
30.9410,0.08,0.12,-0.99,2.93,4.21,2.08
30.9570,0.08,0.12,-0.99,3.36,3.54,2.08
30.9720,0.08,0.12,-0.99,3.30,3.23,2.14
30.9880,0.08,0.12,-0.99,2.75,3.36,2.01
30.9910,0.08,0.12,-0.99,2.69,3.72,1.89
31.0070,0.08,0.12,-0.99,3.30,3.72,2.14
31.0340,0.08,0.12,-0.98,2.69,3.91,2.14
31.0450,0.08,0.12,-0.99,2.93,3.36,1.95
31.0610,0.08,0.12,-0.99,3.17,3.60,1.89
31.0780,0.08,0.12,-0.99,3.17,3.36,1.83
31.0950,0.09,0.12,-0.99,3.48,3.36,1.95
31.1110,0.08,0.12,-0.99,2.75,3.91,2.01
31.1270,0.08,0.12,-0.99,2.99,4.09,1.95
31.1430,0.08,0.12,-0.99,3.17,3.97,1.95
31.1600,0.08,0.12,-0.99,3.23,3.17,2.08
31.1760,0.08,0.12,-0.99,3.17,3.78,2.08
31.1910,0.08,0.12,-0.99,3.11,3.72,1.95
31.2070,0.08,0.12,-0.99,3.05,3.66,2.01
31.2210,0.08,0.12,-0.99,2.75,3.66,1.95
31.2280,0.08,0.13,-0.98,2.01,4.03,2.62
31.2500,0.07,0.15,-0.98,4.33,2.93,6.04
31.2670,0.09,0.15,-0.99,3.78,2.44,8.30
31.2820,0.08,0.08,-0.99,2.62,2.87,8.42
31.2970,0.08,0.06,-0.98,2.14,3.60,4.15
31.3000,0.09,0.11,-0.98,5.98,3.42,1.83
31.3160,0.09,0.11,-1.00,4.52,3.72,-0.12
31.3380,0.09,0.12,-0.99,2.99,4.39,-1.95
31.3540,0.08,0.13,-0.98,3.30,4.39,-0.61
31.3710,0.08,0.12,-0.99,2.87,4.03,1.40
31.3880,0.08,0.11,-0.98,2.26,3.97,2.01
31.4030,0.08,0.11,-0.98,3.36,3.54,1.89
31.4200,0.08,0.12,-0.99,3.78,3.48,2.01
31.4350,0.08,0.12,-0.99,3.05,3.54,1.83
31.4510,0.08,0.12,-0.99,3.05,3.60,1.77
31.4680,0.08,0.12,-0.99,3.42,3.66,2.08
31.4830,0.08,0.12,-0.99,3.54,3.72,2.01
31.5010,0.08,0.12,-0.99,3.05,3.54,2.14
31.5160,0.08,0.12,-0.99,2.93,3.48,1.95
31.5330,0.08,0.12,-0.99,3.30,3.54,1.95
31.5390,0.09,0.12,-0.99,3.23,3.60,1.89
31.5540,0.09,0.12,-0.99,2.62,3.66,2.08
31.5770,0.08,0.12,-0.99,2.56,3.66,1.95
31.5930,0.08,0.12,-0.98,2.93,3.42,1.95
31.6050,0.08,0.12,-0.99,3.23,3.54,1.95
31.6210,0.08,0.12,-0.99,3.36,3.66,2.01
31.6380,0.08,0.12,-0.99,2.87,3.36,1.95
31.6530,0.08,0.12,-0.98,2.69,3.36,2.08
31.6700,0.08,0.12,-0.99,3.11,3.48,2.14
31.6840,0.08,0.12,-0.99,3.42,3.17,1.95
31.7000,0.08,0.12,-0.99,3.30,3.54,1.95
31.7150,0.08,0.12,-0.99,3.17,3.78,1.89
31.7290,0.08,0.12,-0.99,3.23,3.66,1.89
31.7420,0.08,0.12,-0.98,3.23,3.91,1.95
31.7590,0.08,0.12,-0.99,3.48,3.78,2.01
31.7750,0.08,0.12,-0.99,3.17,3.60,2.01
31.7910,0.08,0.12,-0.99,3.11,3.60,1.95
31.8060,0.08,0.12,-0.98,3.36,3.78,1.89
31.8210,0.08,0.12,-0.98,3.78,3.36,1.89
31.8360,0.08,0.12,-0.99,4.58,3.05,1.83
31.8510,0.08,0.12,-0.99,3.78,3.23,1.89
31.8580,0.08,0.12,-0.99,3.23,3.17,1.83
31.8810,0.08,0.12,-0.98,3.54,3.23,1.95
31.8960,0.08,0.12,-0.99,3.85,3.05,1.95
31.9130,0.10,0.13,-0.99,3.66,3.42,2.01
31.9290,0.08,0.12,-0.99,3.17,3.42,2.01
31.9460,0.09,0.12,-0.99,2.93,3.97,1.95
31.9620,0.08,0.12,-0.98,2.62,3.85,2.08
31.9640,0.09,0.12,-0.99,3.17,3.85,2.01
31.9790,0.09,0.12,-0.99,2.75,4.21,2.08
32.0020,0.08,0.12,-0.99,2.62,5.25,2.20
32.0190,0.08,0.12,-0.99,0.43,5.55,2.08
32.0360,0.08,0.11,-0.98,0.37,5.43,2.08
32.0520,0.08,0.11,-0.98,2.14,4.52,2.14
32.0680,0.08,0.12,-0.99,3.48,3.17,1.89
32.0840,0.08,0.12,-0.99,3.85,3.11,1.83
32.1000,0.09,0.12,-0.99,3.85,3.23,1.89
32.1160,0.08,0.12,-0.99,3.60,3.60,1.89
32.1310,0.08,0.12,-0.99,3.17,3.78,1.89
32.1370,0.08,0.12,-0.99,3.30,3.91,1.95
32.1530,0.08,0.12,-0.99,2.75,3.85,1.83
32.1770,0.08,0.12,-0.99,2.69,3.91,1.83
32.1920,0.08,0.12,-0.99,3.11,3.85,2.01
32.2070,0.08,0.12,-0.99,3.36,3.85,1.95
32.2220,0.08,0.12,-0.99,3.36,3.60,1.89
32.2380,0.08,0.12,-0.99,3.66,3.72,1.95
32.2540,0.08,0.12,-0.99,3.30,3.36,2.01
32.2690,0.08,0.12,-0.98,3.11,3.60,2.08
32.2840,0.08,0.12,-0.99,3.54,3.72,2.14
32.2990,0.08,0.12,-0.99,2.93,3.78,1.95
32.3100,0.08,0.12,-0.99,2.69,3.97,2.14
32.3260,0.08,0.12,-0.99,2.81,4.09,1.95
32.3430,0.08,0.12,-0.99,3.23,3.78,2.08
32.3600,0.08,0.12,-0.99,3.17,3.48,1.89
32.3760,0.08,0.12,-0.99,3.36,3.36,1.83
32.3930,0.08,0.12,-0.99,3.30,3.66,1.95
32.4090,0.08,0.12,-0.99,3.36,3.97,1.95
32.4250,0.08,0.12,-0.99,3.36,3.72,1.83
32.4410,0.08,0.12,-0.99,2.81,3.85,2.08
32.4560,0.08,0.12,-0.99,3.23,3.66,1.89
32.4710,0.08,0.12,-0.99,3.05,3.42,1.95
32.4760,0.08,0.12,-0.99,2.87,3.30,1.95
32.4920,0.08,0.12,-0.98,3.05,3.60,1.83
32.5150,0.08,0.12,-0.99,3.48,3.66,1.95
32.5310,0.08,0.12,-0.99,3.17,3.60,2.14
32.5470,0.08,0.12,-0.99,3.36,3.60,1.89
32.5640,0.08,0.12,-0.99,3.60,3.36,2.01
32.5800,0.08,0.12,-0.99,3.36,3.36,1.89
32.5830,0.08,0.12,-0.99,3.36,3.54,2.08
32.5980,0.08,0.12,-0.99,3.11,3.36,1.95
32.6210,0.08,0.12,-0.99,2.99,3.42,2.14
32.6380,0.09,0.12,-0.99,2.99,3.85,2.01
32.6540,0.08,0.12,-0.99,2.87,3.60,1.83
32.6700,0.08,0.12,-0.99,2.87,3.78,1.95
32.6860,0.08,0.12,-0.98,2.75,3.72,1.89
32.7010,0.08,0.12,-0.99,3.54,3.30,1.95
32.7170,0.08,0.12,-0.98,3.23,3.60,1.95
32.7320,0.08,0.12,-0.99,2.87,3.48,1.89
32.7470,0.09,0.12,-0.99,2.81,3.54,2.01
32.7550,0.08,0.12,-0.99,3.05,3.72,1.83
32.7710,0.08,0.12,-0.99,3.48,3.85,2.14
32.7870,0.08,0.12,-0.99,3.30,3.91,2.08
32.8080,0.08,0.12,-0.99,3.30,3.66,1.89
32.8240,0.08,0.12,-0.99,3.17,3.78,2.01
32.8390,0.08,0.12,-0.99,3.54,3.30,2.08
32.8540,0.08,0.12,-0.99,3.54,3.72,2.14
32.8690,0.08,0.12,-0.99,3.42,3.66,2.14
32.8840,0.08,0.12,-0.99,3.17,3.60,1.77
32.9000,0.09,0.12,-0.99,3.48,3.66,1.83
32.9150,0.09,0.12,-0.99,3.85,3.72,2.08
32.9240,0.08,0.12,-0.98,4.33,3.72,1.89
32.9400,0.09,0.17,-1.00,6.71,3.23,2.08
32.9610,0.09,0.12,-0.97,2.56,3.91,1.95
32.9770,0.09,0.12,-0.99,3.78,3.78,1.95
32.9920,0.08,0.12,-0.99,3.85,4.33,1.83
32.9950,0.09,0.13,-0.99,4.88,4.39,0.61
33.0100,0.08,0.12,-0.99,5.07,4.15,0.43
33.0380,0.08,0.12,-0.98,3.60,4.15,1.65
33.0520,0.08,0.13,-0.99,3.85,3.72,1.04
33.0660,0.08,0.13,-0.99,2.75,3.97,0.79
33.0820,0.08,0.15,-0.98,1.83,3.72,1.53
33.0990,0.09,0.13,-0.97,2.56,3.78,1.65
33.1140,0.08,0.12,-0.97,1.53,4.33,2.08
33.1300,0.09,0.12,-0.99,3.36,3.48,1.95
33.1450,0.09,0.12,-0.98,4.15,3.85,2.26
33.1600,0.09,0.13,-0.99,4.09,3.60,2.26
33.1760,0.08,0.12,-0.98,3.30,4.27,2.14
33.1920,0.07,0.12,-0.99,2.75,4.33,2.14
33.1990,0.07,0.12,-0.99,2.32,4.33,1.95
33.2150,0.08,0.12,-0.98,2.62,3.66,2.01
33.2370,0.09,0.13,-0.98,4.15,3.60,2.01
33.2530,0.09,0.13,-0.99,3.54,3.66,2.01
33.2700,0.08,0.13,-0.99,3.78,3.17,2.14
33.2850,0.08,0.12,-0.99,3.91,3.66,2.20
33.3020,0.08,0.12,-0.99,3.42,3.91,2.01
33.3180,0.09,0.12,-0.99,3.11,3.97,2.14
33.3340,0.08,0.13,-0.99,3.54,3.72,2.08
33.3500,0.09,0.13,-0.98,2.87,3.91,1.89
33.3650,0.10,0.12,-0.98,2.50,3.60,1.89
33.3720,0.08,0.12,-0.99,3.72,4.03,2.26
33.3870,0.08,0.12,-0.99,4.27,4.21,2.08
33.4100,0.08,0.13,-0.99,4.21,4.21,2.08
33.4250,0.08,0.12,-0.99,3.36,3.42,2.08
33.4420,0.08,0.13,-0.98,3.17,3.36,1.95
33.4570,0.09,0.12,-0.99,3.72,3.72,2.08
33.4600,0.09,0.13,-0.99,4.21,4.21,2.20
33.4760,0.08,0.12,-0.99,2.69,4.09,2.01
33.4980,0.08,0.13,-0.99,2.99,3.91,1.95
33.5150,0.09,0.12,-0.99,3.30,4.09,2.20
33.5310,0.07,0.14,-1.00,3.91,3.66,1.95
33.5490,0.08,0.13,-0.99,3.23,3.97,1.95
33.5650,0.09,0.13,-0.99,2.99,4.03,2.01
33.5810,0.08,0.13,-0.99,3.30,3.54,2.01
33.5970,0.08,0.12,-0.99,2.93,3.97,2.08
33.6140,0.08,0.13,-0.99,3.23,4.09,2.01
33.6300,0.08,0.12,-0.99,3.23,3.91,2.08
33.6460,0.08,0.12,-0.99,2.99,3.85,2.08
33.6520,0.08,0.12,-0.99,3.23,3.48,1.95
33.6640,0.08,0.12,-0.99,3.23,3.85,1.95
33.6870,0.08,0.13,-0.99,3.11,3.72,2.08
33.7030,0.08,0.13,-0.99,2.99,3.42,2.08
33.7200,0.08,0.12,-0.98,3.30,3.54,1.95
33.7370,0.09,0.12,-0.98,3.23,3.85,2.14
33.7540,0.09,0.12,-0.98,3.23,3.66,2.08
33.7690,0.08,0.12,-0.98,3.05,3.60,2.20
33.7840,0.09,0.12,-0.97,3.23,3.48,2.08
33.8000,0.09,0.13,-1.00,3.05,3.36,1.95
33.8160,0.09,0.13,-0.99,3.11,3.78,2.08
33.8310,0.08,0.12,-0.97,3.11,3.66,2.32
33.8360,0.09,0.12,-0.97,3.05,3.66,2.20
33.8520,0.09,0.13,-0.99,3.17,3.97,2.08
33.8770,0.08,0.13,-0.99,2.93,3.78,2.01
33.8920,0.08,0.12,-0.98,3.11,3.54,1.95
33.9080,0.09,0.12,-0.99,3.05,3.85,1.71
33.9240,0.09,0.13,-0.99,3.23,3.48,1.77
33.9390,0.09,0.12,-0.99,2.87,3.48,1.71
33.9540,0.09,0.12,-0.99,2.87,3.60,1.65
33.9700,0.08,0.12,-0.99,2.81,3.48,1.53
33.9840,0.03,0.11,-0.97,2.81,3.11,1.89
34.0000,0.10,0.16,-1.03,5.49,4.09,1.59
34.0150,0.09,0.11,-1.00,1.83,3.91,1.46
34.0260,0.07,0.13,-0.99,3.42,3.78,1.95
34.0420,0.08,0.13,-0.98,3.23,3.42,2.14
34.0590,0.09,0.13,-0.99,3.30,3.78,1.95
34.0760,0.09,0.12,-0.99,3.23,4.15,2.20
34.0930,0.08,0.12,-0.99,3.11,3.48,2.01
34.1090,0.09,0.13,-0.99,3.05,3.72,2.08
34.1260,0.09,0.12,-0.99,3.11,3.72,2.01
34.1410,0.08,0.13,-0.99,3.30,3.91,2.01
34.1570,0.08,0.12,-0.99,3.17,3.60,2.08
34.1730,0.08,0.12,-0.99,2.99,3.42,2.08
34.1770,0.08,0.13,-0.99,3.17,3.30,1.95
34.1920,0.08,0.12,-0.99,3.11,3.60,2.08
34.2140,0.09,0.12,-0.98,2.93,3.66,2.14
34.2310,0.08,0.13,-0.99,3.17,3.66,2.01
34.2490,0.08,0.12,-0.99,3.23,4.03,2.01
34.2650,0.09,0.12,-0.99,3.30,3.85,2.01
34.2800,0.08,0.13,-0.99,3.30,3.72,2.01
34.2820,0.08,0.12,-0.99,3.23,3.60,2.01
34.3140,0.08,0.13,-0.99,3.36,3.85,2.14
34.3290,0.08,0.12,-0.99,3.23,3.85,2.08
34.3320,0.08,0.13,-0.99,3.17,3.66,2.08
34.3520,0.08,0.13,-0.99,3.05,3.85,2.08
34.3640,0.08,0.12,-0.99,3.30,3.97,2.14
34.3860,0.08,0.12,-0.99,3.36,3.48,2.14
34.4020,0.08,0.12,-0.99,3.30,3.66,2.01
34.4190,0.09,0.13,-0.99,3.30,3.66,2.20
34.4360,0.08,0.13,-0.99,3.17,3.36,1.95
34.4510,0.08,0.13,-0.99,3.17,3.48,2.01
34.4670,0.08,0.12,-0.99,3.05,3.91,2.08
34.4820,0.08,0.12,-0.99,2.99,3.91,2.14
34.4970,0.08,0.13,-0.99,3.11,3.85,2.01
34.5030,0.08,0.12,-0.99,3.23,3.78,1.95
34.5190,0.09,0.13,-0.99,3.23,3.54,2.14
34.5350,0.08,0.12,-0.99,3.23,3.48,2.01
34.5560,0.08,0.13,-0.99,3.17,3.48,2.01
34.5720,0.08,0.13,-0.98,3.30,3.85,2.01
34.5890,0.08,0.12,-0.99,3.23,3.72,2.01
34.6040,0.09,0.12,-0.99,3.17,4.03,1.83
34.6190,0.08,0.13,-0.99,3.23,3.66,2.01
34.6340,0.08,0.13,-0.98,3.23,3.78,2.01
34.6490,0.08,0.13,-0.99,3.30,3.72,1.95
34.6660,0.08,0.12,-0.99,3.36,3.72,1.89
34.6810,0.08,0.12,-0.98,3.11,3.78,2.14
34.6960,0.09,0.13,-0.99,2.87,3.54,2.01
34.7060,0.08,0.13,-0.99,3.23,3.66,2.08
34.7220,0.08,0.12,-0.99,3.11,3.78,2.01
34.7380,0.09,0.12,-0.98,2.99,3.97,2.08
34.7560,0.09,0.12,-0.99,2.87,3.72,2.08
34.7720,0.08,0.12,-0.99,2.93,3.66,2.08
34.7870,0.08,0.12,-0.99,3.23,3.54,2.08
34.8040,0.08,0.12,-0.99,2.93,3.85,1.77
34.8060,0.08,0.16,-0.99,3.17,3.91,2.14
34.8210,0.08,0.12,-0.99,3.17,3.72,2.01
34.8490,0.08,0.12,-0.99,3.11,3.78,1.89
34.8600,0.08,0.13,-0.99,3.05,3.66,1.89
34.8770,0.08,0.13,-0.98,3.05,3.54,2.20
34.8940,0.08,0.13,-0.99,3.05,3.91,2.08
34.9100,0.08,0.12,-0.99,2.93,3.78,2.08
34.9270,0.08,0.12,-0.99,3.11,3.97,2.14
34.9430,0.08,0.13,-0.99,3.30,3.66,2.01
34.9600,0.09,0.13,-0.99,3.23,3.97,2.01
34.9760,0.09,0.12,-0.99,2.81,4.09,1.95
34.9920,0.08,0.12,-0.99,3.30,3.72,1.89
35.0080,0.08,0.13,-0.99,3.23,3.91,2.08
35.0240,0.09,0.13,-0.98,3.05,3.72,2.08
35.0270,0.08,0.12,-0.99,2.99,4.09,2.08
35.0520,0.08,0.12,-0.99,3.30,3.66,2.08
35.0650,0.08,0.12,-0.99,3.11,3.66,2.01
35.0810,0.09,0.13,-0.99,3.11,3.60,1.83
35.0990,0.08,0.13,-0.99,2.99,3.78,2.01
35.1150,0.08,0.12,-0.99,3.05,3.72,1.95
35.1310,0.08,0.12,-0.99,2.93,3.72,2.01
35.1470,0.08,0.12,-0.99,3.17,3.54,2.08
35.1630,0.08,0.13,-0.99,3.23,3.60,2.01
35.1800,0.08,0.12,-0.99,2.99,3.78,2.08
35.1810,0.08,0.12,-0.99,3.30,3.60,2.14
35.1970,0.08,0.13,-0.99,3.11,3.60,2.08
35.2210,0.08,0.13,-0.99,3.17,3.78,2.20
35.2360,0.08,0.12,-0.99,3.17,3.91,2.14
35.2520,0.08,0.12,-0.99,3.23,3.54,1.95
35.2710,0.08,0.12,-0.99,3.30,3.97,1.95
35.2870,0.08,0.13,-0.99,3.17,4.15,2.08
35.3020,0.08,0.12,-0.99,3.36,3.66,2.01
35.3170,0.08,0.13,-0.99,3.23,3.91,2.14
35.3340,0.08,0.12,-0.99,3.23,3.78,2.01
35.3490,0.08,0.09,-0.99,2.87,3.66,2.01
35.3650,0.08,0.13,-0.99,3.23,3.54,1.89
35.3710,0.08,0.12,-0.99,3.05,3.72,1.95
35.3870,0.08,0.12,-0.99,2.99,3.91,2.01
35.4090,0.08,0.12,-0.99,3.11,3.66,2.01
35.4250,0.08,0.12,-0.99,3.11,3.54,2.01
35.4410,0.08,0.12,-0.99,3.36,3.97,2.08
35.4570,0.08,0.13,-0.99,3.30,3.78,1.89
35.4720,0.08,0.12,-0.99,3.05,3.85,2.20
35.4760,0.08,0.12,-0.99,3.05,3.91,2.14
35.4930,0.08,0.12,-0.99,3.30,3.91,2.01
35.5140,0.08,0.12,-0.99,3.17,3.72,1.95
35.5300,0.08,0.13,-0.99,3.17,3.85,2.01
35.5470,0.08,0.12,-0.99,3.30,3.97,1.95
35.5640,0.08,0.12,-0.99,3.36,4.27,2.08
35.5800,0.08,0.12,-0.99,2.93,3.85,2.14
35.5810,0.08,0.13,-0.99,3.30,3.97,2.08
35.5980,0.08,0.12,-0.99,3.17,3.60,2.01
35.6140,0.08,0.12,-0.99,3.17,3.66,2.01
35.6420,0.08,0.13,-0.99,3.11,3.85,2.20
35.6570,0.08,0.12,-0.99,3.23,3.72,2.01
35.6660,0.08,0.12,-0.99,3.17,3.60,2.01
35.6820,0.08,0.12,-0.99,3.42,3.78,1.89
35.6990,0.08,0.13,-0.99,3.17,3.78,2.08
35.7160,0.08,0.13,-0.99,3.42,3.66,2.14
35.7320,0.08,0.12,-0.99,3.17,3.91,1.95
35.7480,0.08,0.12,-0.99,3.30,3.60,2.01
35.7630,0.08,0.12,-0.99,3.05,3.78,2.01
35.7780,0.08,0.12,-0.99,3.11,3.72,2.01
35.7820,0.08,0.13,-0.99,3.30,3.85,2.01
35.7980,0.08,0.12,-0.99,3.23,3.85,2.01
35.8230,0.08,0.12,-0.99,3.30,3.91,2.08
35.8390,0.08,0.13,-0.99,3.30,3.60,1.95
35.8550,0.08,0.12,-0.99,3.11,3.72,1.95
35.8560,0.08,0.12,-0.99,3.23,3.78,2.08
35.8840,0.08,0.12,-0.99,3.36,3.91,2.08
35.9000,0.08,0.12,-0.99,3.17,3.91,2.01
35.9150,0.08,0.13,-0.99,3.17,3.72,2.14
35.9250,0.08,0.12,-0.99,3.30,3.72,2.14
35.9420,0.08,0.12,-0.99,3.11,4.03,2.08
35.9580,0.08,0.12,-0.99,3.30,3.97,2.20
35.9750,0.08,0.13,-0.99,3.05,3.85,2.14
35.9900,0.08,0.12,-0.99,3.11,3.91,2.08
36.0040,0.08,0.13,-0.99,3.05,3.78,2.14
36.0200,0.08,0.12,-0.99,3.30,4.15,2.01
36.0360,0.08,0.12,-0.99,3.17,3.72,2.14
36.0530,0.08,0.13,-0.99,3.05,3.54,1.89
36.0570,0.08,0.13,-0.99,3.42,3.85,1.89
36.0780,0.08,0.12,-0.99,3.05,3.91,2.20
36.0950,0.08,0.12,-0.99,3.23,3.54,2.08
36.1110,0.08,0.12,-0.99,3.17,3.72,2.01
36.1280,0.08,0.13,-0.99,2.93,3.91,2.01
36.1440,0.08,0.12,-0.99,3.11,3.72,2.14
36.1610,0.08,0.12,-0.99,3.17,4.21,2.20
36.1770,0.08,0.13,-0.99,3.05,3.78,2.20
36.1920,0.08,0.12,-0.99,2.99,4.21,2.08
36.1940,0.08,0.12,-0.99,3.11,3.66,2.01
36.2100,0.08,0.12,-0.99,3.17,3.66,2.14
36.2340,0.08,0.12,-0.99,2.93,3.85,2.20
36.2500,0.08,0.12,-0.99,3.30,3.66,2.20
36.2670,0.08,0.12,-0.99,3.54,3.66,2.08
36.2840,0.08,0.13,-0.99,3.05,3.60,1.89
36.3000,0.08,0.13,-0.99,3.23,3.54,2.01
36.3160,0.08,0.12,-0.99,3.36,3.72,1.89
36.3320,0.08,0.13,-0.99,3.11,3.60,2.08
36.3480,0.08,0.12,-0.99,2.99,3.48,2.01
36.3530,0.08,0.12,-0.99,3.23,3.97,1.95
36.3670,0.08,0.12,-0.99,3.23,3.78,1.89
36.3900,0.08,0.12,-0.99,2.87,3.78,1.83
36.4080,0.08,0.12,-0.99,3.30,3.91,2.01
36.4240,0.08,0.12,-0.99,3.23,3.54,2.01
36.4390,0.08,0.12,-0.99,3.11,3.78,1.89
36.4550,0.08,0.13,-0.99,3.11,3.85,2.01
36.4710,0.09,0.13,-0.99,3.23,3.91,1.95
36.4860,0.09,0.12,-0.99,3.36,3.66,1.95
36.5010,0.08,0.13,-0.99,3.23,3.48,2.01
36.5150,0.08,0.13,-0.99,3.30,3.78,2.01
36.5300,0.09,0.12,-0.99,3.23,3.72,1.95
36.5450,0.08,0.13,-0.99,3.11,3.91,2.20
36.5570,0.08,0.13,-0.99,3.11,3.60,2.08
36.5720,0.08,0.13,-0.99,3.17,3.60,1.95
36.5920,0.09,0.12,-0.99,3.17,3.85,1.95
36.5970,0.08,0.13,-0.99,3.23,3.91,2.01
36.6130,0.08,0.12,-0.99,3.42,3.66,1.71
36.6290,0.09,0.12,-0.99,3.17,3.91,1.89
36.6460,0.08,0.12,-0.99,3.17,3.91,1.95
36.6620,0.08,0.12,-0.99,2.99,3.72,2.01
36.6780,0.09,0.12,-0.99,3.11,3.60,2.01
36.6990,0.08,0.12,-0.99,3.05,3.72,1.95
36.7150,0.08,0.12,-0.98,3.23,3.72,1.83
36.7180,0.08,0.13,-0.99,3.11,3.66,2.14
36.7340,0.09,0.12,-0.99,3.23,3.60,2.01
36.7540,0.08,0.12,-0.99,3.30,3.54,2.01
36.7730,0.08,0.13,-0.99,2.99,3.66,2.01
36.7890,0.08,0.12,-0.99,3.11,3.78,1.95
36.8060,0.09,0.12,-0.98,3.17,3.85,2.01
36.8220,0.08,0.13,-0.99,3.42,3.42,2.14
36.8370,0.09,0.12,-0.99,3.48,3.91,2.14
36.8540,0.08,0.12,-0.98,3.23,3.60,1.95
36.8550,0.08,0.12,-0.98,3.05,3.78,2.08
36.8840,0.08,0.13,-0.99,3.36,3.42,1.89
36.8940,0.09,0.13,-0.99,3.36,3.48,1.77
36.9100,0.08,0.13,-0.99,3.48,3.85,2.01
36.9270,0.08,0.12,-0.98,3.42,3.54,2.01
36.9440,0.08,0.12,-0.98,3.11,3.48,1.89
36.9600,0.08,0.12,-0.99,3.30,3.66,1.95
36.9760,0.08,0.13,-0.99,3.05,3.60,2.01
36.9940,0.09,0.12,-0.99,3.17,3.36,1.83
37.0090,0.09,0.12,-0.99,3.30,3.48,1.89
37.0250,0.08,0.13,-0.99,3.30,3.54,1.83
37.0410,0.08,0.12,-0.99,3.36,3.54,1.83
37.0570,0.08,0.12,-0.99,3.11,3.66,1.89
37.0720,0.08,0.12,-0.99,3.17,3.36,1.89
37.0870,0.08,0.13,-0.99,3.05,3.60,1.89
37.1030,0.08,0.13,-0.98,3.30,3.42,1.65
37.1190,0.09,0.12,-0.99,3.23,3.66,1.77
37.1270,0.08,0.13,-0.99,3.30,3.48,1.77
37.1430,0.08,0.12,-0.99,3.05,3.42,1.77
37.1650,0.09,0.13,-0.99,3.23,3.66,1.89
37.1800,0.08,0.12,-0.99,2.99,3.54,2.08
37.1970,0.08,0.13,-0.99,2.99,4.03,1.89
37.2130,0.08,0.12,-0.99,2.99,3.60,1.89
37.2280,0.08,0.12,-0.99,3.05,3.72,1.89
37.2330,0.08,0.13,-0.99,3.30,3.48,1.95
37.2550,0.08,0.10,-0.99,3.05,3.48,1.89
37.2710,0.08,0.12,-0.99,3.05,3.36,1.77
37.2880,0.09,0.12,-0.98,3.23,3.78,1.89
37.3030,0.08,0.13,-0.99,3.30,3.60,1.95
37.3190,0.08,0.12,-0.99,3.30,4.03,2.01
37.3340,0.08,0.12,-0.99,3.23,3.42,1.95
37.3510,0.08,0.13,-0.99,3.17,3.66,1.95
37.3670,0.08,0.13,-0.98,3.30,3.66,1.77
37.3830,0.08,0.12,-0.98,3.30,3.48,1.89
37.3990,0.09,0.12,-0.99,3.23,3.48,1.83
37.4140,0.08,0.13,-0.99,3.23,3.48,2.01
37.4300,0.08,0.12,-0.99,3.11,3.54,1.95
37.4380,0.09,0.13,-0.98,3.17,3.78,1.77
37.4610,0.08,0.12,-0.99,3.17,3.48,1.95
37.4760,0.08,0.12,-0.99,3.30,3.72,1.83
37.4880,0.08,0.12,-0.99,3.36,3.60,1.89
37.5040,0.09,0.13,-0.99,3.17,3.42,2.01
37.5220,0.09,0.13,-0.98,3.42,3.54,1.89
37.5270,0.09,0.12,-0.98,3.30,3.42,1.95
37.5510,0.09,0.12,-0.99,3.11,3.66,1.89
37.5600,0.08,0.12,-0.99,3.30,3.66,2.08
37.5760,0.08,0.12,-0.99,3.11,4.03,2.14
37.5980,0.09,0.13,-0.98,3.17,3.60,2.08
37.6130,0.09,0.12,-0.99,2.87,3.66,2.08
37.6300,0.08,0.12,-0.98,3.11,3.72,2.08
37.6460,0.08,0.13,-0.99,3.23,3.42,2.08
37.6620,0.08,0.13,-0.99,2.93,3.60,2.08
37.6650,0.08,0.13,-0.99,3.36,3.91,1.95
37.6800,0.08,0.12,-0.98,3.23,3.48,2.08
37.7030,0.08,0.12,-0.98,2.87,3.36,2.08
37.7190,0.09,0.13,-0.98,3.30,3.78,2.08
37.7350,0.09,0.13,-0.99,3.23,3.72,1.89
37.7550,0.08,0.13,-0.99,3.05,3.42,2.14
37.7710,0.09,0.12,-0.98,2.87,3.48,2.14
37.7860,0.09,0.12,-0.98,2.87,3.66,2.14
37.8010,0.08,0.13,-0.98,3.48,3.72,2.14
37.8170,0.08,0.13,-0.99,3.11,3.72,2.08
37.8330,0.08,0.13,-0.99,3.42,3.72,2.14
37.8480,0.08,0.12,-0.99,2.87,3.97,2.08
37.8640,0.08,0.12,-0.99,2.99,3.60,2.26
37.8790,0.09,0.12,-0.99,3.30,3.97,2.14
37.8940,0.08,0.13,-0.99,3.17,3.78,2.20
37.9050,0.09,0.12,-0.99,3.05,3.78,2.01
37.9220,0.09,0.12,-0.99,2.99,3.91,2.26
37.9370,0.08,0.12,-0.98,3.42,3.97,2.14
37.9530,0.08,0.12,-0.99,3.30,3.66,2.26
37.9690,0.08,0.12,-0.98,3.17,3.78,2.26
37.9710,0.08,0.13,-0.99,3.36,3.48,2.14
37.9870,0.08,0.13,-0.99,3.23,3.91,2.26
38.0160,0.08,0.13,-0.99,3.23,3.78,2.01
38.0270,0.09,0.13,-0.99,3.17,3.72,2.01
38.0430,0.08,0.12,-0.99,3.23,3.85,2.14
38.0590,0.08,0.12,-0.99,3.23,3.78,2.08
38.0750,0.08,0.12,-0.98,3.17,3.60,2.20
38.0920,0.09,0.13,-0.99,3.17,3.97,2.08
38.1080,0.08,0.12,-0.98,3.11,3.54,2.01
38.1240,0.08,0.12,-0.98,3.05,3.66,2.08
38.1390,0.09,0.13,-0.99,3.17,4.03,1.89
38.1540,0.09,0.13,-0.99,3.17,3.72,1.89
38.1690,0.08,0.13,-0.99,3.05,3.66,2.01
38.1840,0.08,0.13,-0.99,3.11,3.48,2.01
38.1990,0.08,0.12,-0.99,3.17,3.48,2.08
38.2100,0.08,0.12,-0.99,3.23,3.85,2.01
38.2260,0.08,0.12,-0.99,3.23,3.78,2.14
38.2420,0.08,0.13,-0.99,3.36,3.72,1.95
38.2590,0.08,0.12,-0.99,3.17,3.48,1.95
38.2750,0.08,0.12,-0.99,3.17,3.85,1.89
38.2900,0.08,0.13,-0.99,3.05,3.72,1.95
38.3050,0.08,0.12,-0.99,2.93,3.54,2.08
38.3200,0.08,0.12,-0.99,2.99,3.85,2.08
38.3360,0.08,0.13,-0.99,3.30,3.60,1.95
38.3530,0.08,0.13,-0.99,3.05,3.60,1.89
38.3670,0.08,0.12,-0.98,3.05,3.42,1.83
38.3830,0.08,0.12,-0.98,2.99,3.42,2.08
38.3980,0.08,0.13,-0.99,3.17,3.54,1.95
38.4100,0.09,0.13,-0.99,3.23,3.30,1.95
38.4260,0.08,0.13,-0.98,3.36,3.48,2.01
38.4430,0.08,0.13,-0.99,3.30,3.72,2.14
38.4590,0.08,0.12,-0.99,3.17,3.91,1.95
38.4760,0.08,0.12,-0.99,3.05,3.66,2.08
38.4920,0.08,0.12,-0.99,3.30,3.60,2.20
38.5080,0.08,0.12,-0.99,3.11,3.78,1.89
38.5240,0.08,0.12,-0.99,3.11,3.97,2.08
38.5400,0.08,0.13,-0.99,3.11,3.78,2.14
38.5550,0.08,0.12,-0.99,2.99,3.42,1.89
38.5610,0.08,0.12,-0.99,3.17,3.60,1.95
38.5860,0.08,0.12,-0.99,3.17,3.36,2.01
38.6020,0.08,0.13,-0.98,3.23,3.54,2.14
38.6100,0.09,0.13,-0.98,3.23,3.48,2.08
38.6250,0.08,0.13,-0.99,3.11,3.72,1.89
38.6450,0.08,0.12,-0.99,3.36,3.36,2.01
38.6620,0.08,0.13,-0.99,3.23,3.60,2.08
38.6780,0.08,0.13,-0.99,3.17,3.72,1.95
38.6930,0.08,0.13,-0.99,3.11,3.66,2.01
38.7090,0.08,0.12,-0.99,3.30,3.91,2.08
38.7250,0.08,0.13,-0.99,3.17,3.66,2.01
38.7400,0.08,0.13,-0.99,3.36,3.66,2.01
38.7550,0.08,0.13,-0.99,3.17,3.78,2.08
38.7700,0.08,0.13,-0.99,3.30,3.36,2.20
38.7790,0.08,0.13,-0.99,3.17,3.60,1.95
38.7960,0.08,0.12,-0.99,3.23,3.85,2.08
38.8120,0.08,0.12,-0.99,3.17,3.66,2.20
38.8280,0.08,0.12,-0.99,3.36,3.48,2.20
38.8450,0.08,0.13,-0.99,3.23,3.78,2.14
38.8630,0.08,0.13,-0.99,3.36,3.78,2.14
38.8780,0.08,0.12,-0.99,3.17,3.66,2.08
38.8940,0.08,0.13,-0.99,3.23,3.54,2.08
38.9100,0.08,0.13,-0.99,3.17,3.36,2.08
38.9120,0.08,0.13,-0.99,3.11,3.91,2.14
38.9280,0.08,0.13,-0.99,2.99,3.48,2.08
38.9560,0.08,0.13,-0.99,2.99,3.60,2.26
38.9670,0.08,0.13,-0.99,2.93,3.72,2.14
38.9840,0.08,0.13,-0.99,3.17,3.85,1.95
39.0010,0.08,0.12,-0.99,3.30,3.72,2.14
39.0170,0.09,0.13,-0.99,3.36,3.78,2.08
39.0340,0.09,0.13,-0.99,3.30,3.54,2.08
39.0490,0.08,0.12,-0.99,3.42,3.85,2.14
39.0650,0.08,0.12,-0.99,3.23,3.48,2.20
39.0800,0.09,0.12,-0.99,3.23,3.54,2.01
39.0830,0.08,0.13,-0.99,3.30,3.42,1.89
39.0990,0.08,0.13,-0.99,3.17,3.91,1.95
39.1210,0.08,0.12,-0.99,3.11,3.85,2.20
39.1380,0.08,0.12,-0.99,2.93,3.91,2.20
39.1550,0.08,0.13,-0.99,2.99,3.97,2.01
39.1710,0.09,0.12,-0.99,3.05,3.66,1.95
39.1870,0.09,0.12,-0.99,3.05,3.85,2.01
39.2030,0.08,0.13,-0.99,3.36,3.54,1.95
39.2190,0.08,0.12,-0.99,3.30,3.91,2.01
39.2330,0.08,0.12,-0.98,2.99,3.60,2.01
39.2500,0.08,0.12,-0.98,3.05,3.78,2.08
39.2660,0.08,0.13,-0.99,3.23,3.48,2.08
39.2820,0.08,0.12,-0.99,3.11,3.66,2.01
39.2980,0.08,0.13,-0.99,3.17,3.97,1.95
39.3050,0.08,0.13,-0.99,3.48,3.97,2.01
39.3220,0.09,0.13,-0.98,3.23,4.15,2.14
39.3380,0.08,0.13,-0.99,3.17,3.54,2.14
39.3590,0.08,0.13,-0.99,2.99,3.48,2.14
39.3610,0.08,0.12,-0.99,3.17,3.72,1.95
39.3880,0.08,0.13,-0.99,3.17,3.54,2.01
39.4030,0.08,0.13,-0.99,3.11,3.60,1.95
39.4190,0.08,0.13,-0.99,3.30,3.85,2.14
39.4280,0.08,0.12,-0.99,3.17,3.85,2.01
39.4440,0.08,0.13,-0.99,3.05,3.60,2.14
39.4640,0.09,0.13,-0.99,3.17,3.66,2.08
39.4650,0.08,0.13,-0.99,3.05,4.03,2.08
39.4960,0.08,0.12,-0.99,2.99,3.91,2.01
39.5120,0.08,0.12,-0.99,3.05,3.60,2.14
39.5280,0.08,0.13,-0.99,3.11,3.66,1.95
39.5310,0.08,0.13,-0.98,2.99,3.42,1.95
39.5580,0.08,0.12,-0.99,3.11,3.91,1.89
39.5700,0.08,0.12,-0.99,3.05,3.72,2.01
39.5860,0.08,0.12,-0.99,3.05,3.66,2.01
39.6030,0.08,0.13,-0.99,3.30,3.48,1.89
39.6190,0.08,0.13,-0.99,2.99,3.72,1.83
39.6200,0.08,0.12,-0.99,3.23,3.85,2.08
39.6510,0.08,0.12,-0.99,2.99,3.54,1.89
39.6660,0.09,0.13,-0.99,3.05,3.78,1.89
39.6820,0.09,0.13,-0.99,3.17,3.66,1.95
39.6980,0.08,0.12,-0.99,3.17,3.48,2.01
39.7140,0.08,0.12,-0.99,3.05,3.54,2.08
39.7290,0.08,0.13,-0.99,3.17,3.60,2.01
39.7360,0.08,0.13,-0.99,3.23,3.54,2.14
39.7590,0.09,0.13,-0.98,3.30,3.97,1.95
39.7680,0.08,0.13,-0.99,3.17,3.60,2.14
39.7830,0.08,0.13,-0.99,3.17,3.54,2.01
39.7990,0.08,0.13,-0.99,3.23,3.48,2.14
39.8210,0.08,0.13,-0.99,3.05,3.78,2.14
39.8370,0.08,0.12,-0.99,3.11,3.72,2.14
39.8520,0.08,0.13,-0.99,2.99,3.60,1.89
39.8590,0.08,0.12,-0.99,3.11,3.36,2.01
39.8830,0.09,0.13,-0.99,3.17,3.97,2.01
39.8990,0.08,0.13,-0.99,3.05,3.91,2.14
39.9150,0.09,0.13,-0.99,3.23,3.66,2.08
39.9300,0.08,0.13,-0.99,3.17,3.72,2.14
39.9470,0.08,0.13,-0.99,3.17,3.85,2.08
39.9640,0.08,0.12,-0.99,3.11,3.60,2.08
39.9780,0.08,0.12,-0.98,3.17,3.78,2.14
39.9880,0.08,0.12,-0.99,3.11,3.85,2.14
40.0050,0.08,0.12,-0.99,2.99,3.85,2.08
40.0210,0.09,0.13,-0.99,3.05,3.72,2.14
40.0390,0.08,0.13,-0.99,3.23,3.42,1.89
40.0530,0.08,0.13,-0.99,3.17,3.66,1.95
40.0690,0.08,0.12,-0.99,3.30,3.78,1.95
40.0720,0.08,0.12,-0.99,3.17,3.54,1.95
40.0870,0.08,0.12,-0.99,3.17,3.48,2.01
40.1100,0.08,0.12,-0.99,3.17,3.72,1.83
40.1260,0.08,0.13,-0.99,3.23,3.78,2.01
40.1420,0.08,0.13,-0.99,3.23,3.36,2.01
40.1600,0.08,0.13,-0.99,3.42,3.60,2.01
40.1770,0.08,0.13,-0.99,3.42,3.60,2.01
40.1930,0.08,0.12,-0.99,3.23,3.48,2.01
40.2090,0.08,0.12,-0.99,3.17,3.54,2.01
40.2250,0.08,0.12,-0.99,3.23,3.48,1.89
40.2410,0.08,0.12,-0.99,3.30,3.85,1.95
40.2570,0.08,0.12,-0.99,3.17,3.78,2.08
40.2730,0.08,0.13,-0.99,3.05,3.48,2.08
40.2880,0.08,0.13,-0.99,3.05,3.60,2.14
40.2930,0.08,0.13,-0.98,3.17,4.03,2.01
40.3090,0.09,0.13,-0.99,3.17,3.91,1.89
40.3320,0.08,0.13,-0.99,3.05,3.72,1.89
40.3490,0.08,0.13,-0.99,3.23,3.66,1.95
40.3650,0.08,0.12,-0.98,3.30,3.72,2.08
40.3800,0.08,0.12,-0.99,3.36,3.91,2.20
40.3950,0.08,0.13,-0.99,3.42,3.60,2.20
40.4110,0.09,0.13,-0.98,3.30,3.60,2.14
40.4260,0.08,0.13,-0.98,3.11,3.97,2.08
40.4330,0.08,0.13,-0.99,3.23,3.60,2.01
40.4490,0.08,0.12,-0.98,3.23,3.66,2.01
40.4650,0.09,0.13,-0.99,3.36,3.72,2.01
40.4860,0.08,0.13,-0.99,3.36,3.72,1.95
40.5020,0.08,0.12,-0.99,3.17,3.72,2.01
40.5180,0.08,0.13,-0.99,3.23,3.78,2.01
40.5340,0.08,0.13,-0.99,3.17,3.48,2.01
40.5500,0.08,0.13,-0.99,3.17,3.60,2.01
40.5660,0.08,0.13,-0.99,3.23,3.66,2.01
40.5820,0.08,0.12,-0.99,2.99,3.66,2.01
40.5980,0.08,0.13,-0.99,3.36,3.54,2.08
40.6140,0.08,0.13,-0.99,3.05,3.72,2.14
40.6290,0.08,0.12,-0.99,3.23,3.54,2.14
40.6430,0.09,0.13,-0.99,3.17,3.54,2.20
40.6540,0.08,0.12,-0.99,3.36,3.17,2.01
40.6710,0.08,0.13,-0.99,3.23,3.17,2.14
40.6870,0.08,0.12,-0.99,3.11,3.72,2.20
40.7030,0.08,0.12,-0.99,3.05,3.78,2.08
40.7190,0.08,0.12,-0.99,3.36,3.78,2.01
40.7350,0.08,0.13,-0.98,3.11,3.78,2.08
40.7510,0.08,0.13,-0.99,3.05,3.42,1.83
40.7660,0.08,0.12,-0.99,2.99,3.42,1.83
40.7830,0.08,0.12,-0.98,3.11,3.54,1.89
40.7980,0.08,0.12,-0.99,3.11,3.48,2.08
40.8140,0.09,0.13,-0.98,3.30,3.48,1.95
40.8210,0.08,0.13,-0.99,3.30,3.78,1.83
40.8370,0.08,0.13,-0.99,2.93,3.42,2.08
40.8610,0.08,0.12,-0.99,2.93,3.54,2.14
40.8760,0.08,0.13,-0.99,3.30,3.54,2.01
40.8930,0.08,0.13,-0.99,3.17,3.85,2.01
40.9080,0.08,0.13,-0.99,3.11,3.72,2.01
40.9250,0.08,0.12,-0.99,3.05,4.15,2.01
40.9410,0.08,0.12,-0.99,3.11,3.36,1.95
40.9570,0.08,0.13,-0.99,3.05,3.91,2.01
40.9730,0.08,0.12,-0.99,2.93,3.66,1.89
40.9880,0.08,0.12,-0.99,3.17,3.91,1.95
41.0030,0.08,0.12,-0.98,2.99,3.36,1.95
41.0200,0.09,0.13,-0.99,3.23,3.60,2.14
41.0350,0.08,0.13,-0.99,2.93,3.42,2.08
41.0500,0.08,0.13,-0.99,3.11,3.42,2.01
41.0660,0.08,0.12,-0.99,3.17,4.09,2.01
41.0760,0.09,0.13,-0.99,2.81,3.54,2.01
41.0920,0.08,0.13,-0.99,3.17,3.54,2.01
41.1090,0.08,0.13,-0.98,3.05,3.66,2.01
41.1260,0.09,0.12,-0.99,3.11,3.72,2.08
41.1420,0.09,0.12,-0.99,3.05,3.78,2.01
41.1590,0.08,0.13,-0.99,3.05,3.54,1.95
41.1740,0.08,0.13,-0.99,3.11,3.54,2.14
41.1910,0.08,0.12,-0.99,2.87,3.66,2.20
41.2070,0.09,0.13,-0.99,3.17,3.91,2.08
41.2230,0.08,0.13,-0.99,3.17,3.78,2.26
41.2380,0.08,0.13,-0.99,3.36,3.42,2.26
41.2520,0.08,0.12,-0.99,3.23,3.60,2.20
41.2610,0.08,0.13,-0.99,3.36,3.54,2.20
41.2740,0.08,0.13,-0.99,3.11,3.54,2.14
41.2950,0.08,0.13,-0.99,3.11,3.60,2.01
41.3120,0.08,0.12,-0.99,3.30,3.30,2.08
41.3280,0.08,0.13,-0.99,2.93,3.91,2.08
41.3450,0.08,0.13,-0.99,3.05,3.42,2.08
41.3620,0.08,0.12,-0.99,3.17,3.72,2.01
41.3780,0.08,0.12,-0.99,3.05,3.60,1.95
41.3940,0.08,0.12,-0.99,3.05,3.60,2.08
41.4100,0.08,0.13,-0.99,3.30,3.30,1.83
41.4260,0.08,0.13,-0.99,3.23,3.72,1.89
41.4280,0.08,0.12,-0.99,2.93,3.78,1.95
41.4440,0.08,0.12,-0.99,3.11,3.72,2.20
41.4670,0.08,0.13,-0.99,3.36,3.78,2.08
41.4840,0.08,0.12,-0.99,2.93,3.60,1.95
41.4990,0.08,0.13,-0.99,3.05,3.72,1.83
41.5190,0.08,0.12,-0.99,3.23,3.91,2.01
41.5350,0.09,0.13,-0.99,3.17,3.72,1.71
41.5510,0.08,0.13,-0.99,3.05,3.78,1.71
41.5670,0.08,0.12,-0.99,3.23,3.85,1.77
41.5830,0.08,0.12,-0.99,3.23,3.78,1.77
41.5990,0.08,0.12,-0.99,3.05,3.72,1.89
41.6140,0.08,0.12,-0.99,3.17,3.78,1.77
41.6310,0.08,0.13,-0.99,3.23,3.66,1.89
41.6470,0.08,0.13,-0.99,3.17,3.36,1.89
41.6620,0.08,0.13,-0.99,3.23,4.27,1.89
41.6690,0.08,0.12,-0.99,3.11,3.54,1.77
41.6920,0.08,0.13,-0.99,3.23,3.54,1.89
41.7090,0.08,0.13,-0.99,3.11,3.97,2.08
41.7250,0.08,0.13,-0.99,3.05,3.97,1.95
41.7410,0.08,0.13,-0.99,3.17,3.91,1.83
41.7580,0.09,0.13,-0.99,3.17,3.78,2.08
41.7740,0.08,0.12,-0.99,2.99,3.60,1.95
41.7900,0.08,0.13,-0.99,3.17,3.60,2.08
41.8050,0.08,0.12,-0.99,3.11,3.91,1.95
41.8210,0.08,0.12,-0.99,3.17,3.78,2.01
41.8360,0.08,0.12,-0.99,3.05,3.42,1.89
41.8510,0.08,0.12,-0.99,3.42,3.78,1.89
41.8660,0.08,0.12,-0.99,3.05,3.91,1.83
41.8810,0.08,0.12,-0.99,3.23,3.72,2.14
41.8920,0.08,0.13,-0.99,2.87,3.72,2.14
41.9090,0.09,0.13,-0.98,3.42,3.66,1.95
41.9250,0.08,0.13,-0.99,3.17,3.97,1.95
41.9410,0.08,0.12,-0.99,3.17,4.09,2.01
41.9590,0.08,0.12,-0.99,3.17,3.42,1.89
41.9750,0.08,0.13,-0.99,2.99,3.42,1.95
41.9920,0.09,0.13,-0.99,3.11,3.54,2.01
42.0080,0.09,0.12,-0.99,3.11,3.60,2.08
42.0240,0.09,0.12,-0.99,3.17,3.66,1.95
42.0400,0.08,0.12,-0.99,2.99,3.66,2.01
42.0560,0.08,0.12,-0.98,2.87,3.85,2.14
42.0710,0.08,0.13,-0.99,3.23,3.78,2.08
42.0860,0.08,0.12,-0.99,3.05,3.72,2.01
42.1000,0.09,0.13,-0.99,3.05,3.91,2.08
42.1150,0.09,0.12,-0.98,3.17,4.03,2.20
42.1300,0.08,0.13,-0.99,3.05,3.42,1.89
42.1420,0.08,0.12,-0.98,2.81,3.72,1.95
42.1580,0.08,0.12,-0.98,3.17,3.23,2.01
42.1750,0.08,0.13,-0.99,3.30,3.54,1.95
42.1920,0.08,0.13,-0.99,2.99,3.54,2.14
42.2090,0.09,0.13,-0.99,3.11,3.30,2.08
42.2250,0.08,0.13,-0.98,3.42,3.60,1.95
42.2410,0.08,0.12,-0.99,2.93,3.66,2.08
42.2570,0.08,0.12,-0.99,3.11,3.78,2.01
42.2730,0.08,0.12,-0.99,3.17,3.72,2.01
42.2870,0.08,0.13,-0.99,3.23,3.66,1.95
42.3030,0.08,0.12,-0.99,3.17,3.97,2.01
42.3190,0.08,0.12,-0.99,3.11,3.72,2.14
42.3350,0.08,0.12,-0.99,3.05,3.91,1.95
42.3500,0.08,0.13,-0.99,2.99,3.91,2.08
42.3660,0.08,0.12,-0.99,3.23,3.78,2.08
42.3800,0.08,0.12,-0.99,3.30,3.85,1.95
42.3920,0.08,0.13,-0.99,3.17,4.33,2.08
42.4080,0.08,0.13,-0.99,3.23,3.66,2.08
42.4250,0.09,0.12,-0.99,3.17,3.85,2.14
42.4420,0.08,0.12,-0.99,3.05,3.78,1.95
42.4590,0.08,0.13,-0.99,3.23,3.78,2.01
42.4740,0.08,0.12,-0.99,3.23,3.60,2.08
42.4900,0.08,0.13,-0.99,3.11,3.60,2.08
42.5070,0.08,0.13,-0.99,2.81,3.85,1.95
42.5230,0.08,0.13,-0.99,3.05,3.42,2.01
42.5380,0.08,0.12,-0.99,3.23,3.91,1.95
42.5530,0.08,0.13,-0.99,3.17,3.85,2.08
42.5690,0.08,0.12,-0.99,3.17,3.54,2.14
42.5850,0.08,0.13,-0.99,2.81,3.72,2.14
42.6010,0.08,0.12,-0.99,2.81,3.72,2.20
42.6160,0.08,0.13,-0.99,3.11,3.72,2.08
42.6330,0.08,0.13,-0.99,2.87,4.15,2.08
42.6420,0.08,0.13,-0.99,2.99,3.36,2.08
42.6570,0.08,0.12,-0.99,2.99,3.72,2.08
42.6790,0.08,0.12,-0.99,3.05,3.42,2.01
42.6960,0.08,0.13,-0.99,2.87,3.54,2.08
42.6980,0.08,0.13,-0.99,3.11,3.66,2.01
42.7270,0.08,0.12,-0.99,2.87,3.54,1.95
42.7430,0.08,0.13,-0.99,2.99,3.60,1.95
42.7580,0.08,0.13,-0.99,3.05,3.97,2.01
42.7650,0.08,0.13,-0.99,3.17,3.36,1.89
42.7800,0.08,0.13,-0.99,2.99,3.85,2.14
42.8030,0.08,0.12,-0.99,3.05,4.03,2.08
42.8190,0.08,0.13,-0.99,3.05,3.54,2.26
42.8360,0.08,0.12,-0.99,2.99,3.66,2.01
42.8510,0.08,0.12,-0.99,3.11,3.85,2.08
42.8680,0.08,0.13,-0.99,2.99,3.72,2.08
42.8840,0.08,0.13,-0.99,2.99,3.78,2.20
42.9000,0.08,0.13,-0.99,3.05,3.85,2.20
42.9160,0.08,0.13,-0.99,2.99,3.54,1.83
42.9320,0.08,0.13,-0.99,3.11,4.03,2.01
42.9480,0.08,0.13,-0.99,3.17,3.48,2.08
42.9640,0.08,0.13,-0.99,3.23,3.54,2.08
42.9800,0.08,0.12,-0.99,3.11,3.54,2.01
42.9960,0.08,0.13,-0.99,3.05,3.66,1.95
43.0110,0.08,0.12,-0.99,2.99,3.30,2.20
43.0200,0.08,0.13,-0.99,2.93,3.54,2.08
43.0360,0.08,0.12,-0.99,3.11,3.91,2.01
43.0570,0.08,0.13,-0.99,3.17,3.85,2.20
43.0730,0.08,0.13,-0.99,3.11,3.66,2.01
43.0880,0.08,0.12,-0.99,3.05,3.78,2.01
43.1050,0.08,0.12,-0.99,3.11,3.60,2.01
43.1200,0.08,0.12,-0.99,3.11,3.66,2.20
43.1250,0.08,0.13,-0.99,3.11,3.85,1.89
43.1400,0.08,0.13,-0.99,3.17,3.85,1.95
43.1640,0.08,0.12,-0.99,2.81,3.78,2.01
43.1780,0.08,0.12,-0.99,3.05,3.91,2.20
43.1940,0.08,0.12,-0.99,2.99,3.66,2.08
43.2110,0.08,0.12,-0.99,3.05,3.60,2.08
43.2280,0.08,0.12,-0.98,2.93,3.66,2.08
43.2450,0.08,0.13,-0.99,3.11,3.91,1.89
43.2610,0.08,0.13,-0.99,3.42,3.60,2.01
43.2780,0.09,0.12,-0.99,3.11,3.78,1.89
43.2930,0.08,0.12,-0.99,3.23,3.36,1.95
43.3090,0.08,0.13,-0.99,2.99,3.91,1.95
43.3260,0.08,0.13,-0.99,3.11,3.78,2.08
43.3410,0.08,0.13,-0.99,3.11,3.42,2.08
43.3570,0.08,0.13,-0.99,3.23,4.09,1.95
43.3710,0.09,0.12,-0.99,3.23,3.78,1.95
43.3860,0.08,0.12,-0.99,3.05,3.72,2.14
43.3950,0.08,0.12,-0.99,3.11,3.85,1.95
43.4160,0.08,0.13,-0.99,3.30,3.78,2.01
43.4280,0.08,0.12,-0.99,3.11,3.78,1.95
43.4450,0.08,0.13,-0.99,3.17,3.48,2.08
43.4610,0.08,0.13,-0.99,2.99,3.72,2.14
43.4770,0.08,0.12,-0.99,3.05,3.60,1.95
43.4940,0.08,0.13,-0.99,3.05,3.42,2.01
43.5110,0.08,0.13,-0.99,3.05,3.36,2.08
43.5280,0.08,0.13,-0.99,3.23,3.85,2.01
43.5430,0.08,0.12,-0.99,3.05,3.85,2.01
43.5590,0.08,0.12,-0.99,3.05,4.15,2.08
43.5760,0.08,0.12,-0.99,2.87,3.60,2.32
43.5920,0.08,0.13,-0.99,3.17,3.91,2.01
43.6080,0.08,0.12,-0.99,3.11,3.60,2.08
43.6110,0.08,0.13,-0.99,3.36,3.60,1.95
43.6260,0.08,0.12,-0.99,3.05,3.72,2.14
43.6540,0.08,0.13,-0.99,2.99,3.72,2.08
43.6660,0.08,0.13,-0.99,3.17,3.54,2.08
43.6820,0.08,0.12,-0.99,3.23,3.54,2.01
43.6990,0.08,0.12,-0.99,2.93,3.66,2.20
43.7150,0.08,0.12,-0.99,2.99,3.91,2.01
43.7320,0.08,0.13,-0.99,3.17,3.66,2.08
43.7470,0.08,0.13,-0.99,3.23,3.66,2.01
43.7490,0.08,0.12,-0.99,2.93,3.48,2.08
43.7800,0.08,0.13,-0.99,3.23,3.54,2.26
43.7970,0.08,0.13,-0.99,3.11,3.85,2.01
43.8130,0.08,0.13,-0.99,3.30,3.78,2.01
43.8290,0.08,0.13,-0.99,3.30,3.78,2.01
43.8310,0.08,0.13,-0.99,3.36,3.60,2.08
43.8470,0.08,0.13,-0.99,3.17,3.23,2.01
43.8710,0.08,0.13,-0.99,2.93,3.91,1.83
43.8880,0.08,0.12,-0.99,2.99,3.66,2.08
43.9040,0.08,0.13,-0.99,2.93,3.66,2.08
43.9220,0.08,0.13,-0.99,3.17,3.72,2.08
43.9370,0.08,0.13,-0.99,3.05,3.66,1.95
43.9530,0.08,0.12,-0.99,2.99,3.91,2.14
43.9650,0.09,0.12,-0.99,3.05,3.97,2.01
43.9780,0.08,0.13,-0.99,3.05,3.72,1.95
43.9950,0.08,0.12,-0.99,3.05,3.48,2.08
44.0120,0.08,0.13,-0.99,3.05,3.97,2.20
44.0290,0.08,0.13,-0.99,3.05,3.91,1.95
44.0440,0.08,0.13,-0.99,3.05,3.48,2.01
44.0610,0.08,0.13,-0.99,3.17,3.97,2.01
44.0780,0.08,0.12,-0.99,2.87,3.78,2.14
44.0950,0.08,0.13,-0.99,3.11,3.72,2.20
44.1110,0.08,0.12,-0.99,3.05,3.60,2.14
44.1270,0.08,0.13,-0.99,3.11,3.72,1.95
44.1430,0.08,0.12,-0.99,3.23,3.85,1.95
44.1590,0.08,0.13,-0.98,3.23,3.42,2.14
44.1760,0.08,0.12,-0.99,3.30,3.60,1.95
44.1920,0.08,0.12,-0.99,2.99,3.42,1.95
44.2080,0.08,0.12,-0.99,2.93,3.48,1.95
44.2230,0.08,0.13,-0.99,2.93,3.78,2.08
44.2280,0.08,0.13,-0.99,3.23,3.72,1.89
44.2430,0.08,0.13,-0.99,3.23,3.54,2.08
44.2670,0.08,0.12,-0.99,3.23,3.66,1.95
44.2830,0.08,0.12,-0.99,3.11,3.91,2.01
44.3000,0.08,0.12,-0.99,3.36,3.30,1.95
44.3160,0.08,0.13,-0.99,3.11,3.42,1.89
44.3330,0.08,0.12,-0.99,3.11,3.48,1.95
44.3500,0.08,0.12,-0.99,3.11,3.66,1.95
44.3650,0.08,0.13,-0.99,3.05,3.66,1.95
44.3820,0.08,0.12,-0.99,2.99,3.48,2.20
44.3980,0.08,0.12,-0.99,2.99,3.54,2.01
44.4140,0.08,0.13,-0.98,3.17,3.72,1.83
44.4300,0.08,0.13,-0.99,3.05,3.48,2.01
44.4460,0.08,0.12,-0.99,3.17,3.72,2.14
44.4500,0.08,0.12,-0.99,2.93,3.66,2.08
44.4660,0.08,0.13,-0.99,3.11,3.97,1.95
44.4900,0.08,0.13,-0.99,3.05,3.42,2.01
44.5060,0.09,0.13,-0.99,3.36,3.78,1.89
44.5230,0.08,0.13,-0.99,3.11,3.54,2.08
44.5390,0.08,0.12,-0.99,2.99,3.48,2.01
44.5540,0.08,0.12,-0.99,3.17,3.91,2.08
44.5690,0.08,0.12,-0.99,2.93,3.36,1.83
44.5850,0.08,0.13,-0.99,2.87,3.36,1.95
44.5890,0.08,0.12,-0.99,3.23,3.72,2.08
44.6050,0.08,0.13,-0.99,3.17,3.85,2.14
44.6280,0.08,0.13,-0.99,3.05,3.54,1.83
44.6450,0.08,0.13,-0.98,2.99,3.66,2.08
44.6620,0.08,0.13,-0.99,3.48,3.85,2.14
44.6780,0.08,0.12,-0.99,3.17,3.91,2.08
44.6950,0.08,0.13,-0.99,3.17,3.54,2.01
44.7110,0.08,0.12,-0.99,3.17,3.66,1.89
44.7270,0.08,0.12,-0.99,3.17,3.66,2.01
44.7430,0.08,0.13,-0.99,3.05,3.66,1.77
44.7590,0.08,0.13,-0.99,3.05,3.60,1.95
44.7750,0.08,0.13,-0.99,2.93,3.85,1.95
44.7910,0.08,0.13,-0.99,3.11,3.54,2.20
44.8060,0.08,0.12,-0.99,2.81,3.66,1.95
44.8110,0.08,0.13,-0.99,2.99,3.54,2.08
44.8270,0.08,0.12,-0.99,3.23,3.85,2.01
44.8520,0.08,0.12,-0.99,3.05,3.78,2.01
44.8680,0.08,0.12,-0.99,3.17,3.60,1.95
44.8840,0.08,0.13,-0.99,3.36,3.48,1.83
44.8990,0.08,0.12,-0.99,2.87,3.23,2.01
44.9160,0.08,0.12,-0.99,3.11,3.66,1.95
44.9320,0.08,0.13,-0.99,3.11,3.66,1.95
44.9480,0.08,0.12,-0.99,2.99,3.66,2.08
44.9640,0.09,0.12,-0.99,2.99,3.60,1.89
44.9800,0.08,0.13,-0.99,3.05,3.78,1.95
44.9950,0.08,0.13,-0.99,3.05,3.60,2.14
45.0010,0.08,0.12,-0.99,2.99,3.54,1.95
45.0170,0.08,0.13,-0.99,3.23,3.42,2.08
45.0400,0.08,0.13,-0.99,3.17,3.66,2.20
45.0560,0.08,0.12,-0.99,3.11,3.54,2.14
45.0730,0.08,0.13,-0.99,3.11,3.97,2.08
45.0900,0.08,0.13,-0.99,3.17,3.54,2.01
45.1050,0.08,0.12,-0.99,2.99,3.48,2.01
45.1220,0.08,0.12,-0.99,3.17,3.60,2.01
45.1370,0.08,0.12,-0.98,2.93,3.66,2.08
45.1520,0.08,0.12,-0.99,3.05,3.91,2.14
45.1660,0.08,0.13,-0.99,2.99,3.72,2.14
45.1720,0.08,0.13,-0.99,3.17,3.91,2.14
45.1960,0.08,0.13,-0.99,3.23,3.72,2.14
45.2130,0.08,0.12,-0.99,2.99,3.66,2.01
45.2290,0.08,0.13,-0.99,3.17,3.78,2.08
45.2460,0.09,0.13,-0.99,2.87,3.72,2.01
45.2470,0.08,0.12,-0.99,3.17,3.54,2.08
45.2670,0.08,0.13,-0.99,3.11,3.97,2.08
45.2940,0.08,0.12,-0.99,3.30,3.78,1.89
45.3100,0.08,0.13,-0.99,3.05,3.66,1.89
45.3120,0.08,0.13,-0.99,3.23,3.54,1.89
45.3280,0.08,0.13,-0.99,3.05,3.60,1.95
45.3510,0.08,0.13,-0.99,2.87,3.48,2.08
45.3680,0.08,0.13,-0.99,3.05,3.66,1.95
45.3830,0.08,0.12,-0.99,2.99,3.54,2.01
45.4010,0.08,0.12,-0.99,3.11,3.72,2.08
45.4170,0.09,0.13,-0.99,3.11,3.36,2.20
45.4330,0.08,0.13,-0.98,3.17,3.23,2.01
45.4340,0.08,0.12,-0.99,2.81,3.66,1.95
45.4650,0.08,0.12,-0.99,3.05,3.48,2.08
45.4820,0.08,0.13,-0.99,3.05,3.72,2.08
45.4980,0.08,0.13,-0.99,2.99,3.54,1.95
45.5140,0.08,0.13,-0.99,3.05,3.78,2.14
45.5160,0.08,0.12,-0.99,3.11,3.97,2.14
45.5320,0.08,0.12,-0.99,3.05,3.97,1.95
45.5590,0.08,0.12,-0.99,3.23,3.72,1.89
45.5710,0.08,0.13,-0.99,3.23,3.66,1.77
45.5870,0.08,0.13,-0.99,3.05,3.85,2.08
45.6050,0.08,0.13,-0.99,3.05,3.42,2.14
45.6200,0.08,0.12,-0.99,3.17,3.78,2.01
45.6380,0.08,0.12,-0.99,3.23,3.97,1.95
45.6430,0.08,0.12,-0.99,3.36,3.72,1.89
45.6670,0.09,0.13,-0.99,3.17,3.54,1.95
45.6820,0.08,0.12,-0.99,3.23,3.30,2.14
45.6930,0.08,0.12,-0.99,3.30,3.91,2.01
45.7080,0.08,0.13,-0.99,3.05,3.11,2.01
45.7290,0.08,0.13,-0.99,3.30,3.85,1.89
45.7450,0.08,0.13,-0.99,2.93,3.66,1.83
45.7610,0.08,0.12,-0.99,3.11,3.30,2.08
45.7770,0.08,0.12,-0.99,2.87,3.66,2.08
45.7920,0.08,0.12,-0.99,2.93,3.66,2.08
45.8090,0.08,0.12,-0.99,3.17,3.91,1.95
45.8250,0.08,0.13,-0.99,3.17,3.78,2.20
45.8390,0.08,0.13,-0.99,3.05,3.78,2.08
45.8540,0.08,0.13,-0.99,3.23,3.60,2.01
45.8690,0.08,0.13,-0.99,2.93,3.72,2.08
45.8810,0.08,0.13,-0.99,2.99,3.72,1.95
45.8980,0.08,0.12,-0.99,3.05,3.54,1.95
45.9140,0.08,0.12,-0.99,3.11,3.91,2.01
45.9300,0.08,0.12,-0.99,3.23,3.78,2.01
45.9470,0.08,0.13,-0.99,3.17,3.72,2.20
45.9630,0.08,0.12,-0.99,3.42,3.85,2.01
45.9790,0.08,0.12,-0.99,3.17,3.85,2.08
45.9960,0.08,0.12,-0.99,3.30,3.66,1.95
46.0120,0.08,0.13,-0.99,2.99,4.09,2.08
46.0140,0.08,0.13,-0.99,2.99,3.72,2.08
46.0300,0.08,0.12,-0.99,2.87,3.60,2.08
46.0540,0.08,0.13,-0.99,3.05,3.78,2.01
46.0700,0.09,0.13,-0.99,3.23,3.72,2.08
46.0850,0.08,0.12,-0.99,3.11,3.78,1.95
46.1020,0.08,0.12,-0.99,3.11,3.66,1.95
46.1200,0.09,0.13,-0.99,3.17,3.66,1.95
46.1350,0.09,0.13,-0.99,2.93,3.48,2.20
46.1510,0.08,0.12,-0.98,2.99,3.60,2.01
46.1680,0.08,0.12,-0.99,3.11,3.72,2.20
46.1840,0.09,0.12,-0.99,3.23,3.72,2.26
46.1990,0.09,0.13,-0.99,3.17,3.97,1.95
46.2150,0.08,0.13,-0.99,2.99,3.91,2.08
46.2300,0.09,0.13,-0.99,2.99,3.66,1.95
46.2460,0.09,0.12,-0.99,3.11,3.48,2.08
46.2540,0.08,0.13,-0.99,3.17,3.48,2.01
46.2760,0.08,0.12,-0.99,3.17,3.72,1.83
46.2910,0.09,0.12,-0.99,3.05,3.54,1.95
46.3020,0.08,0.13,-0.99,3.23,3.97,2.08
46.3200,0.08,0.13,-0.99,2.99,3.72,2.08
46.3360,0.08,0.12,-0.99,2.93,3.54,2.01
46.3510,0.08,0.12,-0.99,3.05,3.60,2.01
46.3680,0.08,0.12,-0.99,3.23,3.72,2.14
46.3860,0.08,0.12,-0.99,2.99,3.85,2.08
46.4020,0.08,0.12,-0.99,3.11,3.72,2.08
46.4180,0.08,0.13,-0.99,3.05,3.85,2.08
46.4340,0.08,0.12,-0.99,3.05,3.66,2.01
46.4500,0.08,0.12,-0.99,3.05,3.60,2.08
46.4530,0.08,0.12,-0.99,3.11,3.42,2.01
46.4680,0.08,0.13,-0.99,3.11,3.85,1.95
46.4960,0.08,0.13,-0.99,3.05,3.78,2.14
46.5080,0.08,0.13,-0.99,3.11,3.66,2.01
46.5240,0.08,0.12,-0.99,3.11,3.91,2.01
46.5400,0.08,0.12,-0.99,3.23,3.54,1.89
46.5570,0.08,0.13,-0.98,3.17,3.78,2.08
46.5740,0.08,0.13,-0.99,3.17,3.78,2.08
46.5900,0.08,0.12,-0.99,2.99,3.48,2.14
46.6070,0.08,0.12,-0.99,2.99,3.60,2.14
46.6230,0.08,0.13,-0.99,2.99,3.91,2.08
46.6390,0.08,0.12,-0.99,3.23,3.97,2.01
46.6550,0.08,0.12,-0.99,3.05,3.78,2.01
46.6700,0.08,0.13,-0.99,2.99,3.60,2.01
46.6830,0.08,0.13,-0.99,3.17,4.09,1.95
46.6990,0.08,0.12,-0.99,2.99,3.60,2.01
46.7140,0.08,0.12,-0.99,3.11,4.03,1.95
46.7240,0.08,0.12,-0.99,3.05,3.97,1.89
46.7410,0.08,0.12,-0.99,2.99,3.60,2.01
46.7580,0.08,0.13,-0.99,3.17,3.60,1.89
46.7730,0.08,0.13,-0.99,3.17,3.72,1.89
46.7900,0.08,0.12,-0.99,3.11,3.85,2.01
46.8070,0.08,0.12,-0.99,2.87,3.85,2.01
46.8220,0.08,0.13,-0.99,2.99,3.91,2.01
46.8380,0.08,0.12,-0.99,3.05,3.60,2.08
46.8530,0.08,0.12,-0.99,3.23,4.09,2.01
46.8690,0.09,0.13,-0.98,3.11,3.97,2.26
46.8740,0.08,0.12,-0.98,3.17,3.85,2.08
46.8900,0.09,0.13,-0.99,2.99,3.36,2.14
46.9140,0.08,0.12,-0.99,2.81,3.42,1.89
46.9300,0.08,0.13,-0.99,3.23,3.48,2.08
46.9470,0.08,0.13,-0.99,2.99,3.91,2.01
46.9630,0.08,0.12,-0.99,3.23,3.72,1.89
46.9790,0.08,0.13,-0.99,3.11,4.09,2.01
46.9950,0.08,0.13,-0.99,3.05,3.72,2.14
47.0100,0.08,0.12,-0.99,2.93,3.66,2.01
47.0270,0.08,0.13,-0.99,3.23,3.72,2.08
47.0300,0.08,0.13,-0.99,3.17,3.42,2.01
47.0460,0.08,0.13,-0.99,3.11,3.66,1.77
47.0700,0.08,0.12,-0.99,3.30,3.54,2.01
47.0860,0.09,0.12,-0.99,3.17,3.78,1.89
47.1030,0.08,0.13,-0.99,3.17,3.78,2.08
47.1190,0.08,0.12,-0.99,3.11,3.60,2.20
47.1350,0.08,0.12,-0.99,3.17,3.54,1.95
47.1510,0.08,0.12,-0.99,2.99,3.54,2.01
47.1660,0.08,0.13,-0.99,3.23,3.36,1.95
47.1820,0.08,0.13,-0.99,3.17,3.48,1.95
47.1860,0.08,0.13,-0.99,2.99,3.54,2.01
47.2020,0.08,0.12,-0.99,3.11,4.03,2.01
47.2240,0.08,0.13,-0.99,3.11,3.78,2.08
47.2410,0.09,0.13,-0.99,2.93,3.60,2.01
47.2570,0.08,0.12,-0.99,3.11,3.78,2.08
47.2740,0.08,0.13,-0.99,2.93,3.60,2.01
47.2900,0.08,0.12,-0.99,2.87,3.66,2.20
47.3070,0.08,0.13,-0.99,3.11,3.48,1.95
47.3240,0.08,0.12,-0.99,2.99,3.48,2.08
47.3390,0.08,0.12,-0.99,3.17,3.66,1.95
47.3550,0.08,0.12,-0.99,2.99,3.78,2.14
47.3700,0.08,0.12,-0.99,3.05,3.91,2.01
47.3860,0.08,0.12,-0.99,3.11,3.78,2.20
47.4010,0.08,0.12,-0.99,3.23,4.09,2.08
47.4160,0.08,0.13,-0.99,3.17,3.91,2.08
47.4310,0.08,0.12,-0.99,3.30,3.54,2.14
47.4460,0.08,0.12,-0.99,3.11,3.60,2.08
47.4570,0.09,0.13,-0.99,2.93,3.72,2.01
47.4740,0.08,0.13,-0.98,3.30,3.78,2.14
47.4900,0.08,0.12,-0.98,2.99,3.78,2.08
47.5060,0.08,0.12,-0.99,3.11,3.48,1.95
47.5230,0.09,0.13,-0.99,2.99,3.66,2.08
47.5400,0.08,0.12,-0.99,3.23,3.66,2.08
47.5570,0.08,0.13,-0.99,3.11,3.60,1.95
47.5720,0.08,0.12,-0.99,3.05,3.66,2.14
47.5890,0.08,0.13,-0.99,3.36,3.78,2.14
47.6040,0.08,0.12,-0.99,3.17,3.66,2.08
47.6190,0.08,0.12,-0.99,3.17,3.48,2.01
47.6340,0.08,0.13,-0.99,3.11,3.78,2.14
47.6500,0.08,0.12,-0.99,3.11,4.09,2.26
47.6650,0.08,0.12,-0.99,2.87,4.03,2.08
47.6800,0.08,0.12,-0.99,3.17,3.60,2.01
47.6900,0.09,0.12,-0.99,2.93,3.78,2.20
47.7060,0.09,0.13,-0.99,2.99,3.72,2.01
47.7270,0.09,0.13,-0.99,3.17,4.09,1.95
47.7290,0.09,0.12,-0.98,2.99,3.60,2.01
47.7460,0.08,0.13,-0.98,3.05,3.85,2.14
47.7690,0.09,0.12,-0.99,2.99,4.09,2.20
47.7900,0.08,0.13,-0.99,3.05,3.97,2.08
47.8050,0.08,0.12,-0.99,3.11,3.66,2.01
47.8150,0.08,0.12,-0.99,3.23,3.91,2.20
47.8310,0.08,0.13,-0.99,3.48,3.85,2.14
47.8480,0.08,0.13,-0.99,3.05,3.97,2.14
47.8650,0.08,0.12,-0.99,2.87,3.85,2.01
47.8810,0.08,0.12,-0.99,3.11,4.03,2.14
47.8980,0.08,0.12,-0.99,3.17,3.97,2.08
47.9140,0.09,0.12,-0.99,3.23,3.66,2.14
47.9290,0.08,0.12,-0.99,2.99,3.72,2.14
47.9450,0.08,0.12,-0.99,3.30,3.78,2.08
