Timestamp, AccX, AccY, AccZ, GyroX, GyroY, GyroZ
0.0110,0.11,0.11,-0.98,2.32,0.49,1.83
0.0260,0.07,0.13,-0.99,2.81,0.37,1.28
0.0420,0.08,0.12,-0.99,2.69,0.12,1.28
0.0490,0.08,0.12,-0.99,3.05,0.12,1.40
0.0710,0.08,0.12,-0.99,3.36,0.00,1.28
0.0820,0.08,0.13,-0.99,3.78,-0.06,1.40
0.1000,0.08,0.13,-0.99,3.60,-0.12,1.46
0.1170,0.08,0.12,-0.99,3.48,0.06,1.46
0.1170,0.08,0.13,-0.99,3.30,-0.18,1.46
0.1460,0.08,0.12,-0.99,3.36,-0.18,2.20
0.1610,0.08,0.12,-0.99,3.54,0.00,2.26
0.1710,0.08,0.12,-0.98,3.66,-0.12,1.53
0.1820,0.08,0.12,-0.99,3.78,-0.18,1.53
0.1990,0.08,0.12,-0.99,3.60,-0.12,1.46
0.2160,0.08,0.12,-0.99,3.66,-0.12,1.53
0.2320,0.08,0.12,-0.99,3.60,-0.18,1.53
0.2510,0.08,0.12,-0.99,3.66,-0.12,1.34
0.2660,0.08,0.12,-0.99,3.54,0.12,1.46
0.2710,0.08,0.12,-0.99,3.60,-0.18,1.40
0.2830,0.08,0.12,-0.99,3.54,-0.43,1.40
0.2990,0.08,0.13,-0.99,3.54,-0.67,1.40
0.3160,0.08,0.12,-0.99,3.48,-0.55,1.40
0.3320,0.08,0.12,-0.99,3.42,-0.37,1.46
0.3500,0.08,0.13,-0.99,3.11,-0.37,1.40
0.3710,0.08,0.12,-0.99,3.11,-0.37,1.34
0.3850,0.08,0.12,-0.99,3.48,0.06,1.28
0.4010,0.08,0.13,-0.99,3.60,-0.18,1.53
0.4190,0.08,0.12,-0.99,3.66,-0.12,1.53
0.4340,0.08,0.12,-0.99,3.72,-0.06,1.53
0.4510,0.08,0.13,-0.99,3.97,-0.18,1.46
0.4680,0.08,0.12,-0.99,3.72,-0.18,1.59
0.4840,0.08,0.12,-0.99,3.66,-0.06,1.40
0.4980,0.08,0.12,-0.99,3.85,-0.55,1.46
0.5130,0.08,0.12,-0.99,3.91,0.06,1.59
0.5280,0.08,0.12,-0.99,4.15,-0.43,1.46
0.5430,0.08,0.13,-0.99,4.21,0.00,1.53
0.5580,0.08,0.12,-0.99,4.03,0.00,1.04
0.5710,0.08,0.12,-0.99,4.09,0.18,-0.37
0.5840,0.08,0.12,-0.99,4.15,-0.12,-1.34
0.6020,0.07,0.13,-0.99,3.97,-0.18,-1.22
0.6180,0.07,0.13,-0.99,3.42,0.18,0.37
0.6350,0.07,0.14,-0.98,3.17,0.12,1.04
0.6510,0.08,0.13,-0.99,2.99,-0.24,0.92
0.6680,0.08,0.12,-0.99,3.11,-0.43,1.04
0.6830,0.08,0.13,-0.99,3.66,-0.37,1.28
0.6990,0.08,0.13,-0.99,3.78,-0.12,1.40
0.7010,0.08,0.13,-0.99,3.91,-0.49,1.46
0.7170,0.08,0.13,-0.99,3.54,-0.55,1.40
0.7450,0.08,0.13,-0.99,3.42,-0.06,1.40
0.7580,0.08,0.13,-0.99,3.42,-0.24,1.34
0.7740,0.08,0.12,-0.99,3.85,-0.61,1.34
0.7910,0.08,0.12,-0.99,3.60,-0.31,0.85
0.8070,0.08,0.13,-0.99,3.85,-0.12,1.04
0.8240,0.08,0.13,-0.99,3.54,-0.43,1.22
0.8390,0.08,0.12,-0.99,3.23,-0.37,1.28
0.8550,0.09,0.10,-0.98,3.23,0.06,0.00
0.8700,0.08,0.12,-0.99,4.58,0.61,-3.78
0.8870,0.07,0.15,-0.99,4.52,0.55,-2.93
0.9020,0.08,0.12,-0.98,3.30,-0.43,0.98
0.9070,0.08,0.12,-0.99,3.60,-0.49,1.40
0.9230,0.08,0.12,-0.99,4.15,0.12,1.59
0.9460,0.08,0.13,-0.99,4.03,0.18,1.46
0.9630,0.08,0.13,-0.99,3.54,-0.61,1.34
0.9800,0.08,0.13,-0.99,3.30,-0.73,1.46
0.9960,0.08,0.13,-0.99,3.30,0.00,1.40
1.0120,0.08,0.13,-0.99,3.60,-0.18,1.40
1.0130,0.08,0.13,-0.99,3.66,-0.06,1.46
1.0440,0.08,0.13,-0.99,3.36,-0.18,1.40
1.0590,0.08,0.13,-0.99,3.42,-0.61,1.46
1.0750,0.08,0.13,-0.99,3.23,-0.31,1.46
1.0920,0.08,0.13,-0.99,3.66,-0.55,1.53
1.1070,0.08,0.13,-0.99,3.66,0.00,1.71
1.1210,0.08,0.13,-0.99,3.30,-0.49,1.59
1.1370,0.07,0.14,-0.98,3.60,-0.49,3.42
1.1530,0.09,0.11,-0.99,3.36,-0.73,5.25
1.1680,0.08,0.13,-0.99,3.48,-0.49,1.28
1.1790,0.08,0.13,-0.99,3.72,-0.24,1.40
1.1960,0.08,0.13,-0.99,3.30,-0.06,1.46
1.2120,0.08,0.13,-0.98,3.30,0.18,1.77
1.2290,0.08,0.12,-0.99,3.17,-0.67,3.97
1.2460,0.08,0.12,-0.99,3.42,-0.61,2.69
1.2620,0.08,0.13,-0.99,3.23,-0.31,1.34
1.2780,0.08,0.13,-0.99,3.23,0.06,1.34
1.2940,0.08,0.13,-0.99,3.11,0.12,1.53
1.3110,0.07,0.13,-0.98,3.30,-0.12,1.59
1.3270,0.08,0.13,-0.99,2.87,-0.31,4.09
1.3420,0.08,0.12,-0.99,2.75,-0.49,3.85
1.3570,0.08,0.12,-0.99,2.93,-0.18,2.50
1.3710,0.08,0.12,-0.99,3.54,0.31,1.40
1.3880,0.08,0.13,-0.99,3.66,-0.31,1.59
1.3960,0.08,0.13,-0.99,3.48,-0.24,1.46
1.4110,0.08,0.13,-0.99,3.36,0.12,1.65
1.4340,0.08,0.13,-0.99,2.93,0.12,2.01
1.4490,0.08,0.14,-0.99,2.93,-0.49,2.99
1.4640,0.08,0.13,-0.98,3.23,-0.43,4.52
1.4800,0.08,0.12,-0.99,3.36,-0.37,4.64
1.4960,0.08,0.11,-0.99,3.60,-0.43,3.72
1.5110,0.08,0.13,-0.99,3.54,-0.49,1.53
1.5260,0.08,0.13,-0.99,3.36,0.06,1.65
1.5350,0.08,0.13,-0.99,3.36,-0.12,2.20
1.5510,0.08,0.10,-0.99,3.36,-0.37,2.93
1.5720,0.08,0.11,-0.99,3.05,-0.12,1.83
1.5840,0.08,0.12,-0.99,3.48,-0.06,1.40
1.6020,0.08,0.13,-0.99,4.03,-0.43,1.34
1.6180,0.08,0.13,-0.99,3.60,-0.73,1.22
1.6350,0.08,0.13,-0.99,3.30,-0.24,1.34
1.6510,0.08,0.13,-0.99,3.11,-0.31,1.34
1.6520,0.08,0.12,-0.99,2.99,-0.37,1.34
1.6830,0.08,0.13,-0.99,3.54,-0.43,1.34
1.6980,0.08,0.13,-0.99,3.42,-0.31,1.22
1.7150,0.08,0.13,-0.99,3.11,0.00,1.34
1.7180,0.08,0.13,-0.99,2.93,-0.24,1.46
1.7340,0.08,0.12,-0.99,2.99,-0.43,1.28
1.7570,0.08,0.12,-0.99,3.60,-0.43,1.40
1.7740,0.08,0.12,-0.99,3.72,-0.61,1.40
1.7910,0.08,0.13,-0.99,3.60,-0.18,1.34
1.8070,0.08,0.13,-0.99,3.66,-0.61,1.16
1.8230,0.08,0.13,-0.99,3.36,-0.49,1.34
1.8380,0.08,0.12,-0.99,3.23,-0.73,1.28
1.8540,0.08,0.12,-0.99,3.11,-0.49,1.28
1.8700,0.08,0.12,-0.99,3.36,-0.31,1.40
1.8860,0.08,0.13,-0.99,3.91,-0.12,1.46
1.9050,0.08,0.13,-0.99,3.78,-0.24,1.59
1.9200,0.08,0.13,-0.99,3.36,-0.18,1.46
1.9240,0.08,0.12,-0.99,3.60,-0.12,1.46
1.9400,0.08,0.13,-0.99,3.36,-0.55,1.46
1.9620,0.08,0.12,-0.99,3.42,-0.24,1.65
1.9780,0.08,0.12,-0.99,3.72,-0.18,1.53
1.9950,0.08,0.13,-0.99,3.72,-0.37,1.34
2.0130,0.08,0.13,-0.99,3.36,-0.43,1.28
2.0280,0.08,0.13,-0.99,3.66,-0.18,1.59
2.0440,0.08,0.12,-0.99,3.48,-0.31,1.34
2.0600,0.08,0.13,-0.99,3.42,-0.43,1.40
2.0770,0.08,0.12,-0.99,3.66,-0.37,1.40
2.0910,0.08,0.13,-0.99,3.60,-0.18,1.59
2.1060,0.08,0.13,-0.99,3.60,-0.24,1.46
2.1220,0.08,0.13,-0.99,3.42,-0.18,1.46
2.1280,0.08,0.13,-0.99,3.48,-0.43,1.40
2.1440,0.08,0.13,-0.99,3.42,-0.49,1.34
2.1660,0.08,0.12,-0.99,3.48,-0.43,1.53
2.1830,0.08,0.13,-0.99,3.42,-0.12,1.46
2.1990,0.08,0.13,-0.99,3.60,-0.12,1.46
2.2170,0.08,0.13,-0.99,3.42,-0.37,1.40
2.2330,0.08,0.13,-0.99,3.30,0.00,1.34
2.2340,0.08,0.13,-0.99,3.23,0.06,1.46
2.2630,0.08,0.13,-0.99,3.48,-0.12,1.59
2.2800,0.08,0.12,-0.99,3.54,-0.18,1.53
2.2960,0.08,0.13,-0.99,3.72,-0.37,1.34
2.3000,0.08,0.13,-0.99,3.54,-0.18,1.53
2.3150,0.08,0.13,-0.99,3.36,-0.61,1.28
2.3390,0.08,0.13,-0.99,3.17,-0.24,1.46
2.3560,0.08,0.12,-0.99,3.23,-0.18,1.53
2.3720,0.08,0.12,-0.99,3.54,-0.12,1.53
2.3880,0.08,0.12,-0.98,3.60,-0.37,1.40
2.4040,0.08,0.13,-0.99,3.54,-0.49,1.46
2.4200,0.08,0.13,-0.99,3.48,0.06,1.40
2.4360,0.08,0.12,-0.99,3.36,0.18,1.40
2.4520,0.08,0.12,-0.99,3.42,0.12,1.40
2.4680,0.08,0.12,-0.99,3.42,-0.18,1.46
2.4830,0.08,0.13,-0.99,3.85,-0.12,1.59
2.4890,0.08,0.13,-0.99,3.60,-0.43,1.53
2.5130,0.08,0.13,-0.99,3.42,-0.61,1.34
2.5240,0.08,0.12,-0.99,3.54,-0.06,1.46
2.5390,0.08,0.12,-0.99,3.36,0.06,1.34
2.5560,0.08,0.13,-0.99,3.42,0.00,1.34
2.5740,0.08,0.13,-0.99,3.54,-0.31,1.40
2.5890,0.08,0.13,-0.99,3.60,-0.31,1.53
2.6040,0.08,0.12,-0.98,3.78,-0.18,1.46
2.6210,0.08,0.13,-0.99,3.72,-0.43,1.40
2.6370,0.08,0.13,-0.99,3.78,-0.24,1.59
2.6520,0.08,0.13,-0.99,3.60,-0.43,1.53
2.6680,0.08,0.13,-0.99,3.42,-0.55,1.46
2.6740,0.08,0.13,-0.99,3.30,-0.12,1.46
2.6880,0.08,0.12,-0.99,3.48,0.12,1.59
2.7120,0.08,0.13,-0.99,3.60,-0.37,1.46
2.7280,0.08,0.13,-0.99,3.66,0.00,1.59
2.7440,0.08,0.13,-0.99,3.72,-0.24,1.59
2.7590,0.08,0.13,-0.99,3.54,-0.18,1.28
2.7760,0.08,0.13,-0.99,3.66,-0.12,1.53
2.7790,0.08,0.13,-0.99,3.42,0.06,1.59
2.7950,0.08,0.13,-0.99,3.54,-0.12,1.46
2.8160,0.08,0.13,-0.99,3.48,0.43,1.40
2.8340,0.08,0.13,-0.99,3.48,-0.37,1.46
2.8500,0.08,0.13,-0.99,3.60,-0.12,1.53
2.8670,0.08,0.13,-0.99,3.36,-0.12,1.53
2.8830,0.08,0.13,-0.99,3.60,0.00,1.40
2.9000,0.08,0.13,-0.99,3.85,-0.18,1.59
2.9160,0.08,0.13,-0.99,3.60,-0.31,1.46
2.9170,0.08,0.13,-0.99,3.78,-0.18,1.46
2.9480,0.08,0.13,-0.99,3.72,0.00,1.53
2.9630,0.08,0.13,-0.99,3.42,-0.61,1.46
2.9750,0.08,0.13,-0.99,3.48,-0.43,1.34
2.9820,0.08,0.13,-0.99,3.54,-0.37,1.34
3.0100,0.08,0.13,-0.99,3.66,-0.18,1.46
3.0210,0.08,0.13,-0.99,3.60,-0.06,1.28
3.0370,0.08,0.13,-0.99,3.42,0.18,1.40
3.0550,0.08,0.13,-0.99,3.48,-0.37,1.40
3.0550,0.08,0.12,-0.99,3.17,0.06,1.46
3.0870,0.08,0.13,-0.99,3.48,-0.06,1.53
3.1020,0.08,0.13,-0.99,3.72,-0.18,1.46
3.1180,0.08,0.13,-0.99,3.66,-0.18,1.53
3.1350,0.08,0.13,-0.99,3.36,-0.12,1.40
3.1510,0.08,0.13,-0.99,3.42,-0.24,1.40
3.1670,0.08,0.13,-0.99,3.36,-0.18,1.46
3.1830,0.08,0.13,-0.99,3.42,0.12,1.53
3.1980,0.08,0.13,-0.98,3.48,-0.49,1.46
3.2050,0.09,0.15,-0.98,3.85,-0.18,2.26
3.2200,0.07,0.11,-0.99,3.78,-0.06,2.69
3.2450,0.08,0.13,-0.99,3.30,0.12,1.53
3.2610,0.08,0.14,-0.98,3.23,-0.18,1.83
3.2760,0.08,0.12,-0.99,3.42,-0.06,2.69
3.2920,0.08,0.12,-0.98,3.60,-0.18,2.50
3.3080,0.08,0.12,-0.99,3.54,0.06,1.71
3.3230,0.08,0.13,-0.99,3.54,0.18,1.53
3.3380,0.08,0.13,-0.99,3.78,-0.06,1.46
3.3450,0.08,0.13,-0.99,3.54,-0.24,1.46
3.3600,0.08,0.13,-0.99,2.99,-0.12,1.28
3.3810,0.08,0.13,-0.99,2.99,0.06,1.34
3.3970,0.08,0.13,-0.99,3.30,-0.37,1.28
3.4150,0.08,0.13,-0.99,3.48,-0.37,1.46
3.4300,0.08,0.13,-0.99,3.66,-0.24,1.40
3.4460,0.08,0.13,-0.99,3.23,-0.61,1.40
3.4630,0.08,0.13,-0.99,3.17,-0.43,1.65
3.4790,0.08,0.13,-0.99,3.05,-0.61,1.40
3.4810,0.08,0.13,-0.99,3.48,-0.06,1.46
3.4960,0.08,0.13,-0.99,3.66,-0.43,1.53
3.5190,0.08,0.13,-0.99,3.60,0.06,1.46
3.5370,0.08,0.13,-0.99,3.48,0.31,1.53
3.5530,0.08,0.13,-0.99,3.36,-0.24,1.53
3.5710,0.08,0.13,-0.99,3.30,-0.37,1.53
3.5870,0.08,0.12,-0.99,3.11,-0.06,1.40
3.6020,0.08,0.13,-0.99,3.48,0.18,1.46
3.6170,0.08,0.13,-0.99,3.60,-0.06,1.59
3.6320,0.08,0.13,-0.99,3.42,-0.06,1.59
3.6460,0.08,0.13,-0.98,3.36,0.06,1.53
3.6540,0.08,0.12,-0.99,3.66,-0.18,2.08
3.6760,0.08,0.12,-0.99,3.42,-0.12,2.20
3.6870,0.08,0.12,-0.99,3.48,0.18,1.71
3.7040,0.08,0.12,-0.99,3.30,0.24,1.46
3.7210,0.08,0.13,-0.99,3.42,-0.37,1.28
3.7370,0.07,0.14,-0.99,3.30,-0.18,2.62
3.7520,0.08,0.13,-0.99,3.23,-0.49,4.27
3.7670,0.09,0.12,-0.99,3.54,-0.67,4.52
3.7840,0.08,0.11,-0.99,3.42,-0.12,2.38
3.7990,0.08,0.12,-0.99,3.54,-0.12,1.28
3.8130,0.08,0.13,-0.99,3.60,-0.12,1.40
3.8210,0.08,0.12,-0.99,3.60,-0.31,1.53
3.8360,0.08,0.13,-0.99,3.54,0.06,1.40
3.8590,0.08,0.13,-0.99,3.48,-0.37,1.59
3.8760,0.08,0.13,-0.99,3.60,-0.43,1.46
3.8910,0.08,0.13,-0.99,3.48,-0.31,1.59
3.9080,0.08,0.13,-0.99,3.30,-0.18,1.46
3.9230,0.08,0.15,-0.98,3.42,0.18,2.01
3.9380,0.08,0.14,-0.98,3.23,0.12,3.85
3.9530,0.08,0.14,-0.98,3.66,-0.55,4.52
3.9690,0.08,0.13,-0.99,3.42,-0.61,4.82
3.9850,0.08,0.10,-0.99,3.54,-0.67,4.03
4.0010,0.08,0.11,-0.99,3.42,-0.24,2.08
4.0170,0.07,0.12,-0.99,3.60,-0.37,1.59
4.0320,0.08,0.12,-0.99,3.85,-0.06,1.65
4.0470,0.08,0.13,-0.99,3.66,-0.37,1.59
4.0580,0.08,0.13,-0.99,3.48,-0.49,1.40
4.0760,0.08,0.13,-0.99,3.42,-0.43,1.53
4.0910,0.08,0.15,-0.98,3.23,-0.31,2.75
4.1080,0.08,0.12,-0.99,3.48,-0.37,3.85
4.1250,0.08,0.11,-0.99,3.42,-0.24,2.81
4.1410,0.07,0.11,-0.99,3.60,-0.55,1.65
4.1570,0.08,0.13,-0.99,3.48,0.00,1.40
4.1720,0.08,0.13,-0.99,3.60,-0.31,1.40
4.1760,0.08,0.13,-0.98,3.54,-0.43,1.59
4.1900,0.08,0.13,-0.98,3.48,-0.18,1.71
4.2140,0.08,0.13,-0.99,3.54,-0.37,2.08
4.2300,0.08,0.12,-0.99,3.48,-0.43,1.59
4.2470,0.08,0.13,-0.99,3.48,-0.12,1.40
4.2640,0.08,0.13,-0.99,3.48,0.06,1.40
4.2810,0.08,0.13,-0.99,3.36,-0.61,1.40
4.2970,0.08,0.13,-0.98,3.11,-0.49,1.46
4.3130,0.08,0.15,-0.98,3.48,-0.06,2.14
4.3290,0.08,0.13,-0.99,3.66,-0.49,3.36
4.3450,0.08,0.12,-0.99,3.60,-0.79,2.32
4.3610,0.08,0.12,-0.99,3.36,-0.37,2.26
4.3770,0.08,0.13,-0.98,3.48,-0.49,2.14
4.3790,0.08,0.13,-0.99,3.48,-0.37,2.32
4.4010,0.08,0.13,-0.98,3.54,-0.67,3.11
4.4190,0.08,0.11,-0.99,3.72,-0.61,3.11
4.4340,0.08,0.11,-0.99,3.30,-0.49,2.26
4.4510,0.08,0.13,-0.99,3.48,0.06,1.53
4.4690,0.08,0.12,-0.99,3.30,-0.06,1.34
4.4850,0.08,0.13,-0.99,3.23,-0.43,1.28
4.5010,0.08,0.14,-0.98,3.48,-0.49,1.53
4.5170,0.08,0.13,-0.99,3.48,-0.31,2.20
4.5340,0.08,0.12,-0.99,3.60,-0.85,2.32
4.5350,0.07,0.11,-0.99,3.48,-0.37,1.83
4.5660,0.08,0.13,-0.99,3.30,-0.55,1.40
4.5820,0.08,0.13,-0.99,3.36,-0.61,1.28
4.5980,0.08,0.13,-0.98,3.48,-0.98,1.53
4.6130,0.08,0.13,-0.99,3.54,-0.73,1.95
4.6290,0.08,0.13,-0.99,3.36,-0.61,2.08
4.6350,0.08,0.13,-0.99,3.36,-0.37,2.08
4.6500,0.08,0.13,-0.99,3.54,-0.55,2.14
4.6730,0.08,0.12,-0.98,3.23,-0.61,2.14
4.6900,0.08,0.11,-0.99,3.30,0.00,2.08
4.7060,0.08,0.12,-0.99,3.30,-0.18,1.46
4.7220,0.08,0.13,-0.98,3.48,-0.06,1.28
4.7380,0.08,0.14,-0.98,3.42,-0.55,1.40
4.7540,0.08,0.13,-0.98,3.36,-0.24,2.32
4.7700,0.08,0.13,-0.99,3.30,-0.67,3.11
4.7770,0.08,0.13,-0.98,3.05,-0.85,3.23
4.7880,0.08,0.11,-0.99,3.17,-0.06,3.23
4.8100,0.08,0.11,-0.99,3.36,-0.55,2.01
4.8340,0.08,0.13,-0.99,3.42,-0.24,1.53
4.8490,0.08,0.13,-0.99,3.36,-0.37,1.65
4.8610,0.08,0.12,-0.99,3.42,-0.31,1.83
4.8770,0.08,0.12,-0.99,3.36,-0.12,1.46
4.8940,0.08,0.12,-0.99,3.42,0.06,1.40
4.9090,0.08,0.12,-0.99,3.60,0.06,1.28
4.9250,0.08,0.13,-0.99,3.54,-0.18,1.34
4.9350,0.08,0.13,-0.98,3.36,-0.12,1.59
4.9520,0.08,0.13,-0.99,3.54,-0.37,1.89
4.9680,0.08,0.12,-0.99,3.36,-0.55,2.14
4.9870,0.08,0.12,-0.99,3.42,-1.04,1.83
5.0020,0.08,0.13,-0.99,3.30,0.00,1.59
5.0200,0.08,0.14,-0.99,3.36,-0.06,1.46
5.0200,0.08,0.14,-0.98,3.36,-0.37,2.56
5.0380,0.08,0.12,-0.99,3.48,-0.55,3.78
5.0530,0.07,0.10,-0.99,3.54,-0.12,2.56
5.0770,0.08,0.13,-0.99,3.30,0.06,1.28
5.0990,0.08,0.13,-0.98,3.36,-0.12,1.53
5.1140,0.08,0.14,-0.99,3.30,-0.18,2.08
5.1290,0.08,0.13,-0.98,3.36,-0.49,2.56
5.1370,0.08,0.10,-0.99,3.48,0.00,2.20
5.1530,0.08,0.13,-0.99,3.48,-0.12,1.34
5.1680,0.08,0.13,-0.99,3.36,0.18,1.28
5.1840,0.08,0.14,-0.99,3.54,-0.37,1.22
5.2000,0.08,0.14,-0.99,3.42,0.00,1.77
5.2220,0.08,0.12,-0.99,3.66,-0.31,2.44
5.2380,0.08,0.12,-0.99,3.54,-0.12,2.26
5.2540,0.08,0.12,-0.99,3.48,-0.43,2.38
5.2690,0.08,0.12,-0.99,3.42,0.00,1.83
5.2860,0.08,0.12,-0.99,3.42,-0.55,1.65
5.3010,0.08,0.14,-0.99,3.78,0.06,2.08
5.3170,0.08,0.14,-0.99,3.17,-0.31,3.05
5.3320,0.08,0.13,-0.98,3.11,-0.06,3.72
5.3500,0.08,0.13,-0.99,3.11,-0.37,2.75
5.3570,0.08,0.13,-0.99,3.17,-0.61,2.38
5.3750,0.08,0.12,-0.99,3.36,-0.37,2.56
5.3910,0.08,0.12,-0.99,3.30,-0.55,2.38
5.4070,0.08,0.13,-0.99,3.23,-0.12,2.56
5.4240,0.08,0.13,-0.98,3.48,-0.67,2.69
5.4390,0.08,0.12,-0.99,3.48,-0.67,2.62
5.4550,0.08,0.12,-0.99,3.36,0.12,2.01
5.4710,0.08,0.12,-0.99,3.23,-0.18,1.59
5.4860,0.08,0.12,-0.99,3.36,0.06,1.53
5.5020,0.08,0.13,-0.99,3.54,-0.61,1.83
5.5180,0.08,0.13,-0.99,3.36,0.06,2.08
5.5340,0.08,0.13,-0.99,3.54,-0.31,2.44
5.5410,0.08,0.14,-0.98,3.23,-0.85,2.93
5.5660,0.08,0.14,-0.98,2.99,-0.79,4.03
5.5810,0.08,0.12,-0.99,3.23,-0.61,3.97
5.5900,0.08,0.11,-0.99,3.36,-0.55,2.87
5.6080,0.07,0.11,-0.99,3.48,-0.61,1.40
5.6240,0.07,0.12,-0.99,3.48,-0.12,1.28
5.6400,0.08,0.13,-0.99,2.99,-0.12,1.28
5.6570,0.08,0.13,-0.99,3.30,-0.31,1.34
5.6720,0.08,0.13,-0.99,3.48,-0.24,2.01
5.6870,0.08,0.12,-0.99,3.48,-0.18,1.16
5.7030,0.08,0.13,-0.99,3.48,-0.18,0.85
5.7180,0.08,0.13,-0.99,3.72,-0.49,1.10
5.7340,0.08,0.13,-0.99,3.36,-0.49,1.71
5.7490,0.08,0.14,-0.98,3.42,-0.31,2.38
5.7640,0.08,0.14,-0.99,3.23,-0.49,3.66
5.7780,0.08,0.13,-0.99,3.42,-0.37,4.46
5.7890,0.08,0.11,-0.99,3.60,-0.61,4.03
5.8080,0.08,0.11,-0.99,3.42,-0.55,2.50
5.8250,0.08,0.11,-0.99,3.36,-0.24,1.95
5.8410,0.08,0.11,-0.99,3.23,-0.24,1.71
5.8590,0.08,0.12,-0.99,3.54,-0.67,1.10
5.8750,0.08,0.12,-0.99,3.30,-0.37,1.71
5.8900,0.08,0.12,-0.98,3.48,-0.55,1.83
5.9060,0.08,0.12,-0.99,3.78,-0.24,1.71
5.9220,0.08,0.12,-0.99,3.66,-0.24,1.28
5.9380,0.08,0.12,-0.99,3.60,0.06,1.46
5.9540,0.08,0.13,-0.99,3.54,0.31,1.46
5.9700,0.08,0.13,-0.98,3.17,-0.06,1.46
5.9850,0.08,0.13,-0.98,3.78,-0.24,1.71
6.0010,0.08,0.13,-0.99,3.36,-0.18,2.26
6.0160,0.08,0.12,-0.99,3.54,-0.12,2.26
6.0310,0.08,0.12,-0.99,3.30,-0.24,1.95
6.0420,0.08,0.14,-0.98,3.42,-0.12,2.08
6.0570,0.08,0.14,-0.98,3.30,-0.31,3.54
6.0760,0.08,0.12,-0.99,3.42,-0.61,4.27
6.0910,0.08,0.10,-0.99,3.42,-0.24,3.23
6.1060,0.08,0.10,-0.99,3.48,-0.37,2.14
6.1220,0.08,0.12,-0.99,3.42,-0.18,1.10
6.1370,0.08,0.13,-0.99,3.54,-0.18,1.53
6.1520,0.08,0.14,-0.98,3.36,-0.18,1.89
6.1630,0.08,0.13,-0.99,3.48,-0.18,2.99
6.1790,0.08,0.13,-0.98,3.54,-0.61,3.30
6.1960,0.08,0.13,-0.99,3.30,-0.79,3.17
6.2130,0.08,0.11,-0.99,3.30,-0.49,2.81
6.2280,0.08,0.12,-0.99,3.78,-0.55,1.77
6.2440,0.08,0.13,-0.99,3.42,-0.85,1.46
6.2600,0.08,0.14,-0.98,3.36,-0.18,2.08
6.2760,0.08,0.13,-0.99,3.85,-0.61,2.75
6.2920,0.08,0.12,-0.99,3.97,-0.49,2.44
6.3070,0.08,0.12,-0.99,3.85,-0.37,2.08
6.3130,0.08,0.13,-0.99,3.66,0.00,1.83
6.3290,0.08,0.14,-0.98,3.78,-0.37,2.38
6.3510,0.08,0.12,-0.99,3.30,-0.49,3.54
6.3680,0.08,0.11,-0.99,3.23,-0.37,2.93
6.3850,0.08,0.11,-0.99,3.17,-0.06,1.53
6.4010,0.08,0.13,-0.99,3.48,-0.18,1.28
6.4180,0.08,0.13,-0.99,3.60,-0.18,1.77
6.4350,0.08,0.14,-0.98,3.30,-0.12,1.95
6.4500,0.08,0.12,-0.99,3.42,-0.06,2.08
6.4660,0.08,0.13,-0.99,3.48,-0.12,1.53
6.4820,0.08,0.14,-0.99,3.54,-0.18,1.65
6.4970,0.08,0.14,-0.99,3.48,-0.31,2.69
6.5020,0.08,0.12,-0.99,3.36,-0.67,3.54
6.5170,0.08,0.11,-0.99,3.48,-0.31,2.44
6.5390,0.08,0.11,-0.99,3.42,0.06,1.71
6.5560,0.08,0.12,-0.99,3.54,-0.49,0.85
6.5720,0.08,0.13,-0.98,3.30,-0.55,0.92
6.5880,0.08,0.13,-0.99,3.48,0.00,1.04
6.6040,0.08,0.13,-0.99,3.54,-0.79,1.59
6.6190,0.08,0.12,-0.99,3.72,-0.73,2.08
6.6340,0.08,0.12,-0.99,3.60,-0.55,1.77
6.6510,0.08,0.13,-0.99,3.85,-0.24,2.08
6.6670,0.08,0.13,-0.98,3.42,-0.12,2.14
6.6820,0.08,0.13,-0.99,3.48,-0.55,2.44
6.6970,0.08,0.12,-0.99,3.23,0.06,2.62
6.7120,0.08,0.12,-0.99,3.30,-0.61,2.56
6.7230,0.08,0.11,-0.99,3.30,-0.24,2.32
6.7380,0.08,0.13,-0.99,3.60,-0.43,1.22
6.7570,0.08,0.13,-0.99,3.23,0.00,1.28
6.7720,0.08,0.13,-0.99,3.11,-0.06,1.40
6.7790,0.08,0.14,-0.98,3.60,-0.49,2.26
6.7930,0.08,0.12,-0.99,3.60,-0.49,2.32
6.8120,0.08,0.12,-0.99,3.54,-0.24,1.77
6.8290,0.08,0.13,-0.99,3.36,0.00,1.34
6.8450,0.08,0.13,-0.99,3.42,-0.43,1.22
6.8630,0.08,0.14,-0.98,3.60,-0.61,1.53
6.8790,0.07,0.15,-0.98,3.48,-0.98,2.20
6.8960,0.08,0.12,-0.99,3.30,-0.67,3.91
6.9110,0.08,0.12,-0.99,3.30,-0.55,1.89
6.9270,0.08,0.12,-0.99,3.60,-0.24,1.83
6.9430,0.08,0.13,-0.99,3.48,0.06,2.32
6.9460,0.08,0.11,-0.99,3.54,-0.55,3.05
6.9740,0.08,0.10,-0.99,3.17,0.06,2.20
6.9890,0.08,0.12,-0.99,3.54,0.00,1.65
7.0040,0.08,0.13,-0.99,3.30,-0.24,1.40
7.0200,0.08,0.13,-0.99,3.30,-0.12,1.04
7.0280,0.08,0.13,-0.99,3.66,-0.37,1.34
7.0440,0.08,0.13,-0.98,3.54,-0.12,1.83
7.0660,0.08,0.13,-0.99,3.60,-0.24,2.14
7.0820,0.08,0.13,-0.99,3.36,-0.24,2.69
7.0980,0.08,0.12,-0.99,3.36,-0.37,2.93
7.1000,0.08,0.11,-0.99,3.23,-0.31,2.38
7.1290,0.08,0.12,-0.99,3.60,-0.18,1.28
7.1320,0.08,0.13,-0.98,3.42,-0.37,1.22
7.1490,0.08,0.14,-0.98,3.36,-0.85,1.28
7.1650,0.08,0.13,-0.99,3.48,-0.43,2.08
7.1890,0.08,0.13,-0.99,3.05,0.12,2.38
7.2060,0.08,0.12,-0.99,2.87,0.06,2.38
7.2220,0.08,0.12,-0.99,3.42,-0.18,2.14
7.2370,0.08,0.12,-0.98,3.30,-0.06,2.20
7.2540,0.08,0.13,-0.99,3.48,-0.12,2.50
7.2690,0.08,0.11,-0.99,3.48,-0.24,2.87
7.2790,0.08,0.12,-0.99,3.97,-0.37,1.28
7.2870,0.08,0.13,-0.99,4.09,-0.55,1.40
7.3170,0.08,0.13,-0.99,3.60,-0.61,1.46
7.3320,0.08,0.12,-0.99,3.05,0.12,1.28
7.3430,0.08,0.13,-0.99,3.23,-0.12,1.40
7.3590,0.08,0.13,-0.99,3.54,0.06,1.89
7.3750,0.08,0.13,-0.99,3.48,-0.37,2.32
7.3920,0.08,0.12,-0.99,3.48,-0.31,1.95
7.4090,0.08,0.12,-0.99,3.66,-0.31,1.22
7.4250,0.08,0.13,-0.99,3.42,0.00,1.22
7.4410,0.08,0.13,-0.99,3.66,-0.73,1.46
7.4570,0.08,0.13,-0.98,3.42,-0.31,1.95
7.4730,0.08,0.14,-0.99,3.48,-0.37,1.95
7.4890,0.08,0.12,-0.99,3.23,-0.49,2.75
7.5040,0.08,0.11,-0.99,3.48,-0.49,1.71
7.5200,0.08,0.12,-0.99,3.54,0.31,1.34
7.5360,0.08,0.12,-0.99,3.60,0.31,1.34
7.5430,0.07,0.14,-0.98,3.30,-0.43,1.22
7.5590,0.08,0.13,-0.99,3.66,-0.43,1.83
7.5810,0.08,0.12,-0.99,3.42,-0.18,1.89
7.5970,0.08,0.12,-0.99,3.48,-0.24,1.46
7.6140,0.08,0.13,-0.98,3.17,-0.18,1.46
7.6300,0.08,0.13,-0.99,3.23,-0.12,1.95
7.6310,0.08,0.12,-0.99,3.48,-0.18,2.50
7.6620,0.08,0.11,-0.99,3.42,0.24,2.01
7.6780,0.08,0.12,-0.99,3.42,0.00,1.34
7.6810,0.08,0.13,-0.98,3.30,0.31,1.40
7.6970,0.08,0.14,-0.98,3.60,-0.31,1.77
7.7260,0.08,0.12,-0.99,3.66,0.00,2.99
7.7410,0.08,0.11,-0.99,3.30,0.00,2.08
7.7520,0.08,0.12,-0.99,3.30,-0.49,1.46
7.7680,0.08,0.12,-0.99,3.30,-0.18,1.28
7.7870,0.08,0.12,-0.99,3.54,-0.31,1.40
7.8010,0.08,0.13,-0.99,3.60,0.00,1.40
7.8180,0.08,0.13,-0.99,3.60,0.00,1.53
7.8340,0.08,0.12,-0.99,3.30,-0.18,1.53
7.8360,0.08,0.13,-0.99,3.36,-0.55,1.83
7.8660,0.08,0.13,-0.98,3.36,-0.43,2.38
7.8820,0.08,0.13,-0.98,2.99,-0.06,2.14
7.8860,0.08,0.12,-0.99,3.23,-0.61,1.40
7.9130,0.08,0.13,-0.98,3.23,-0.18,1.10
7.9190,0.08,0.13,-0.99,3.36,-0.31,0.79
7.9440,0.08,0.13,-0.98,3.42,-0.24,1.04
7.9520,0.08,0.13,-0.99,3.36,-0.18,1.46
7.9680,0.08,0.13,-0.99,3.54,-0.37,2.44
7.9840,0.08,0.13,-0.99,3.42,-0.43,3.05
8.0050,0.08,0.12,-0.99,3.36,0.00,2.87
8.0210,0.08,0.11,-0.99,3.54,0.00,1.53
8.0370,0.08,0.12,-0.99,3.42,0.37,1.34
8.0520,0.08,0.12,-0.99,3.54,-0.18,1.28
8.0680,0.08,0.13,-0.99,3.48,-0.55,1.34
8.0840,0.08,0.13,-0.98,3.42,-0.24,2.01
8.1000,0.08,0.14,-0.98,3.54,-0.31,2.81
8.1160,0.08,0.11,-0.99,3.54,-0.37,2.87
8.1320,0.08,0.11,-0.99,3.72,-0.24,1.40
8.1470,0.08,0.13,-0.99,3.54,-0.12,1.34
8.1550,0.08,0.13,-0.98,3.17,-0.55,1.10
8.1700,0.07,0.15,-0.98,3.48,-0.37,1.34
8.1920,0.07,0.15,-0.99,3.36,-0.55,3.30
8.2090,0.08,0.12,-0.99,3.54,-0.43,3.48
8.2240,0.08,0.12,-0.99,3.30,-0.31,2.50
8.2270,0.08,0.12,-0.99,3.36,-0.49,1.95
8.2570,0.08,0.13,-0.98,3.36,-0.31,2.44
8.2720,0.08,0.13,-0.99,3.05,-0.79,3.30
8.2880,0.08,0.11,-0.99,3.30,-0.55,3.23
8.2970,0.08,0.11,-0.99,3.23,-0.24,1.59
8.3140,0.08,0.12,-0.99,3.42,-0.31,1.34
8.3300,0.08,0.12,-0.99,3.54,-0.31,1.40
8.3480,0.08,0.13,-0.99,3.11,0.06,1.40
8.3640,0.08,0.13,-0.99,3.48,-0.37,1.95
8.3810,0.08,0.13,-0.98,3.60,-0.61,2.14
8.3970,0.08,0.13,-0.98,3.42,-0.06,2.38
8.4120,0.08,0.12,-0.99,3.48,-0.49,1.53
8.4290,0.08,0.11,-0.99,3.54,-0.37,1.40
8.4320,0.08,0.12,-0.99,3.48,-0.37,1.28
8.4480,0.08,0.13,-0.99,3.54,-0.49,1.46
8.4630,0.08,0.14,-0.99,3.48,-0.85,1.89
8.4840,0.08,0.12,-0.99,3.42,-0.73,2.38
8.5010,0.08,0.12,-0.99,3.42,-0.49,2.14
8.5180,0.08,0.13,-0.98,3.48,-0.43,2.44
8.5350,0.08,0.12,-0.99,3.42,-0.55,2.56
8.5520,0.08,0.13,-0.99,3.42,-0.98,2.99
8.5680,0.08,0.13,-0.98,3.17,-0.55,3.85
8.5840,0.08,0.11,-0.99,3.11,-0.61,4.46
8.6000,0.08,0.10,-0.99,3.23,-0.43,2.81
8.6160,0.08,0.12,-0.99,3.60,-0.37,1.34
8.6320,0.08,0.13,-0.99,3.48,-0.31,1.34
8.6480,0.08,0.12,-0.99,3.17,-0.37,1.46
8.6530,0.08,0.12,-0.99,3.42,-0.55,1.34
8.6790,0.08,0.12,-0.99,3.48,-0.67,1.34
8.6890,0.08,0.12,-0.99,3.72,-0.55,1.34
8.7050,0.08,0.12,-0.99,3.42,-0.24,1.40
8.7220,0.08,0.13,-0.99,3.72,-0.98,2.08
8.7390,0.08,0.12,-0.99,3.78,-0.49,2.62
8.7550,0.08,0.12,-0.99,3.36,-0.49,2.38
8.7700,0.08,0.13,-0.98,3.42,-0.67,2.44
8.7880,0.08,0.12,-0.99,3.30,-0.43,2.14
8.8030,0.08,0.13,-0.99,3.48,-0.49,1.28
8.8170,0.08,0.13,-0.99,3.78,-0.73,1.59
8.8330,0.08,0.13,-0.99,3.54,-0.24,2.44
8.8470,0.08,0.13,-0.99,3.48,-0.73,2.56
8.8580,0.08,0.12,-0.99,3.42,-0.49,2.26
8.8750,0.08,0.12,-0.99,3.54,-0.85,2.20
8.8930,0.08,0.12,-0.99,3.54,-0.61,1.53
8.9080,0.08,0.12,-0.99,3.85,-0.79,1.34
8.9240,0.08,0.12,-0.99,3.72,-0.49,1.40
8.9410,0.08,0.12,-0.99,3.60,-0.67,1.22
8.9570,0.08,0.15,-0.98,3.23,-0.43,1.59
8.9720,0.08,0.14,-0.99,3.54,-0.61,2.44
8.9880,0.08,0.13,-0.99,3.54,-0.79,3.23
8.9930,0.08,0.11,-0.99,3.54,-0.67,2.14
9.0080,0.07,0.11,-0.99,3.48,0.00,1.34
9.0240,0.08,0.13,-0.99,3.42,-0.67,1.22
9.0510,0.08,0.14,-0.98,3.54,-0.49,1.71
9.0620,0.08,0.13,-0.99,3.48,-0.49,2.38
9.0810,0.08,0.12,-0.99,3.36,-0.73,2.81
9.0960,0.07,0.10,-0.99,3.54,-0.18,1.89
9.1130,0.08,0.12,-0.98,3.48,0.12,1.34
9.1280,0.08,0.13,-0.99,3.23,0.12,1.46
9.1440,0.08,0.12,-0.99,3.42,-0.24,1.34
9.1610,0.08,0.13,-0.99,3.48,-0.18,1.95
9.1760,0.08,0.13,-0.99,3.30,-0.18,2.08
9.1910,0.08,0.13,-0.99,3.54,-0.43,2.20
9.2060,0.08,0.13,-0.99,3.30,-0.43,2.62
9.2120,0.08,0.13,-0.99,3.42,-0.49,2.62
9.2280,0.07,0.12,-0.99,3.72,-0.49,3.11
9.2520,0.08,0.11,-0.99,3.66,0.06,3.66
9.2660,0.08,0.11,-0.99,3.23,-0.06,2.87
9.2840,0.08,0.11,-0.99,3.30,-0.43,1.34
9.3020,0.08,0.12,-0.99,3.60,0.06,1.34
9.3160,0.08,0.12,-0.99,3.36,-0.43,1.34
9.3330,0.08,0.12,-0.99,3.48,-0.18,1.40
9.3490,0.08,0.12,-0.99,3.60,-0.37,1.40
9.3650,0.08,0.12,-0.99,3.54,-0.37,1.40
9.3800,0.08,0.12,-0.99,3.17,0.00,1.28
9.3960,0.08,0.13,-0.99,3.36,-0.18,1.53
9.4120,0.08,0.13,-0.99,3.42,-0.12,1.59
9.4170,0.08,0.14,-0.99,3.78,-0.31,1.83
9.4440,0.08,0.13,-0.99,3.72,-0.43,2.50
9.4600,0.08,0.11,-0.99,3.42,-0.12,2.14
9.4670,0.08,0.12,-0.99,3.36,0.00,1.22
9.4840,0.08,0.13,-0.98,3.54,-0.31,1.16
9.5000,0.08,0.14,-0.98,3.48,-0.61,1.89
9.5160,0.08,0.12,-0.98,3.23,0.00,2.87
9.5370,0.08,0.12,-0.99,3.23,-0.24,3.23
9.5530,0.08,0.12,-0.99,3.36,-0.43,3.48
9.5690,0.08,0.12,-0.99,3.54,-0.37,3.23
9.5850,0.08,0.13,-0.99,3.36,-0.49,2.08
9.6000,0.08,0.12,-0.99,3.54,-0.06,2.14
9.6170,0.08,0.12,-0.99,3.30,-0.43,2.08
9.6310,0.08,0.13,-0.99,3.54,-0.12,2.14
9.6470,0.08,0.13,-0.99,3.48,-0.85,2.14
9.6610,0.08,0.13,-0.99,3.60,-0.18,1.83
9.6770,0.08,0.13,-0.99,3.66,-0.55,2.20
9.6870,0.08,0.13,-0.99,3.36,-0.31,2.81
9.7040,0.08,0.13,-0.99,3.11,-0.67,2.81
9.7200,0.08,0.12,-0.99,3.23,-0.61,3.17
9.7370,0.08,0.13,-0.99,3.30,-0.67,3.30
9.7530,0.08,0.12,-0.99,3.30,-0.43,3.36
9.7690,0.08,0.12,-0.99,3.36,0.18,2.20
9.7830,0.08,0.13,-0.99,3.54,-0.18,2.01
9.8000,0.08,0.12,-0.99,3.48,0.12,2.50
9.8160,0.08,0.12,-0.99,3.36,0.12,2.32
9.8320,0.08,0.12,-0.99,3.36,-0.37,2.38
9.8480,0.08,0.12,-0.99,3.60,-0.06,1.59
9.8540,0.08,0.12,-0.99,3.36,0.43,1.46
9.8690,0.08,0.13,-0.99,3.36,-0.18,1.22
9.8920,0.08,0.13,-0.98,3.42,0.00,1.28
9.9090,0.08,0.14,-0.99,3.54,-0.55,2.32
9.9250,0.08,0.12,-0.99,3.54,-0.06,2.87
9.9410,0.08,0.11,-0.99,3.60,0.00,2.44
9.9560,0.08,0.12,-0.99,3.54,-0.06,1.77
9.9720,0.08,0.12,-0.99,3.60,-0.06,1.46
9.9870,0.08,0.13,-0.99,3.54,-0.12,1.77
10.0030,0.08,0.13,-0.98,3.36,0.00,2.38
10.0090,0.08,0.12,-0.99,3.36,-0.12,2.38
10.0350,0.08,0.12,-0.99,3.11,-0.12,1.59
10.0510,0.08,0.13,-0.99,3.30,-0.31,1.34
10.0670,0.08,0.13,-0.99,3.60,-0.31,1.83
10.0820,0.08,0.13,-0.99,3.72,-0.67,2.50
10.0970,0.08,0.13,-0.99,3.36,-0.61,3.66
10.1080,0.08,0.11,-0.99,3.23,-0.18,3.17
10.1250,0.07,0.11,-0.99,3.36,-0.06,1.59
10.1430,0.08,0.12,-0.99,3.66,0.06,1.77
10.1590,0.08,0.12,-0.99,3.72,0.12,1.71
10.1750,0.08,0.13,-0.98,3.48,-0.18,1.59
10.1920,0.08,0.12,-0.98,3.66,0.12,1.71
10.2080,0.08,0.14,-0.98,3.17,-0.18,1.71
10.2230,0.08,0.13,-0.99,3.54,-0.31,2.75
10.2380,0.07,0.11,-0.99,3.60,-0.06,2.87
10.2410,0.08,0.12,-0.99,3.48,-0.31,2.50
10.2570,0.08,0.11,-0.99,3.66,-0.06,2.08
10.2860,0.08,0.13,-0.99,3.54,0.31,1.53
10.3020,0.08,0.13,-0.99,3.17,-0.18,1.28
10.3120,0.08,0.12,-0.99,3.05,0.18,1.59
10.3290,0.08,0.12,-0.99,3.54,-0.31,1.34
10.3450,0.08,0.12,-0.99,3.48,-0.12,1.59
10.3620,0.08,0.12,-0.99,3.72,0.06,1.77
10.3790,0.08,0.13,-0.99,3.54,0.12,1.34
10.3950,0.08,0.13,-0.98,3.42,-0.24,1.59
10.4120,0.08,0.13,-0.98,3.36,0.12,2.32
10.4260,0.08,0.12,-0.99,3.23,-0.37,2.69
10.4420,0.08,0.13,-0.99,3.36,-0.43,2.62
10.4560,0.08,0.12,-0.99,3.36,-0.43,2.20
10.4730,0.08,0.12,-0.99,3.60,-0.24,1.71
10.4870,0.08,0.12,-0.99,3.60,-0.06,1.53
10.5020,0.08,0.12,-0.99,3.42,-0.55,1.34
10.5120,0.08,0.13,-0.99,3.36,0.00,1.46
10.5290,0.08,0.13,-0.98,3.42,0.12,1.95
10.5450,0.08,0.14,-0.98,3.54,15.56,2.62
10.5620,0.08,0.13,-0.98,3.66,-0.49,3.11
10.5790,0.08,0.11,-0.99,3.42,0.00,3.05
10.5940,0.08,0.12,-0.98,3.30,0.24,1.53
10.6100,0.08,0.13,-0.98,3.48,0.43,1.22
10.6120,0.08,0.13,-0.98,3.66,-0.49,2.01
10.6280,0.08,0.12,-0.98,3.60,0.12,2.50
10.6560,0.08,0.12,-0.99,3.42,0.12,2.38
10.6660,0.08,0.13,-0.99,3.17,0.00,2.08
10.6850,0.08,0.13,-0.98,3.54,-0.12,2.20
10.6990,0.08,0.13,-0.99,3.42,-0.43,2.87
10.7180,0.08,0.13,-0.99,3.42,-0.24,3.54
10.7330,0.08,0.12,-0.99,2.99,-0.06,4.09
10.7490,0.08,0.10,-0.99,2.87,-0.61,3.36
10.7640,0.08,0.12,-0.99,3.05,-0.79,1.40
10.7780,0.08,0.12,-0.99,3.36,0.24,1.59
10.7940,0.08,0.13,-0.99,3.66,-0.06,1.71
10.8090,0.08,0.12,-0.99,3.05,0.00,1.65
10.8240,0.08,0.12,-0.99,3.11,-0.18,1.59
10.8340,0.08,0.13,-0.99,3.48,-0.37,1.71
10.8490,0.08,0.13,-0.99,3.23,-0.31,2.38
10.8670,0.08,0.14,-0.98,3.17,-0.18,3.23
10.8850,0.08,0.13,-0.98,3.05,-0.49,4.09
10.8990,0.08,0.12,-0.99,3.05,-0.43,3.36
10.9170,0.07,0.11,-0.99,3.17,0.00,2.56
10.9330,0.08,0.12,-0.99,3.54,0.00,2.32
10.9490,0.08,0.13,-0.98,3.36,-0.12,2.38
10.9660,0.08,0.13,-0.98,3.17,0.00,3.11
10.9810,0.08,0.12,-0.99,3.42,0.31,2.99
10.9960,0.08,0.12,-0.99,3.23,0.18,2.32
11.0030,0.08,0.13,-0.99,3.48,-0.55,2.08
11.0180,0.08,0.13,-0.98,3.54,-0.31,2.69
11.0330,0.08,0.13,-0.98,3.42,-0.61,3.30
11.0490,0.08,0.12,-0.99,3.23,-0.06,4.03
11.0640,0.08,0.12,-0.99,3.17,-0.73,3.17
11.0870,0.08,0.12,-0.99,3.54,-0.37,2.69
11.1040,0.07,0.11,-0.99,3.36,-0.43,2.62
11.1190,0.07,0.12,-0.99,3.48,-0.24,1.71
11.1360,0.08,0.12,-0.99,3.36,-0.12,1.34
11.1510,0.08,0.13,-0.99,3.48,-0.18,1.40
11.1670,0.08,0.16,-0.98,3.60,-0.24,2.44
11.1830,0.08,0.14,-0.98,3.36,-0.55,5.00
11.1980,0.08,0.11,-0.99,3.05,-0.67,4.94
11.2140,0.08,0.11,-0.99,3.23,-0.12,2.75
11.2290,0.07,0.11,-0.99,3.30,-0.06,2.08
11.2370,0.08,0.12,-0.99,3.48,0.00,1.77
11.2530,0.08,0.14,-0.99,3.36,0.12,1.83
11.2750,0.08,0.14,-0.98,3.42,0.00,3.11
11.2910,0.08,0.11,-0.99,3.23,-0.24,4.21
11.3080,0.07,0.11,-0.99,3.23,0.00,2.87
11.3240,0.08,0.12,-0.99,3.23,0.12,1.83
11.3400,0.08,0.13,-0.99,3.42,-0.18,1.65
11.3560,0.08,0.13,-0.99,3.36,0.00,2.20
11.3720,0.08,0.14,-0.99,3.30,-0.18,2.93
11.3870,0.08,0.13,-0.98,3.11,-0.06,3.72
11.4020,0.08,0.12,-0.99,2.87,0.00,3.23
11.4160,0.08,0.12,-0.99,2.99,-0.12,2.75
11.4320,0.08,0.12,-0.99,3.23,-0.18,2.56
11.4420,0.08,0.12,-0.99,3.42,-0.37,2.44
11.4600,0.08,0.13,-0.98,3.30,-0.12,2.62
11.4770,0.07,0.13,-0.99,2.99,-0.18,3.17
11.4930,0.08,0.12,-0.99,3.17,-0.37,2.99
11.5090,0.08,0.13,-0.99,3.17,0.12,1.40
11.5250,0.08,0.13,-0.98,3.42,0.00,1.95
11.5410,0.08,0.12,-0.99,3.36,-0.18,2.01
11.5570,0.08,0.11,-0.99,3.48,-0.24,1.46
11.5740,0.08,0.12,-0.99,3.66,-0.06,1.53
11.5890,0.08,0.13,-0.99,3.30,-0.12,1.28
11.6040,0.08,0.12,-0.99,3.17,0.18,1.22
11.6090,0.08,0.13,-0.99,3.36,-0.37,1.40
11.6250,0.08,0.14,-0.99,3.97,-0.61,1.59
11.6480,0.08,0.13,-0.98,3.72,-0.55,2.99
11.6650,0.08,0.12,-0.99,3.42,-0.55,2.99
11.6820,0.08,0.11,-0.99,3.60,-0.18,2.14
11.6970,0.08,0.12,-0.99,3.36,0.06,1.46
11.7130,0.08,0.13,-0.99,3.17,0.06,1.53
11.7300,0.08,0.14,-0.99,3.23,-0.18,1.89
11.7320,0.08,0.13,-0.99,3.42,0.00,3.11
11.7480,0.08,0.12,-0.99,3.60,-0.37,2.75
11.7720,0.08,0.12,-0.99,3.66,0.18,2.75
11.7890,0.08,0.13,-0.98,3.54,0.00,2.56
11.8050,0.08,0.13,-0.99,3.30,0.12,2.69
11.8210,0.08,0.13,-0.99,3.42,-0.55,4.33
11.8360,0.08,0.11,-0.99,3.17,-0.55,4.15
11.8510,0.08,0.11,-0.99,3.23,-0.18,3.17
11.8690,0.08,0.11,-0.99,3.30,0.18,2.38
11.8850,0.08,0.12,-0.99,3.42,0.06,1.34
11.9000,0.08,0.12,-0.99,3.48,0.00,1.40
11.9150,0.08,0.13,-0.99,3.72,0.12,1.46
11.9300,0.08,0.14,-0.98,3.42,-0.12,2.20
11.9380,0.08,0.14,-0.98,3.30,-0.18,3.48
11.9540,0.08,0.13,-0.98,3.23,0.06,4.03
11.9760,0.08,0.12,-0.99,3.30,-0.12,2.81
11.9930,0.08,0.11,-0.99,3.42,-0.55,2.44
11.9950,0.07,0.11,-0.99,3.54,-0.12,1.83
12.0250,0.08,0.12,-0.99,3.66,-0.18,1.46
12.0410,0.08,0.12,-0.99,3.30,0.12,1.59
12.0440,0.08,0.14,-0.98,3.30,0.00,1.53
12.0590,0.08,0.13,-0.99,3.42,-0.37,2.32
12.0870,0.08,0.11,-0.99,3.48,-0.12,2.56
12.0980,0.08,0.12,-0.99,3.42,-0.18,2.14
12.1150,0.08,0.13,-0.98,3.30,0.00,1.71
12.1310,0.08,0.14,-0.98,3.36,0.00,2.44
12.1490,0.08,0.13,-0.98,3.23,-0.06,3.36
12.1650,0.08,0.12,-0.99,3.17,0.06,3.60
12.1650,0.08,0.11,-0.99,3.30,-0.06,2.93
12.1950,0.08,0.11,-0.99,3.42,-0.06,2.50
12.1980,0.08,0.12,-0.99,3.48,0.18,1.71
12.2140,0.08,0.13,-0.98,3.30,0.18,1.77
12.2360,0.08,0.13,-0.98,3.30,0.37,2.26
12.2520,0.08,0.12,-0.99,3.36,0.49,2.62
12.2690,0.08,0.12,-0.99,3.36,0.18,1.95
12.2860,0.08,0.13,-0.99,3.30,0.12,1.40
12.3010,0.08,0.12,-0.99,3.66,-0.06,1.34
12.3170,0.08,0.14,-0.98,3.48,-0.18,1.40
12.3330,0.08,0.15,-0.98,3.60,-0.31,2.38
12.3490,0.08,0.14,-0.99,3.23,-0.49,4.15
12.3540,0.08,0.13,-0.98,3.05,-0.73,5.74
12.3690,0.08,0.12,-0.99,3.05,-0.49,5.49
12.3920,0.07,0.10,-0.99,3.48,-0.12,3.54
12.4090,0.08,0.12,-0.99,3.23,0.18,2.56
12.4240,0.08,0.12,-0.99,3.30,-0.12,2.20
12.4390,0.08,0.11,-0.99,3.30,-0.18,1.53
12.4550,0.08,0.13,-0.99,3.48,0.18,1.28
12.4690,0.08,0.13,-0.99,3.48,0.24,1.34
12.4850,0.08,0.12,-0.99,2.99,-0.06,1.28
12.5020,0.08,0.14,-0.98,3.23,0.24,1.59
12.5170,0.08,0.12,-0.99,3.72,-0.06,2.50
12.5320,0.08,0.11,-0.99,3.66,-0.06,2.14
12.5420,0.08,0.13,-0.99,3.42,0.06,1.53
12.5590,0.08,0.13,-0.99,3.23,0.12,1.59
12.5760,0.08,0.12,-0.99,3.48,0.18,1.53
12.5920,0.08,0.13,-0.99,3.30,-0.12,1.59
12.6080,0.08,0.13,-0.99,3.42,0.12,1.59
12.6250,0.08,0.13,-0.99,3.48,-0.18,1.83
12.6410,0.08,0.13,-0.99,3.54,-0.31,2.38
12.6570,0.08,0.12,-0.99,3.66,-0.24,3.36
12.6730,0.08,0.12,-0.99,3.60,-0.55,3.42
12.6890,0.08,0.12,-0.99,3.54,-0.37,2.69
12.7040,0.07,0.12,-0.99,3.54,-0.12,2.50
12.7190,0.08,0.15,-0.98,3.05,-0.12,3.05
12.7360,0.08,0.14,-0.99,3.17,-0.61,5.00
12.7510,0.08,0.11,-0.99,3.17,-0.49,3.91
12.7650,0.07,0.10,-0.99,3.36,-0.55,2.62
12.7760,0.08,0.12,-0.99,3.60,-0.24,1.59
12.7920,0.08,0.14,-0.99,3.54,-0.06,1.83
12.8110,0.08,0.14,-0.98,3.48,-0.12,3.17
12.8260,0.08,0.14,-0.99,3.23,-0.18,3.97
12.8330,0.08,0.11,-0.99,3.42,-0.79,5.07
12.8490,0.08,0.10,-0.99,3.36,-0.24,3.36
12.8670,0.08,0.12,-0.99,3.78,-0.06,1.34
12.8850,0.08,0.13,-0.99,3.66,-0.18,1.28
12.9000,0.08,0.13,-0.98,3.36,-0.24,1.46
12.9180,0.08,0.13,-0.99,3.60,-0.61,2.14
12.9340,0.08,0.11,-0.99,3.54,0.00,1.95
12.9490,0.08,0.12,-0.99,3.30,0.24,1.59
12.9650,0.08,0.13,-0.99,3.36,-0.06,1.34
12.9680,0.08,0.13,-0.99,3.42,-0.06,1.46
12.9970,0.08,0.15,-0.98,3.54,0.18,2.14
13.0130,0.08,0.12,-0.99,3.66,-0.24,3.85
13.0180,0.07,0.11,-0.99,3.36,-0.06,3.11
13.0330,0.08,0.11,-0.99,3.17,0.12,2.08
13.0540,0.08,0.13,-0.99,3.36,0.00,1.53
13.0710,0.08,0.15,-0.98,3.36,-0.06,2.50
13.0880,0.08,0.13,-0.98,3.36,-0.31,5.07
13.1040,0.08,0.12,-0.99,3.48,-0.73,5.25
13.1210,0.08,0.10,-0.99,3.36,-0.85,4.46
13.1360,0.07,0.11,-0.99,3.23,-0.06,2.32
13.1520,0.08,0.12,-0.99,3.36,-0.12,1.46
13.1690,0.08,0.13,-0.99,3.54,-0.37,1.46
13.1840,0.08,0.13,-0.99,3.66,-0.12,1.34
13.2000,0.08,0.13,-0.99,3.48,-0.06,1.40
13.2160,0.08,0.13,-0.99,3.23,-0.06,1.59
13.2320,0.08,0.14,-0.98,3.30,-0.06,2.20
13.2480,0.08,0.12,-0.99,3.23,0.00,2.75
13.2540,0.08,0.13,-0.98,3.23,-0.37,2.44
13.2700,0.08,0.13,-0.98,3.11,0.06,2.75
13.2930,0.08,0.13,-0.98,3.17,-0.79,3.54
13.3090,0.08,0.13,-0.99,3.23,-0.49,4.76
13.3250,0.08,0.11,-0.99,3.36,-0.79,5.43
13.3410,0.08,0.11,-0.99,3.54,-0.24,3.30
13.3570,0.08,0.11,-0.99,3.48,0.37,1.46
13.3720,0.08,0.12,-0.99,3.54,0.06,1.28
13.3870,0.08,0.13,-0.99,3.05,-0.06,1.28
13.4030,0.08,0.12,-0.99,3.30,-0.18,1.71
13.4180,0.08,0.12,-0.99,3.17,-0.24,1.89
13.4260,0.08,0.12,-0.99,3.30,-0.61,1.28
13.4490,0.08,0.12,-0.99,3.54,-0.18,1.34
13.4590,0.08,0.13,-0.99,3.54,0.00,1.34
13.4760,0.08,0.14,-0.99,3.48,0.06,1.59
13.4930,0.08,0.14,-0.98,3.60,-0.18,2.75
13.5090,0.08,0.11,-0.99,3.17,-0.37,3.72
13.5260,0.08,0.11,-0.99,3.36,-0.06,2.14
13.5420,0.08,0.12,-0.99,3.36,-0.12,1.22
13.5580,0.08,0.13,-0.99,3.66,-0.12,1.28
13.5730,0.08,0.13,-0.98,3.48,0.06,1.71
13.5890,0.08,0.14,-0.99,3.54,-0.24,2.62
13.6040,0.08,0.13,-0.99,3.23,-0.24,3.60
13.6200,0.08,0.12,-0.99,2.99,-0.24,2.81
13.6360,0.08,0.12,-0.99,3.17,0.12,1.89
13.6530,0.08,0.12,-0.99,3.48,-0.18,2.38
13.6590,0.08,0.12,-0.99,3.60,-0.55,2.81
13.6750,0.08,0.12,-0.99,3.36,-0.67,2.93
13.6970,0.08,0.11,-0.99,3.36,0.06,2.14
13.7120,0.08,0.12,-0.99,3.23,0.18,1.28
13.7290,0.08,0.13,-0.99,3.42,0.31,1.40
13.7450,0.08,0.12,-0.99,3.66,-0.12,1.40
13.7610,0.08,0.12,-0.99,3.54,-0.31,1.34
13.7780,0.08,0.14,-0.98,3.48,-0.24,1.71
13.7880,0.08,0.15,-0.98,3.54,-0.18,2.81
13.7950,0.08,0.13,-0.99,3.36,-0.31,4.15
13.8250,0.08,0.13,-0.99,3.11,-0.49,4.09
13.8400,0.08,0.11,-0.99,3.42,-0.73,4.03
13.8510,0.08,0.10,-0.99,3.23,-0.18,3.11
13.8680,0.08,0.12,-0.99,3.42,0.00,1.77
13.8840,0.08,0.13,-0.99,3.48,0.00,1.65
13.9010,0.08,0.13,-0.99,3.05,0.00,2.38
13.9170,0.08,0.13,-0.99,3.11,-0.24,3.48
13.9350,0.08,0.13,-0.98,2.99,-0.12,3.97
13.9510,0.08,0.13,-0.98,3.42,-0.61,4.58
13.9670,0.08,0.14,-0.98,3.17,-0.43,5.00
13.9820,0.08,0.13,-0.98,3.42,-0.55,5.31
13.9980,0.08,0.12,-0.99,3.36,-0.55,5.55
14.0130,0.08,0.11,-0.99,3.54,-0.49,4.52
14.0170,0.08,0.09,-0.99,3.54,-0.43,3.48
14.0440,0.08,0.13,-0.99,3.60,-0.24,1.34
14.0590,0.08,0.13,-0.99,3.42,-0.18,1.28
14.0680,0.08,0.13,-0.99,3.23,-0.37,1.34
14.0880,0.08,0.13,-0.99,3.48,-0.24,1.16
14.1000,0.08,0.13,-0.99,3.48,-0.37,1.40
14.1210,0.08,0.12,-0.99,3.42,-0.24,1.40
14.1390,0.08,0.12,-0.99,3.42,-0.31,1.16
14.1540,0.08,0.13,-0.99,3.48,0.18,1.10
14.1700,0.08,0.13,-0.99,3.36,0.12,1.59
14.1850,0.08,0.14,-0.98,3.48,0.18,2.38
14.2010,0.08,0.13,-0.98,3.48,-0.67,3.23
14.2170,0.08,0.12,-0.98,3.23,-0.24,3.36
14.2340,0.08,0.10,-0.99,3.36,-0.18,2.69
14.2380,0.08,0.11,-0.99,3.48,0.18,1.40
14.2650,0.08,0.12,-0.99,3.66,0.12,1.28
14.2820,0.08,0.13,-0.99,3.36,-0.18,1.40
14.2970,0.08,0.14,-0.98,2.99,0.12,1.59
14.3130,0.08,0.12,-0.99,3.36,0.43,2.08
14.3210,0.08,0.12,-0.99,3.60,0.18,1.77
14.3370,0.08,0.12,-0.99,3.66,-0.43,1.59
14.3590,0.08,0.12,-0.99,3.72,0.12,1.53
14.3760,0.08,0.12,-0.99,3.48,0.00,1.53
14.3920,0.08,0.13,-0.99,3.36,0.06,1.53
14.4080,0.08,0.13,-0.98,3.11,0.24,1.53
14.4240,0.08,0.15,-0.98,3.36,-0.12,2.50
14.4400,0.08,0.16,-0.98,3.42,-0.49,3.97
14.4560,0.08,0.12,-0.99,3.48,-0.67,5.37
14.4720,0.08,0.11,-0.99,3.11,-0.37,4.76
14.4860,0.08,0.10,-0.99,2.99,-0.12,2.99
14.5030,0.08,0.11,-0.99,3.30,-0.43,1.65
14.5090,0.08,0.12,-0.99,3.60,-0.31,1.34
14.5250,0.08,0.12,-0.99,3.78,-0.43,1.40
14.5470,0.08,0.13,-0.99,3.85,-0.06,1.46
14.5640,0.08,0.13,-0.99,3.36,0.18,1.59
14.5800,0.08,0.13,-0.99,3.23,-0.61,1.46
14.5970,0.08,0.15,-0.98,3.66,-0.49,1.95
14.6130,0.08,0.13,-0.98,3.48,-0.37,3.85
14.6140,0.08,0.13,-0.99,3.36,-0.12,3.66
14.6440,0.08,0.13,-0.99,3.42,-0.37,3.42
14.6610,0.08,0.12,-0.99,3.30,-0.31,3.78
14.6630,0.08,0.11,-0.99,3.30,0.00,3.42
14.6890,0.08,0.11,-0.99,3.42,0.12,1.83
14.7070,0.08,0.12,-0.99,3.42,0.18,1.53
14.7180,0.08,0.14,-0.99,3.23,0.00,1.71
14.7350,0.08,0.14,-0.98,3.48,-0.37,2.87
14.7530,0.08,0.13,-0.99,3.42,-0.43,2.99
14.7680,0.08,0.11,-0.99,3.36,0.12,2.62
14.7840,0.08,0.11,-0.99,3.42,-0.06,1.83
14.7990,0.08,0.13,-0.99,3.60,0.06,1.40
14.8150,0.08,0.13,-0.99,3.36,0.18,1.83
14.8320,0.08,0.13,-0.98,3.36,0.18,2.14
14.8480,0.08,0.12,-0.99,3.30,0.00,2.38
14.8640,0.08,0.13,-0.99,3.72,-0.12,2.14
14.8790,0.08,0.13,-0.98,3.36,-0.12,2.20
14.8950,0.08,0.13,-0.99,3.54,-0.43,2.81
14.9020,0.08,0.12,-0.99,3.23,-0.12,3.36
14.9190,0.08,0.11,-0.99,3.17,-0.37,3.54
14.9350,0.08,0.12,-0.99,3.05,0.18,3.05
14.9520,0.08,0.12,-0.99,3.42,-0.31,2.75
14.9670,0.08,0.13,-0.99,3.66,-0.12,2.50
14.9860,0.08,0.13,-0.98,3.17,-0.06,3.66
15.0010,0.08,0.11,-0.99,2.99,-0.55,4.39
15.0150,0.08,0.12,-0.99,3.17,-0.24,1.46
15.0260,0.08,0.12,-0.99,3.17,-0.31,1.46
15.0410,0.08,0.13,-0.99,3.30,0.06,1.34
15.0610,0.08,0.12,-0.98,3.30,-0.12,1.46
15.0770,0.08,0.13,-0.99,3.72,-0.18,1.77
15.0930,0.08,0.13,-0.99,3.48,-0.18,2.20
15.1090,0.08,0.12,-0.99,3.17,-0.18,2.69
15.1150,0.08,0.13,-0.99,2.99,-0.37,1.65
15.1310,0.08,0.14,-0.98,3.17,-0.31,3.23
15.1550,0.08,0.14,-0.99,3.30,-0.24,4.82
15.1700,0.08,0.13,-0.99,3.30,-0.24,5.13
15.1890,0.08,0.11,-0.99,3.17,-0.43,5.13
15.2040,0.08,0.10,-0.99,3.17,-0.55,3.48
15.2200,0.08,0.12,-0.99,3.17,-0.06,1.95
15.2360,0.08,0.13,-0.99,3.30,0.06,2.81
15.2520,0.08,0.12,-0.99,3.42,-0.31,4.33
15.2540,0.08,0.11,-0.99,3.17,-0.37,3.60
15.2700,0.08,0.11,-0.99,3.23,0.18,2.87
15.2930,0.08,0.12,-0.99,3.30,-0.18,2.38
15.3100,0.08,0.13,-0.99,3.42,-0.24,2.26
15.3270,0.08,0.15,-0.98,3.42,-0.43,3.17
15.3430,0.08,0.13,-0.99,3.11,-0.73,5.25
15.3610,0.08,0.12,-0.99,2.81,-0.43,4.94
15.3770,0.08,0.10,-0.99,3.11,-0.37,3.60
15.3930,0.08,0.11,-0.99,3.42,-0.12,2.44
15.4090,0.08,0.11,-0.99,3.48,0.06,2.32
15.4250,0.08,0.13,-0.99,3.72,-0.06,1.83
15.4410,0.08,0.15,-0.98,3.48,0.06,2.44
15.4570,0.08,0.13,-0.99,3.48,-0.18,4.33
15.4730,0.08,0.12,-0.99,2.99,-0.24,3.66
15.4890,0.08,0.12,-0.99,2.99,0.00,3.30
15.4930,0.08,0.11,-0.99,3.42,-0.18,3.36
15.5080,0.08,0.12,-0.99,3.54,0.06,2.14
15.5310,0.08,0.12,-0.99,3.72,0.06,1.65
15.5490,0.08,0.14,-0.98,3.66,-0.18,1.95
15.5650,0.08,0.14,-0.99,3.54,-0.24,3.97
15.5810,0.08,0.13,-0.99,2.93,-0.12,5.13
15.5970,0.08,0.10,-0.99,2.93,-0.24,4.33
15.6150,0.08,0.11,-0.99,3.30,0.06,2.01
15.6160,0.08,0.12,-0.99,3.30,0.31,1.40
15.6470,0.08,0.12,-0.99,3.36,-0.12,1.53
15.6490,0.08,0.12,-0.99,3.60,-0.24,1.40
15.6780,0.08,0.12,-0.99,3.54,-0.31,1.53
15.6950,0.08,0.12,-0.99,3.42,0.00,1.53
15.7110,0.08,0.13,-0.99,3.17,0.49,1.71
15.7270,0.08,0.13,-0.98,3.23,0.43,1.40
15.7420,0.08,0.13,-0.99,3.36,0.06,2.20
15.7590,0.08,0.13,-0.99,3.30,-0.37,2.87
15.7750,0.08,0.13,-0.99,3.30,-0.55,3.05
15.7910,0.08,0.13,-0.99,3.23,-0.61,4.15
15.7980,0.08,0.11,-0.99,3.17,-0.37,4.03
15.8210,0.08,0.11,-0.99,2.81,-0.06,2.81
15.8310,0.08,0.11,-0.99,2.87,-0.12,2.50
15.8490,0.08,0.11,-0.99,3.23,0.06,1.89
15.8660,0.08,0.12,-0.99,3.17,-0.43,1.40
15.8810,0.08,0.14,-0.98,3.30,0.00,2.01
15.8980,0.08,0.13,-0.99,3.42,-0.49,3.91
15.9130,0.08,0.12,-0.99,3.42,-0.24,3.91
15.9290,0.08,0.11,-0.99,3.11,-0.31,3.54
15.9450,0.08,0.11,-0.99,3.36,-0.24,1.95
15.9620,0.08,0.12,-0.99,3.36,0.00,1.53
15.9770,0.08,0.13,-0.98,3.54,0.12,1.95
15.9920,0.08,0.14,-0.99,3.48,0.00,2.69
15.9980,0.08,0.13,-0.99,3.91,-0.24,3.66
16.0140,0.08,0.12,-0.99,3.17,-0.06,3.30
16.0340,0.08,0.11,-0.99,3.17,0.06,3.05
16.0520,0.08,0.12,-0.99,3.30,-0.12,2.38
16.0670,0.08,0.13,-0.99,3.66,0.31,1.95
16.0850,0.08,0.12,-0.99,3.72,-0.31,2.75
16.1010,0.08,0.13,-0.99,3.36,-0.06,2.69
16.1180,0.08,0.12,-0.99,3.23,0.00,2.69
16.1180,0.08,0.12,-0.99,2.99,0.00,2.50
16.1480,0.08,0.12,-0.99,3.23,-0.49,2.62
16.1520,0.08,0.12,-0.99,3.36,-0.31,2.69
16.1800,0.08,0.13,-0.98,3.17,-0.12,2.62
16.1960,0.08,0.12,-0.99,3.30,0.12,2.69
16.2120,0.08,0.12,-0.99,3.05,-0.55,2.26
16.2280,0.08,0.12,-0.99,3.17,-0.49,1.95
16.2440,0.08,0.12,-0.99,3.42,-0.18,1.34
16.2600,0.08,0.14,-0.99,3.48,0.06,1.28
16.2670,0.08,0.14,-0.98,3.60,-0.06,2.26
16.2900,0.08,0.13,-0.98,3.30,0.00,3.17
16.3050,0.08,0.11,-0.99,3.23,-0.24,3.30
16.3210,0.08,0.11,-0.99,3.23,-0.18,2.26
16.3360,0.08,0.12,-0.99,3.30,0.73,1.77
16.3520,0.08,0.12,-0.99,3.11,-0.06,1.46
16.3680,0.08,0.13,-0.99,3.42,-0.06,1.71
16.3840,0.08,0.14,-0.98,3.48,-0.12,2.62
16.3990,0.08,0.12,-0.99,3.05,-0.43,2.87
16.4140,0.08,0.12,-0.98,2.93,-0.06,2.20
16.4290,0.08,0.11,-0.99,3.23,-0.12,1.53
16.4440,0.08,0.12,-0.99,3.66,-0.31,1.34
16.4550,0.08,0.12,-0.99,3.60,0.18,1.59
16.4720,0.08,0.14,-0.99,3.48,-0.18,2.01
16.4910,0.08,0.13,-0.99,3.17,-0.24,3.66
16.5060,0.08,0.11,-0.99,2.81,-0.61,3.30
16.5210,0.08,0.11,-0.99,3.05,-0.31,2.26
16.5370,0.08,0.11,-0.99,3.42,-0.06,1.40
16.5520,0.08,0.12,-0.99,3.48,0.06,1.28
16.5660,0.08,0.12,-0.99,3.11,-0.37,1.34
16.5810,0.08,0.13,-0.98,3.60,-0.24,1.83
16.5980,0.08,0.12,-0.99,3.54,-0.31,2.38
16.6120,0.08,0.11,-0.99,3.36,-0.37,1.53
16.6220,0.08,0.12,-0.99,3.54,-0.37,1.46
16.6390,0.08,0.12,-0.99,3.60,-0.31,1.53
16.6550,0.08,0.14,-0.99,3.66,-0.18,1.77
16.6720,0.08,0.14,-0.98,3.78,0.06,3.11
16.6880,0.08,0.11,-0.99,3.30,-0.31,4.27
16.7050,0.08,0.10,-0.99,3.17,-0.12,2.81
16.7200,0.08,0.11,-0.99,3.42,-0.37,2.38
16.7350,0.08,0.12,-0.99,3.72,0.31,1.59
16.7390,0.08,0.13,-0.99,3.48,-0.06,1.89
16.7540,0.08,0.12,-0.99,3.66,0.06,2.32
16.7820,0.08,0.13,-0.99,3.36,0.00,1.46
16.7940,0.08,0.12,-0.99,3.23,-0.37,1.53
16.8100,0.08,0.12,-0.99,3.42,-0.06,1.65
16.8270,0.08,0.12,-0.99,3.54,-0.37,1.65
16.8440,0.08,0.13,-0.99,3.54,-0.12,1.71
16.8600,0.08,0.13,-0.99,3.48,-0.24,2.44
16.8760,0.08,0.11,-0.99,3.42,-0.49,2.69
16.8930,0.08,0.12,-0.99,2.93,-0.31,2.08
16.9090,0.08,0.12,-0.99,3.23,-0.06,2.44
16.9250,0.08,0.12,-0.99,3.60,-0.49,2.62
16.9420,0.08,0.12,-0.99,3.48,-0.31,2.75
16.9580,0.08,0.12,-0.99,3.48,-0.31,2.32
16.9740,0.08,0.12,-0.99,3.36,0.12,1.77
16.9900,0.08,0.12,-0.99,3.11,-0.12,1.53
16.9940,0.08,0.13,-0.98,3.23,0.12,1.95
17.0100,0.08,0.12,-0.99,3.78,-0.12,2.99
17.0310,0.08,0.11,-0.99,3.54,-0.24,2.38
17.0490,0.08,0.13,-0.99,3.36,-0.31,1.65
17.0650,0.08,0.13,-0.99,3.54,-0.12,2.32
17.0820,0.08,0.12,-0.99,3.42,0.06,3.05
17.0980,0.08,0.12,-0.99,3.66,-0.37,3.05
17.1140,0.08,0.12,-0.99,3.66,-0.24,2.87
17.1300,0.08,0.14,-0.98,3.11,-0.49,3.05
17.1480,0.08,0.12,-0.99,3.23,-0.49,4.09
17.1630,0.08,0.10,-0.99,3.48,-0.37,3.91
17.1780,0.08,0.11,-0.99,3.72,-0.06,2.01
17.1940,0.08,0.12,-0.99,3.72,0.00,1.34
17.2100,0.08,0.12,-0.99,3.54,0.00,1.40
17.2150,0.08,0.12,-0.99,3.23,-0.24,1.40
17.2300,0.08,0.12,-0.99,3.05,-0.24,1.22
17.2530,0.08,0.13,-0.99,2.93,-0.06,1.46
17.2700,0.08,0.12,-0.99,3.30,0.00,1.53
17.2870,0.08,0.12,-0.99,3.48,0.24,1.71
17.3030,0.08,0.13,-0.99,3.66,0.00,2.08
17.3190,0.08,0.13,-0.99,3.42,-0.18,2.69
17.3340,0.08,0.13,-0.99,3.11,-0.55,3.11
17.3500,0.08,0.12,-0.99,3.23,-0.12,2.99
17.3650,0.08,0.13,-0.99,3.36,-0.31,2.81
17.3810,0.08,0.12,-0.99,3.48,-0.37,2.81
17.3970,0.08,0.12,-0.99,3.36,-0.18,2.93
17.4130,0.08,0.12,-0.99,3.30,-0.37,2.50
17.4200,0.08,0.12,-0.99,3.36,-0.43,2.14
17.4360,0.08,0.13,-0.99,3.60,-0.31,2.08
17.4560,0.08,0.11,-0.99,3.30,-0.37,2.99
17.4740,0.08,0.11,-0.99,3.23,-0.61,2.26
17.4890,0.08,0.13,-0.99,3.30,-0.18,1.83
17.5060,0.08,0.13,-0.98,3.54,-0.18,2.99
17.5220,0.08,0.11,-0.99,3.36,-0.37,3.42
17.5370,0.08,0.10,-0.99,3.17,0.06,2.14
17.5530,0.08,0.13,-0.99,3.17,-0.24,1.46
17.5680,0.08,0.12,-0.99,3.11,-0.06,1.40
17.5730,0.08,0.14,-0.98,3.11,0.00,2.14
17.5920,0.08,0.14,-0.98,3.36,-0.55,4.33
17.6100,0.08,0.13,-0.99,3.36,-0.61,4.70
17.6280,0.08,0.10,-0.99,3.48,-0.43,3.97
17.6440,0.08,0.10,-0.99,3.42,-0.55,2.26
17.6600,0.08,0.12,-0.99,3.30,0.00,1.46
17.6770,0.08,0.15,-0.98,3.30,-0.24,2.38
17.6930,0.08,0.14,-0.98,3.48,-0.55,5.13
17.7080,0.08,0.10,-0.99,3.48,-0.61,5.07
17.7110,0.07,0.10,-0.99,3.23,0.00,2.62
17.7290,0.08,0.13,-0.99,3.05,-0.31,1.53
17.7450,0.08,0.13,-0.98,3.66,-0.55,2.26
17.7610,0.08,0.14,-0.98,3.36,-0.37,3.11
17.7790,0.08,0.12,-0.99,3.48,-0.61,4.15
17.7950,0.08,0.10,-0.99,3.11,-0.12,2.56
17.8150,0.08,0.12,-0.99,3.36,-0.06,1.53
17.8340,0.08,0.12,-0.99,3.42,0.00,1.53
17.8480,0.08,0.13,-0.99,3.36,-0.18,1.71
17.8660,0.08,0.13,-0.99,3.23,0.12,2.56
17.8820,0.08,0.13,-0.99,2.99,-0.43,2.99
17.8990,0.08,0.13,-0.99,3.17,-0.43,3.17
17.9140,0.08,0.12,-0.99,3.11,0.00,3.97
17.9310,0.08,0.14,-0.99,3.11,-0.06,3.97
17.9470,0.08,0.12,-0.98,3.11,-0.37,6.04
17.9620,0.08,0.08,-0.99,3.17,-0.06,4.27
17.9650,0.08,0.12,-0.99,3.60,-0.24,1.34
17.9930,0.08,0.12,-0.99,3.85,-0.37,1.53
18.0030,0.08,0.13,-0.99,3.60,-0.06,1.40
18.0190,0.08,0.12,-0.99,3.11,0.00,1.53
18.0360,0.08,0.12,-0.99,3.48,0.06,1.59
18.0520,0.08,0.12,-0.99,4.33,0.18,1.34
18.0680,0.08,0.12,-0.99,4.09,0.24,1.46
18.0850,0.08,0.13,-0.99,3.60,0.18,1.28
18.1000,0.08,0.12,-0.99,3.36,-0.18,1.28
18.1150,0.08,0.12,-0.99,3.54,-0.49,1.53
18.1310,0.08,0.12,-0.99,3.66,0.00,1.53
18.1460,0.08,0.12,-0.99,4.09,-0.18,1.53
18.1620,0.08,0.13,-0.99,3.85,-0.12,1.28
18.1700,0.08,0.12,-0.99,3.36,-0.06,1.22
18.1850,0.08,0.12,-0.99,3.17,-0.31,1.34
18.2080,0.08,0.12,-0.99,2.81,-0.24,1.34
18.2240,0.08,0.12,-0.99,3.11,-0.37,1.22
18.2400,0.06,0.11,-0.94,3.60,-0.43,1.40
18.2560,0.08,0.13,-0.99,3.42,0.00,1.34
18.2730,0.08,0.12,-0.98,3.54,-0.31,1.46
18.2750,0.08,0.12,-0.99,3.66,-0.43,1.28
18.2930,0.08,0.12,-0.99,3.97,-0.31,1.34
18.3140,0.08,0.13,-0.99,3.91,-0.24,1.22
18.3320,0.08,0.12,-0.99,3.66,-0.12,1.16
18.3470,0.08,0.12,-0.99,3.30,-0.12,1.22
18.3630,0.08,0.12,-0.99,3.11,0.18,1.34
18.3810,0.08,0.12,-0.99,2.93,0.18,1.34
18.3970,0.08,0.12,-0.99,2.87,0.43,1.34
18.4130,0.07,0.12,-0.99,3.30,0.49,1.34
18.4150,0.08,0.12,-0.99,2.75,0.31,1.40
18.4300,0.08,0.12,-0.99,2.87,0.61,1.53
18.4620,0.08,0.12,-0.99,3.30,0.24,1.53
18.4780,0.08,0.12,-0.99,3.11,0.61,1.53
18.4950,0.08,0.12,-0.99,3.42,-0.18,1.46
18.4970,0.08,0.12,-0.99,3.66,-0.06,1.46
18.5130,0.08,0.12,-0.99,3.78,0.31,1.46
18.5410,0.08,0.12,-0.99,3.97,-0.12,1.59
18.5520,0.08,0.12,-0.99,4.15,0.37,1.53
18.5690,0.08,0.12,-0.99,3.91,-0.06,1.40
18.5850,0.08,0.12,-0.99,3.36,0.43,1.46
18.6010,0.08,0.12,-0.99,3.30,0.06,1.34
18.6180,0.08,0.12,-0.99,3.11,0.24,1.40
18.6340,0.08,0.12,-0.99,3.42,0.00,1.40
18.6500,0.08,0.12,-0.99,3.72,0.31,1.59
18.6670,0.08,0.12,-0.99,3.54,0.06,1.40
18.6820,0.08,0.12,-0.99,3.11,-0.12,1.53
18.6980,0.08,0.12,-0.99,2.93,0.06,1.46
18.7140,0.08,0.12,-0.99,2.93,0.00,1.59
18.7300,0.08,0.12,-0.99,3.42,0.31,2.01
18.7470,0.08,0.12,-0.99,3.85,-0.55,2.08
18.7630,0.08,0.13,-0.98,3.91,-0.49,3.36
18.7780,0.08,0.11,-0.99,3.30,-0.43,3.42
18.7940,0.08,0.12,-0.99,3.91,0.00,1.83
18.8020,0.08,0.12,-0.99,4.09,-0.06,1.71
18.8180,0.09,0.13,-0.99,3.97,0.00,2.14
18.8400,0.09,0.13,-0.99,3.97,0.06,2.69
18.8560,0.08,0.12,-0.99,3.54,-0.49,2.75
18.8730,0.07,0.12,-0.99,3.54,-0.31,1.34
18.8880,0.07,0.13,-0.99,3.30,0.12,0.79
18.9040,0.08,0.12,-0.99,3.30,-0.31,0.98
18.9190,0.08,0.12,-0.99,3.85,0.00,1.40
18.9340,0.08,0.12,-0.99,3.48,0.18,1.34
18.9500,0.08,0.13,-0.99,3.48,0.43,1.59
18.9570,0.08,0.13,-0.99,3.17,0.18,1.65
18.9800,0.08,0.12,-0.99,3.36,-0.18,1.89
18.9940,0.08,0.12,-0.99,3.54,-0.31,1.95
19.0070,0.08,0.13,-0.99,3.66,-0.24,2.01
19.0230,0.09,0.13,-0.99,3.66,-0.37,2.44
19.0400,0.09,0.13,-0.98,3.60,-0.49,2.50
19.0560,0.07,0.11,-0.99,3.72,-0.37,2.26
19.0730,0.07,0.11,-0.99,3.36,-0.06,1.34
19.0900,0.07,0.12,-0.99,3.36,0.00,0.79
19.1050,0.07,0.12,-0.99,2.81,0.12,1.46
19.1220,0.08,0.12,-0.99,3.54,-0.24,1.46
19.1380,0.08,0.12,-0.99,3.97,-0.24,1.46
19.1540,0.08,0.12,-0.99,3.66,0.49,1.46
19.1690,0.08,0.12,-0.99,3.91,0.00,1.22
19.1730,0.08,0.12,-0.99,3.85,0.00,1.16
19.1940,0.07,0.13,-0.99,3.48,0.37,1.22
19.2110,0.08,0.12,-0.99,3.11,0.12,1.22
19.2290,0.08,0.12,-0.99,3.36,-0.24,1.46
19.2440,0.08,0.12,-0.99,3.85,0.12,1.71
19.2610,0.08,0.12,-0.99,3.78,0.24,1.59
19.2770,0.08,0.12,-0.99,3.91,0.31,1.34
19.2930,0.08,0.12,-0.99,3.54,0.31,1.34
19.2950,0.08,0.12,-0.99,3.42,0.18,0.92
19.3110,0.08,0.12,-0.99,3.11,0.18,0.79
19.3340,0.08,0.12,-0.99,3.30,0.31,1.34
19.3500,0.08,0.12,-0.99,3.60,0.12,1.34
19.3670,0.08,0.12,-0.99,3.72,0.06,0.85
19.3840,0.09,0.12,-0.99,3.60,0.12,-0.31
19.4000,0.08,0.13,-0.99,3.48,0.49,-1.34
19.4160,0.07,0.13,-0.99,3.48,0.31,0.49
19.4320,0.08,0.12,-0.99,3.66,0.24,1.46
19.4480,0.09,0.11,-0.99,3.85,-0.12,1.22
19.4640,0.09,0.11,-0.99,3.60,0.24,-1.22
19.4800,0.08,0.12,-0.99,3.72,15.56,-1.53
19.4960,0.07,0.13,-0.99,3.78,0.37,-0.98
19.5120,0.07,0.12,-0.99,3.42,-0.37,1.10
19.5170,0.08,0.12,-0.99,3.23,-0.18,1.40
19.5330,0.08,0.12,-0.98,3.85,0.00,1.40
19.5560,0.08,0.12,-0.99,3.23,-0.37,0.37
19.5730,0.07,0.12,-0.99,3.23,-0.43,0.06
19.5900,0.08,0.12,-0.99,3.42,0.12,0.92
19.6070,0.08,0.12,-0.99,3.60,0.00,1.22
19.6230,0.08,0.12,-0.99,3.78,-15.63,1.16
19.6400,0.08,0.12,-0.99,3.78,-0.31,0.85
19.6550,0.08,0.12,-0.99,3.48,-0.37,1.10
19.6710,0.07,0.13,-0.99,2.93,0.00,1.77
19.6860,0.08,0.12,-0.99,3.30,0.12,1.83
19.7010,0.08,0.12,-0.99,3.60,0.18,1.83
19.7160,0.08,0.12,-0.99,3.72,0.06,1.40
19.7320,0.09,0.12,-0.99,3.78,0.00,1.40
19.7470,0.08,0.12,-0.99,3.23,-0.49,1.53
19.7570,0.07,0.12,-0.99,3.42,0.24,1.71
19.7720,0.08,0.12,-0.99,3.42,-0.43,1.53
19.7930,0.08,0.12,-0.99,3.54,-0.37,1.46
19.8080,0.08,0.12,-0.99,3.60,-0.06,1.34
19.8130,0.08,0.12,-0.99,3.97,0.12,1.34
19.8280,0.08,0.12,-0.99,3.97,0.12,1.16
19.8490,0.08,0.12,-0.98,3.30,0.37,1.53
19.8670,0.08,0.12,-0.99,3.17,-0.37,1.95
19.8830,0.08,0.12,-0.99,3.72,-0.49,2.14
19.8990,0.08,0.12,-0.99,3.78,-0.31,2.01
19.9150,0.08,0.12,-0.99,3.72,-0.06,2.08
19.9320,0.08,0.12,-0.99,3.60,0.06,2.32
19.9510,0.08,0.12,-0.99,3.72,-0.06,2.32
19.9660,0.07,0.12,-0.99,3.72,0.43,1.53
19.9820,0.07,0.13,-0.99,3.42,-0.12,1.34
19.9990,0.08,0.12,-0.99,3.36,0.12,1.28
20.0150,0.08,0.12,-0.99,3.36,0.18,1.28
20.0320,0.08,0.12,-0.99,3.54,-0.31,1.65
20.0470,0.07,0.12,-0.99,3.48,-0.55,1.59
20.0630,0.08,0.12,-0.99,3.42,-0.06,1.40
20.0790,0.08,0.12,-0.99,3.36,0.00,1.34
20.0950,0.09,0.12,-0.99,3.60,-0.43,1.22
20.0980,0.08,0.12,-0.99,3.54,-0.37,1.16
20.1210,0.08,0.12,-0.99,3.60,0.00,1.28
20.1380,0.08,0.12,-0.99,3.72,-0.12,1.77
20.1540,0.08,0.12,-0.99,3.66,-0.24,1.59
20.1710,0.08,0.12,-0.99,3.48,0.67,1.71
20.1870,0.08,0.12,-0.99,3.54,-0.06,1.59
20.2030,0.08,0.12,-0.99,3.60,0.31,1.71
20.2180,0.08,0.12,-0.99,3.54,0.12,1.83
20.2200,0.08,0.12,-0.99,3.11,-0.12,1.77
20.2360,0.08,0.12,-0.99,3.23,-0.49,1.46
20.2600,0.08,0.12,-0.99,3.66,-0.06,1.16
20.2770,0.08,0.12,-0.99,3.66,-0.37,1.04
20.2950,0.08,0.12,-0.99,3.54,0.18,1.34
20.3110,0.07,0.12,-0.99,3.23,0.06,1.77
20.3260,0.07,0.12,-0.99,3.36,-0.12,1.89
20.3430,0.08,0.12,-0.98,3.23,0.12,1.65
20.3590,0.08,0.12,-0.99,3.17,-0.18,1.22
20.3750,0.08,0.12,-0.99,3.36,-0.18,0.92
20.3920,0.09,0.12,-0.99,3.54,-0.06,1.16
20.4070,0.08,0.12,-0.99,3.60,-0.12,1.40
20.4090,0.08,0.12,-0.99,3.78,-0.06,1.46
20.4250,0.08,0.12,-0.99,3.60,0.00,1.59
20.4470,0.08,0.12,-0.99,3.72,0.18,1.83
20.4640,0.08,0.12,-0.99,3.78,0.24,1.53
20.4800,0.08,0.12,-0.99,3.72,0.00,1.71
20.4980,0.08,0.12,-0.99,3.78,0.06,1.65
20.5130,0.08,0.12,-0.99,3.48,-0.24,1.53
20.5300,0.08,0.12,-0.99,3.60,0.00,1.53
20.5310,0.08,0.12,-0.99,3.60,-0.06,1.34
20.5620,0.07,0.12,-0.99,3.05,0.00,1.22
20.5780,0.08,0.12,-0.99,3.54,0.37,1.46
20.5940,0.07,0.13,-0.99,3.72,-0.24,1.53
20.5970,0.08,0.13,-0.99,3.36,0.12,1.59
20.6250,0.08,0.12,-0.99,3.23,0.24,1.71
20.6420,0.08,0.12,-0.99,3.23,-0.31,1.65
20.6580,0.08,0.12,-0.99,3.54,0.00,1.71
20.6730,0.08,0.12,-0.99,3.78,0.00,1.65
20.6880,0.08,0.12,-0.99,3.85,0.00,1.40
20.6970,0.08,0.12,-0.99,3.42,-0.31,1.28
20.7130,0.07,0.13,-0.99,2.99,0.24,1.59
20.7310,0.08,0.12,-0.99,3.30,-0.06,1.53
20.7470,0.08,0.12,-0.99,3.72,-0.24,1.34
20.7630,0.08,0.12,-0.99,3.78,-0.31,1.10
20.7800,0.08,0.12,-0.99,3.30,-0.12,1.16
20.7980,0.08,0.12,-0.99,3.42,-0.12,1.04
20.8140,0.08,0.12,-0.99,3.72,0.00,1.34
20.8300,0.07,0.12,-0.99,3.48,-0.37,0.79
20.8460,0.08,0.13,-0.99,3.54,-0.12,0.98
20.8630,0.08,0.12,-0.99,3.42,0.37,1.16
20.8640,0.08,0.12,-0.99,3.85,0.12,1.16
20.8940,0.08,0.12,-0.99,3.91,0.12,1.34
20.9100,0.08,0.12,-0.99,3.85,0.24,1.46
20.9140,0.08,0.13,-0.99,3.42,-0.12,1.40
20.9300,0.07,0.12,-0.99,2.87,0.00,1.40
20.9550,0.08,0.12,-0.99,2.99,0.12,1.10
20.9630,0.08,0.12,-0.99,3.66,0.12,1.16
20.9800,0.08,0.12,-0.99,3.91,0.00,1.16
20.9980,0.08,0.12,-0.99,3.54,-0.24,1.04
21.0140,0.07,0.13,-0.99,3.30,0.00,1.34
21.0300,0.08,0.12,-0.99,3.48,0.06,1.53
21.0310,0.08,0.12,-0.99,3.54,-0.24,1.46
21.0470,0.08,0.12,-0.99,3.48,-0.67,1.34
21.0650,0.08,0.12,-0.99,3.60,-0.49,1.16
21.0900,0.08,0.12,-0.99,3.54,-0.12,1.16
21.0970,0.08,0.12,-0.99,3.72,-0.12,1.10
21.1210,0.08,0.12,-0.99,3.85,-0.12,1.16
21.1310,0.08,0.12,-0.99,3.60,-0.31,1.16
21.1470,0.08,0.12,-0.99,3.23,-0.18,1.28
21.1670,0.08,0.12,-0.99,3.36,0.12,1.46
21.1700,0.08,0.12,-0.99,3.72,-0.24,1.59
21.1960,0.08,0.12,-0.99,3.85,-0.12,1.40
21.2130,0.08,0.12,-0.99,3.78,-0.31,1.34
21.2270,0.08,0.12,-0.99,3.54,0.00,1.10
21.2370,0.08,0.12,-0.99,3.30,-0.12,0.92
21.2520,0.07,0.12,-0.99,3.54,0.06,1.40
21.2730,0.08,0.12,-0.99,3.60,-0.37,1.40
21.2910,0.08,0.12,-0.99,3.48,-0.18,1.28
21.3070,0.08,0.12,-0.99,3.66,0.37,1.28
21.3230,0.08,0.13,-0.99,3.11,0.00,1.34
21.3390,0.07,0.12,-0.99,3.23,0.06,1.34
21.3560,0.08,0.12,-0.99,3.17,0.00,1.40
21.3710,0.08,0.12,-0.99,3.17,0.00,1.40
21.3870,0.08,0.12,-0.99,3.23,-0.06,1.28
21.4030,0.09,0.12,-0.99,3.42,0.61,1.34
21.4170,0.08,0.12,-0.99,3.72,-0.18,1.46
21.4330,0.08,0.12,-0.99,4.03,-0.06,1.40
21.4410,0.08,0.12,-0.99,4.03,0.06,1.46
21.4560,0.08,0.12,-0.99,3.48,-0.12,1.53
21.4790,0.07,0.12,-0.99,3.17,-0.18,1.46
21.4960,0.08,0.12,-0.99,3.23,-0.24,1.53
21.5110,0.08,0.12,-0.99,3.30,0.18,1.65
21.5270,0.08,0.12,-0.99,3.85,0.06,1.65
21.5430,0.08,0.12,-0.99,3.48,0.06,1.59
21.5450,0.08,0.12,-0.99,3.23,0.00,1.40
21.5610,0.08,0.12,-0.99,3.36,0.18,1.89
21.5890,0.08,0.12,-0.99,3.36,0.43,1.83
21.6000,0.08,0.12,-0.99,3.48,0.24,1.83
21.6170,0.08,0.12,-0.99,3.60,-0.06,1.59
21.6340,0.08,0.12,-0.99,3.54,-0.12,1.53
21.6510,0.08,0.12,-0.99,3.72,-0.24,1.59
21.6670,0.08,0.12,-0.99,3.60,-0.49,1.59
21.6840,0.08,0.12,-0.98,3.36,-0.24,1.89
21.7000,0.08,0.12,-0.99,3.30,0.00,1.89
21.7160,0.08,0.12,-0.99,3.17,0.31,1.59
21.7320,0.08,0.12,-0.99,3.30,0.12,1.34
21.7460,0.08,0.12,-0.99,3.60,0.43,1.46
21.7620,0.09,0.12,-0.99,3.60,-0.06,1.46
21.7790,0.07,0.12,-0.99,3.30,-0.37,1.59
21.7950,0.08,0.12,-0.99,3.42,-0.31,1.53
21.8100,0.08,0.13,-0.99,3.05,-0.18,1.53
21.8260,0.08,0.12,-0.99,3.05,0.00,1.59
21.8340,0.08,0.12,-0.99,3.30,-0.43,1.40
21.8500,0.08,0.12,-0.99,3.72,-0.24,1.34
21.8720,0.09,0.12,-0.99,3.48,0.18,1.28
21.8890,0.08,0.12,-0.99,3.11,-0.18,1.34
21.9050,0.08,0.12,-0.99,3.17,0.61,1.95
21.9210,0.08,0.12,-0.99,3.85,0.37,1.83
21.9370,0.09,0.12,-0.99,3.66,-0.12,1.40
21.9520,0.08,0.12,-0.99,3.72,-0.06,1.16
21.9680,0.08,0.12,-0.99,3.72,-0.24,1.16
21.9830,0.07,0.12,-0.99,3.66,-0.12,1.46
21.9990,0.07,0.13,-0.99,3.36,-0.06,1.53
22.0150,0.08,0.12,-0.99,3.11,0.43,1.65
22.0300,0.08,0.12,-0.99,3.36,-0.31,1.53
22.0460,0.08,0.12,-0.99,3.36,-0.06,1.46
22.0560,0.08,0.12,-0.99,3.54,0.06,1.46
22.0720,0.08,0.12,-0.99,3.66,0.12,1.53
22.0900,0.08,0.12,-0.99,3.42,-0.18,1.59
22.1060,0.08,0.12,-0.99,3.42,0.00,1.71
22.1210,0.08,0.12,-0.99,3.42,-0.06,1.65
22.1390,0.08,0.12,-0.99,3.48,0.18,1.28
22.1550,0.08,0.12,-0.99,3.72,0.00,1.04
22.1710,0.08,0.12,-0.99,3.66,0.37,1.16
22.1850,0.08,0.12,-0.99,3.54,0.18,1.16
22.2000,0.08,0.12,-0.99,3.05,-0.12,1.46
22.2050,0.08,0.12,-0.99,3.11,0.37,1.59
22.2210,0.08,0.12,-0.99,3.60,-0.06,1.59
22.2430,0.08,0.12,-0.99,3.54,0.00,1.53
22.2590,0.08,0.12,-0.99,3.78,0.37,1.34
22.2760,0.08,0.12,-0.99,3.54,0.24,1.34
22.2920,0.08,0.12,-0.99,3.36,0.24,1.71
22.3090,0.07,0.12,-0.99,3.11,0.00,2.20
22.3250,0.08,0.12,-0.99,3.30,0.49,2.26
22.3410,0.08,0.12,-0.99,3.66,0.06,1.77
22.3560,0.08,0.12,-0.99,3.78,0.00,1.65
22.3590,0.08,0.12,-0.99,3.78,0.00,1.53
22.3750,0.08,0.12,-0.99,3.42,-0.06,1.53
22.3980,0.07,0.12,-0.99,3.11,0.55,1.65
22.4160,0.08,0.12,-0.99,2.99,-0.12,1.95
22.4300,0.08,0.11,-0.99,3.23,0.00,1.77
22.4470,0.08,0.12,-0.99,3.78,0.18,1.59
22.4620,0.08,0.12,-0.99,3.42,0.00,1.28
22.4790,0.08,0.12,-0.99,3.54,0.31,1.04
22.4950,0.08,0.12,-0.99,3.48,0.12,1.34
22.4980,0.08,0.12,-0.99,3.48,0.18,1.46
22.5150,0.08,0.12,-0.99,3.30,0.43,1.71
22.5410,0.08,0.12,-0.99,3.42,0.37,1.53
22.5460,0.07,0.12,-0.99,3.54,0.18,1.59
22.5620,0.08,0.12,-0.99,3.42,0.06,1.34
22.5830,0.08,0.12,-0.99,3.42,0.24,1.46
22.6010,0.08,0.12,-0.99,3.42,0.00,1.40
22.6160,0.08,0.12,-0.99,3.42,0.06,1.46
22.6330,0.07,0.12,-0.99,3.30,0.06,1.59
22.6490,0.07,0.12,-0.99,3.36,-0.12,1.65
22.6650,0.08,0.12,-0.99,3.66,0.00,1.40
22.6810,0.08,0.12,-0.99,3.60,0.37,1.40
22.6960,0.08,0.12,-0.99,3.60,0.31,1.46
22.7130,0.07,0.12,-0.99,3.66,-0.12,1.53
22.7280,0.09,0.12,-0.99,3.66,-0.12,1.22
22.7340,0.08,0.12,-0.99,3.36,-15.56,1.22
22.7500,0.08,0.12,-0.99,3.48,-0.31,1.16
22.7710,0.08,0.12,-0.99,3.54,-0.18,1.71
22.7890,0.07,0.12,-0.99,3.42,0.06,1.77
22.8050,0.07,0.12,-0.99,3.54,0.06,1.71
22.8210,0.08,0.12,-0.99,3.54,-0.06,1.40
22.8360,0.08,0.12,-0.99,3.42,-0.49,1.28
22.8510,0.08,0.12,-0.99,3.60,-0.18,1.22
22.8660,0.08,0.12,-0.99,3.72,-0.43,1.28
22.8830,0.08,0.12,-0.99,3.48,-0.06,1.59
22.8990,0.08,0.12,-0.99,3.30,-0.37,1.59
22.9140,0.08,0.12,-0.99,3.23,-0.18,1.53
22.9290,0.09,0.12,-0.99,3.30,-0.37,1.89
22.9440,0.08,0.12,-0.99,3.48,0.06,2.01
22.9540,0.08,0.12,-0.99,3.72,-0.06,2.01
22.9710,0.07,0.12,-0.99,3.48,0.18,1.40
22.9880,0.07,0.12,-0.99,3.11,0.00,1.34
23.0050,0.07,0.12,-0.99,3.54,-0.73,1.46
23.0210,0.08,0.12,-0.99,3.54,0.18,1.53
23.0370,0.08,0.12,-0.99,3.54,0.00,1.28
23.0530,0.08,0.12,-0.99,3.78,-0.24,1.40
23.0690,0.08,0.12,-0.99,3.17,-0.12,1.28
23.0850,0.08,0.12,-0.99,3.42,-0.24,1.40
23.1000,0.08,0.12,-0.99,3.48,-0.24,1.53
23.1040,0.08,0.12,-0.99,3.66,-0.24,1.59
23.1200,0.08,0.12,-0.99,3.60,-0.12,1.22
23.1430,0.08,0.12,-0.99,3.66,-0.06,0.98
23.1610,0.08,0.12,-0.99,3.30,0.24,1.10
23.1770,0.08,0.12,-0.99,3.23,0.06,1.40
23.1770,0.07,0.12,-0.99,3.36,-0.12,1.53
23.2080,0.08,0.12,-0.99,3.48,-0.43,1.40
23.2100,0.08,0.13,-0.99,3.17,0.12,1.04
23.2270,0.07,0.12,-0.99,3.42,0.06,0.73
23.2440,0.08,0.12,-0.99,3.48,0.12,1.10
23.2690,0.08,0.12,-0.99,3.30,-0.12,1.22
23.2770,0.07,0.12,-0.99,3.48,0.31,1.59
23.2980,0.08,0.12,-0.99,3.72,-0.06,1.59
23.3160,0.08,0.12,-0.99,3.72,-0.37,1.34
23.3330,0.08,0.12,-0.99,3.85,-0.06,1.10
23.3480,0.08,0.12,-0.99,3.66,0.31,1.22
23.3650,0.08,0.12,-0.99,3.23,-0.24,1.40
23.3810,0.08,0.12,-0.99,3.42,0.06,1.65
23.3980,0.07,0.12,-0.99,3.54,-0.49,1.65
23.4150,0.07,0.12,-0.99,3.54,-0.06,1.40
23.4310,0.08,0.12,-0.99,3.54,-0.06,1.28
23.4320,0.08,0.12,-0.99,3.36,-0.06,1.28
23.4630,0.08,0.12,-0.99,3.42,-0.31,1.46
23.4650,0.08,0.12,-0.99,3.36,0.06,1.40
23.4950,0.08,0.12,-0.99,3.60,-0.12,1.53
23.5110,0.08,0.12,-0.99,3.54,0.18,1.40
23.5280,0.08,0.12,-0.99,3.60,0.00,1.28
23.5430,0.08,0.12,-0.99,3.54,0.00,1.40
23.5490,0.08,0.12,-0.99,3.36,0.12,1.46
23.5650,0.08,0.12,-0.99,3.66,-0.18,1.65
23.5870,0.08,0.12,-0.99,3.72,-0.18,1.46
23.6030,0.08,0.12,-0.99,3.60,-0.37,1.28
23.6180,0.09,0.12,-0.99,3.72,-0.31,1.46
23.6330,0.08,0.12,-0.99,3.54,-0.24,1.59
23.6500,0.09,0.12,-0.99,3.78,-0.43,1.77
23.6650,0.09,0.12,-0.99,3.72,0.00,1.46
23.6800,0.08,0.12,-0.99,3.54,-0.18,1.10
23.6950,0.07,0.12,-0.99,3.30,-0.37,0.98
23.7060,0.07,0.12,-0.99,3.17,-0.49,1.34
23.7230,0.07,0.12,-0.99,3.23,0.12,1.46
23.7380,0.08,0.12,-0.99,3.66,-0.24,1.53
23.7570,0.07,0.12,-0.99,4.09,-0.24,1.16
23.7720,0.08,0.12,-0.99,3.66,-0.49,1.28
23.7870,0.08,0.12,-0.99,3.36,0.24,1.53
23.8030,0.08,0.11,-0.99,3.54,0.49,1.34
23.8190,0.08,0.12,-0.99,3.42,-0.24,1.34
23.8340,0.08,0.12,-0.99,3.48,-0.06,1.28
23.8500,0.08,0.12,-0.99,3.66,-0.18,1.16
23.8590,0.08,0.12,-0.99,3.60,-0.43,1.16
23.8760,0.08,0.12,-0.99,3.30,0.06,1.40
23.8920,0.08,0.12,-0.99,3.30,0.18,1.46
23.9090,0.08,0.13,-0.99,3.66,0.18,1.46
23.9260,0.08,0.12,-0.99,3.17,-0.06,1.22
23.9420,0.08,0.12,-0.99,3.48,-0.06,1.28
23.9580,0.08,0.12,-0.99,3.30,0.06,1.34
23.9730,0.08,0.12,-0.99,3.60,-0.24,1.28
23.9750,0.08,0.12,-0.99,3.91,-0.49,1.34
24.0000,0.09,0.12,-0.99,3.66,0.24,1.40
24.0140,0.07,0.13,-0.99,3.36,-0.31,1.46
24.0300,0.08,0.12,-0.99,3.60,-0.37,1.16
24.0480,0.08,0.12,-0.99,3.66,0.18,1.16
24.0630,0.08,0.12,-0.99,3.54,-0.12,1.28
24.0810,0.08,0.12,-0.99,3.72,-0.18,0.85
24.0970,0.08,0.12,-0.99,3.85,0.18,0.61
24.1140,0.08,0.12,-0.99,3.60,-0.31,0.61
24.1290,0.09,0.12,-0.99,3.42,0.18,1.16
24.1450,0.08,0.12,-0.99,3.72,-0.55,0.98
24.1600,0.08,0.12,-0.99,3.48,-0.06,0.67
24.1770,0.07,0.12,-0.99,3.72,-0.06,0.85
24.1920,0.07,0.12,-0.99,3.48,-0.12,1.04
24.2080,0.07,0.12,-0.99,3.42,-0.06,1.40
24.2230,0.07,0.12,-0.99,3.42,-0.12,1.40
24.2380,0.08,0.12,-0.99,3.54,-0.18,1.34
24.2480,0.08,0.12,-0.99,3.54,0.12,1.46
24.2630,0.08,0.12,-0.99,3.85,0.00,1.40
24.2840,0.10,0.12,-0.99,3.72,-0.43,1.28
24.2990,0.08,0.12,-0.99,3.30,-0.49,1.16
24.3050,0.08,0.12,-0.99,3.72,-0.18,1.53
24.3210,0.07,0.12,-0.99,3.60,-0.06,1.59
24.3390,0.07,0.12,-0.99,3.66,-0.43,1.34
24.3570,0.08,0.12,-0.99,3.66,-0.24,1.28
24.3720,0.09,0.12,-0.99,3.48,-0.24,1.16
24.3900,0.08,0.12,-0.99,3.17,-0.31,1.16
24.4050,0.07,0.12,-0.99,3.42,-0.12,1.59
24.4210,0.08,0.12,-0.99,3.97,-0.37,1.59
24.4350,0.08,0.12,-0.99,3.60,-0.31,1.59
24.4510,0.09,0.12,-0.98,3.54,-0.18,1.53
24.4570,0.09,0.12,-0.99,3.54,-0.31,1.46
24.4820,0.08,0.13,-0.99,3.60,0.06,1.04
24.4970,0.06,0.13,-0.99,3.54,-0.31,0.85
24.5120,0.07,0.12,-0.99,3.60,-0.24,1.40
24.5230,0.07,0.12,-0.99,3.85,-0.67,1.34
24.5400,0.08,0.12,-0.99,3.97,-0.61,1.28
24.5570,0.07,0.13,-0.99,3.72,-0.55,1.28
24.5730,0.07,0.12,-0.99,3.36,0.00,1.53
24.5890,0.08,0.12,-0.99,3.36,-0.24,1.53
24.6060,0.08,0.12,-0.99,3.72,-0.24,1.59
24.6220,0.08,0.12,-0.99,3.66,0.00,1.53
24.6380,0.08,0.12,-0.99,3.54,-0.55,1.40
24.6550,0.08,0.12,-0.99,3.42,-0.31,1.28
24.6710,0.07,0.12,-0.99,3.48,-0.24,1.53
24.6860,0.08,0.13,-0.99,3.42,-0.37,1.65
24.7020,0.08,0.12,-0.99,3.36,-0.12,1.34
24.7170,0.08,0.12,-0.99,3.48,-0.18,1.40
24.7330,0.09,0.12,-0.99,3.66,-0.06,1.34
24.7480,0.07,0.12,-0.99,3.48,-0.43,1.34
24.7630,0.07,0.12,-0.99,3.23,0.00,1.34
24.7790,0.08,0.12,-0.99,3.23,-0.31,1.22
24.7900,0.08,0.12,-0.99,3.30,-0.31,1.28
24.8060,0.08,0.12,-0.99,3.60,-0.12,1.46
24.8230,0.08,0.12,-0.99,3.42,0.18,1.53
24.8400,0.09,0.12,-0.99,3.48,-0.31,1.46
24.8560,0.08,0.13,-0.99,3.36,-0.37,1.28
24.8710,0.08,0.12,-0.99,3.42,-0.79,1.28
24.8880,0.08,0.12,-0.99,3.54,-0.37,1.22
24.9030,0.08,0.12,-0.99,3.72,-0.24,1.40
24.9190,0.09,0.12,-0.99,3.23,-0.06,1.65
24.9350,0.10,0.12,-0.98,3.54,0.00,1.77
24.9500,0.09,0.11,-0.99,3.30,-0.43,2.26
24.9650,0.08,0.12,-0.99,2.99,-0.31,2.75
24.9730,0.06,0.13,-0.99,2.87,-0.49,2.32
24.9900,0.06,0.13,-0.99,2.75,-0.24,1.59
25.0060,0.06,0.12,-0.99,2.69,0.24,1.83
25.0230,0.07,0.12,-0.99,3.30,0.24,1.65
25.0390,0.08,0.12,-0.99,4.03,-0.18,1.71
25.0540,0.08,0.12,-0.99,4.03,-0.18,1.40
25.0710,0.08,0.12,-0.99,3.66,-0.18,1.22
25.0800,0.08,0.12,-0.99,3.30,-0.12,1.40
25.1010,0.08,0.12,-0.99,3.30,-0.31,1.40
25.1160,0.08,0.12,-0.99,3.72,-0.12,1.28
25.1320,0.08,0.12,-0.99,3.48,-0.43,1.34
25.1490,0.08,0.12,-0.99,3.42,-0.43,1.28
25.1650,0.08,0.12,-0.99,3.23,0.00,1.34
25.1810,0.08,0.12,-0.99,3.42,-0.31,1.34
25.1970,0.08,0.12,-0.99,3.72,-0.24,1.34
25.2130,0.09,0.12,-0.99,3.72,0.00,1.65
25.2290,0.07,0.12,-0.99,3.42,-0.37,1.77
25.2330,0.08,0.12,-0.99,2.93,0.49,1.65
25.2480,0.08,0.12,-0.99,3.54,-0.12,1.40
25.2720,0.08,0.12,-0.99,3.48,-0.12,1.34
25.2890,0.08,0.12,-0.99,3.66,-0.43,1.40
25.3050,0.08,0.12,-0.99,3.72,-0.18,1.22
25.3220,0.08,0.12,-0.99,3.54,0.06,1.46
25.3380,0.08,0.12,-0.99,3.30,0.12,1.77
25.3540,0.08,0.12,-0.99,3.48,0.24,1.77
25.3710,0.08,0.12,-0.99,3.97,0.00,1.46
25.3860,0.08,0.12,-0.99,3.85,-0.24,1.40
25.4000,0.07,0.12,-0.99,3.60,-0.31,1.40
25.4160,0.07,0.12,-0.99,2.93,-0.06,1.40
25.4330,0.07,0.12,-0.99,2.87,0.00,1.46
25.4390,0.08,0.12,-0.98,3.30,0.24,1.34
25.4540,0.08,0.12,-0.99,3.48,-0.31,1.40
25.4770,0.08,0.12,-0.99,3.66,-0.31,1.34
25.4940,0.08,0.12,-0.99,3.60,0.06,1.40
25.5100,0.08,0.12,-0.99,3.66,-0.18,1.40
25.5270,0.08,0.12,-0.99,3.23,-0.24,1.40
25.5420,0.08,0.12,-0.99,3.05,0.37,1.34
25.5440,0.08,0.12,-0.99,3.54,-0.18,1.34
25.5600,0.08,0.12,-0.99,3.72,-0.43,1.40
25.5850,0.08,0.12,-0.99,3.54,0.18,1.46
25.6020,0.08,0.12,-0.99,3.66,0.06,1.46
25.6170,0.09,0.12,-0.99,3.23,-0.18,1.40
25.6320,0.07,0.12,-0.99,3.54,-0.12,1.59
25.6350,0.08,0.12,-0.99,3.66,-0.24,1.71
25.6500,0.07,0.12,-0.99,3.66,-0.43,1.46
25.6790,0.08,0.12,-0.99,3.72,-0.24,1.34
25.6900,0.08,0.12,-0.99,3.48,-0.31,1.40
25.7060,0.08,0.12,-0.99,3.54,-0.37,1.40
25.7220,0.08,0.12,-0.99,3.72,0.12,1.40
25.7380,0.08,0.12,-0.99,3.42,-0.24,1.28
25.7550,0.08,0.12,-0.99,2.99,-0.12,1.22
25.7610,0.08,0.12,-0.99,3.11,-0.18,1.46
25.7780,0.08,0.12,-0.99,3.48,0.06,1.40
25.7940,0.08,0.12,-0.99,3.36,0.00,1.22
25.8150,0.08,0.12,-0.99,3.23,0.12,1.28
25.8160,0.08,0.12,-0.99,3.48,0.00,1.46
25.8340,0.08,0.12,-0.99,3.66,-0.31,1.40
25.8500,0.10,0.13,-0.99,3.11,-0.55,1.40
25.8790,0.07,0.12,-0.99,2.93,0.18,1.10
25.8950,0.07,0.11,-0.99,3.42,-0.24,1.28
25.9100,0.08,0.12,-0.99,3.48,0.37,1.89
25.9190,0.07,0.12,-0.99,3.30,-0.37,1.95
25.9350,0.07,0.12,-0.99,3.30,0.00,1.71
25.9560,0.08,0.12,-0.99,3.11,-0.06,1.34
25.9740,0.08,0.12,-0.99,3.17,-0.43,1.16
25.9880,0.08,0.12,-0.99,3.54,0.12,1.28
26.0060,0.08,0.12,-0.99,3.48,0.12,1.28
26.0230,0.08,0.12,-0.99,3.48,0.06,1.22
26.0390,0.08,0.12,-0.99,3.30,0.12,1.34
26.0550,0.08,0.12,-0.99,3.48,-0.18,1.28
26.0560,0.07,0.12,-0.99,3.30,-0.31,1.59
26.0720,0.08,0.12,-0.99,3.54,-0.43,1.28
26.1010,0.08,0.12,-0.99,3.91,-0.37,1.16
26.1120,0.08,0.12,-0.99,3.66,-0.37,1.28
26.1290,0.08,0.12,-0.99,3.54,0.12,1.28
26.1450,0.08,0.12,-0.99,3.11,-0.61,1.22
26.1610,0.08,0.12,-0.99,3.54,-0.49,1.34
26.1780,0.08,0.12,-0.99,3.54,-0.31,1.28
26.1960,0.08,0.12,-0.99,3.48,0.24,1.28
26.2110,0.08,0.12,-0.99,3.85,0.18,1.40
26.2290,0.09,0.12,-0.98,3.97,-0.24,1.46
26.2440,0.08,0.12,-0.99,3.66,-0.37,2.14
26.2590,0.07,0.11,-0.99,3.91,-0.12,1.46
26.2750,0.08,0.12,-0.99,3.85,-0.12,1.40
26.2780,0.08,0.12,-0.99,3.60,0.00,1.16
26.3050,0.08,0.12,-0.99,3.48,0.00,1.59
26.3220,0.08,0.12,-0.99,3.60,0.18,1.83
26.3280,0.08,0.12,-0.99,3.30,0.00,2.01
26.3460,0.08,0.12,-0.99,3.36,0.12,1.59
26.3610,0.08,0.12,-0.99,3.66,-0.12,1.53
26.3770,0.08,0.12,-0.99,3.72,-0.18,1.53
26.3960,0.07,0.12,-0.99,3.54,-0.31,1.65
26.4120,0.08,0.12,-0.99,3.36,0.00,1.65
26.4280,0.08,0.12,-0.99,3.54,-0.37,1.46
26.4430,0.08,0.12,-0.99,3.60,-0.12,1.46
26.4590,0.08,0.12,-0.99,3.48,-0.18,1.28
26.4680,0.08,0.12,-0.99,3.54,-0.37,1.34
26.4850,0.08,0.12,-0.99,3.66,-0.31,1.16
26.5020,0.09,0.12,-0.99,3.54,0.12,1.22
26.5170,0.07,0.12,-0.99,3.30,0.18,1.16
26.5350,0.08,0.12,-0.99,3.36,0.24,1.34
26.5520,0.08,0.12,-0.99,3.85,0.06,1.28
26.5670,0.08,0.12,-0.99,3.91,-0.31,1.34
26.5830,0.08,0.12,-0.99,3.66,-0.12,1.22
26.5990,0.07,0.12,-0.99,3.72,-0.31,1.28
26.6150,0.08,0.12,-0.99,3.36,-0.06,1.28
26.6180,0.08,0.12,-0.99,3.66,-0.37,1.34
26.6340,0.08,0.12,-0.99,3.54,-0.31,1.34
26.6580,0.08,0.12,-0.99,3.48,-0.06,1.40
26.6740,0.08,0.12,-0.99,3.42,-0.06,1.28
26.6910,0.08,0.12,-0.99,3.36,0.31,1.40
26.7080,0.08,0.12,-0.99,3.42,-0.18,1.28
26.7240,0.08,0.12,-0.99,3.72,-0.31,1.40
26.7400,0.08,0.12,-0.99,3.66,-0.06,1.40
26.7560,0.09,0.12,-0.99,3.54,-0.43,1.16
26.7730,0.07,0.12,-0.99,3.60,-0.37,1.22
26.7880,0.08,0.12,-0.99,3.36,0.00,1.28
26.8040,0.08,0.12,-0.99,3.36,-0.43,1.22
26.8190,0.09,0.12,-0.99,3.66,-0.24,1.22
26.8350,0.07,0.12,-0.99,3.48,0.00,0.98
26.8500,0.08,0.12,-0.99,3.42,-0.12,1.16
26.8660,0.07,0.12,-0.99,3.72,-0.43,1.10
26.8750,0.08,0.12,-0.99,3.72,-0.37,1.22
26.8900,0.09,0.12,-0.99,3.36,-0.31,1.22
26.9120,0.08,0.12,-0.99,3.42,-0.06,1.10
26.9270,0.08,0.12,-0.99,3.48,0.00,1.46
26.9430,0.08,0.12,-0.99,3.72,-0.06,1.34
26.9590,0.07,0.12,-0.99,3.60,-0.06,1.10
26.9750,0.07,0.12,-0.99,3.60,-0.31,1.10
26.9900,0.08,0.12,-0.99,3.60,-0.24,1.28
27.0060,0.09,0.12,-0.99,3.78,-0.12,1.28
27.0150,0.08,0.12,-0.99,3.30,-0.24,1.22
27.0320,0.08,0.12,-0.99,3.05,-0.06,1.34
27.0490,0.07,0.12,-0.99,3.42,0.06,1.10
27.0650,0.08,0.12,-0.99,3.66,0.12,0.98
27.0820,0.08,0.12,-0.99,3.66,-0.12,1.04
27.0990,0.08,0.12,-0.99,3.30,0.12,1.04
27.1150,0.08,0.12,-0.99,3.60,0.00,1.40
27.1310,0.07,0.12,-0.99,3.85,-0.55,1.40
27.1460,0.08,0.12,-0.99,3.72,-0.12,1.40
27.1550,0.08,0.12,-0.99,3.66,-0.24,1.28
27.1710,0.08,0.12,-0.99,3.54,-0.31,1.53
27.1930,0.09,0.12,-0.99,3.54,-0.49,1.40
27.2100,0.08,0.12,-0.99,3.42,-0.37,1.34
27.2270,0.08,0.12,-0.99,3.72,-0.49,1.34
27.2420,0.08,0.12,-0.99,3.91,-0.18,1.46
27.2580,0.07,0.12,-0.99,3.48,-0.18,1.34
27.2610,0.08,0.12,-0.99,3.36,-0.12,1.28
27.2900,0.08,0.12,-0.99,3.60,-0.31,1.40
27.3030,0.08,0.12,-0.99,3.48,-0.18,1.34
27.3090,0.09,0.12,-0.98,3.30,0.43,1.46
27.3320,0.08,0.12,-0.99,3.54,-0.18,1.28
27.3490,0.07,0.12,-0.99,3.60,-0.31,1.59
27.3650,0.08,0.12,-0.99,3.72,0.06,1.77
27.3810,0.08,0.12,-0.99,3.60,-0.06,1.65
27.3970,0.08,0.12,-0.99,3.54,-0.31,1.53
27.4130,0.08,0.12,-0.99,3.60,-0.24,1.59
27.4270,0.07,0.12,-0.99,3.54,0.43,1.59
27.4420,0.08,0.13,-0.99,3.60,0.00,1.59
27.4570,0.08,0.12,-0.99,3.05,0.18,1.34
27.4720,0.08,0.12,-0.99,3.17,0.12,1.28
27.4870,0.08,0.12,-0.99,3.48,-0.31,1.53
27.4980,0.08,0.12,-0.99,3.54,-0.18,1.46
27.5150,0.08,0.12,-0.99,3.54,-0.24,1.40
27.5330,0.08,0.12,-0.99,3.66,-0.18,1.53
27.5480,0.09,0.12,-0.99,3.42,-0.06,1.53
27.5640,0.09,0.12,-0.99,3.30,-0.06,1.46
27.5810,0.09,0.12,-0.99,3.48,-0.12,1.71
27.5970,0.10,0.11,-0.99,3.66,-0.31,2.08
27.6120,0.08,0.12,-0.99,3.66,-0.49,2.14
27.6290,0.07,0.13,-0.99,3.66,-0.31,1.71
27.6450,0.07,0.12,-0.99,3.30,-0.18,1.28
27.6610,0.08,0.12,-0.99,3.54,0.00,1.04
27.6770,0.07,0.12,-0.99,3.72,0.06,1.22
27.6930,0.07,0.12,-0.99,3.66,0.00,1.28
27.7090,0.08,0.12,-0.99,3.36,0.37,1.28
27.7250,0.08,0.12,-0.99,3.05,0.00,1.34
27.7410,0.08,0.12,-0.99,3.48,-0.18,1.28
27.7480,0.08,0.12,-0.99,3.60,-0.06,1.40
27.7630,0.08,0.12,-0.99,3.91,-0.31,1.46
27.7860,0.08,0.12,-0.99,4.09,-0.06,1.65
27.8030,0.08,0.12,-0.99,3.78,-0.12,1.59
27.8190,0.08,0.12,-0.99,3.42,-0.06,1.28
27.8370,0.08,0.12,-0.99,3.66,-0.06,1.65
27.8520,0.08,0.12,-0.99,3.60,0.31,1.53
27.8680,0.08,0.12,-0.99,3.42,0.00,1.40
27.8840,0.08,0.12,-0.99,3.60,-0.43,1.28
27.8990,0.08,0.12,-0.99,3.54,0.00,1.46
27.9030,0.08,0.12,-0.99,3.36,0.00,1.40
27.9180,0.09,0.12,-0.99,3.60,-0.06,1.53
27.9430,0.08,0.12,-0.99,3.60,-0.73,1.40
27.9600,0.07,0.12,-0.99,3.36,-0.31,1.22
27.9760,0.08,0.12,-0.99,3.23,-0.31,1.28
27.9780,0.08,0.12,-0.99,3.48,-0.61,1.34
28.0040,0.08,0.12,-0.99,3.60,-0.24,1.46
28.0250,0.08,0.12,-0.99,3.85,-0.31,1.34
28.0400,0.08,0.12,-0.99,3.66,0.18,1.40
28.0430,0.08,0.12,-0.99,3.48,0.37,1.34
28.0590,0.08,0.12,-0.99,3.54,-0.18,1.16
28.0810,0.08,0.12,-0.99,3.66,0.31,1.46
28.0980,0.08,0.12,-0.99,3.85,-0.18,1.46
28.1140,0.09,0.12,-0.99,3.66,0.00,1.53
28.1320,0.08,0.12,-0.99,3.48,0.18,1.59
28.1480,0.09,0.12,-0.99,3.30,0.06,1.65
28.1650,0.07,0.12,-0.99,3.30,-0.12,1.46
28.1660,0.07,0.12,-0.99,3.23,-0.12,1.46
28.1950,0.07,0.12,-0.99,3.42,0.06,1.34
28.2110,0.08,0.12,-0.99,3.60,0.06,1.65
28.2270,0.09,0.12,-0.99,4.09,-0.24,1.53
28.2420,0.08,0.12,-0.99,3.54,-0.06,1.28
28.2590,0.08,0.12,-0.98,3.54,-0.43,1.46
28.2740,0.07,0.12,-0.99,3.54,-0.06,1.34
28.2910,0.07,0.12,-0.99,3.60,-0.24,1.46
28.3060,0.08,0.12,-0.99,3.85,0.18,1.40
28.3220,0.08,0.12,-0.99,3.48,-0.31,1.28
28.3370,0.08,0.12,-0.99,3.36,0.18,1.40
28.3480,0.08,0.12,-0.99,3.36,0.31,1.40
28.3640,0.08,0.12,-0.99,3.30,0.24,1.40
28.3810,0.08,0.12,-0.99,3.72,-0.37,1.46
28.3980,0.08,0.12,-0.99,3.72,-0.12,1.46
28.4150,0.08,0.12,-0.99,3.54,-0.06,1.34
28.4310,0.08,0.12,-0.99,3.66,-0.24,1.34
28.4460,0.09,0.12,-0.99,3.60,0.06,1.28
28.4630,0.07,0.12,-0.99,3.78,-0.43,1.22
28.4780,0.08,0.12,-0.99,3.48,-0.18,1.40
28.4950,0.08,0.12,-0.99,3.60,-0.12,1.40
28.5100,0.08,0.12,-0.99,3.48,-0.06,1.34
28.5270,0.08,0.12,-0.99,3.48,-0.43,1.28
28.5430,0.08,0.12,-0.99,3.54,-0.31,1.40
28.5480,0.08,0.12,-0.99,3.54,-0.06,1.28
28.5640,0.08,0.12,-0.99,3.48,-0.24,1.34
28.5870,0.08,0.12,-0.99,3.54,-0.18,1.40
28.6050,0.08,0.12,-0.99,3.54,-0.37,1.28
28.6210,0.08,0.12,-0.99,3.48,-0.55,1.40
28.6380,0.08,0.12,-0.99,3.72,0.06,1.34
28.6390,0.11,0.11,-0.99,3.85,-0.49,1.40
28.6680,0.08,0.12,-0.99,3.60,-0.37,1.59
28.6830,0.07,0.12,-0.99,3.60,0.06,1.77
28.6870,0.07,0.12,-0.99,3.42,-15.50,1.53
28.7050,0.08,0.12,-0.99,3.54,-0.43,1.34
28.7270,0.08,0.12,-0.99,3.36,-0.18,1.28
28.7450,0.08,0.12,-0.99,3.54,-0.24,1.34
28.7600,0.08,0.12,-0.99,3.72,-0.06,1.46
28.7770,0.08,0.12,-0.99,3.54,-0.31,1.28
28.7940,0.08,0.12,-0.99,3.66,-0.37,1.34
28.8090,0.08,0.12,-0.99,3.36,0.37,1.28
28.8250,0.08,0.12,-0.99,3.17,-0.12,1.34
28.8410,0.08,0.12,-0.99,3.60,-0.06,1.28
28.8560,0.08,0.12,-0.99,3.48,-0.12,1.34
28.8730,0.08,0.12,-0.99,3.48,-0.18,1.40
28.8880,0.08,0.12,-0.99,3.48,-0.06,1.28
28.9040,0.08,0.12,-0.99,3.54,0.00,1.28
28.9100,0.08,0.12,-0.99,3.60,-0.37,1.28
28.9260,0.08,0.12,-0.99,3.17,0.06,1.22
28.9490,0.08,0.12,-0.99,3.42,-0.06,1.16
28.9650,0.08,0.12,-0.99,3.30,0.06,1.10
28.9800,0.08,0.12,-0.99,3.42,0.00,1.28
28.9960,0.09,0.12,-0.99,3.48,0.49,1.28
29.0140,0.08,0.12,-0.99,3.48,0.24,0.73
29.0280,0.08,0.12,-0.99,3.66,-0.31,0.73
29.0440,0.07,0.12,-0.99,3.36,0.00,0.92
29.0590,0.07,0.12,-0.99,3.48,-0.24,0.98
29.0660,0.07,0.12,-0.99,3.42,-0.12,1.22
29.0810,0.08,0.12,-0.99,3.66,0.37,1.22
29.1060,0.08,0.12,-0.99,3.66,0.00,1.28
29.1210,0.08,0.12,-0.99,3.60,0.06,1.40
29.1390,0.08,0.12,-0.99,3.66,-0.37,1.40
29.1540,0.08,0.12,-0.99,3.60,0.00,1.34
29.1700,0.08,0.12,-0.99,3.42,0.18,1.40
29.1870,0.08,0.12,-0.99,3.60,-0.18,1.28
29.2030,0.08,0.12,-0.99,3.72,-0.18,1.34
29.2190,0.07,0.12,-0.99,3.72,0.06,1.46
29.2210,0.08,0.12,-0.99,3.66,0.00,1.46
29.2360,0.08,0.12,-0.99,3.48,0.00,1.46
29.2590,0.08,0.12,-0.99,3.23,0.12,1.59
29.2750,0.08,0.12,-0.99,3.48,-0.18,1.22
29.2930,0.08,0.12,-0.99,3.66,-0.43,1.28
29.3090,0.08,0.12,-0.99,3.60,-0.31,1.34
29.3270,0.08,0.12,-0.99,3.48,-0.24,1.40
29.3420,0.08,0.12,-0.99,3.48,0.00,1.40
29.3580,0.07,0.12,-0.99,3.60,-0.37,1.16
29.3600,0.08,0.12,-0.99,3.36,-0.37,1.10
29.3760,0.08,0.12,-0.99,3.48,-0.12,1.28
29.4060,0.07,0.12,-0.99,3.78,-0.43,1.34
29.4220,0.08,0.12,-0.99,3.66,-0.31,1.34
29.4260,0.07,0.12,-0.99,3.54,0.18,1.34
29.4420,0.08,0.12,-0.99,3.36,-0.06,1.34
29.4590,0.09,0.12,-0.99,3.60,-0.31,1.16
29.4750,0.09,0.12,-0.99,3.54,0.31,1.28
29.5000,0.09,0.12,-0.99,3.72,0.06,1.22
29.5090,0.09,0.12,-0.99,3.66,0.00,0.85
29.5380,0.09,0.12,-0.99,3.54,-0.24,0.55
29.5420,0.07,0.12,-0.99,3.30,-0.18,0.61
29.5590,0.08,0.13,-0.99,3.72,0.06,0.85
29.5740,0.07,0.12,-0.99,3.66,0.18,1.22
29.5940,0.06,0.12,-0.99,3.78,-0.37,1.22
29.6110,0.07,0.12,-0.99,3.72,-0.37,1.40
29.6270,0.08,0.12,-0.99,3.42,0.06,1.28
29.6430,0.08,0.12,-0.99,3.17,-0.06,1.34
29.6600,0.08,0.12,-0.99,3.60,-0.37,1.34
29.6770,0.08,0.12,-0.99,3.60,0.00,1.34
29.6940,0.08,0.12,-0.99,3.60,-0.43,1.40
29.7070,0.08,0.12,-0.99,3.85,-0.18,1.46
29.7110,0.08,0.12,-0.99,3.66,-0.24,1.53
29.7410,0.08,0.12,-0.99,3.72,-0.18,1.53
29.7570,0.08,0.12,-0.99,3.72,-0.18,1.46
29.7600,0.08,0.12,-0.99,3.30,0.12,1.46
29.7760,0.08,0.12,-0.99,3.66,0.12,1.53
29.7980,0.08,0.12,-0.99,3.85,0.00,1.40
29.8150,0.08,0.12,-0.99,3.66,0.18,1.40
29.8300,0.08,0.12,-0.99,3.60,0.24,1.59
29.8490,0.08,0.12,-0.99,3.11,0.92,1.46
29.8650,0.08,0.12,-0.99,3.30,-0.49,1.53
29.8800,0.08,0.12,-0.99,3.42,0.18,1.34
29.8850,0.08,0.12,-0.99,3.66,0.06,1.40
29.9070,0.08,0.12,-0.99,3.66,-0.18,1.46
29.9220,0.08,0.12,-0.99,3.54,-0.18,1.40
29.9380,0.08,0.12,-0.99,3.85,-0.43,1.46
29.9560,0.08,0.12,-0.99,3.72,0.31,1.53
29.9730,0.08,0.12,-0.99,3.54,-0.12,1.53
29.9890,0.08,0.12,-0.99,3.23,0.12,1.34
30.0050,0.08,0.12,-0.99,3.36,0.18,1.40
30.0220,0.08,0.12,-0.99,3.54,-0.12,1.28
30.0380,0.09,0.12,-0.99,3.66,0.00,1.40
30.0540,0.08,0.12,-0.99,3.30,-0.12,1.65
30.0700,0.08,0.12,-0.99,3.42,-0.12,1.71
30.0860,0.07,0.12,-0.99,3.48,-0.24,1.59
30.1010,0.09,0.12,-0.99,3.42,0.12,1.65
30.1160,0.08,0.12,-0.99,3.36,0.00,1.59
30.1320,0.08,0.12,-0.99,3.30,-0.12,1.28
30.1480,0.08,0.12,-0.99,3.17,0.00,1.40
30.1620,0.08,0.12,-0.99,3.05,0.06,1.59
30.1790,0.08,0.12,-0.99,3.42,-0.37,1.71
30.1890,0.08,0.12,-0.99,3.48,-0.31,1.71
30.2070,0.08,0.12,-0.99,3.54,0.18,1.53
30.2220,0.07,0.12,-0.99,3.60,-0.18,1.28
30.2390,0.07,0.12,-0.99,3.30,-0.24,1.22
30.2560,0.08,0.12,-0.99,3.48,-0.43,1.59
30.2720,0.08,0.12,-0.99,3.54,-0.24,1.46
30.2890,0.07,0.12,-0.99,3.23,-0.18,1.34
30.3040,0.08,0.12,-0.99,3.54,-0.37,1.34
30.3210,0.08,0.12,-0.99,3.72,-0.31,1.28
30.3370,0.08,0.12,-0.99,3.91,-0.18,1.22
30.3530,0.09,0.12,-0.99,3.36,-0.43,1.22
30.3690,0.09,0.12,-0.99,3.30,0.00,1.22
30.3840,0.08,0.12,-0.99,3.54,-0.55,1.22
30.4020,0.08,0.12,-0.99,3.42,-0.18,1.28
30.4170,0.09,0.12,-0.99,3.60,-0.24,1.28
30.4330,0.09,0.12,-0.99,3.36,-0.24,0.85
30.4480,0.08,0.12,-0.99,3.36,0.06,0.73
30.4560,0.07,0.13,-0.99,3.11,0.12,1.04
30.4720,0.06,0.12,-0.99,3.23,0.06,1.34
30.4870,0.08,0.12,-0.99,3.60,-0.55,1.34
30.5100,0.08,0.12,-0.99,3.72,-0.24,1.46
30.5260,0.08,0.12,-0.99,3.85,-0.24,1.46
30.5420,0.08,0.12,-0.99,3.78,-0.61,1.28
30.5580,0.09,0.12,-0.99,3.42,-0.49,1.28
30.5750,0.08,0.12,-0.99,3.48,-0.43,1.34
30.5900,0.07,0.13,-0.99,3.85,-0.12,1.46
30.5940,0.08,0.12,-0.99,3.60,-0.31,1.40
30.6090,0.08,0.12,-0.99,3.36,-0.12,1.40
30.6340,0.08,0.12,-0.99,3.30,-0.18,1.34
30.6490,0.08,0.12,-0.99,3.48,0.12,1.46
30.6660,0.08,0.12,-0.99,3.72,-0.18,1.40
30.6830,0.09,0.12,-0.99,3.54,0.06,1.46
30.6990,0.08,0.12,-0.99,3.48,-0.18,1.34
30.7150,0.07,0.13,-0.99,3.36,-0.18,1.16
30.7310,0.08,0.12,-0.98,3.48,0.00,0.98
30.7480,0.08,0.12,-0.99,3.48,-0.06,1.28
30.7630,0.08,0.12,-0.99,3.72,0.24,1.46
30.7790,0.08,0.12,-0.99,3.60,-0.37,1.28
30.7950,0.08,0.12,-0.99,3.23,-0.12,1.16
30.8110,0.08,0.12,-0.99,3.17,-0.31,1.34
30.8170,0.08,0.12,-0.99,3.23,-0.55,1.28
30.8410,0.08,0.12,-0.99,3.30,-0.24,1.28
30.8560,0.09,0.12,-0.99,3.78,-0.12,1.40
30.8670,0.08,0.12,-0.99,3.66,-0.49,1.16
30.8850,0.08,0.12,-0.99,3.66,-0.24,1.22
30.9000,0.07,0.13,-0.99,3.60,-0.49,1.22
30.9150,0.07,0.12,-0.99,3.17,-0.55,1.34
30.9310,0.08,0.12,-0.99,3.54,-0.31,1.46
30.9470,0.08,0.12,-0.99,3.36,0.00,1.28
30.9500,0.08,0.12,-0.99,3.17,-0.43,1.28
30.9660,0.08,0.12,-0.99,3.23,-0.18,1.28
30.9930,0.08,0.12,-0.99,3.11,-0.24,1.34
31.0080,0.08,0.12,-0.99,3.42,-0.49,1.40
31.0210,0.08,0.12,-0.99,3.30,-0.37,1.40
31.0390,0.08,0.12,-0.99,3.85,-0.55,1.95
31.0550,0.08,0.12,-0.99,3.72,-0.61,1.83
31.0710,0.07,0.12,-0.99,3.54,-0.37,1.65
31.0860,0.08,0.12,-0.99,3.66,-0.55,1.53
31.1010,0.08,0.12,-0.99,3.54,-0.18,1.46
31.1160,0.09,0.13,-0.99,3.48,-0.37,1.89
31.1320,0.08,0.12,-0.99,3.36,-0.18,2.32
31.1380,0.08,0.12,-0.99,3.85,-0.24,1.77
31.1530,0.08,0.12,-0.99,3.54,-0.43,1.59
31.1760,0.07,0.12,-0.99,3.54,-0.73,1.40
31.1920,0.08,0.12,-0.99,3.11,-0.31,1.53
31.2070,0.08,0.11,-0.98,3.30,-0.24,1.95
31.2230,0.08,0.12,-0.99,3.72,-0.06,1.77
31.2270,0.08,0.12,-0.99,3.66,-0.31,1.53
31.2440,0.07,0.12,-0.99,3.54,0.31,1.34
31.2590,0.07,0.12,-0.98,3.42,-0.24,1.34
31.2810,0.08,0.12,-0.99,3.30,-0.24,1.40
31.2970,0.08,0.12,-0.99,3.11,0.24,1.53
31.3140,0.08,0.12,-0.99,3.42,-0.31,1.22
31.3310,0.08,0.12,-0.99,3.42,-0.67,1.28
31.3460,0.08,0.12,-0.99,3.72,0.00,1.46
31.3630,0.08,0.12,-0.99,3.85,-0.12,1.53
31.3790,0.08,0.12,-0.99,3.36,-0.12,1.46
31.3940,0.08,0.12,-0.99,3.30,-0.24,1.65
31.4110,0.08,0.12,-0.99,3.36,-0.06,1.71
31.4270,0.08,0.12,-0.99,3.60,-0.24,1.34
31.4420,0.08,0.12,-0.99,3.66,0.12,1.53
31.4580,0.08,0.12,-0.99,3.48,-0.12,1.40
31.4640,0.08,0.12,-0.99,3.60,0.00,1.46
31.4800,0.08,0.12,-0.99,3.42,-0.12,1.28
31.5040,0.08,0.12,-0.99,3.54,-0.18,1.28
31.5210,0.08,0.12,-0.99,3.54,-0.37,1.40
31.5370,0.08,0.12,-0.99,3.30,-0.06,1.40
31.5530,0.08,0.12,-0.99,3.17,0.24,1.40
31.5690,0.08,0.12,-0.99,3.42,0.12,1.46
31.5840,0.08,0.12,-0.99,3.23,-0.18,1.34
31.6000,0.08,0.12,-0.99,3.17,0.00,1.28
31.6150,0.08,0.12,-0.99,2.99,-0.18,1.22
31.6210,0.08,0.12,-0.99,3.48,-0.24,1.28
31.6360,0.08,0.12,-0.99,3.54,-0.18,1.40
31.6600,0.08,0.12,-0.99,3.42,-0.43,1.22
31.6770,0.08,0.12,-0.99,3.54,-0.18,1.40
31.6930,0.09,0.12,-0.99,3.66,-0.18,1.46
31.7080,0.08,0.12,-0.99,3.66,-0.24,1.46
31.7100,0.09,0.13,-0.99,3.60,-0.12,1.40
31.7400,0.07,0.12,-0.99,3.30,-0.61,1.40
31.7560,0.08,0.12,-0.99,3.05,-0.18,1.34
31.7600,0.08,0.12,-0.99,3.54,0.18,1.59
31.7760,0.08,0.12,-0.99,3.78,-0.12,1.22
31.7920,0.07,0.12,-0.99,3.54,-0.18,1.46
31.8140,0.08,0.12,-0.99,3.54,-15.50,1.22
31.8320,0.08,0.12,-0.99,3.42,0.06,1.04
31.8480,0.08,0.12,-0.99,3.48,-0.12,1.22
31.8650,0.08,0.13,-0.99,3.48,0.12,1.16
31.8810,0.07,0.12,-0.99,3.48,-0.06,1.34
31.8970,0.08,0.12,-0.99,3.48,0.06,1.53
31.9140,0.08,0.12,-0.99,3.60,-0.31,1.40
31.9290,0.08,0.12,-0.99,3.60,-0.24,1.22
31.9450,0.08,0.12,-0.99,3.60,-0.12,1.16
31.9610,0.08,0.12,-0.99,3.48,-0.37,1.53
31.9770,0.08,0.12,-0.99,3.72,0.43,1.40
31.9930,0.08,0.12,-0.99,3.85,-0.18,1.40
32.0100,0.08,0.12,-0.99,3.54,0.00,1.46
32.0270,0.08,0.12,-0.99,3.60,0.37,1.22
32.0420,0.08,0.12,-0.99,3.42,0.18,1.22
32.0570,0.08,0.12,-0.99,3.48,-0.18,1.28
32.0650,0.08,0.12,-0.99,3.66,-0.49,1.10
32.0890,0.08,0.12,-0.99,3.42,-0.12,1.34
32.0980,0.08,0.12,-0.99,3.30,-0.31,1.16
32.1150,0.08,0.12,-0.99,3.30,-0.31,1.59
32.1320,0.08,0.12,-0.99,3.54,0.00,1.40
32.1480,0.08,0.12,-0.99,3.60,-0.24,1.46
32.1640,0.08,0.12,-0.99,3.42,0.24,1.46
32.1660,0.08,0.12,-0.99,3.60,0.24,1.46
32.1960,0.08,0.12,-0.99,3.30,-0.49,1.22
32.2110,0.08,0.12,-0.99,3.54,0.18,1.16
32.2270,0.08,0.12,-0.99,3.72,0.24,1.22
32.2430,0.08,0.12,-0.99,3.60,-0.24,1.16
32.2590,0.08,0.12,-0.98,3.36,-0.24,1.34
32.2660,0.08,0.12,-0.99,3.72,-0.49,1.22
32.2820,0.08,0.12,-0.99,3.72,-0.24,1.04
32.2990,0.08,0.12,-0.99,3.85,-0.61,1.16
32.3150,0.08,0.12,-0.99,3.23,-0.37,1.22
32.3360,0.08,0.12,-0.99,3.30,-0.43,1.22
32.3520,0.08,0.12,-0.99,3.36,-0.49,1.28
32.3690,0.08,0.12,-0.99,3.97,-0.55,1.34
32.3850,0.08,0.12,-0.99,3.78,-0.43,1.46
32.4000,0.08,0.12,-0.99,3.66,-0.12,1.46
32.4150,0.09,0.12,-0.99,3.66,0.06,1.28
32.4190,0.08,0.12,-0.99,3.66,0.18,0.92
32.4350,0.09,0.12,-0.98,3.42,-0.37,1.16
32.4580,0.09,0.13,-0.99,3.78,-0.43,1.77
32.4750,0.07,0.12,-0.99,3.54,-0.67,1.95
32.4920,0.05,0.13,-0.99,3.42,0.06,1.40
32.5090,0.07,0.12,-0.99,3.17,-0.18,1.22
32.5250,0.07,0.12,-0.99,3.36,-0.18,1.34
32.5420,0.08,0.12,-0.99,3.60,-0.24,1.53
32.5580,0.08,0.12,-0.99,3.91,-0.31,1.46
32.5600,0.08,0.12,-0.99,3.54,-0.43,1.16
32.5900,0.08,0.12,-0.99,3.17,-0.31,1.40
32.5920,0.08,0.12,-0.99,3.11,-0.18,1.40
32.6220,0.08,0.12,-0.99,3.42,-0.12,1.59
32.6260,0.08,0.12,-0.99,3.54,-0.06,1.34
32.6410,0.08,0.12,-0.99,3.78,-0.37,1.40
32.6630,0.08,0.12,-0.99,3.54,-0.37,1.40
32.6800,0.08,0.12,-0.99,3.60,-0.49,1.22
32.6970,0.08,0.12,-0.99,3.72,-0.31,1.40
32.7130,0.08,0.12,-0.99,3.66,-0.49,1.34
32.7300,0.08,0.12,-0.99,3.78,-0.49,1.34
32.7460,0.08,0.12,-0.99,3.60,-0.06,1.59
32.7620,0.08,0.12,-0.99,3.60,-0.12,1.22
32.7770,0.08,0.12,-0.99,3.60,-0.18,1.34
32.7930,0.08,0.12,-0.99,3.54,-0.37,1.28
32.8080,0.08,0.12,-0.99,3.54,-0.18,1.46
32.8240,0.08,0.12,-0.99,3.60,-0.31,1.28
32.8300,0.08,0.12,-0.99,3.72,-0.49,1.40
32.8540,0.08,0.12,-0.99,3.36,-0.12,1.22
32.8640,0.08,0.12,-0.99,3.48,-0.24,1.16
32.8800,0.08,0.12,-0.99,3.54,-0.49,1.16
32.8990,0.08,0.12,-0.99,3.66,-0.43,1.28
32.9090,0.08,0.12,-0.99,3.30,-0.24,1.28
32.9190,0.08,0.12,-0.99,3.42,-0.67,1.28
32.9370,0.08,0.12,-0.99,3.78,-0.37,1.34
32.9530,0.08,0.12,-0.99,3.78,-0.49,1.34
32.9690,0.08,0.12,-0.99,3.85,-0.31,1.40
32.9860,0.08,0.12,-0.99,3.72,0.06,1.40
33.0030,0.08,0.12,-0.99,3.66,-0.06,1.34
33.0190,0.08,0.12,-0.99,3.48,-0.18,1.22
33.0350,0.08,0.12,-0.99,3.54,-0.49,1.28
33.0500,0.08,0.12,-0.99,3.30,0.06,1.40
33.0530,0.08,0.12,-0.99,3.48,-0.49,1.46
33.0690,0.08,0.12,-0.99,3.54,-0.43,1.40
33.0920,0.09,0.12,-0.99,3.72,-0.73,1.53
33.1090,0.07,0.12,-0.99,3.66,-0.37,1.95
33.1250,0.08,0.12,-0.99,3.78,-0.31,1.46
33.1430,0.08,0.12,-0.99,3.60,-0.49,1.22
33.1580,0.08,0.12,-0.99,3.60,0.00,1.40
33.1740,0.08,0.12,-0.99,3.60,-0.73,1.34
33.1910,0.08,0.12,-0.98,3.72,-0.06,1.53
33.2070,0.08,0.12,-0.99,3.78,-0.12,1.34
33.2230,0.08,0.12,-0.99,3.36,-0.61,1.40
33.2250,0.08,0.12,-0.99,3.30,0.00,1.22
33.2410,0.09,0.12,-0.99,3.54,-0.18,1.22
33.2640,0.09,0.12,-0.99,4.27,-0.12,1.16
33.2820,0.07,0.13,-0.99,3.78,-0.18,1.34
33.2980,0.08,0.13,-0.99,3.78,-0.18,1.46
33.3140,0.07,0.12,-0.99,3.23,-0.31,1.40
33.3300,0.08,0.12,-0.99,3.11,-0.31,1.59
33.3460,0.08,0.12,-0.99,3.17,-0.12,1.53
33.3610,0.09,0.12,-0.99,3.36,-0.06,1.28
33.3770,0.08,0.12,-0.99,3.60,-0.31,1.34
33.3930,0.08,0.15,-0.99,3.36,0.12,1.16
33.4090,0.08,0.12,-0.99,3.36,-0.18,1.34
33.4240,0.08,0.12,-0.99,3.23,-0.18,1.28
33.4400,0.07,0.12,-0.99,3.66,-0.12,1.40
33.4540,0.08,0.12,-0.99,3.78,0.06,1.53
33.4650,0.08,0.12,-0.99,3.91,-0.18,1.28
33.4810,0.08,0.12,-0.99,3.60,-0.49,1.16
33.5010,0.08,0.12,-0.99,3.23,0.00,1.22
33.5160,0.07,0.12,-0.99,3.42,-0.37,1.40
33.5310,0.08,0.12,-0.99,3.48,-0.55,1.40
33.5470,0.08,0.12,-0.99,3.36,-0.12,1.40
33.5630,0.09,0.12,-0.99,3.30,-0.18,1.34
33.5790,0.07,0.12,-0.99,3.54,-0.37,0.98
33.5860,0.07,0.12,-0.99,3.42,-0.37,1.28
33.6080,0.08,0.12,-0.99,3.78,-0.43,1.22
33.6200,0.09,0.12,-0.99,3.66,0.00,1.10
33.6360,0.09,0.12,-0.99,3.72,-0.18,0.67
33.6530,0.10,0.13,-0.99,3.78,-0.37,0.73
33.6700,0.07,0.12,-0.99,3.97,-0.55,1.16
33.6710,0.09,0.13,-0.99,3.91,-0.43,1.40
33.7010,0.06,0.12,-0.99,3.30,-0.18,1.46
33.7170,0.08,0.12,-0.99,3.60,-0.18,1.16
33.7200,0.08,0.12,-0.99,3.54,0.06,1.16
33.7360,0.08,0.12,-0.99,3.42,-0.06,0.92
33.7570,0.08,0.12,-0.99,3.72,-0.43,1.16
33.7750,0.08,0.16,-0.99,3.85,-0.12,1.40
33.7910,0.07,0.12,-0.99,3.66,0.18,1.40
33.8100,0.07,0.12,-0.99,3.54,-0.12,1.34
33.8240,0.07,0.12,-0.99,3.78,-0.12,1.40
33.8400,0.08,0.12,-0.99,3.48,-0.12,1.22
33.8420,0.08,0.11,-0.98,2.93,0.00,1.22
33.8580,0.08,0.12,-0.99,3.30,-0.49,1.28
33.8740,0.08,0.12,-0.99,3.23,-0.24,1.22
33.8910,0.08,0.12,-0.99,3.72,-0.55,1.40
33.9100,0.08,0.12,-0.99,3.78,-0.06,1.53
33.9350,0.08,0.12,-0.99,3.66,-0.55,1.28
33.9500,0.08,0.12,-0.99,3.72,-0.31,1.28
33.9590,0.08,0.12,-0.99,3.48,-0.43,1.28
33.9760,0.07,0.12,-0.99,3.30,-0.18,1.22
33.9930,0.08,0.12,-0.99,3.48,-0.12,1.34
34.0110,0.08,0.12,-0.99,3.42,-0.31,1.53
34.0270,0.08,0.12,-0.99,3.91,-0.31,1.34
34.0430,0.08,0.12,-0.99,3.66,-0.55,1.28
34.0610,0.08,0.12,-0.98,3.42,-0.24,1.40
34.0760,0.08,0.12,-0.99,3.66,-0.43,1.34
34.0940,0.08,0.12,-0.99,3.85,0.06,1.28
34.1090,0.08,0.12,-0.99,3.72,-0.31,1.34
34.1250,0.08,0.12,-0.99,3.42,-0.37,1.34
34.1410,0.08,0.12,-0.99,3.60,-0.18,1.28
34.1570,0.08,0.12,-0.99,3.54,-0.18,1.40
34.1590,0.08,0.12,-0.99,3.91,-0.43,1.46
34.1750,0.08,0.12,-0.99,3.30,-0.24,1.34
34.1980,0.08,0.12,-0.99,3.72,0.00,1.53
34.2130,0.08,0.12,-0.99,3.66,-0.18,1.34
34.2300,0.08,0.12,-0.99,3.54,-0.24,1.28
34.2470,0.08,0.12,-0.99,3.60,-0.18,1.46
34.2640,0.08,0.12,-0.99,3.66,-0.49,1.40
34.2810,0.08,0.12,-0.99,3.48,-0.31,1.40
34.2970,0.08,0.12,-0.99,3.66,-0.73,1.53
34.3130,0.08,0.12,-0.99,3.91,-0.24,1.46
34.3140,0.08,0.12,-0.98,3.78,-0.43,1.34
34.3430,0.08,0.12,-0.99,3.72,0.00,1.40
34.3590,0.08,0.12,-0.99,3.85,-0.12,1.34
34.3740,0.08,0.12,-0.99,3.85,0.00,1.40
34.3900,0.08,0.12,-0.99,3.91,-0.43,1.34
34.4060,0.08,0.13,-0.99,3.72,-0.49,1.34
34.4130,0.08,0.13,-0.99,3.91,-0.61,1.34
34.4290,0.08,0.13,-0.99,4.21,-0.31,1.46
34.4510,0.08,0.13,-0.99,4.39,-0.24,1.40
34.4670,0.08,0.12,-0.99,3.78,-0.55,1.22
34.4820,0.08,0.12,-0.99,3.91,-0.31,1.16
34.4970,0.08,0.12,-0.99,3.36,-0.31,1.16
34.5130,0.08,0.12,-0.99,3.23,-0.49,1.16
34.5290,0.08,0.12,-0.98,3.17,-0.43,1.10
34.5430,0.08,0.12,-0.99,3.05,0.06,1.22
34.5580,0.08,0.12,-0.99,3.05,-0.24,1.34
34.5690,0.08,0.12,-0.98,2.99,-0.73,1.34
34.5860,0.08,0.11,-0.98,3.17,0.37,1.46
34.6020,0.08,0.12,-0.99,2.56,-0.18,1.22
34.6180,0.08,0.12,-0.99,3.05,-0.24,1.40
34.6350,0.08,0.12,-0.99,3.30,-0.18,1.40
34.6520,0.08,0.12,-0.98,3.30,-0.31,1.40
34.6680,0.08,0.12,-0.99,3.17,-0.43,1.16
34.6840,0.08,0.12,-0.99,3.17,-0.55,1.16
34.7010,0.08,0.12,-0.99,3.72,-0.31,1.22
34.7170,0.08,0.12,-0.99,3.60,-0.55,1.53
34.7330,0.08,0.12,-0.99,3.60,-0.67,1.40
34.7480,0.08,0.12,-0.99,3.54,-0.43,1.34
34.7640,0.08,0.12,-0.99,3.48,-0.31,1.40
34.7790,0.08,0.12,-0.99,3.72,-0.43,1.53
34.7940,0.08,0.12,-0.99,3.48,-0.12,1.46
34.8100,0.08,0.12,-0.99,3.66,-0.73,1.34
34.8250,0.08,0.12,-0.99,3.54,-0.67,1.59
34.8360,0.08,0.12,-0.99,3.36,-0.55,1.28
34.8520,0.08,0.12,-0.99,3.30,-0.49,1.34
34.8700,0.08,0.12,-0.99,3.54,-0.49,1.22
34.8850,0.08,0.12,-0.99,3.48,-0.37,1.40
34.9020,0.08,0.12,-0.99,3.48,-0.37,1.28
34.9190,0.08,0.12,-0.99,3.42,-0.55,1.34
34.9350,0.08,0.12,-0.99,3.36,-0.24,1.28
34.9510,0.08,0.12,-0.99,3.11,-0.43,1.28
34.9680,0.08,0.12,-0.99,3.36,-0.18,1.22
34.9700,0.08,0.12,-0.99,3.23,-0.31,1.28
34.9990,0.08,0.12,-0.99,3.30,-0.37,1.40
35.0140,0.08,0.12,-0.99,3.48,-0.61,1.22
35.0300,0.08,0.12,-0.99,3.72,-0.73,1.34
35.0450,0.08,0.12,-0.99,3.42,-0.37,1.28
35.0600,0.08,0.12,-0.99,3.36,-0.37,1.22
35.0690,0.08,0.12,-0.99,3.54,-0.37,1.34
35.0850,0.08,0.12,-0.99,3.54,-0.24,1.22
35.1080,0.08,0.12,-0.99,3.48,0.12,1.40
35.1230,0.08,0.12,-0.99,3.60,-0.31,1.40
35.1390,0.08,0.12,-0.99,3.48,-0.37,1.34
35.1540,0.08,0.12,-0.99,3.54,-0.12,1.40
35.1700,0.08,0.12,-0.99,3.78,-0.12,1.40
35.1850,0.08,0.12,-0.99,3.66,-0.12,1.46
35.1910,0.08,0.12,-0.99,3.78,-0.12,1.34
35.2110,0.08,0.12,-0.99,3.66,-0.43,1.34
35.2310,0.08,0.12,-0.99,3.36,0.12,1.28
35.2470,0.08,0.12,-0.99,3.91,0.06,1.34
35.2630,0.08,0.12,-0.99,3.78,-0.43,1.16
35.2790,0.08,0.12,-0.99,4.09,-0.61,1.04
35.2820,0.07,0.12,-0.99,3.72,-0.18,1.40
35.3110,0.08,0.12,-0.99,3.66,-0.73,1.28
35.3140,0.09,0.13,-0.99,3.54,0.00,1.40
35.3360,0.09,0.12,-0.98,3.36,-0.12,0.98
35.3530,0.08,0.12,-0.99,3.78,-0.31,1.40
35.3690,0.07,0.12,-0.99,3.85,-0.49,1.22
35.3860,0.08,0.12,-0.99,3.54,0.00,1.28
35.4020,0.08,0.12,-0.99,3.23,-0.24,1.40
35.4200,0.08,0.12,-0.99,3.60,-0.37,1.40
35.4360,0.08,0.12,-0.99,3.97,-0.37,1.59
35.4520,0.08,0.12,-0.99,4.03,-0.43,1.46
35.4670,0.08,0.12,-0.99,3.48,-0.31,1.46
35.4830,0.08,0.13,-0.99,3.72,-0.37,1.34
35.4860,0.08,0.12,-0.99,3.42,-0.61,1.40
35.5110,0.08,0.12,-0.99,3.54,-0.24,1.28
35.5240,0.08,0.13,-0.99,3.54,-0.24,1.59
35.5410,0.07,0.13,-0.99,3.48,-0.61,1.34
35.5570,0.07,0.12,-0.99,3.42,-0.31,1.40
35.5750,0.08,0.12,-0.99,3.60,-0.67,1.28
35.5920,0.08,0.12,-0.99,3.66,-0.12,1.34
35.6070,0.08,0.12,-0.99,3.60,0.00,1.34
35.6240,0.07,0.13,-0.99,3.48,-0.24,1.22
35.6400,0.08,0.12,-0.99,3.54,-0.37,1.40
35.6560,0.08,0.12,-0.99,3.54,0.18,1.40
35.6720,0.08,0.12,-0.99,3.66,-0.24,1.34
35.6890,0.08,0.12,-0.99,3.85,-0.61,1.22
35.7050,0.09,0.11,-0.99,3.78,-0.18,0.85
35.7110,0.08,0.12,-0.99,3.78,-0.31,0.61
35.7370,0.08,0.13,-0.99,3.66,-0.67,0.85
35.7530,0.08,0.12,-0.99,3.60,-0.49,1.28
35.7580,0.08,0.12,-0.99,3.85,-0.12,1.28
35.7730,0.08,0.12,-0.99,3.72,-0.12,0.55
35.7960,0.08,0.12,-0.99,3.48,-0.49,-0.06
35.8130,0.08,0.12,-0.99,3.66,0.06,0.73
35.8290,0.07,0.13,-0.99,3.72,-0.55,0.79
35.8490,0.08,0.12,-0.99,3.66,-0.24,1.28
35.8650,0.08,0.12,-0.99,3.66,-0.37,1.40
35.8810,0.08,0.12,-0.99,3.54,-0.43,1.28
35.8960,0.08,0.12,-0.99,3.48,-0.43,1.22
35.9120,0.08,0.12,-0.99,3.91,-0.67,1.28
35.9290,0.08,0.12,-0.99,3.66,-0.43,1.40
35.9430,0.08,0.12,-0.99,3.72,-0.24,1.22
35.9590,0.08,0.12,-0.99,3.60,-0.67,0.85
35.9700,0.08,0.13,-0.99,3.48,-0.31,1.10
35.9860,0.08,0.12,-0.99,3.23,-0.18,1.46
36.0030,0.08,0.12,-0.99,3.30,-0.55,1.46
36.0200,0.08,0.12,-0.99,3.85,-0.79,1.28
36.0360,0.08,0.12,-0.99,3.85,-0.43,1.28
36.0510,0.08,0.12,-0.99,3.97,-0.49,1.16
36.0680,0.08,0.12,-0.99,3.66,-0.24,0.85
36.0830,0.08,0.12,-0.99,3.66,-0.43,0.67
36.0990,0.08,0.12,-0.99,3.78,-0.18,1.04
36.1140,0.08,0.12,-0.99,3.85,-0.31,0.92
36.1300,0.08,0.13,-0.99,3.85,-0.18,0.37
36.1470,0.08,0.12,-0.99,3.85,-0.49,0.85
36.1630,0.08,0.13,-0.99,3.66,-0.31,0.79
36.1780,0.08,0.12,-0.99,3.85,-0.24,0.92
36.1930,0.08,0.12,-0.99,3.66,-0.55,0.73
36.2080,0.08,0.12,-0.99,3.66,-0.61,0.61
36.2200,0.08,0.12,-0.99,3.66,-0.31,0.92
36.2360,0.08,0.12,-0.99,3.72,-0.37,0.61
36.2530,0.08,0.12,-0.99,3.78,-0.67,0.79
36.2700,0.08,0.12,-0.99,3.78,-0.43,0.73
36.2860,0.08,0.12,-0.99,3.54,-0.24,0.73
36.3020,0.08,0.12,-0.99,3.66,-0.31,0.92
36.3190,0.08,0.12,-0.99,3.85,-0.18,0.49
36.3350,0.07,0.13,-0.99,3.85,-0.37,0.24
36.3500,0.08,0.13,-0.99,3.42,-0.37,1.16
36.3660,0.08,0.12,-0.99,3.66,-0.24,1.34
36.3810,0.08,0.12,-0.99,3.66,-0.49,1.28
36.3970,0.08,0.12,-0.99,3.85,-0.18,0.92
36.4120,0.08,0.13,-0.99,3.78,-0.37,0.55
36.4290,0.08,0.12,-0.99,3.60,-0.06,1.40
36.4440,0.08,0.12,-0.99,3.54,-0.18,1.34
36.4530,0.09,0.12,-0.99,3.60,-0.12,1.04
36.4690,0.08,0.12,-0.99,3.97,-0.06,0.00
36.4900,0.08,0.12,-0.99,3.85,0.06,-0.06
36.5080,0.08,0.12,-0.99,3.85,-0.18,0.37
36.5110,0.08,0.13,-0.99,3.78,-0.06,-0.24
36.5250,0.08,0.13,-0.99,3.72,-0.24,-0.24
36.5570,0.08,0.13,-0.99,3.54,-0.43,0.73
36.5580,0.08,0.12,-0.99,3.60,-0.12,1.28
36.5740,0.08,0.12,-0.99,3.60,-0.43,0.98
36.5970,0.08,0.13,-0.99,3.48,-0.06,1.04
36.6140,0.08,0.12,-0.99,3.48,-0.73,1.28
36.6310,0.08,0.12,-0.99,3.48,-0.49,1.40
36.6480,0.08,0.12,-0.99,3.72,-0.73,1.28
36.6650,0.08,0.12,-0.99,3.60,-0.85,0.92
36.6810,0.08,0.12,-0.99,3.66,-0.31,0.00
36.6970,0.08,0.13,-0.99,3.66,-0.24,0.06
36.7140,0.08,0.12,-0.99,3.48,-0.18,0.79
36.7150,0.08,0.12,-0.99,3.78,-0.24,0.67
36.7460,0.08,0.12,-0.99,3.66,-0.24,0.61
36.7630,0.08,0.12,-0.99,3.66,0.00,0.73
36.7790,0.08,0.12,-0.99,3.78,-0.49,-0.12
36.7950,0.08,0.13,-0.99,3.91,0.18,-0.92
36.8100,0.08,0.13,-0.99,3.72,0.00,-0.06
36.8260,0.08,0.13,-0.99,3.85,-0.31,0.55
36.8420,0.08,0.13,-0.99,3.66,-0.37,1.04
36.8570,0.08,0.12,-0.99,3.54,-0.37,1.04
36.8640,0.08,0.13,-0.99,3.60,-0.12,0.85
36.8790,0.08,0.12,-0.99,3.78,-0.31,1.28
36.9030,0.08,0.12,-0.99,3.78,-0.31,0.98
36.9190,0.08,0.13,-0.99,3.78,0.18,-0.18
36.9350,0.08,0.12,-0.99,3.72,0.00,0.31
36.9520,0.08,0.12,-0.99,3.66,-0.24,0.24
36.9680,0.08,0.13,-0.99,3.72,-0.12,-0.06
36.9840,0.08,0.13,-0.99,3.97,-0.12,0.31
36.9860,0.08,0.11,-0.99,3.72,0.24,-0.06
37.0110,0.08,0.12,-0.99,3.72,-0.06,-0.43
37.0280,0.08,0.15,-0.98,3.60,0.18,-0.85
37.0450,0.08,0.13,-0.99,3.85,-0.12,1.28
37.0610,0.08,0.12,-0.99,3.85,-0.06,1.40
37.0790,0.08,0.12,-0.99,3.72,0.18,1.28
37.0940,0.08,0.12,-0.99,3.91,-0.37,1.40
37.1100,0.08,0.12,-0.99,3.60,-0.18,1.28
37.1260,0.08,0.12,-0.98,3.48,-0.49,1.16
37.1270,0.08,0.12,-0.98,3.48,-0.18,1.34
37.1450,0.08,0.12,-0.99,3.60,-0.24,1.40
37.1600,0.08,0.12,-0.99,3.60,0.00,1.53
37.1900,0.08,0.12,-0.99,3.97,-0.31,1.46
37.1930,0.08,0.13,-0.99,3.42,-0.37,1.16
37.2110,0.08,0.12,-0.99,3.72,-0.85,1.10
37.2310,0.08,0.12,-0.99,3.85,-0.49,1.22
37.2480,0.08,0.12,-0.99,3.66,-0.24,1.34
37.2640,0.08,0.12,-0.99,3.60,-0.12,1.40
37.2820,0.08,0.12,-0.99,3.42,-0.55,0.92
37.2980,0.08,0.12,-0.99,3.42,0.12,1.04
37.3140,0.08,0.12,-0.99,3.42,-0.06,1.28
37.3300,0.08,0.12,-0.99,3.72,-0.24,0.79
37.3320,0.08,0.12,-0.99,3.60,-0.06,0.00
37.3470,0.08,0.12,-0.99,3.72,-0.24,-0.06
37.3710,0.08,0.13,-0.99,3.78,-0.31,0.12
37.3880,0.08,0.13,-0.99,3.66,-0.67,1.04
37.4050,0.08,0.13,-0.99,3.48,-0.43,1.40
37.4220,0.08,0.12,-0.99,3.48,-0.49,1.28
37.4380,0.08,0.12,-0.98,3.30,0.00,1.40
37.4530,0.08,0.12,-0.99,3.54,-0.12,1.40
37.4700,0.08,0.12,-0.99,3.72,-0.61,1.40
37.4860,0.08,0.12,-0.99,3.85,-0.31,1.22
37.5030,0.08,0.12,-0.99,3.72,-0.43,1.28
37.5190,0.08,0.12,-0.99,3.66,-0.49,1.28
37.5220,0.08,0.12,-0.99,3.66,-0.73,1.04
37.5380,0.08,0.12,-0.99,3.36,-0.18,0.55
37.5600,0.08,0.13,-0.99,3.72,-0.12,0.55
37.5770,0.08,0.12,-0.99,3.85,-0.49,0.98
37.5930,0.08,0.12,-0.99,3.54,-0.31,0.79
37.6120,0.08,0.11,-0.99,3.78,-0.43,0.31
37.6270,0.08,0.12,-0.99,3.60,-0.06,-0.55
37.6440,0.08,0.13,-0.99,3.85,-0.31,-1.04
37.6600,0.08,0.14,-0.99,3.66,-0.55,-0.43
37.6760,0.08,0.13,-0.99,3.85,-0.37,0.55
37.6770,0.08,0.12,-0.99,3.66,-0.73,1.04
37.7080,0.08,0.12,-0.99,3.91,-0.43,1.10
37.7240,0.08,0.12,-0.99,3.72,-0.37,1.10
37.7270,0.08,0.12,-0.99,3.66,-0.43,0.85
37.7430,0.08,0.13,-0.98,3.48,0.00,0.37
37.7580,0.08,0.13,-0.99,3.72,-0.06,1.10
37.7830,0.08,0.12,-0.99,3.72,-0.43,1.04
37.8000,0.08,0.12,-0.99,3.78,-0.18,1.16
37.8180,0.08,0.12,-0.99,3.91,-0.43,1.10
37.8330,0.08,0.12,-0.99,3.66,0.00,0.55
37.8480,0.08,0.12,-0.99,3.66,-0.12,0.49
37.8630,0.08,0.11,-0.99,3.60,0.12,-0.43
37.8800,0.08,0.13,-0.98,3.54,-0.06,-0.55
37.8960,0.08,0.14,-0.98,3.54,0.06,0.67
37.9120,0.08,0.12,-0.99,3.66,-0.18,1.53
37.9160,0.08,0.12,-0.99,3.85,-0.06,1.46
37.9390,0.08,0.13,-0.99,3.66,-0.43,1.53
37.9560,0.08,0.12,-0.99,3.72,-0.55,1.34
37.9720,0.08,0.12,-0.99,3.72,-0.37,1.22
37.9900,0.08,0.12,-0.99,3.66,-0.61,1.28
38.0050,0.08,0.12,-0.99,3.97,-0.31,1.40
38.0210,0.08,0.12,-0.99,3.54,-0.55,1.53
38.0370,0.08,0.11,-0.99,3.72,0.00,1.16
38.0540,0.08,0.12,-0.99,3.91,-0.49,0.49
38.0600,0.08,0.12,-0.99,4.03,0.00,0.49
38.0760,0.08,0.12,-0.99,3.78,-0.12,0.06
38.0990,0.08,0.11,-0.99,3.78,-0.18,-0.92
38.1150,0.08,0.12,-0.99,3.78,0.31,-1.59
38.1310,0.08,0.14,-0.99,3.78,0.24,-0.55
38.1470,0.08,0.14,-0.98,3.78,-0.12,0.73
38.1630,0.08,0.12,-0.99,3.48,-0.37,1.16
38.1790,0.08,0.12,-0.99,3.36,-0.31,1.34
38.1950,0.08,0.12,-0.99,3.85,-0.43,1.53
38.1980,0.08,0.12,-0.99,3.78,-0.49,1.28
38.2260,0.08,0.12,-0.99,3.78,-0.06,1.28
38.2410,0.08,0.12,-0.99,3.78,-0.37,1.34
38.2570,0.08,0.12,-0.99,3.54,0.00,1.46
38.2730,0.08,0.12,-0.99,3.91,-0.37,1.40
38.2880,0.08,0.12,-0.99,3.54,-0.12,1.53
38.2980,0.08,0.12,-0.99,3.85,-0.18,1.40
38.3150,0.08,0.12,-0.99,3.85,-0.06,1.34
38.3310,0.08,0.12,-0.99,3.66,0.00,1.28
38.3480,0.08,0.12,-0.99,3.72,-0.49,1.28
38.3650,0.08,0.12,-0.99,3.78,-0.49,0.85
38.3800,0.08,0.12,-0.99,3.66,0.12,0.61
38.3950,0.08,0.11,-0.99,3.72,0.31,0.55
38.4110,0.07,0.11,-0.99,3.72,0.49,-0.43
38.4260,0.08,0.11,-0.99,3.78,-0.18,-0.73
38.4430,0.08,0.13,-0.99,3.72,0.18,-1.65
38.4580,0.09,0.15,-0.98,3.42,0.00,-0.24
38.4730,0.09,0.14,-0.98,3.42,-0.92,1.34
38.4810,0.08,0.12,-0.99,3.36,-0.37,1.34
38.4980,0.08,0.12,-0.99,3.72,-0.73,1.40
38.5150,0.08,0.12,-0.99,3.78,-0.31,1.28
38.5310,0.08,0.12,-0.99,3.85,-0.12,1.40
38.5490,0.08,0.13,-0.99,3.72,-0.37,0.73
38.5650,0.08,0.12,-0.99,3.60,-0.24,1.28
38.5810,0.08,0.12,-0.99,3.54,-0.18,1.22
38.5960,0.08,0.12,-0.99,3.42,-0.06,1.28
38.6110,0.08,0.12,-0.99,3.66,-0.37,1.16
38.6140,0.08,0.12,-0.99,3.66,-0.24,1.16
38.6300,0.08,0.11,-0.99,3.66,-0.24,0.79
38.6530,0.08,0.12,-0.99,3.72,-0.12,0.31
38.6690,0.08,0.12,-0.99,3.78,-0.31,0.37
38.6870,0.08,0.13,-0.99,3.66,-0.73,0.31
38.7020,0.08,0.12,-0.99,3.85,-0.31,0.49
38.7200,0.08,0.12,-0.99,3.54,-0.24,0.31
38.7350,0.08,0.12,-0.99,3.78,-0.06,0.12
38.7370,0.08,0.11,-0.99,3.78,0.43,-0.73
38.7680,0.08,0.13,-0.99,4.03,0.00,-1.16
38.7830,0.08,0.13,-0.99,3.66,-0.06,0.12
38.7860,0.09,0.14,-0.98,3.72,-0.55,0.55
38.8120,0.08,0.13,-0.99,3.66,-0.79,1.34
38.8250,0.08,0.12,-0.99,3.78,-0.73,1.22
38.8410,0.08,0.12,-0.99,3.85,-0.43,1.10
38.8580,0.08,0.11,-0.99,3.97,-0.24,-0.12
38.8750,0.08,0.13,-0.98,3.78,-0.37,-0.37
38.8930,0.08,0.13,-0.99,3.72,0.31,0.61
38.9080,0.08,0.13,-0.99,3.60,0.06,1.10
38.9250,0.08,0.12,-0.99,3.60,0.00,1.40
38.9410,0.08,0.11,-0.99,3.66,-0.18,1.04
38.9420,0.08,0.13,-0.98,3.54,-0.12,-0.24
38.9730,0.08,0.12,-0.99,3.91,-0.18,0.85
38.9750,0.07,0.11,-0.99,3.85,-0.18,0.73
38.9920,0.08,0.11,-0.99,3.66,0.31,-0.06
39.0130,0.08,0.15,-0.98,3.85,0.12,-1.16
39.0250,0.09,0.14,-0.99,4.09,-0.24,-0.37
39.0420,0.08,0.14,-0.98,3.91,-0.31,0.55
39.0680,0.08,0.12,-0.99,3.85,-0.06,1.46
39.0830,0.08,0.12,-0.99,3.85,0.00,1.40
39.0990,0.08,0.11,-0.99,3.60,0.12,1.40
39.1130,0.08,0.12,-0.99,3.78,-0.37,0.06
39.1260,0.08,0.12,-0.99,3.66,-0.55,0.00
39.1410,0.08,0.13,-0.99,3.60,-0.06,0.73
39.1610,0.08,0.13,-0.99,3.48,0.00,1.28
39.1770,0.08,0.12,-0.99,3.36,-0.55,1.28
39.1920,0.08,0.12,-0.99,3.60,-0.61,1.22
39.2070,0.08,0.11,-0.99,3.54,-0.43,1.16
39.2230,0.08,0.11,-0.99,3.42,-0.18,-0.61
39.2300,0.08,0.11,-0.99,3.85,0.37,-2.08
39.2460,0.08,0.13,-0.98,3.97,-0.18,-1.28
39.2680,0.08,0.15,-0.98,3.72,0.12,-0.55
39.2850,0.08,0.13,-0.99,3.54,-0.55,0.85
39.3020,0.08,0.12,-0.99,3.66,-0.55,1.28
39.3180,0.08,0.12,-0.99,3.60,-0.49,1.28
39.3350,0.08,0.11,-0.99,3.91,-0.61,0.67
39.3510,0.08,0.11,-0.99,3.60,0.00,-0.12
39.3530,0.08,0.13,-0.99,3.54,-0.31,-0.18
39.3840,0.08,0.13,-0.99,3.85,-0.24,0.18
39.3990,0.08,0.13,-0.99,4.09,-0.43,0.31
39.4130,0.08,0.13,-0.99,3.91,-0.49,0.55
39.4280,0.08,0.13,-0.98,3.85,0.12,0.55
39.4440,0.08,0.12,-0.99,3.66,-0.43,0.12
39.4590,0.08,0.12,-0.99,3.66,0.24,-0.18
39.4680,0.08,0.14,-0.99,3.66,-0.18,-0.31
39.4840,0.08,0.13,-0.99,3.78,-0.49,0.85
39.5070,0.08,0.13,-0.99,3.48,-0.49,1.22
39.5220,0.08,0.12,-0.99,3.60,-0.37,1.28
39.5380,0.08,0.12,-0.99,3.42,-0.31,0.98
39.5530,0.08,0.12,-0.99,3.60,-0.31,1.16
39.5700,0.08,0.12,-0.99,3.66,-0.31,0.79
39.5860,0.08,0.12,-0.99,3.60,-0.18,0.00
39.6020,0.08,0.12,-0.99,3.48,-0.24,0.18
39.6180,0.08,0.13,-0.99,3.78,-0.18,0.67
39.6340,0.08,0.13,-0.99,3.91,-0.49,1.34
39.6500,0.08,0.11,-0.99,3.78,-0.31,0.73
39.6660,0.08,0.13,-0.99,3.85,-0.31,0.73
39.6810,0.08,0.12,-0.99,3.91,-0.43,0.85
39.6970,0.08,0.12,-0.99,3.48,-0.31,0.61
39.7120,0.08,0.12,-0.99,3.42,-0.49,0.06
39.7210,0.08,0.13,-0.99,3.60,-0.06,0.00
39.7380,0.08,0.13,-0.99,3.60,0.06,0.49
39.7550,0.08,0.13,-0.99,3.66,-0.06,0.67
39.7710,0.08,0.12,-0.99,3.91,-0.37,0.67
39.7890,0.08,0.12,-0.99,3.97,-0.24,0.43
39.8050,0.08,0.12,-0.99,3.78,-0.12,0.49
39.8200,0.08,0.11,-0.99,3.54,-0.43,-0.24
39.8360,0.08,0.13,-0.98,3.91,-0.61,-1.04
39.8520,0.08,0.13,-0.99,3.60,-0.37,-0.18
39.8670,0.08,0.13,-0.99,3.72,-0.43,0.24
39.8820,0.08,0.12,-0.99,3.66,-0.06,0.31
39.8980,0.08,0.13,-0.99,3.78,-0.12,0.18
39.9130,0.08,0.12,-0.99,3.72,-0.49,0.37
39.9210,0.08,0.12,-0.98,3.78,0.12,0.61
39.9380,0.08,0.12,-0.99,3.85,-0.06,0.55
39.9550,0.08,0.12,-0.99,3.72,0.06,0.18
39.9710,0.08,0.13,-0.98,3.72,-0.18,-0.18
39.9880,0.08,0.13,-0.99,3.78,-0.43,0.31
40.0030,0.08,0.13,-0.99,3.85,-0.37,1.16
40.0180,0.08,0.13,-0.99,3.91,-0.43,1.16
40.0280,0.08,0.12,-0.99,3.97,0.06,1.46
40.0450,0.08,0.13,-0.99,3.85,-0.31,1.40
40.0600,0.08,0.12,-0.99,3.91,-0.49,1.46
40.0780,0.08,0.12,-0.99,3.78,-0.06,1.34
40.0920,0.08,0.13,-0.99,3.30,0.00,1.16
40.1080,0.08,0.12,-0.99,3.48,-0.37,0.92
40.1180,0.08,0.13,-0.99,3.66,-0.24,0.67
40.1340,0.08,0.12,-0.99,3.66,0.00,0.67
40.1510,0.08,0.11,-0.99,3.66,0.18,0.49
40.1680,0.08,0.12,-0.98,3.78,0.00,-1.04
40.1830,0.07,0.11,-0.99,3.72,0.24,-1.95
40.2000,0.08,0.14,-0.98,3.60,-0.18,-2.32
40.2160,0.08,0.13,-0.98,3.72,-0.24,-0.55
40.2330,0.08,0.13,-0.99,3.54,-0.18,-0.31
40.2330,0.08,0.13,-0.98,3.66,0.12,0.06
40.2550,0.08,0.13,-0.99,3.72,-0.12,0.98
40.2720,0.08,0.12,-0.99,3.85,-0.31,1.16
40.2900,0.08,0.12,-0.99,3.66,-0.18,0.67
40.3060,0.08,0.11,-0.99,3.78,-0.37,-0.31
40.3220,0.08,0.10,-0.99,4.03,0.12,-1.28
40.3390,0.08,0.13,-0.98,3.97,0.18,-1.89
40.3550,0.08,0.13,-0.99,3.78,0.00,-0.55
40.3730,0.08,0.15,-0.98,3.78,0.06,0.00
40.3880,0.08,0.15,-0.99,3.72,-0.37,0.85
40.4060,0.08,0.13,-0.99,2.81,-0.06,1.28
40.4220,0.08,0.12,-0.99,2.99,-0.37,1.16
40.4380,0.08,0.12,-0.99,3.05,-0.18,1.16
40.4400,0.08,0.12,-0.99,3.66,-0.31,1.22
40.4690,0.08,0.12,-0.99,3.54,-0.43,1.22
40.4720,0.08,0.13,-0.99,3.60,-0.73,1.10
40.4880,0.08,0.12,-0.98,3.30,0.00,1.22
40.5160,0.08,0.12,-0.99,4.03,-0.67,0.79
40.5270,0.07,0.12,-0.99,3.72,-0.06,-0.24
40.5430,0.08,0.12,-0.99,3.66,-0.12,-0.73
40.5620,0.08,0.13,-0.99,3.97,-0.06,-0.79
40.5780,0.08,0.12,-0.99,4.09,-0.61,0.43
40.5940,0.08,0.12,-0.99,3.97,0.06,-0.98
40.6100,0.08,0.13,-0.98,4.03,-0.37,-0.24
40.6250,0.08,0.13,-0.99,3.78,-0.43,1.04
40.6410,0.08,0.12,-0.98,3.72,-0.37,1.22
40.6550,0.08,0.10,-0.99,3.54,0.37,0.55
40.6670,0.08,0.12,-0.99,4.09,0.43,-1.46
40.6830,0.08,0.13,-0.99,4.03,0.06,-0.24
40.7010,0.08,0.13,-0.99,3.60,-0.24,0.67
40.7170,0.08,0.13,-0.98,3.66,-0.31,0.85
40.7330,0.08,0.13,-0.99,3.72,-0.24,0.85
40.7490,0.08,0.13,-0.99,3.54,0.00,0.98
40.7640,0.08,0.13,-0.99,3.36,-0.24,1.16
40.7790,0.08,0.12,-0.99,3.66,0.18,1.22
40.7960,0.08,0.11,-0.99,3.78,-0.12,-0.24
40.8120,0.08,0.12,-0.99,3.78,0.18,-0.55
40.8170,0.08,0.13,-0.99,3.54,-0.31,0.37
40.8440,0.08,0.13,-0.99,3.60,-0.06,0.67
40.8500,0.08,0.13,-0.99,3.54,-0.73,0.73
40.8660,0.08,0.13,-0.98,3.36,-0.06,1.04
40.8870,0.08,0.13,-0.98,3.42,-0.24,1.16
40.9040,0.08,0.12,-0.99,3.60,-0.43,0.67
40.9210,0.08,0.13,-0.98,3.66,0.00,0.85
40.9380,0.08,0.12,-0.99,3.48,0.00,0.92
40.9540,0.08,0.11,-0.99,3.78,-0.31,0.55
40.9710,0.08,0.13,-0.99,3.72,-0.18,-0.31
40.9880,0.08,0.12,-0.99,3.72,-0.24,-0.12
41.0040,0.08,0.12,-0.99,3.60,0.06,-0.49
41.0190,0.08,0.12,-0.99,3.66,0.00,-1.22
41.0350,0.08,0.16,-0.98,3.91,-0.24,-0.67
41.0510,0.08,0.13,-0.99,3.48,-0.18,1.40
41.0670,0.08,0.12,-0.99,3.60,0.31,1.34
41.0830,0.08,0.12,-0.99,3.78,-0.24,1.28
41.0880,0.08,0.12,-0.99,3.72,-0.24,1.10
41.1040,0.08,0.12,-0.99,3.78,-0.31,0.73
41.1260,0.08,0.12,-0.99,3.60,-0.55,0.55
41.1430,0.08,0.12,-0.99,3.91,0.06,0.31
41.1580,0.08,0.12,-0.98,3.60,-0.37,0.24
41.1750,0.08,0.11,-0.99,3.54,0.24,-0.06
41.1920,0.08,0.13,-0.99,3.72,0.12,-1.22
41.2080,0.08,0.13,-0.98,3.72,-0.37,-0.24
41.2150,0.08,0.14,-0.99,3.66,-0.18,0.24
41.2260,0.08,0.14,-0.99,3.66,0.00,1.10
41.2550,0.08,0.12,-0.99,3.60,0.24,1.16
41.2710,0.08,0.12,-0.99,3.66,-0.12,1.04
41.2860,0.08,0.12,-0.99,3.66,-0.31,0.79
41.2930,0.08,0.12,-0.99,3.60,-0.55,0.49
41.3150,0.08,0.13,-0.99,3.78,-0.18,0.06
41.3290,0.08,0.13,-0.99,3.60,-0.18,0.37
41.3430,0.08,0.13,-0.99,3.72,-0.37,1.04
41.3600,0.08,0.12,-0.99,3.60,-0.37,1.04
41.3760,0.08,0.12,-0.99,3.54,0.00,0.79
41.3930,0.08,0.13,-0.98,3.17,0.43,0.43
41.4100,0.08,0.12,-0.99,3.11,-0.06,1.28
41.4250,0.07,0.12,-0.99,3.17,-0.31,1.10
41.4430,0.08,0.12,-0.99,3.42,-0.12,0.92
41.4580,0.08,0.12,-0.99,3.72,-0.12,-0.18
41.4740,0.08,0.12,-0.99,3.78,-0.06,-0.55
41.4910,0.08,0.12,-0.99,4.03,-0.37,-0.79
41.4930,0.08,0.12,-0.99,4.15,-0.31,-0.49
41.5230,0.08,0.13,-0.99,3.78,0.12,-0.85
41.5260,0.08,0.13,-0.99,3.85,-0.06,-0.31
41.5420,0.08,0.13,-0.99,3.72,-0.24,0.43
41.5570,0.08,0.12,-0.99,3.42,-0.24,0.49
41.5810,0.08,0.12,-0.99,3.60,-0.24,-0.12
41.5980,0.08,0.12,-0.99,3.78,-0.31,-0.43
41.6150,0.08,0.12,-0.99,3.85,-0.31,-0.85
41.6160,0.08,0.12,-0.99,3.85,-0.06,-1.34
41.6470,0.08,0.13,-0.99,3.72,0.12,-0.98
41.6620,0.08,0.15,-0.98,3.66,-0.61,-0.06
41.6790,0.08,0.13,-0.99,3.60,-0.12,1.34
41.6950,0.08,0.12,-0.99,3.60,-0.43,1.22
41.7100,0.08,0.12,-0.99,3.72,-0.37,1.46
41.7250,0.08,0.12,-0.99,3.60,-0.24,1.28
41.7310,0.08,0.12,-0.99,3.66,-0.31,1.04
41.7470,0.08,0.11,-0.99,3.97,-0.55,0.43
41.7700,0.08,0.13,-0.99,3.72,0.12,-0.79
41.7870,0.08,0.14,-0.98,3.48,-0.12,-0.24
41.8030,0.08,0.13,-0.99,3.54,-0.18,1.10
41.8200,0.08,0.13,-0.99,3.36,-0.43,1.40
41.8360,0.08,0.12,-0.99,3.72,-0.43,1.22
41.8520,0.08,0.12,-0.99,3.91,-0.49,0.06
41.8680,0.08,0.12,-0.99,3.78,0.06,0.00
41.8710,0.08,0.11,-0.99,3.91,0.06,-0.31
41.8870,0.08,0.12,-0.99,4.21,0.06,-1.59
41.9150,0.08,0.12,-0.99,4.09,0.00,-1.53
41.9260,0.08,0.14,-0.98,3.66,-0.55,-1.28
41.9430,0.08,0.14,-0.98,3.66,0.12,-0.06
41.9600,0.08,0.13,-0.99,3.78,-0.18,-0.06
41.9770,0.08,0.13,-0.99,3.60,-0.43,0.06
41.9930,0.08,0.12,-0.99,3.66,0.18,0.06
42.0090,0.08,0.14,-0.98,4.15,-0.12,0.37
42.0240,0.08,0.13,-0.98,3.60,-0.31,1.10
42.0400,0.08,0.12,-0.99,3.78,-0.43,1.10
42.0590,0.08,0.13,-0.99,3.54,-0.06,0.73
42.0750,0.08,0.12,-0.99,3.85,-0.31,0.85
42.0900,0.08,0.12,-0.99,3.60,-0.18,0.18
42.1050,0.08,0.13,-0.99,3.42,-0.18,-0.18
42.1160,0.08,0.13,-0.99,3.42,-0.49,-0.06
42.1320,0.08,0.13,-0.99,3.72,0.18,0.18
42.1500,0.08,0.13,-0.99,3.42,0.06,0.73
42.1660,0.08,0.13,-0.99,3.54,-0.31,1.10
42.1810,0.08,0.09,-0.99,3.54,-0.24,1.34
42.1980,0.08,0.12,-0.99,3.66,-0.06,0.98
42.2130,0.08,0.11,-0.99,3.42,-0.61,0.61
42.2290,0.08,0.12,-0.99,3.60,-0.18,-0.18
42.2450,0.08,0.11,-0.99,3.30,0.00,-0.98
42.2600,0.08,0.12,-0.99,3.54,0.18,-2.01
42.2660,0.08,0.13,-0.98,3.66,0.31,-1.89
42.2810,0.08,0.15,-0.98,3.66,0.31,-0.43
42.3030,0.08,0.14,-0.98,3.78,-0.43,0.24
42.3190,0.08,0.13,-0.99,3.23,-0.12,1.04
42.3370,0.08,0.12,-0.99,3.48,-0.18,1.28
42.3530,0.08,0.12,-0.99,3.54,-0.31,1.04
42.3690,0.07,0.11,-0.99,3.48,-0.06,0.06
42.3850,0.07,0.11,-0.99,3.60,0.24,-1.65
42.4010,0.08,0.12,-0.98,3.54,-0.06,-2.20
42.4160,0.08,0.13,-0.99,3.72,0.31,-1.77
42.4200,0.08,0.14,-0.98,3.60,0.24,-1.34
42.4350,0.08,0.14,-0.99,3.97,-0.24,-0.18
42.4580,0.08,0.13,-0.98,3.48,0.18,0.49
42.4740,0.08,0.13,-0.99,3.42,-0.55,0.92
42.4920,0.08,0.12,-0.99,3.85,-0.37,1.04
42.5080,0.08,0.12,-0.99,3.60,-0.37,0.92
42.5250,0.08,0.12,-0.99,3.72,0.12,1.10
42.5410,0.08,0.12,-0.99,3.66,-0.24,0.55
42.5570,0.08,0.12,-0.99,3.85,-0.43,0.18
42.5580,0.08,0.12,-0.99,3.60,-0.18,0.00
42.5760,0.08,0.12,-0.99,3.78,-0.31,0.37
42.5920,0.08,0.12,-0.99,3.78,0.12,-0.18
42.6160,0.08,0.13,-0.99,3.72,0.31,-0.12
42.6250,0.08,0.14,-0.98,3.66,-0.06,0.55
42.6420,0.08,0.14,-0.98,3.60,-0.06,1.46
42.6580,0.08,0.13,-0.99,3.54,-0.49,1.46
42.6730,0.08,0.12,-0.99,3.54,-0.79,1.22
42.6970,0.08,0.12,-0.99,3.66,-0.37,0.98
42.7160,0.07,0.11,-0.99,3.60,-0.12,0.31
42.7300,0.07,0.11,-0.99,3.72,0.31,-0.85
42.7460,0.08,0.13,-0.99,3.78,-0.06,-1.53
42.7620,0.09,0.15,-0.98,3.78,-0.12,-0.37
42.7790,0.08,0.13,-0.99,3.60,-0.61,1.34
42.7950,0.08,0.12,-0.99,3.36,-0.37,1.28
42.8110,0.08,0.12,-0.99,3.54,-0.24,1.46
42.8270,0.08,0.12,-0.99,3.48,-0.61,0.85
42.8410,0.07,0.11,-0.99,3.66,-0.06,0.18
42.8570,0.08,0.11,-0.99,3.85,0.12,-1.10
42.8630,0.08,0.13,-0.99,3.78,0.31,-1.10
42.8880,0.08,0.14,-0.98,3.60,-0.18,0.37
42.9030,0.08,0.14,-0.98,3.72,-0.43,1.10
42.9170,0.08,0.13,-0.99,3.78,-0.37,1.28
42.9290,0.08,0.12,-0.99,3.42,-0.49,1.16
42.9460,0.08,0.12,-0.99,3.72,-0.31,0.43
42.9630,0.08,0.12,-0.99,3.72,-0.12,0.06
42.9780,0.08,0.13,-0.99,3.91,-0.18,-0.12
42.9940,0.08,0.13,-0.99,3.85,-0.85,0.79
43.0110,0.08,0.12,-0.99,3.78,-0.31,1.04
43.0260,0.08,0.12,-0.99,3.66,0.06,0.98
43.0400,0.08,0.12,-0.99,3.66,-0.49,0.24
43.0560,0.08,0.11,-0.99,3.91,-0.31,-0.37
43.0700,0.08,0.12,-0.99,3.54,0.00,-0.61
43.0790,0.08,0.14,-0.98,3.42,0.12,-1.28
43.0960,0.08,0.14,-0.98,3.48,0.06,-0.06
43.1140,0.08,0.13,-0.99,3.36,-0.31,1.04
43.1300,0.08,0.12,-0.99,3.30,0.12,1.16
43.1470,0.08,0.12,-0.99,3.85,0.06,1.22
43.1630,0.08,0.10,-0.99,3.91,-0.18,0.43
43.1780,0.08,0.12,-0.99,3.60,-0.12,-0.79
43.1940,0.08,0.12,-0.99,3.85,-0.24,-0.98
43.2110,0.08,0.12,-0.99,3.91,0.00,-0.98
43.2270,0.08,0.14,-0.99,3.85,0.00,-0.24
43.2420,0.08,0.13,-0.99,3.72,-0.43,0.67
43.2470,0.08,0.12,-0.99,3.66,-0.24,-0.12
43.2630,0.08,0.12,-0.99,3.36,-0.24,-0.61
43.2850,0.08,0.13,-0.98,3.30,0.06,-0.31
43.3020,0.08,0.12,-0.99,3.48,-0.55,0.49
43.3190,0.08,0.11,-0.99,3.66,-0.49,0.55
43.3350,0.08,0.11,-0.99,3.66,-0.24,-0.73
43.3520,0.08,0.13,-0.99,3.60,0.37,-1.10
43.3680,0.08,0.13,-0.99,3.91,0.24,-0.43
43.3830,0.08,0.13,-0.98,3.85,-0.06,-0.43
43.3990,0.08,0.13,-0.99,3.60,0.00,0.18
43.4150,0.08,0.13,-0.99,3.54,-0.18,1.10
43.4310,0.08,0.12,-0.99,3.78,-0.43,1.40
43.4470,0.08,0.10,-0.99,3.36,-0.12,0.49
43.4620,0.08,0.12,-0.99,3.78,0.18,-0.85
43.4770,0.08,0.13,-0.99,3.66,-0.24,0.12
43.4930,0.08,0.14,-0.98,3.60,-0.12,0.92
43.5080,0.08,0.13,-0.99,3.54,-0.12,1.16
43.5190,0.08,0.13,-0.99,3.54,-0.18,1.22
43.5340,0.08,0.12,-0.99,3.60,0.00,1.28
43.5550,0.08,0.11,-0.99,3.54,0.06,0.92
43.5710,0.08,0.12,-0.99,3.85,-0.18,0.18
43.5870,0.08,0.12,-0.99,3.78,-0.06,0.24
43.6020,0.08,0.12,-0.99,3.78,-0.79,0.43
43.6190,0.08,0.12,-0.99,3.72,-0.43,0.31
43.6340,0.08,0.12,-0.99,3.72,-0.24,-0.43
43.6400,0.08,0.12,-0.99,3.36,0.06,-1.04
43.6570,0.08,0.13,-0.99,3.66,0.12,-0.61
43.6750,0.08,0.13,-0.98,3.60,-0.12,0.00
43.6900,0.08,0.12,-0.99,3.66,-0.55,0.61
43.7130,0.08,0.12,-0.99,3.17,-0.43,0.00
43.7280,0.08,0.12,-0.99,3.42,-0.24,-0.24
43.7440,0.08,0.13,-0.99,3.54,-0.31,-0.18
43.7600,0.08,0.13,-0.99,3.66,0.06,0.43
43.7740,0.08,0.13,-0.98,3.60,-0.37,0.73
43.7910,0.08,0.13,-0.99,3.72,-0.24,0.92
43.8070,0.08,0.11,-0.99,3.60,-0.37,0.79
43.8180,0.08,0.11,-0.99,3.85,-0.61,-0.06
43.8280,0.08,0.12,-0.99,3.85,0.12,-0.79
43.8510,0.08,0.13,-0.99,3.72,0.18,-0.92
43.8700,0.08,0.13,-0.99,3.60,0.24,-0.06
43.8850,0.08,0.13,-0.98,3.48,-0.12,1.04
43.9020,0.08,0.12,-0.99,3.54,-0.31,1.28
43.9170,0.08,0.12,-0.99,3.72,-0.31,0.98
43.9330,0.08,0.12,-0.99,3.48,-0.12,1.28
43.9350,0.08,0.12,-0.99,3.85,-0.24,1.28
43.9510,0.08,0.12,-0.99,3.85,-0.79,1.28
43.9760,0.08,0.12,-0.99,3.48,-0.31,1.22
43.9930,0.08,0.12,-0.99,3.60,0.00,1.04
44.0090,0.08,0.10,-0.99,3.91,0.06,0.49
44.0270,0.08,0.11,-0.99,3.66,0.43,-2.01
44.0430,0.08,0.13,-0.99,3.78,0.31,-2.26
44.0590,0.08,0.14,-0.98,3.54,-0.06,-1.59
44.0760,0.08,0.13,-0.99,3.66,-0.12,-0.67
44.0950,0.08,0.12,-0.99,3.72,0.18,-0.37
44.1090,0.08,0.13,-0.99,3.72,-0.37,0.18
44.1250,0.08,0.12,-0.99,3.85,-0.31,0.67
44.1410,0.08,0.11,-0.99,3.97,-0.49,-15.20
44.1420,0.08,0.12,-0.99,3.60,-0.06,-0.85
44.1600,0.08,0.13,-0.99,3.78,0.12,-0.92
44.1760,0.08,0.14,-0.98,3.91,0.00,-0.31
44.1920,0.08,0.13,-0.99,3.66,-0.18,1.16
44.2190,0.08,0.13,-0.99,3.60,-0.31,1.28
44.2360,0.08,0.12,-0.99,3.30,-0.18,1.28
44.2480,0.08,0.12,-0.99,3.42,0.18,1.34
44.2640,0.08,0.11,-0.99,3.48,-0.06,0.98
44.2800,0.08,0.12,-0.99,3.54,-0.18,-0.37
44.2960,0.08,0.13,-0.99,3.72,-0.24,0.31
44.3120,0.08,0.12,-0.99,3.78,-0.24,1.28
44.3190,0.08,0.12,-0.99,3.66,-0.31,1.10
44.3300,0.08,0.11,-0.99,3.66,-0.24,-0.18
44.3520,0.08,0.11,-0.99,3.85,0.00,-0.98
44.3700,0.08,0.12,-0.99,3.66,0.31,-1.22
44.3850,0.08,0.12,-0.99,3.54,-0.06,-0.43
44.4020,0.08,0.12,-0.99,3.72,-0.24,-0.67
44.4190,0.08,0.13,-0.99,3.97,0.06,-0.85
44.4350,0.08,0.13,-0.99,3.78,0.00,-0.79
44.4360,0.08,0.13,-0.99,3.91,0.00,-0.31
44.4670,0.08,0.12,-0.99,3.91,-0.06,-0.12
44.4830,0.08,0.11,-0.99,3.85,0.00,-0.12
44.4990,0.07,0.12,-0.99,3.91,-0.37,-0.37
44.5150,0.08,0.13,-0.99,3.78,0.06,-0.79
44.5310,0.08,0.13,-0.99,3.66,-0.43,-0.73
44.5470,0.08,0.13,-0.98,3.60,-0.31,0.00
44.5620,0.08,0.13,-0.99,3.48,-0.37,0.92
44.5760,0.08,0.12,-0.99,3.60,-0.06,1.10
44.5910,0.07,0.11,-0.99,3.54,-0.12,-0.18
44.6020,0.08,0.12,-0.99,3.91,0.24,-1.10
44.6190,0.08,0.12,-0.99,3.60,0.43,-0.98
44.6350,0.08,0.13,-0.98,3.60,0.31,-1.04
44.6520,0.08,0.12,-0.98,3.72,0.24,-0.73
44.6690,0.08,0.13,-0.98,3.54,0.24,-0.85
44.6850,0.08,0.14,-0.99,3.54,0.18,-0.37
44.7020,0.08,0.13,-0.99,3.60,-0.55,0.55
44.7190,0.08,0.12,-0.99,3.42,-0.43,0.92
44.7350,0.07,0.11,-0.99,3.60,0.24,0.18
44.7510,0.08,0.12,-0.99,3.85,0.06,-0.43
44.7670,0.08,0.13,-0.99,3.91,0.00,-0.43
44.7830,0.08,0.13,-0.99,3.66,-0.06,0.37
44.7990,0.08,0.13,-0.99,3.72,-0.24,0.67
44.8020,0.08,0.12,-0.99,3.85,-0.49,0.92
44.8200,0.08,0.15,-0.99,3.60,0.00,0.49
44.8420,0.08,0.13,-0.99,3.72,-0.43,0.18
44.8590,0.08,0.13,-0.99,3.60,-0.37,0.31
44.8770,0.08,0.13,-0.99,3.30,-0.24,0.85
44.8920,0.08,0.13,-0.99,3.42,-0.31,1.40
44.9090,0.08,0.12,-0.99,3.66,-0.49,1.34
44.9250,0.08,0.13,-0.99,3.30,0.00,1.40
44.9410,0.08,0.12,-0.99,3.05,-0.55,1.34
44.9580,0.08,0.13,-0.99,3.30,-0.31,1.46
44.9600,0.08,0.12,-0.99,3.11,-0.37,1.53
44.9910,0.08,0.12,-0.99,3.48,-0.06,1.28
44.9930,0.08,0.12,-0.99,3.78,-0.67,1.28
45.0220,0.08,0.12,-0.99,3.78,-0.24,0.61
45.0270,0.08,0.12,-0.99,3.72,-0.73,1.16
45.0430,0.08,0.11,-0.99,3.66,-0.37,0.92
45.0650,0.07,0.10,-0.99,3.91,-0.06,-0.18
45.0820,0.07,0.11,-0.99,3.91,-0.24,-1.10
45.0990,0.08,0.13,-0.99,3.91,0.18,-1.40
45.1150,0.08,0.14,-0.99,3.91,-0.55,-0.18
45.1310,0.08,0.14,-0.98,3.48,-0.18,0.73
45.1470,0.08,0.12,-0.99,3.60,-0.18,0.43
45.1620,0.08,0.12,-0.98,3.85,0.31,-0.67
45.1660,0.08,0.12,-0.99,4.09,-0.37,-0.31
45.1930,0.08,0.13,-0.99,4.03,-0.24,0.24
45.2090,0.08,0.13,-0.99,3.85,-0.18,0.61
45.2240,0.08,0.13,-0.99,3.48,-0.31,1.04
45.2410,0.08,0.12,-0.99,3.42,-0.18,1.34
45.2570,0.08,0.12,-0.99,3.60,-0.43,1.10
45.2660,0.08,0.11,-0.99,3.72,-0.55,0.98
45.2820,0.08,0.11,-0.99,3.66,0.12,-0.61
45.3000,0.08,0.13,-0.98,3.60,0.06,-1.40
45.3160,0.08,0.14,-0.99,3.72,-0.24,-0.18
45.3320,0.08,0.12,-0.99,3.72,-0.06,0.18
45.3480,0.08,0.12,-0.99,3.48,0.00,-0.98
45.3650,0.08,0.12,-0.99,3.60,-0.12,-0.55
45.3810,0.08,0.12,-0.99,3.72,-0.18,-0.49
45.3960,0.08,0.12,-0.99,3.66,0.00,-1.04
45.3990,0.08,0.13,-0.98,3.54,0.00,-0.79
45.4200,0.08,0.14,-0.98,3.66,-0.31,0.55
45.4360,0.08,0.12,-0.99,3.60,-0.49,0.85
45.4540,0.08,0.11,-0.99,3.48,-0.06,-0.73
45.4700,0.07,0.12,-0.99,3.66,0.12,-1.59
45.4860,0.08,0.14,-0.98,3.60,-0.24,-0.67
45.5040,0.08,0.10,-0.99,3.72,-0.73,0.79
45.5200,0.08,0.12,-0.99,3.66,-0.49,0.24
45.5360,0.08,0.13,-0.99,3.54,-0.06,0.43
45.5520,0.08,0.12,-0.99,3.36,-0.24,1.40
45.5680,0.08,0.12,-0.99,3.72,-0.55,1.40
45.5700,0.08,0.12,-0.99,3.78,-0.79,1.40
45.5860,0.08,0.12,-0.99,3.60,-0.24,1.22
45.6090,0.08,0.12,-0.99,3.42,-0.73,1.22
45.6250,0.08,0.12,-0.99,3.78,-0.49,1.40
45.6430,0.08,0.12,-0.99,3.91,-0.18,1.46
45.6590,0.08,0.12,-0.99,3.72,-0.31,1.40
45.6760,0.08,0.12,-0.99,3.54,-0.61,1.40
45.6930,0.08,0.12,-0.99,3.54,-0.31,1.40
45.7090,0.08,0.12,-0.99,3.48,-0.24,1.40
45.7250,0.08,0.12,-0.99,3.66,-0.12,1.34
45.7260,0.08,0.12,-0.99,3.91,-0.49,1.28
45.7560,0.08,0.13,-0.99,3.66,-0.98,1.22
45.7730,0.08,0.12,-0.99,3.54,-0.61,1.28
45.7760,0.08,0.12,-0.99,3.36,-0.61,1.28
45.8050,0.08,0.12,-0.99,3.60,-0.12,1.34
45.8210,0.08,0.12,-0.99,4.15,-0.67,1.28
45.8250,0.08,0.12,-0.99,3.91,-0.18,0.24
45.8500,0.08,0.10,-0.99,4.09,-0.18,-0.98
45.8670,0.07,0.10,-0.99,4.27,0.24,-2.87
45.8820,0.07,0.14,-0.99,3.78,0.37,-3.42
45.8980,0.08,0.13,-0.98,3.97,0.06,-1.34
45.9140,0.08,0.13,-0.99,3.85,-0.55,-0.61
45.9290,0.08,0.13,-0.99,3.66,-0.61,-0.49
45.9340,0.08,0.13,-0.99,3.66,-0.43,0.79
45.9490,0.08,0.12,-0.99,3.54,-0.12,1.34
45.9710,0.08,0.12,-0.99,3.72,-0.55,1.34
45.9890,0.08,0.09,-0.99,3.54,-0.12,0.24
46.0050,0.08,0.11,-0.99,3.78,0.00,-1.53
46.0220,0.08,0.14,-0.99,3.66,0.12,-1.40
46.0400,0.08,0.14,-0.99,3.54,-0.24,-0.43
46.0540,0.08,0.13,-0.99,3.42,-0.18,0.98
46.0710,0.08,0.11,-0.99,3.60,-0.18,0.85
46.0720,0.07,0.11,-0.99,3.97,-0.37,-1.65
46.0880,0.08,0.12,-0.99,3.97,0.06,-1.71
46.1050,0.08,0.12,-0.98,3.91,0.18,-1.10
46.1220,0.08,0.12,-0.99,4.03,-0.37,-1.28
46.1520,0.08,0.12,-0.99,3.78,0.00,-1.16
46.1550,0.08,0.13,-0.99,3.78,-0.12,-1.40
46.1710,0.08,0.14,-0.98,3.78,-0.18,-0.67
46.1880,0.08,0.14,-0.98,3.54,-0.37,0.00
46.2060,0.08,0.13,-0.99,3.72,-0.43,0.92
46.2220,0.08,0.12,-0.99,3.54,-0.49,1.16
46.2430,0.08,0.11,-0.99,3.85,-0.31,-0.06
46.2610,0.07,0.11,-0.99,4.09,0.43,-1.83
46.2770,0.07,0.11,-0.99,3.97,-15.20,-1.53
46.2930,0.08,0.13,-0.99,3.85,-0.12,-1.77
46.2940,0.08,0.13,-0.99,3.42,0.06,-1.10
46.3210,0.08,0.12,-0.99,3.66,0.18,-1.34
46.3410,0.08,0.14,-0.98,3.54,-0.06,-1.04
46.3570,0.08,0.12,-0.99,3.48,-0.12,0.92
46.3730,0.08,0.12,-0.99,3.36,-0.06,1.34
46.3880,0.08,0.11,-0.99,3.54,-0.31,0.55
46.4040,0.08,0.11,-0.99,3.72,-0.43,-0.49
46.4200,0.08,0.12,-0.99,3.72,0.18,-0.98
46.4360,0.08,0.12,-0.99,3.85,0.12,-0.31
46.4430,0.08,0.13,-0.99,3.66,0.18,0.06
46.4600,0.08,0.13,-0.99,3.85,-0.49,0.24
46.4760,0.08,0.13,-0.99,3.60,-0.37,1.22
46.4990,0.08,0.12,-0.99,3.42,-0.37,0.98
46.5140,0.08,0.13,-0.99,3.54,-0.24,0.55
46.5310,0.08,0.14,-0.99,3.17,-0.49,1.28
46.5470,0.08,0.12,-0.99,3.17,-0.06,1.34
46.5620,0.08,0.11,-0.99,2.99,-0.31,0.85
46.5780,0.08,0.11,-0.99,3.60,-0.18,-1.53
46.5940,0.08,0.13,-0.99,3.66,-0.12,-1.04
46.6100,0.08,0.12,-0.99,3.97,-0.37,-0.37
46.6260,0.08,0.13,-0.99,3.66,-0.06,-0.67
46.6400,0.08,0.14,-0.98,3.72,-0.18,-0.12
46.6550,0.08,0.13,-0.99,3.60,-0.67,0.61
46.6650,0.08,0.12,-0.99,3.78,-0.43,1.34
46.6810,0.08,0.10,-0.99,3.72,-0.24,0.73
46.6990,0.08,0.11,-0.99,3.48,0.49,-1.34
46.7150,0.08,0.12,-0.98,3.60,0.18,-1.71
46.7310,0.08,0.13,-0.99,3.72,-0.24,-1.28
46.7460,0.08,0.13,-0.99,3.66,0.12,-0.98
46.7610,0.08,0.12,-0.99,3.97,0.12,-0.92
46.7650,0.08,0.12,-0.99,3.72,0.00,-0.85
46.7800,0.08,0.16,-0.99,3.78,-0.18,-0.67
46.8020,0.08,0.14,-0.99,3.85,-0.73,-0.18
46.8220,0.08,0.13,-0.99,3.72,-0.49,1.04
46.8360,0.08,0.12,-0.99,3.54,-0.55,1.28
46.8530,0.08,0.12,-0.99,3.91,-0.61,1.40
46.8690,0.08,0.10,-0.99,3.48,-0.24,0.85
46.8860,0.08,0.12,-0.99,3.91,-0.24,-0.67
46.9030,0.08,0.13,-0.99,3.85,-0.49,-0.12
46.9190,0.08,0.12,-0.99,3.78,-0.06,0.61
46.9350,0.08,0.12,-0.99,3.78,-0.49,0.55
46.9510,0.08,0.12,-0.99,3.42,15.56,-0.67
46.9660,0.08,0.12,-0.99,3.66,0.06,-1.34
46.9820,0.08,0.13,-0.98,3.78,0.06,-1.10
46.9990,0.08,0.13,-0.98,3.66,-0.12,-0.12
47.0030,0.08,0.12,-0.99,3.72,-0.18,0.00
47.0280,0.08,0.12,-0.99,3.97,0.06,0.55
47.0350,0.08,0.12,-0.99,3.72,-0.37,0.61
47.0520,0.08,0.11,-0.99,3.78,-0.31,0.73
47.0690,0.07,0.11,-0.99,3.36,0.18,-0.06
47.0860,0.08,0.14,-0.99,3.54,0.55,-1.22
47.1030,0.08,0.15,-0.98,3.72,-0.37,-0.12
47.1190,0.08,0.12,-0.99,3.60,-0.49,1.46
47.1360,0.08,0.12,-0.99,3.48,-0.18,1.34
47.1520,0.08,0.12,-0.98,3.54,-0.61,1.40
47.1690,0.08,0.12,-0.99,3.66,-0.37,1.28
47.1850,0.08,0.12,-0.99,3.60,-0.37,1.10
47.2010,0.08,0.12,-0.99,3.60,-0.06,0.55
47.2180,0.08,0.13,-0.99,3.54,-0.18,0.79
47.2340,0.08,0.12,-0.99,3.48,-0.24,1.40
47.2360,0.08,0.12,-0.99,3.42,-0.06,1.10
47.2520,0.08,0.11,-0.99,3.60,-0.31,-0.24
47.2810,0.08,0.11,-0.99,3.91,0.00,-1.46
47.2910,0.08,0.12,-0.99,4.09,0.18,-1.95
47.3080,0.08,0.12,-0.99,4.09,-0.12,-2.01
