Timestamp, AccX, AccY, AccZ, GyroX, GyroY, GyroZ
0.0100,0.07,0.11,-0.99,2.56,1.40,1.53
0.0240,0.06,0.11,-0.99,2.93,1.53,1.59
0.0400,0.07,0.12,-0.99,3.05,0.92,1.59
0.0500,0.06,0.12,-0.99,3.78,1.28,1.53
0.0660,0.07,0.11,-0.99,3.42,1.28,1.53
0.0830,0.06,0.11,-0.99,3.42,1.34,1.46
0.1000,0.07,0.12,-0.99,3.36,1.22,1.40
0.1150,0.07,0.11,-0.99,3.36,0.98,1.59
0.1300,0.07,0.12,-0.99,3.60,0.92,1.59
0.1440,0.06,0.12,-0.99,3.72,0.79,1.53
0.1590,0.06,0.12,-0.99,3.48,1.28,1.59
0.1740,0.07,0.12,-0.99,3.23,1.34,1.46
0.1890,0.06,0.12,-0.99,3.11,1.10,1.40
0.2000,0.07,0.12,-0.99,3.60,1.04,1.46
0.2160,0.07,0.12,-0.99,4.39,0.92,1.71
0.2330,0.06,0.12,-0.99,4.21,0.79,1.59
0.2490,0.07,0.12,-0.99,4.27,0.85,1.59
0.2640,0.06,0.12,-0.99,3.91,1.22,1.40
0.2790,0.06,0.12,-0.99,4.21,1.04,1.40
0.2950,0.06,0.12,-0.99,4.09,1.59,0.92
0.3100,0.08,0.14,-0.99,3.60,1.89,0.31
0.3250,0.06,0.11,-0.98,3.30,2.20,1.59
0.3410,0.06,0.12,-0.99,2.93,1.34,1.28
0.3560,0.07,0.12,-0.99,3.36,1.10,1.40
0.3710,0.06,0.12,-0.99,3.60,0.98,1.46
0.3820,0.07,0.12,-0.99,3.42,0.98,1.65
0.4010,0.07,0.12,-0.99,3.42,0.98,1.59
0.4160,0.06,0.12,-0.99,3.48,1.04,1.53
0.4320,0.07,0.12,-0.99,3.23,1.04,1.34
0.4480,0.06,0.12,-0.99,3.54,1.22,1.59
0.4500,0.07,0.12,-0.99,3.42,1.10,1.65
0.4790,0.07,0.12,-0.99,3.36,0.85,1.53
0.4950,0.06,0.12,-0.99,3.36,0.98,1.40
0.5100,0.07,0.12,-0.99,3.54,1.40,1.59
0.5250,0.07,0.12,-0.99,3.48,1.28,1.59
0.5400,0.07,0.12,-0.99,3.54,1.46,1.59
0.5520,0.06,0.12,-0.99,3.36,1.16,1.40
0.5690,0.06,0.12,-0.99,3.42,1.04,1.59
0.5850,0.07,0.12,-0.99,3.54,1.22,1.53
0.6000,0.07,0.12,-0.99,3.54,1.16,1.53
0.6150,0.07,0.12,-0.99,3.54,0.92,1.40
0.6300,0.07,0.12,-0.99,3.48,1.10,1.65
0.6450,0.06,0.12,-0.99,3.60,1.10,1.53
0.6590,0.07,0.12,-0.99,3.60,1.10,1.59
0.6740,0.06,0.12,-0.99,3.60,0.85,1.46
0.6890,0.07,0.12,-0.99,3.42,1.22,1.53
0.7010,0.07,0.12,-0.99,3.54,1.16,1.46
0.7170,0.06,0.12,-0.99,3.54,0.85,1.40
0.7340,0.07,0.12,-0.99,3.30,1.28,1.46
0.7500,0.06,0.12,-0.99,3.23,1.10,1.53
0.7650,0.06,0.12,-0.99,3.36,1.28,1.59
0.7680,0.07,0.12,-0.99,3.42,1.04,1.46
0.7960,0.06,0.12,-0.99,3.66,1.04,1.59
0.8110,0.07,0.12,-0.99,3.60,1.40,1.59
0.8270,0.06,0.12,-0.99,3.36,1.16,1.65
0.8420,0.07,0.12,-0.99,3.72,0.92,1.59
0.8570,0.07,0.12,-0.99,3.42,0.79,1.65
0.8680,0.06,0.12,-0.99,3.05,1.16,1.53
0.8850,0.06,0.11,-0.99,3.05,1.16,1.40
0.9010,0.06,0.11,-0.99,2.75,1.34,1.46
0.9170,0.06,0.12,-0.99,3.17,0.85,1.53
0.9330,0.07,0.12,-0.99,2.93,1.16,1.59
0.9490,0.06,0.12,-0.99,3.30,0.67,1.46
0.9640,0.06,0.12,-0.99,3.42,1.04,1.53
0.9800,0.07,0.12,-0.99,3.36,1.40,1.83
0.9960,0.07,0.12,-0.99,3.36,0.98,1.65
1.0010,0.06,0.12,-0.99,3.17,0.85,1.77
1.0260,0.06,0.12,-0.99,3.23,0.98,1.71
1.0410,0.06,0.12,-0.99,3.11,1.04,2.20
1.0560,0.06,0.12,-0.99,3.42,1.04,2.56
1.0670,0.07,0.11,-0.99,3.11,1.04,2.75
1.0840,0.07,0.11,-0.99,3.11,1.16,2.08
1.1010,0.06,0.12,-0.99,3.36,1.10,1.71
1.1170,0.06,0.12,-0.99,3.48,0.73,1.46
1.1330,0.06,0.12,-0.99,3.30,0.73,1.46
1.1480,0.07,0.12,-0.99,3.66,0.85,1.71
1.1640,0.06,0.12,-0.99,3.36,0.85,2.44
1.1800,0.07,0.11,-0.99,3.23,1.04,2.56
1.1960,0.06,0.11,-0.99,3.66,1.22,1.59
1.2110,0.07,0.11,-0.99,3.91,1.16,1.59
1.2260,0.07,0.12,-0.99,3.85,0.79,1.53
1.2410,0.06,0.12,-0.99,3.97,0.92,1.53
1.2560,0.07,0.11,-0.99,4.33,0.79,1.40
1.2670,0.06,0.12,-0.99,4.33,0.79,1.10
1.2840,0.06,0.12,-0.99,3.97,0.98,1.28
1.3000,0.07,0.11,-0.99,4.03,1.28,1.34
1.3160,0.06,0.12,-0.99,4.03,0.61,0.92
1.3310,0.06,0.12,-0.99,3.66,0.92,1.22
1.3460,0.06,0.10,-0.99,2.32,0.92,1.22
1.3600,0.06,0.13,-1.00,3.05,0.79,1.53
1.3720,0.07,0.13,-1.00,4.03,0.73,1.59
1.3900,0.07,0.12,-0.99,3.78,1.16,1.46
1.4050,0.07,0.12,-0.99,3.72,0.67,1.53
1.4220,0.06,0.12,-0.99,2.01,1.46,1.46
1.4370,0.07,0.12,-0.99,1.71,1.22,1.65
1.4540,0.07,0.14,-0.98,2.62,0.85,1.10
1.4700,0.07,0.14,-0.99,3.72,1.22,-0.85
1.4840,0.06,0.12,-0.99,3.91,1.59,-1.65
1.5010,0.06,0.10,-1.00,3.66,1.22,-1.40
1.5050,0.07,0.10,-0.99,3.48,1.53,-0.55
1.5310,0.07,0.10,-0.99,3.60,1.46,0.37
1.5390,0.06,0.10,-0.99,3.85,1.40,0.98
1.5570,0.07,0.12,-0.99,3.78,0.98,1.46
1.5730,0.06,0.12,-0.99,3.60,1.46,1.53
1.5900,0.07,0.12,-0.99,3.48,1.10,1.46
1.6080,0.06,0.12,-0.99,2.81,1.10,1.59
1.6230,0.06,0.12,-0.99,2.81,1.22,1.71
1.6390,0.06,0.12,-0.99,3.30,0.98,1.59
1.6390,0.06,0.11,-0.99,3.42,1.04,1.40
1.6700,0.07,0.11,-0.99,3.23,1.10,1.22
1.6860,0.07,0.12,-0.99,3.17,0.92,1.53
1.6900,0.07,0.12,-0.99,2.87,1.22,1.65
1.7050,0.06,0.11,-0.99,3.23,1.34,1.59
1.7310,0.06,0.12,-0.99,3.23,1.28,2.81
1.7440,0.07,0.11,-0.99,3.11,0.98,3.11
1.7590,0.07,0.11,-0.99,3.11,1.22,2.50
1.7760,0.06,0.12,-0.99,3.11,1.04,2.26
1.7910,0.06,0.12,-0.99,3.17,0.98,3.36
1.8060,0.07,0.12,-0.99,2.99,0.73,4.21
1.8220,0.07,0.12,-0.99,3.30,0.85,4.46
1.8260,0.07,0.10,-0.99,3.23,0.67,3.66
1.8530,0.07,0.10,-0.99,3.30,1.04,2.20
1.8690,0.06,0.11,-0.99,3.48,1.22,1.59
1.8840,0.07,0.12,-0.99,3.54,1.10,1.59
1.8990,0.06,0.11,-0.99,3.48,0.98,1.46
1.9100,0.06,0.12,-0.99,3.48,1.28,1.46
1.9260,0.06,0.11,-0.99,3.23,1.22,1.59
1.9430,0.06,0.12,-0.99,3.60,1.34,1.34
1.9590,0.06,0.11,-0.99,3.23,1.40,1.40
1.9750,0.06,0.11,-0.99,3.60,0.92,1.53
1.9900,0.06,0.11,-0.99,3.60,1.22,1.46
2.0060,0.06,0.11,-0.99,3.72,1.16,1.46
2.0220,0.06,0.12,-0.99,3.66,1.28,1.53
2.0380,0.06,0.11,-0.99,3.36,0.98,1.53
2.0530,0.06,0.11,-0.99,3.60,0.67,1.40
2.0690,0.06,0.11,-0.99,3.66,0.92,1.53
2.0850,0.06,0.11,-0.99,3.66,1.34,1.59
2.1000,0.06,0.11,-0.99,3.66,1.04,1.22
2.1100,0.06,0.11,-0.99,3.54,1.16,1.34
2.1250,0.06,0.11,-0.99,3.60,0.92,1.16
2.1420,0.07,0.11,-0.99,3.42,1.16,1.22
2.1590,0.06,0.11,-0.99,3.54,1.04,1.40
2.1750,0.06,0.11,-0.99,3.66,1.28,1.40
2.1910,0.06,0.11,-0.99,3.48,1.10,1.40
2.2070,0.06,0.12,-0.99,3.54,0.92,1.34
2.2090,0.06,0.11,-0.99,3.48,0.98,1.28
2.2250,0.06,0.11,-0.99,3.48,1.04,1.40
2.2520,0.06,0.11,-0.99,3.36,1.22,1.40
2.2630,0.06,0.12,-0.99,3.36,1.22,1.46
2.2800,0.06,0.12,-0.99,3.42,1.16,1.53
2.2960,0.06,0.11,-0.99,3.42,1.16,1.59
2.3150,0.06,0.11,-0.99,3.54,1.22,1.59
2.3300,0.06,0.12,-0.99,3.42,1.16,1.59
2.3460,0.06,0.12,-0.99,3.36,1.10,1.59
2.3600,0.06,0.11,-0.99,3.36,1.04,1.53
2.3750,0.06,0.12,-0.99,3.36,1.10,1.59
2.3890,0.06,0.12,-0.99,3.23,1.04,1.65
2.4030,0.06,0.12,-0.99,2.75,1.46,1.89
2.4190,0.06,0.11,-0.99,2.99,0.85,1.83
2.4360,0.06,0.11,-0.99,3.48,1.16,1.65
2.4530,0.07,0.11,-0.99,3.78,0.98,1.71
2.4690,0.06,0.12,-0.99,3.36,1.10,1.65
2.4830,0.07,0.13,-0.98,3.17,1.16,2.38
2.4990,0.07,0.12,-0.99,3.72,0.85,2.99
2.5140,0.07,0.11,-0.99,3.60,0.61,4.33
2.5290,0.06,0.11,-0.99,3.11,0.61,3.42
2.5440,0.06,0.11,-0.99,3.30,0.85,3.30
2.5590,0.07,0.12,-0.99,3.42,0.61,3.60
2.5690,0.07,0.11,-0.99,3.66,0.73,3.60
2.5860,0.06,0.11,-0.99,3.23,0.85,2.44
2.6040,0.06,0.11,-0.99,3.30,1.16,2.14
2.6190,0.06,0.11,-0.99,3.48,1.16,2.01
2.6350,0.07,0.12,-0.99,3.48,0.92,2.32
2.6510,0.07,0.13,-0.99,3.60,0.73,3.23
2.6670,0.06,0.11,-0.99,3.54,0.73,3.78
2.6820,0.06,0.10,-0.99,3.66,0.49,3.78
2.6890,0.06,0.10,-0.99,3.30,0.98,2.62
2.7130,0.06,0.11,-0.99,3.36,1.10,2.14
2.7280,0.06,0.11,-0.99,3.17,1.16,1.95
2.7440,0.07,0.12,-0.99,3.30,1.10,2.01
2.7580,0.06,0.13,-0.99,3.17,0.79,3.23
2.7700,0.06,0.12,-0.99,3.30,0.73,3.91
2.7860,0.06,0.11,-0.99,3.23,0.85,3.91
2.8030,0.06,0.10,-0.99,3.23,0.73,3.23
2.8240,0.06,0.12,-0.99,3.05,0.67,2.44
2.8350,0.06,0.13,-0.99,3.36,0.79,3.36
2.8520,0.07,0.12,-0.99,3.48,0.61,4.15
2.8680,0.07,0.12,-0.99,3.36,0.37,4.94
2.8850,0.06,0.10,-0.99,3.17,0.67,5.07
2.9000,0.06,0.10,-0.99,3.36,0.73,3.85
2.9030,0.06,0.10,-0.99,3.30,0.73,2.87
2.9180,0.06,0.12,-0.99,3.48,0.43,2.81
2.9480,0.07,0.11,-0.99,3.42,0.61,2.75
2.9630,0.06,0.12,-0.99,3.36,0.55,2.87
2.9740,0.07,0.12,-0.99,3.36,0.67,3.85
2.9920,0.06,0.12,-0.99,3.48,0.61,3.91
3.0080,0.06,0.12,-0.99,3.17,0.67,4.58
3.0230,0.07,0.11,-0.99,3.30,0.61,4.46
3.0400,0.06,0.11,-0.99,3.23,0.85,3.48
3.0560,0.07,0.12,-0.99,3.11,1.04,3.48
3.0720,0.06,0.11,-0.99,3.48,0.85,4.21
3.0870,0.06,0.10,-0.99,3.23,0.61,3.36
3.1020,0.06,0.11,-1.00,3.36,0.79,2.99
3.1070,0.06,0.11,-0.99,3.42,0.98,2.50
3.1220,0.06,0.12,-0.99,3.30,0.85,2.50
3.1440,0.07,0.13,-0.99,3.23,1.16,3.54
3.1610,0.06,0.12,-0.99,3.60,0.31,4.88
3.1760,0.09,0.11,-0.99,3.23,0.49,5.80
3.1920,0.06,0.11,-0.99,3.11,0.61,5.25
3.2070,0.07,0.11,-0.99,3.23,0.61,4.58
3.2100,0.06,0.12,-0.99,3.36,0.79,4.27
3.2260,0.07,0.11,-0.99,3.36,0.67,5.13
3.2490,0.06,0.10,-0.99,3.30,0.73,3.48
3.2660,0.06,0.10,-1.00,3.11,0.85,2.93
3.2820,0.06,0.11,-0.99,3.17,1.28,2.32
3.2990,0.07,0.13,-0.99,3.30,1.10,2.62
3.3040,0.07,0.12,-0.99,3.60,0.67,4.03
3.3200,0.06,0.11,-0.99,3.54,0.55,4.21
3.3380,0.07,0.11,-0.99,3.30,0.98,3.66
3.3540,0.07,0.11,-0.99,3.30,0.79,3.17
3.3700,0.06,0.11,-1.00,3.36,0.61,2.50
3.3890,0.06,0.12,-0.99,3.05,0.98,2.56
3.4040,0.07,0.12,-0.99,3.48,0.85,3.66
3.4050,0.06,0.12,-0.99,3.05,0.55,4.09
3.4210,0.06,0.12,-0.99,3.05,0.61,4.33
3.4380,0.07,0.12,-0.99,3.05,0.49,5.62
3.4550,0.06,0.10,-0.99,3.05,0.79,5.25
3.4710,0.06,0.11,-0.99,3.36,0.61,4.09
3.4880,0.06,0.11,-0.99,3.48,0.98,3.30
3.5050,0.06,0.11,-0.99,3.42,0.73,3.42
3.5200,0.06,0.12,-0.99,3.36,0.85,3.54
3.5370,0.06,0.12,-0.99,3.30,0.49,4.88
3.5530,0.06,0.11,-0.99,3.23,0.55,5.25
3.5710,0.06,0.11,-0.99,3.05,0.67,4.76
3.5870,0.07,0.11,-0.99,3.11,0.55,4.82
3.6030,0.07,0.11,-0.99,3.66,0.37,4.39
3.6050,0.07,0.12,-0.99,3.48,0.43,4.64
3.6200,0.07,0.11,-0.99,3.30,0.61,4.70
3.6370,0.06,0.11,-0.99,3.11,0.79,4.33
3.6540,0.06,0.11,-0.99,3.23,0.73,4.21
3.6710,0.07,0.12,-0.99,3.48,0.55,5.07
3.6880,0.06,0.12,-0.99,3.17,0.43,5.31
3.7030,0.06,0.12,-0.99,3.05,0.79,5.74
3.7200,0.07,0.11,-0.99,3.05,0.67,5.86
3.7370,0.06,0.10,-0.99,3.17,0.61,4.88
3.7530,0.06,0.10,-0.99,3.11,0.98,3.60
3.7710,0.06,0.11,-0.99,2.99,1.04,3.11
3.7860,0.06,0.11,-0.99,3.23,0.79,3.17
3.8020,0.06,0.12,-0.99,3.05,1.04,3.23
3.8070,0.06,0.11,-0.99,2.99,1.16,3.42
3.8230,0.07,0.11,-0.99,2.93,1.16,3.42
3.8450,0.06,0.11,-0.99,2.99,1.16,3.30
3.8630,0.07,0.11,-0.99,2.93,0.92,3.48
3.8780,0.06,0.11,-0.99,2.87,0.85,3.36
3.8940,0.06,0.11,-0.99,2.99,0.73,3.30
3.9090,0.06,0.12,-0.99,3.85,0.55,4.03
3.9240,0.07,0.12,-0.99,3.78,0.37,4.39
3.9400,0.07,0.11,-0.99,3.30,0.49,3.85
3.9560,0.07,0.11,-0.99,2.99,0.85,3.54
3.9720,0.06,0.11,-0.99,3.30,1.04,3.11
3.9860,0.06,0.11,-0.99,3.23,0.61,3.72
4.0020,0.06,0.11,-0.99,3.11,0.79,4.03
4.0170,0.07,0.11,-0.99,3.23,0.85,4.52
4.0280,0.06,0.11,-0.99,2.93,0.79,4.09
4.0440,0.06,0.12,-0.99,3.17,0.24,4.21
4.0610,0.07,0.11,-0.99,3.78,0.49,4.76
4.0770,0.06,0.11,-0.99,3.54,0.92,4.21
4.0920,0.06,0.11,-0.99,3.30,0.61,4.03
4.1070,0.06,0.12,-0.99,3.23,0.85,4.15
4.1220,0.06,0.11,-1.00,3.17,0.55,4.33
4.1380,0.06,0.11,-0.99,2.93,0.98,3.91
4.1530,0.06,0.11,-0.99,3.11,0.98,3.60
4.1600,0.06,0.12,-0.99,3.60,0.55,3.85
4.1780,0.06,0.12,-0.99,2.99,0.98,4.70
4.1930,0.06,0.12,-0.99,3.23,0.73,5.25
4.2140,0.06,0.11,-0.99,3.36,0.18,6.29
4.2290,0.06,0.10,-0.99,3.05,0.85,5.92
4.2450,0.07,0.10,-0.99,3.48,0.49,5.37
4.2600,0.06,0.10,-0.99,3.72,0.24,4.58
4.2750,0.07,0.11,-0.99,3.60,0.37,4.52
4.2900,0.07,0.11,-0.99,3.85,0.55,4.21
4.3060,0.06,0.11,-0.99,3.11,0.43,3.54
4.3160,0.06,0.12,-0.99,3.60,0.61,3.72
4.3320,0.06,0.11,-0.99,3.72,0.43,4.46
4.3490,0.06,0.11,-0.99,3.72,0.61,4.21
4.3650,0.06,0.11,-0.99,3.23,0.67,4.39
4.3810,0.06,0.11,-0.99,3.36,1.28,3.72
4.3970,0.06,0.11,-0.99,3.05,1.34,3.17
4.4130,0.07,0.12,-0.99,3.42,0.85,3.17
4.4150,0.06,0.12,-0.99,3.85,0.55,3.48
4.4450,0.07,0.11,-0.99,3.30,0.79,4.03
4.4530,0.06,0.11,-1.00,3.11,1.10,3.72
4.4700,0.06,0.11,-0.99,3.17,0.79,3.48
4.4880,0.06,0.11,-0.99,3.42,0.92,3.42
4.5030,0.07,0.12,-0.99,3.48,0.55,3.54
4.5210,0.06,0.12,-0.99,3.11,0.49,4.27
4.5360,0.07,0.11,-0.99,3.17,0.18,5.19
4.5520,0.06,0.10,-0.99,2.87,0.92,5.19
4.5540,0.06,0.11,-0.99,2.93,0.73,4.09
4.5690,0.06,0.12,-0.99,3.36,0.55,4.52
4.5990,0.07,0.12,-0.99,3.72,0.67,5.49
4.6140,0.07,0.11,-0.99,3.17,0.61,5.68
4.6190,0.06,0.11,-0.99,3.17,0.43,4.82
4.6350,0.06,0.10,-0.99,2.99,0.37,4.21
4.6590,0.06,0.12,-0.99,2.81,0.92,3.97
4.6690,0.07,0.11,-0.99,3.30,0.73,4.64
4.6870,0.07,0.11,-0.99,3.05,1.22,4.39
4.7050,0.06,0.12,-0.99,2.99,0.79,3.97
4.7110,0.06,0.11,-0.99,3.30,0.92,4.21
4.7280,0.06,0.11,-0.99,3.48,0.67,4.03
4.7440,0.06,0.11,-0.99,3.05,1.34,2.99
4.7610,0.07,0.13,-0.99,3.42,0.85,3.72
4.7770,0.07,0.12,-0.99,3.85,0.67,4.70
4.7940,0.06,0.11,-0.99,3.23,0.49,4.94
4.8110,0.06,0.11,-0.99,3.11,0.79,4.70
4.8260,0.06,0.11,-0.99,3.30,0.67,4.58
4.8410,0.06,0.12,-0.99,3.36,0.79,4.27
4.8570,0.07,0.12,-0.99,3.23,0.55,5.00
4.8720,0.07,0.12,-0.99,3.30,0.37,5.31
4.8870,0.07,0.10,-0.99,3.11,0.67,5.00
4.8930,0.06,0.11,-0.99,3.17,0.79,3.85
4.9140,0.06,0.12,-0.99,3.54,0.55,3.66
4.9310,0.07,0.13,-0.99,3.85,0.12,5.74
4.9470,0.07,0.12,-0.99,3.78,-0.06,6.59
4.9630,0.07,0.11,-0.99,2.93,0.79,6.16
4.9780,0.06,0.11,-0.99,2.81,0.98,5.07
4.9930,0.06,0.11,-0.99,2.93,0.55,5.07
4.9970,0.06,0.11,-0.99,3.11,0.37,5.43
5.0120,0.07,0.11,-0.99,3.42,0.49,5.31
5.0350,0.06,0.10,-0.99,3.54,0.24,3.72
5.0520,0.07,0.11,-0.99,3.05,0.61,2.87
5.0690,0.07,0.12,-0.99,3.91,0.24,3.42
5.0850,0.07,0.11,-0.99,3.54,0.79,3.48
5.1000,0.06,0.11,-0.98,3.36,0.55,2.50
5.1030,0.07,0.12,-0.99,3.42,0.85,2.38
5.1180,0.06,0.12,-0.99,3.66,0.85,2.93
5.1420,0.07,0.12,-0.99,3.30,0.31,4.27
5.1590,0.07,0.12,-0.99,3.36,0.49,5.80
5.1740,0.06,0.11,-0.99,3.11,0.43,5.37
5.1910,0.06,0.11,-0.99,2.99,0.92,4.70
5.1960,0.06,0.10,-0.99,3.05,0.85,3.72
5.2210,0.06,0.11,-0.99,2.87,0.85,2.75
5.2360,0.06,0.12,-0.99,3.42,0.85,2.99
5.2510,0.06,0.13,-0.99,3.60,0.73,3.78
5.2620,0.07,0.13,-0.99,3.54,0.49,4.64
5.2770,0.07,0.11,-0.99,3.66,0.49,5.62
5.2970,0.06,0.10,-0.99,2.93,0.55,5.13
5.3120,0.06,0.11,-0.99,3.17,0.55,4.46
5.3150,0.07,0.11,-0.99,3.72,0.18,3.78
5.3420,0.06,0.12,-0.99,3.85,0.18,3.48
5.3520,0.07,0.11,-0.99,3.36,0.92,3.48
5.3680,0.07,0.11,-0.99,2.99,0.55,2.75
5.3880,0.07,0.11,-0.99,3.48,0.61,3.42
5.3880,0.06,0.12,-0.99,3.36,0.49,3.78
5.4030,0.07,0.11,-0.99,3.17,0.73,3.91
5.4210,0.07,0.11,-0.99,2.87,0.92,3.36
5.4370,0.06,0.12,-0.99,3.11,0.79,3.66
5.4520,0.07,0.12,-0.99,3.54,0.00,4.70
5.4770,0.07,0.11,-0.99,3.85,0.06,5.74
5.4930,0.06,0.11,-0.99,2.75,0.67,4.94
5.5090,0.06,0.11,-0.99,2.81,1.04,3.66
5.5260,0.06,0.12,-0.99,3.60,0.98,4.21
5.5420,0.07,0.11,-0.99,3.54,0.79,4.09
5.5580,0.07,0.11,-0.99,3.30,1.04,3.91
5.5590,0.07,0.12,-0.99,3.17,0.98,3.97
5.5870,0.07,0.11,-0.99,3.23,0.92,3.91
5.5970,0.06,0.11,-0.99,3.48,0.73,3.66
5.6180,0.06,0.11,-0.99,3.36,0.61,3.48
5.6300,0.07,0.12,-0.99,3.97,0.73,4.15
5.6480,0.07,0.12,-0.99,3.66,0.49,5.13
5.6480,0.07,0.11,-0.99,3.17,0.79,5.19
5.6780,0.07,0.11,-0.99,3.23,0.73,4.33
5.6930,0.07,0.12,-0.99,3.36,0.92,4.39
5.7080,0.07,0.12,-0.99,3.66,0.43,5.68
5.7240,0.06,0.11,-0.99,2.99,0.73,6.35
5.7380,0.06,0.11,-0.99,2.99,0.37,5.49
5.7530,0.06,0.10,-0.99,2.81,0.79,5.07
5.7680,0.07,0.10,-0.99,3.17,0.73,4.21
5.7790,0.06,0.11,-0.99,3.66,0.61,3.36
5.7980,0.07,0.12,-1.00,3.60,0.73,3.72
5.8130,0.07,0.12,-1.00,3.48,0.73,4.33
5.8280,0.07,0.11,-0.99,3.30,1.16,4.15
5.8430,0.06,0.11,-0.99,3.05,0.98,3.66
5.8460,0.06,0.11,-0.99,3.42,1.04,3.42
5.8640,0.06,0.12,-0.99,3.48,0.85,3.78
5.8900,0.07,0.12,-0.99,3.60,0.37,4.76
5.9000,0.07,0.12,-0.99,3.60,0.67,5.43
5.9180,0.07,0.12,-0.99,3.30,0.31,5.98
5.9330,0.06,0.11,-0.99,2.69,0.55,5.62
5.9510,0.06,0.11,-0.99,2.75,0.92,4.82
5.9670,0.06,0.11,-1.00,3.78,0.49,4.64
5.9840,0.07,0.11,-0.99,3.54,0.49,4.64
5.9870,0.07,0.12,-0.99,2.99,0.79,4.03
6.0000,0.06,0.11,-0.99,3.05,0.79,4.39
6.0160,0.06,0.11,-0.99,3.36,0.37,4.33
6.0350,0.06,0.11,-0.99,3.54,0.55,4.15
6.0500,0.07,0.12,-0.99,3.54,0.67,4.39
6.0660,0.07,0.12,-0.99,3.17,0.61,5.31
6.0920,0.07,0.11,-0.99,3.05,0.73,5.13
6.1000,0.06,0.11,-0.99,2.99,0.98,4.52
6.1230,0.07,0.11,-0.99,3.23,0.79,4.33
6.1330,0.06,0.11,-0.99,3.30,0.98,3.85
6.1500,0.07,0.12,-0.99,3.48,0.79,4.27
6.1660,0.06,0.11,-0.99,3.11,0.79,4.33
6.1830,0.07,0.12,-0.99,3.42,0.73,5.00
6.1870,0.07,0.12,-0.99,3.36,0.49,5.43
6.2000,0.07,0.12,-0.99,3.11,0.24,5.68
6.2160,0.06,0.11,-0.99,2.99,0.43,5.62
6.2340,0.06,0.11,-0.99,3.23,0.55,4.76
6.2490,0.07,0.12,-0.99,3.48,0.37,4.70
6.2660,0.07,0.12,-0.99,3.48,0.43,5.37
6.2870,0.07,0.13,-1.00,3.54,0.24,6.47
6.3000,0.07,0.12,-1.00,3.54,0.61,7.93
6.3160,0.06,0.10,-0.99,3.23,0.24,7.45
6.3340,0.06,0.11,-0.99,2.87,0.61,6.47
6.3490,0.07,0.12,-0.99,3.36,0.49,6.47
6.3660,0.07,0.12,-0.99,3.48,-0.06,7.45
6.3830,0.07,0.11,-1.00,3.36,0.06,7.20
6.3990,0.07,0.11,-0.99,2.99,0.79,6.04
6.4010,0.07,0.11,-0.99,3.17,0.43,5.25
6.4160,0.07,0.10,-0.99,3.54,0.49,5.25
6.4340,0.07,0.11,-0.99,3.48,0.73,4.33
6.4500,0.06,0.11,-0.99,3.42,0.98,3.66
6.4650,0.07,0.13,-0.99,3.30,0.49,3.85
6.4860,0.07,0.13,-0.99,3.17,0.37,5.55
6.5000,0.07,0.12,-0.99,3.17,0.49,7.32
6.5160,0.06,0.11,-0.99,3.23,0.18,8.12
6.5340,0.07,0.11,-0.99,2.93,0.18,6.90
6.5490,0.07,0.11,-0.99,2.99,0.61,6.10
6.5660,0.06,0.11,-1.00,3.30,0.43,5.00
6.5670,0.06,0.12,-0.99,3.36,0.49,4.33
6.5870,0.07,0.12,-0.99,3.30,0.37,5.13
6.5990,0.06,0.12,-0.99,3.36,0.12,6.53
6.6260,0.06,0.11,-0.99,3.36,-0.12,6.47
6.6330,0.06,0.11,-0.99,2.87,0.67,5.43
6.6490,0.07,0.11,-0.99,2.99,0.24,4.76
6.6670,0.06,0.11,-0.99,3.17,0.73,4.52
6.6860,0.06,0.11,-0.99,3.30,0.43,4.15
6.6990,0.07,0.12,-0.99,3.36,0.67,4.09
6.7170,0.07,0.11,-0.99,3.48,0.24,4.27
6.7330,0.07,0.11,-0.99,3.11,0.85,3.85
6.7490,0.07,0.12,-0.99,3.30,0.49,4.15
6.7650,0.07,0.12,-0.99,3.36,0.37,5.55
6.7820,0.07,0.12,-0.99,3.05,0.43,6.10
6.7860,0.07,0.12,-0.99,3.23,0.49,5.86
6.7990,0.07,0.11,-0.99,3.30,0.49,5.86
6.8170,0.06,0.11,-0.99,3.30,0.49,5.49
6.8320,0.07,0.11,-0.99,3.17,0.55,5.37
6.8490,0.07,0.11,-0.99,3.17,0.49,5.19
6.8650,0.06,0.10,-0.99,2.99,0.61,4.09
6.8940,0.07,0.11,-0.99,3.36,0.67,3.23
6.8990,0.07,0.13,-0.99,3.54,0.79,3.66
6.9150,0.07,0.13,-0.99,3.30,0.67,5.37
6.9310,0.07,0.11,-0.99,3.05,0.37,6.29
6.9510,0.06,0.11,-0.99,2.93,0.67,5.25
6.9680,0.06,0.11,-0.99,2.93,0.55,4.76
6.9850,0.06,0.12,-0.99,3.36,0.49,5.00
7.0010,0.07,0.12,-0.99,3.30,0.49,5.98
7.0170,0.07,0.11,-0.99,3.11,0.61,6.47
7.0320,0.07,0.11,-0.99,3.11,0.79,5.74
7.0480,0.07,0.12,-0.99,3.11,0.73,5.92
7.0640,0.06,0.12,-0.99,3.48,0.37,6.53
7.0680,0.07,0.12,-0.99,2.93,0.24,7.26
7.0860,0.06,0.11,-0.99,2.93,0.43,7.51
7.1050,0.07,0.10,-0.99,2.75,0.49,6.10
7.1230,0.06,0.11,-0.99,3.30,0.67,5.07
7.1390,0.06,0.11,-0.99,3.23,0.85,4.58
7.1540,0.07,0.12,-0.99,3.17,0.61,4.27
7.1700,0.07,0.12,-0.99,2.75,0.79,4.94
7.1840,0.07,0.12,-0.99,3.48,0.98,5.55
7.1890,0.07,0.12,-0.99,3.11,0.61,6.35
7.2050,0.07,0.12,-0.99,2.93,0.55,7.08
7.2270,0.07,0.11,-0.99,3.11,0.31,7.26
7.2430,0.06,0.10,-0.99,2.69,0.67,6.23
7.2600,0.07,0.11,-0.99,2.99,0.79,4.88
7.2780,0.07,0.12,-0.99,3.54,0.37,5.07
7.2930,0.07,0.12,-0.99,3.30,0.79,5.25
7.3090,0.07,0.12,-0.99,2.99,0.73,5.43
7.3250,0.06,0.11,-0.99,2.93,0.49,5.19
7.3400,0.06,0.11,-0.99,2.87,0.55,5.13
7.3540,0.07,0.12,-0.99,3.30,0.92,5.31
7.3700,0.07,0.12,-0.99,3.36,0.55,5.98
7.3860,0.07,0.12,-0.99,3.30,0.55,6.53
7.4020,0.06,0.10,-0.99,3.11,0.67,5.68
7.4170,0.07,0.10,-0.99,2.93,0.67,4.52
7.4320,0.07,0.11,-0.99,3.36,0.92,3.17
7.4420,0.07,0.12,-0.99,3.66,0.92,3.54
7.4590,0.07,0.12,-0.99,3.30,0.49,4.46
7.4750,0.07,0.12,-0.99,3.05,0.67,5.00
7.4920,0.07,0.11,-0.99,2.93,0.73,5.07
7.5060,0.06,0.10,-0.99,2.87,0.85,3.72
7.5220,0.06,0.11,-0.99,3.11,1.22,2.75
7.5320,0.06,0.12,-0.99,3.48,1.16,3.42
7.5470,0.07,0.13,-0.99,3.42,0.67,5.19
7.5680,0.07,0.12,-0.99,3.42,0.43,5.74
7.5700,0.07,0.11,-0.99,2.62,0.43,5.19
7.5870,0.07,0.10,-0.99,2.81,0.61,4.46
7.6150,0.07,0.11,-0.99,3.36,0.92,3.17
7.6210,0.07,0.13,-0.99,3.54,1.10,3.30
7.6370,0.06,0.13,-0.99,3.60,0.49,5.55
7.6580,0.06,0.12,-0.99,3.17,0.31,6.53
7.6740,0.07,0.11,-0.99,2.69,0.18,7.26
7.6910,0.07,0.10,-0.99,3.11,0.37,6.84
7.7060,0.07,0.09,-0.99,2.87,0.49,4.58
7.7210,0.06,0.11,-0.99,2.93,1.04,2.87
7.7370,0.07,0.12,-0.99,3.42,0.79,3.11
7.7410,0.07,0.11,-0.99,3.30,0.92,3.17
7.7570,0.06,0.12,-0.99,3.05,0.79,2.69
7.7780,0.07,0.12,-0.99,3.05,0.61,4.33
7.7940,0.06,0.11,-0.99,2.93,0.79,5.49
7.8110,0.07,0.11,-0.99,2.75,0.73,5.31
7.8270,0.07,0.10,-0.99,2.99,0.79,4.64
7.8430,0.07,0.11,-0.99,3.42,0.92,3.78
7.8580,0.06,0.12,-0.99,3.42,0.73,3.60
7.8730,0.06,0.12,-0.99,3.11,0.61,4.64
7.8870,0.07,0.11,-0.99,3.05,0.43,5.31
7.8940,0.07,0.12,-0.99,3.11,0.55,5.25
7.9190,0.07,0.11,-0.99,3.36,0.85,5.31
7.9340,0.07,0.12,-0.99,3.72,0.31,5.07
7.9500,0.07,0.12,-0.99,3.11,0.85,5.80
7.9510,0.06,0.11,-0.99,2.81,0.55,5.80
7.9810,0.06,0.11,-0.99,2.93,0.67,6.16
7.9960,0.07,0.12,-0.99,2.93,0.67,5.98
8.0120,0.07,0.11,-0.99,3.36,0.43,6.10
8.0280,0.07,0.12,-0.99,3.23,0.61,5.86
8.0440,0.06,0.12,-0.99,3.30,0.18,6.71
8.0600,0.07,0.11,-0.99,2.93,0.43,7.57
8.0760,0.07,0.10,-0.99,2.50,0.37,6.65
8.0910,0.07,0.12,-0.99,2.99,0.61,5.92
8.1060,0.06,0.12,-0.99,3.05,0.73,6.47
8.1170,0.06,0.12,-0.99,2.81,0.12,7.51
8.1340,0.07,0.11,-0.99,2.75,0.37,8.00
8.1500,0.07,0.10,-0.99,2.87,0.12,7.87
8.1670,0.07,0.11,-0.99,2.87,0.43,6.41
8.1840,0.07,0.11,-0.99,2.93,0.18,5.31
8.1990,0.07,0.11,-0.99,3.17,0.31,4.58
8.2010,0.07,0.12,-0.99,3.60,0.43,5.00
8.2180,0.07,0.11,-0.99,3.66,0.24,5.68
8.2460,0.07,0.12,-0.99,2.93,0.43,5.07
8.2510,0.07,0.11,-0.99,3.05,0.79,5.31
8.2780,0.07,0.11,-0.99,2.93,0.37,4.21
8.2920,0.07,0.12,-0.99,3.66,0.24,3.97
8.3070,0.07,0.12,-0.99,3.91,0.31,4.70
8.3170,0.07,0.11,-0.99,3.36,0.49,4.64
8.3360,0.07,0.11,-0.99,3.05,0.85,4.33
8.3510,0.06,0.11,-0.99,3.11,0.79,4.27
8.3690,0.07,0.11,-0.99,3.11,0.55,3.54
8.3850,0.07,0.13,-0.99,3.48,0.49,4.03
8.4000,0.07,0.13,-0.99,3.66,0.73,5.68
8.4160,0.07,0.12,-0.99,3.17,0.43,6.47
8.4310,0.07,0.11,-0.99,2.81,0.79,7.14
8.4460,0.07,0.11,-0.99,2.93,0.55,5.62
8.4610,0.07,0.12,-0.99,3.42,0.49,5.55
8.4760,0.06,0.11,-1.00,3.23,0.37,6.04
8.4880,0.06,0.10,-0.99,2.93,0.43,5.49
8.5040,0.07,0.11,-0.99,2.87,1.04,3.42
8.5210,0.07,0.13,-0.99,3.42,0.73,3.05
8.5370,0.07,0.12,-0.99,3.78,0.37,5.55
8.5520,0.07,0.12,-0.99,2.75,0.12,6.53
8.5670,0.06,0.11,-1.00,2.62,0.67,6.59
8.5840,0.06,0.10,-0.99,2.75,0.61,4.94
8.5990,0.07,0.10,-0.99,3.36,0.98,3.42
8.6040,0.06,0.12,-0.99,3.66,1.22,2.93
8.6190,0.07,0.12,-0.99,3.36,0.85,3.17
8.6420,0.07,0.12,-0.99,3.48,0.92,4.21
8.6590,0.07,0.12,-0.99,3.30,0.67,4.88
8.6760,0.07,0.11,-0.99,3.30,0.49,4.94
8.6910,0.06,0.11,-0.99,3.30,0.85,4.46
8.7060,0.07,0.12,-0.99,3.23,0.55,4.58
8.7090,0.07,0.12,-0.99,3.11,0.55,5.98
8.7250,0.07,0.12,-0.99,2.81,0.31,6.59
8.7520,0.07,0.10,-0.99,2.87,0.73,6.65
8.7630,0.06,0.11,-0.99,3.23,0.67,5.31
8.7800,0.06,0.11,-0.99,3.11,0.92,4.52
8.7960,0.06,0.12,-0.99,3.48,0.79,3.66
8.7970,0.06,0.13,-0.99,3.42,0.73,4.82
8.8280,0.07,0.12,-0.99,3.30,0.61,5.55
8.8430,0.07,0.11,-0.99,2.81,0.67,5.98
8.8590,0.07,0.10,-0.99,2.69,0.79,5.68
8.8750,0.07,0.11,-0.99,2.99,0.67,4.09
8.8910,0.07,0.12,-0.99,3.60,0.61,4.03
8.9070,0.07,0.12,-0.99,3.54,0.79,4.76
8.9230,0.07,0.11,-0.99,3.23,0.55,5.80
8.9390,0.06,0.11,-1.00,2.99,0.31,5.80
8.9470,0.06,0.09,-0.99,2.99,0.61,3.48
8.9630,0.07,0.12,-0.99,3.54,0.92,2.93
8.9800,0.07,0.12,-0.99,3.78,0.92,4.27
8.9980,0.07,0.12,-0.99,3.36,0.31,5.62
9.0140,0.07,0.11,-0.99,3.30,0.12,6.53
9.0290,0.06,0.10,-0.99,3.36,0.12,6.35
9.0450,0.06,0.10,-0.99,3.23,0.67,3.60
9.0620,0.07,0.12,-0.99,3.42,0.92,2.01
9.0780,0.07,0.13,-0.99,3.54,0.98,2.93
9.0940,0.07,0.13,-0.99,3.48,0.24,5.19
9.1090,0.07,0.12,-0.99,3.23,0.06,6.96
9.1250,0.07,0.10,-0.99,3.11,0.37,7.14
9.1290,0.07,0.10,-0.99,2.81,0.18,5.55
9.1450,0.07,0.09,-0.99,2.99,0.79,2.75
9.1710,0.07,0.11,-0.99,3.54,0.79,1.71
9.1830,0.07,0.11,-0.99,3.60,1.22,1.71
9.1990,0.07,0.12,-0.99,3.48,0.79,1.71
9.2150,0.07,0.12,-0.99,3.42,0.85,3.72
9.2320,0.07,0.11,-0.99,3.23,0.55,4.09
9.2480,0.06,0.10,-0.99,2.99,1.10,3.48
9.2640,0.07,0.11,-0.99,3.54,1.10,1.71
9.2800,0.07,0.11,-0.99,3.54,1.16,1.59
9.2870,0.07,0.11,-0.99,3.36,1.28,1.71
9.2990,0.07,0.11,-0.99,3.66,1.28,1.53
9.3150,0.07,0.11,-0.99,3.42,1.22,1.46
9.3360,0.07,0.11,-0.99,3.17,0.73,1.53
9.3540,0.07,0.11,-0.99,3.30,1.22,1.53
9.3700,0.07,0.11,-0.99,3.54,1.28,1.53
9.3850,0.07,0.11,-0.99,3.66,1.04,1.59
9.4010,0.07,0.11,-0.99,3.48,1.46,1.71
9.4160,0.07,0.11,-0.99,3.60,1.46,1.59
9.4320,0.07,0.11,-0.99,3.66,1.59,1.65
9.4360,0.07,0.11,-0.99,3.54,1.59,1.59
9.4520,0.07,0.11,-0.99,3.72,0.85,1.59
9.4750,0.06,0.11,-0.99,3.85,1.16,1.71
9.4910,0.07,0.11,-0.99,3.85,1.04,1.59
9.5090,0.07,0.11,-0.99,3.78,0.79,1.53
9.5240,0.07,0.11,-0.99,3.66,0.85,1.71
9.5410,0.07,0.11,-0.99,3.60,1.22,1.59
9.5560,0.07,0.11,-0.99,3.30,0.92,1.59
9.5730,0.07,0.11,-0.99,3.48,0.98,1.65
9.5870,0.07,0.11,-0.99,3.72,0.85,1.53
9.5910,0.07,0.11,-0.99,3.60,1.16,1.65
9.6130,0.07,0.11,-0.99,3.54,1.22,1.59
9.6300,0.06,0.11,-0.99,3.36,1.16,1.59
9.6470,0.07,0.11,-0.99,3.66,1.22,1.53
9.6630,0.07,0.11,-0.99,3.72,1.34,1.53
9.6790,0.07,0.11,-0.99,3.36,1.46,1.53
9.6940,0.07,0.11,-0.99,3.78,1.46,1.59
9.7100,0.07,0.11,-0.99,3.72,1.28,1.59
9.7250,0.07,0.11,-0.99,3.42,1.16,1.46
9.7300,0.07,0.11,-1.01,3.05,1.28,1.46
9.7460,0.07,0.12,-0.98,3.85,0.79,1.59
9.7690,0.07,0.12,-1.00,3.78,0.79,1.40
9.7850,0.07,0.12,-0.99,3.78,0.79,1.53
9.8000,0.07,0.11,-0.99,3.17,1.04,1.59
9.8160,0.07,0.11,-0.99,3.42,1.04,1.34
9.8320,0.07,0.12,-0.99,3.54,1.16,1.59
9.8470,0.07,0.11,-0.99,3.72,0.61,1.65
9.8630,0.07,0.12,-0.99,3.48,1.22,1.65
9.8800,0.07,0.12,-0.99,3.60,0.98,1.46
9.8940,0.07,0.11,-0.99,3.48,0.43,1.53
9.9110,0.07,0.11,-0.99,3.48,0.79,1.53
9.9260,0.07,0.12,-0.99,3.78,0.73,1.53
9.9410,0.07,0.12,-1.00,3.97,0.79,1.53
9.9520,0.07,0.11,-0.99,3.78,0.85,1.46
9.9680,0.07,0.11,-0.99,3.54,0.49,1.40
9.9850,0.07,0.11,-0.99,3.72,1.04,1.59
10.0010,0.07,0.11,-0.99,3.78,0.92,1.46
10.0160,0.07,0.12,-0.99,3.72,1.22,1.53
10.0190,0.07,0.12,-0.99,3.30,1.59,1.53
10.0460,0.07,0.11,-0.99,3.23,1.34,1.59
10.0560,0.07,0.11,-0.99,3.11,1.59,1.46
10.0740,0.07,0.11,-0.99,3.66,1.46,1.65
10.0900,0.07,0.12,-0.99,3.85,1.59,1.65
10.1070,0.07,0.12,-0.99,3.78,1.34,1.65
10.1220,0.06,0.12,-0.99,3.78,1.22,1.53
10.1390,0.07,0.11,-0.99,3.42,0.98,1.46
10.1550,0.07,0.11,-0.99,3.78,0.79,1.59
10.1700,0.07,0.12,-0.99,3.66,0.67,1.59
10.1850,0.07,0.11,-0.99,3.54,1.46,1.59
10.2010,0.07,0.11,-0.99,3.36,0.92,1.53
10.2160,0.07,0.11,-0.99,3.60,0.98,1.53
10.2320,0.07,0.11,-0.99,3.66,0.98,1.53
10.2400,0.07,0.11,-0.99,3.66,1.16,1.46
10.2560,0.07,0.12,-0.99,3.72,1.34,1.53
10.2710,0.07,0.12,-0.99,3.72,1.16,1.53
10.2920,0.07,0.11,-0.99,3.66,0.73,1.46
10.3080,0.07,0.12,-0.99,3.78,0.98,1.65
10.3090,0.07,0.12,-0.99,3.72,1.10,1.65
10.3260,0.07,0.12,-0.99,3.91,1.10,1.65
10.3430,0.07,0.12,-0.99,3.72,1.22,1.53
10.3590,0.07,0.12,-0.99,3.97,1.04,1.59
10.3860,0.07,0.12,-0.99,3.97,0.85,1.65
10.3970,0.07,0.11,-0.99,4.03,0.92,1.71
10.4140,0.07,0.12,-0.99,4.33,0.85,1.65
10.4310,0.07,0.11,-0.99,4.39,0.79,1.71
10.4470,0.07,0.12,-0.99,4.46,0.79,1.71
10.4630,0.07,0.12,-0.99,4.88,1.40,1.46
10.4790,0.07,0.12,-0.98,4.76,1.04,1.10
10.4870,0.07,0.12,-0.99,5.31,1.04,1.04
10.4970,0.07,0.12,-0.99,5.74,1.16,0.85
10.5130,0.07,0.12,-0.99,6.16,1.04,0.61
10.5290,0.07,0.11,-0.99,6.10,1.40,0.24
10.5510,0.07,0.12,-0.99,6.77,1.40,-0.61
10.5680,0.06,0.12,-0.99,6.41,1.59,-1.16
10.5840,0.05,0.11,-0.99,4.94,0.98,-1.46
10.6010,0.08,0.13,-0.99,5.68,1.40,-4.15
10.6170,0.07,0.13,-0.99,4.46,2.44,-5.43
10.6190,0.07,0.11,-0.99,3.36,2.32,-7.08
10.6470,0.07,0.11,-0.99,3.48,3.11,-11.17
10.6630,0.07,0.11,-0.99,2.93,3.54,-14.53
10.6790,0.07,0.11,-0.99,2.62,3.48,-15.87
10.6950,0.07,0.13,-1.00,2.26,4.39,-20.14
10.7110,0.07,0.09,-0.99,2.14,5.25,-27.10
10.7270,0.08,0.12,-0.99,5.25,5.49,-26.86
10.7360,0.09,0.13,-1.01,1.04,5.43,-29.30
10.7510,0.05,0.13,-1.00,0.73,4.52,-23.32
10.7670,0.06,0.12,-0.98,3.54,3.17,-13.49
10.7890,0.06,0.13,-0.99,4.33,2.81,-7.69
10.8060,0.07,0.13,-0.99,4.21,2.14,-4.64
10.8210,0.06,0.13,-0.99,4.03,1.83,-2.38
10.8370,0.07,0.12,-0.99,3.72,1.10,-0.67
10.8530,0.07,0.12,-0.99,3.60,1.34,-0.37
10.8690,0.06,0.12,-0.99,2.81,1.53,-0.37
10.8850,0.07,0.13,-0.99,1.89,1.46,1.34
10.9000,0.08,0.16,-0.98,2.50,1.22,-0.73
10.9150,0.03,0.08,-1.01,5.00,1.04,2.50
10.9280,0.06,0.08,-0.99,2.69,0.49,7.02
10.9440,0.07,0.11,-0.99,3.60,0.92,4.09
10.9550,0.07,0.12,-1.00,3.42,1.65,2.08
10.9730,0.09,0.12,-1.02,4.27,3.66,3.54
10.9890,0.10,0.14,-1.14,6.90,19.29,6.71
11.0050,0.05,0.17,-1.19,5.74,55.60,12.27
11.0220,0.08,0.11,-1.14,9.09,87.77,19.84
11.0390,0.03,0.09,-1.21,32.71,100.77,29.54
11.0540,-0.10,0.14,-1.32,31.01,91.61,38.82
11.0710,-0.04,0.22,-1.19,7.45,48.89,43.15
11.0870,-0.01,0.12,-1.02,-8.24,2.32,27.34
11.1030,-0.10,-0.06,-1.00,-5.68,-11.11,17.15
11.1050,-0.22,-0.03,-1.06,7.14,-8.06,16.54
11.1200,-0.27,-0.06,-0.93,1.59,-9.83,4.27
11.1500,-0.26,-0.06,-0.70,0.37,-16.17,-26.61
11.1650,-0.18,-0.01,-0.49,3.42,-2.50,-58.17
11.1760,-0.15,0.03,-0.47,2.99,23.19,-77.21
11.1930,-0.07,0.06,-0.51,-2.14,26.73,-76.97
11.2090,-0.00,0.09,-0.54,-3.30,14.71,-65.55
11.2260,0.08,0.15,-0.71,7.39,4.15,-56.58
11.2440,0.11,0.18,-0.88,3.05,13.00,-67.32
11.2590,0.14,0.19,-0.92,-1.83,34.12,-69.70
11.2760,0.21,0.22,-0.97,6.71,51.64,-31.43
11.2930,0.06,0.23,-1.06,15.50,48.89,-0.12
11.2940,-0.04,0.23,-1.17,18.31,19.35,0.18
11.3240,-0.05,0.24,-1.15,1.22,-8.00,-7.81
11.3260,0.13,0.06,-0.90,-21.42,-100.04,-26.49
11.3560,-0.05,0.33,-1.42,34.12,-74.52,-20.57
11.3720,-0.18,0.18,-1.12,-19.35,-4.82,23.25
11.3870,-0.03,0.24,-0.85,1.59,41.81,34.85
11.4020,0.02,0.12,-0.75,5.19,36.25,20.45
11.4180,-0.07,0.01,-0.93,8.12,-11.11,6.77
11.4320,-0.03,0.02,-0.87,7.32,-64.33,-10.31
11.4420,-0.04,0.05,-1.00,-3.91,-76.17,-19.35
11.4590,0.02,0.11,-1.05,-23.50,-69.52,-18.07
11.4760,0.07,0.18,-1.03,-12.70,-50.78,-7.45
11.4930,0.05,0.17,-1.02,-2.62,-34.18,6.47
11.5100,0.05,0.16,-1.04,-2.08,-21.36,14.53
11.5260,0.02,0.11,-0.99,-7.81,-11.17,7.69
11.5430,0.03,0.11,-0.97,-4.39,-11.60,5.49
11.5590,0.07,0.06,-0.98,1.16,-12.82,5.07
11.5750,0.04,0.07,-1.01,10.50,-1.22,5.49
11.5910,0.06,0.12,-0.99,8.79,-0.92,1.89
11.5930,0.07,0.12,-1.00,7.45,-0.55,1.83
11.6220,0.07,0.11,-0.99,4.33,0.49,1.89
11.6380,0.07,0.11,-0.99,4.15,0.61,1.77
11.6420,0.07,0.11,-0.99,4.70,0.31,1.59
11.6570,0.07,0.12,-0.99,5.19,0.98,1.65
11.6850,0.07,0.12,-0.99,4.82,1.16,1.59
11.6960,0.07,0.11,-0.99,4.82,1.04,1.59
11.7130,0.06,0.11,-1.00,4.94,1.10,1.40
11.7300,0.05,0.13,-0.99,6.84,1.89,1.46
11.7460,0.07,0.15,-1.01,1.34,2.08,0.85
11.7630,0.07,0.13,-1.00,2.69,1.83,1.40
11.7790,0.06,0.11,-0.99,2.87,1.10,1.59
11.7950,0.07,0.11,-0.99,3.23,1.28,1.46
11.8100,0.07,0.12,-0.99,3.54,1.10,1.59
11.8250,0.07,0.12,-0.99,3.72,1.16,1.59
11.8400,0.07,0.12,-0.99,3.54,1.10,1.65
11.8550,0.06,0.12,-0.99,3.54,1.28,1.59
11.8700,0.06,0.12,-0.99,3.42,1.16,1.53
11.8850,0.07,0.12,-0.99,3.48,1.16,1.59
11.8970,0.07,0.11,-0.99,3.17,1.34,1.40
11.9130,0.07,0.12,-0.99,3.66,1.89,-0.61
11.9290,0.06,0.14,-0.99,3.54,1.34,0.61
11.9460,0.06,0.11,-0.98,-0.24,1.46,2.14
11.9620,0.06,0.12,-0.98,1.71,0.18,4.39
11.9780,0.06,0.12,-0.99,3.60,0.55,4.82
11.9940,0.03,0.14,-0.99,3.48,0.37,6.53
12.0100,0.07,0.14,-0.98,1.89,-0.37,11.72
12.0140,0.09,0.13,-0.99,2.08,0.00,11.60
12.0420,0.11,0.13,-0.98,2.20,0.24,10.19
12.0580,0.06,0.11,-0.99,3.72,0.73,5.68
12.0740,0.07,0.07,-0.99,4.03,0.06,7.45
12.0890,0.07,0.08,-1.00,3.36,0.00,7.69
12.1050,0.07,0.09,-1.00,3.42,0.98,6.71
12.1210,0.07,0.10,-0.99,2.56,0.85,4.64
12.1360,0.07,0.11,-0.99,2.87,1.71,2.01
12.1510,0.07,0.12,-0.99,3.05,1.16,1.46
12.1620,0.06,0.13,-0.99,2.87,1.10,2.26
12.1790,0.07,0.12,-0.99,2.38,0.73,5.68
12.1960,0.07,0.11,-0.99,2.44,0.55,6.53
12.2120,0.07,0.10,-0.99,2.38,0.92,4.33
12.2280,0.07,0.12,-0.99,3.17,0.92,3.17
12.2300,0.07,0.13,-0.99,3.60,0.98,3.11
12.2600,0.08,0.13,-0.99,3.97,0.73,2.56
12.2760,0.07,0.12,-0.99,4.09,0.49,3.30
12.2920,0.06,0.09,-1.00,3.60,0.73,3.66
12.3070,0.07,0.12,-0.99,3.48,1.10,2.62
12.3240,0.07,0.13,-0.99,3.66,0.67,4.15
12.3390,0.07,0.13,-0.99,3.78,0.55,5.68
12.3560,0.06,0.09,-0.99,3.17,0.85,6.77
12.3710,0.05,0.08,-1.00,2.56,0.92,3.72
12.3880,0.06,0.11,-0.99,3.91,0.85,2.38
12.3960,0.07,0.12,-0.99,4.15,1.34,2.32
12.4120,0.07,0.13,-0.99,3.66,1.04,3.66
12.4340,0.07,0.11,-0.99,3.42,0.67,4.09
12.4490,0.07,0.12,-0.99,3.54,0.31,3.91
12.4640,0.06,0.10,-0.99,3.66,0.67,4.33
12.4810,0.06,0.10,-0.99,3.42,1.10,2.44
12.4960,0.07,0.11,-0.99,3.72,0.92,1.46
12.5110,0.07,0.12,-0.99,4.64,1.46,1.59
12.5270,0.07,0.11,-0.99,4.27,1.16,1.59
12.5420,0.06,0.12,-0.99,4.15,0.73,1.40
12.5520,0.07,0.11,-0.99,3.72,0.79,1.46
12.5690,0.07,0.11,-0.99,4.21,1.22,1.22
12.5860,0.06,0.11,-0.99,4.52,1.59,0.18
12.6020,0.07,0.10,-0.99,5.13,1.77,-3.42
12.6180,0.12,0.13,-1.00,3.05,1.65,-0.98
12.6350,0.06,0.12,-1.00,5.25,1.10,-1.40
12.6510,0.06,0.12,-0.99,3.66,1.83,-0.79
12.6670,0.06,0.12,-0.99,3.36,1.71,0.37
12.6830,0.07,0.12,-0.99,3.48,1.53,1.46
12.6990,0.07,0.12,-0.99,3.66,0.85,1.34
12.7140,0.07,0.12,-0.99,3.42,1.40,1.46
12.7300,0.07,0.12,-0.99,3.36,1.40,1.22
12.7450,0.07,0.12,-0.99,3.48,0.85,1.28
12.7600,0.06,0.12,-0.99,3.48,1.04,1.34
12.7750,0.07,0.12,-0.99,3.48,1.34,1.34
12.7860,0.07,0.12,-0.99,3.54,1.16,1.34
12.8020,0.07,0.12,-0.99,3.48,1.28,1.46
12.8180,0.07,0.12,-0.99,3.48,1.28,1.34
12.8350,0.07,0.12,-0.99,3.72,0.92,1.16
12.8510,0.07,0.12,-0.99,3.66,1.22,1.40
12.8680,0.07,0.12,-0.99,3.60,1.04,1.34
12.8850,0.07,0.12,-0.99,3.60,0.98,1.53
12.9000,0.07,0.12,-0.99,3.78,0.92,1.40
12.9170,0.07,0.11,-0.99,2.75,1.46,0.67
12.9330,0.07,0.11,-0.99,3.54,1.89,-2.08
12.9480,0.07,0.12,-0.99,4.21,1.71,-3.54
12.9630,0.07,0.13,-0.99,3.78,1.71,-2.44
12.9800,0.05,0.13,-0.99,3.36,1.71,-0.43
12.9950,0.06,0.11,-0.99,3.17,1.04,1.46
13.0110,0.07,0.11,-0.99,3.11,1.10,1.46
13.0270,0.07,0.11,-0.99,3.54,1.22,1.46
13.0420,0.09,0.12,-0.99,3.97,1.40,1.04
13.0570,0.07,0.12,-0.99,3.97,1.34,-0.24
13.0680,0.08,0.12,-0.99,3.97,1.34,-0.73
13.0860,0.07,0.12,-0.99,3.91,1.46,-0.79
13.1020,0.06,0.12,-0.99,3.72,1.46,-0.37
13.1180,0.05,0.11,-0.99,3.48,1.28,0.31
13.1330,0.06,0.12,-0.99,3.72,1.16,0.85
13.1480,0.07,0.11,-0.99,3.54,1.22,0.98
13.1630,0.06,0.12,-0.99,3.60,1.40,1.10
13.1790,0.07,0.12,-0.99,3.54,1.22,1.10
13.1940,0.09,0.12,-0.99,3.54,1.28,0.85
13.2100,0.06,0.11,-0.99,3.78,1.59,0.61
13.2260,0.07,0.12,-0.99,3.97,1.16,0.67
13.2410,0.07,0.12,-0.99,3.60,1.40,0.67
13.2510,0.07,0.12,-0.99,3.66,1.34,0.85
13.2670,0.07,0.12,-0.99,3.66,1.46,1.16
13.2860,0.07,0.12,-0.99,3.60,1.71,1.04
13.3010,0.07,0.12,-0.99,3.60,1.22,1.16
13.3180,0.06,0.11,-0.99,3.85,1.28,1.40
13.3340,0.05,0.11,-0.99,3.54,1.28,1.34
13.3500,0.06,0.12,-0.99,3.42,1.28,1.22
13.3660,0.07,0.12,-0.99,3.42,1.16,1.22
13.3820,0.07,0.12,-0.99,3.60,1.59,0.92
13.3960,0.08,0.12,-0.99,3.48,1.40,1.10
13.4120,0.07,0.12,-0.99,3.17,1.22,1.10
13.4170,0.05,0.11,-0.99,3.42,1.16,1.53
13.4340,0.06,0.11,-0.99,3.78,1.40,1.40
13.4500,0.07,0.12,-1.00,4.03,1.22,1.22
13.4720,0.08,0.12,-0.99,3.85,1.34,1.22
13.4890,0.06,0.12,-0.99,3.48,0.73,1.40
13.5040,0.06,0.11,-0.99,3.60,0.98,1.40
13.5060,0.06,0.11,-0.99,3.72,1.28,1.53
13.5360,0.07,0.12,-0.99,3.91,1.28,1.16
13.5530,0.07,0.12,-0.99,3.54,1.04,0.79
13.5550,0.07,0.12,-0.99,3.17,0.98,0.73
13.5710,0.07,0.11,-0.99,3.85,0.92,0.98
13.5940,0.06,0.11,-0.99,3.97,0.85,0.92
13.6160,0.07,0.12,-0.99,4.09,1.46,1.10
13.6270,0.07,0.12,-0.99,3.54,1.34,0.85
13.6430,0.07,0.12,-0.99,3.54,1.53,0.92
13.6600,0.06,0.11,-0.99,3.60,1.34,0.92
13.6760,0.07,0.11,-0.99,3.54,1.22,0.37
13.6920,0.06,0.12,-0.99,3.72,1.22,0.55
13.7090,0.06,0.12,-0.99,3.60,1.34,0.55
13.7240,0.07,0.12,-0.99,3.48,1.22,0.73
13.7400,0.07,0.11,-0.99,3.48,1.34,0.61
13.7560,0.06,0.11,-0.99,3.78,1.40,0.67
13.7720,0.06,0.12,-0.99,3.54,1.10,0.67
13.7850,0.06,0.12,-0.99,3.54,1.16,1.04
13.7920,0.06,0.12,-0.99,3.72,1.04,1.10
13.8170,0.08,0.12,-0.99,3.60,1.22,1.10
13.8330,0.07,0.12,-0.99,3.60,1.04,0.73
13.8490,0.07,0.12,-0.99,3.66,0.79,0.61
13.8650,0.08,0.12,-0.99,3.60,1.34,1.22
13.8810,0.07,0.11,-0.99,3.42,0.92,1.53
13.8970,0.06,0.12,-0.99,3.78,0.79,1.22
13.9120,0.07,0.12,-0.99,3.66,1.46,1.10
13.9280,0.07,0.12,-0.99,3.23,1.53,0.98
13.9420,0.07,0.12,-0.99,3.11,1.34,0.85
13.9580,0.06,0.12,-0.99,3.30,1.46,1.22
13.9670,0.06,0.12,-0.99,3.60,1.04,1.46
13.9850,0.06,0.11,-0.99,3.78,1.34,1.40
14.0040,0.06,0.11,-0.99,4.03,1.22,1.10
14.0190,0.08,0.12,-0.99,4.09,1.22,1.10
14.0350,0.07,0.12,-0.99,3.54,1.34,1.04
14.0510,0.07,0.12,-0.99,3.36,1.28,1.10
14.0550,0.06,0.12,-0.99,3.54,0.92,1.34
14.0710,0.07,0.12,-0.99,3.30,0.92,1.53
14.0950,0.07,0.12,-0.99,3.66,1.04,1.40
14.1110,0.08,0.12,-0.99,3.78,1.04,1.10
14.1290,0.08,0.12,-0.99,3.60,0.92,1.10
14.1440,0.07,0.12,-0.99,3.23,1.04,1.34
14.1590,0.06,0.12,-0.99,3.30,1.04,1.40
14.1750,0.06,0.11,-0.99,3.66,1.10,1.40
14.1850,0.07,0.12,-0.99,3.36,1.10,1.34
14.1940,0.06,0.12,-0.99,3.48,1.22,0.92
14.2140,0.06,0.12,-0.99,3.60,0.98,1.10
14.2320,0.07,0.12,-0.99,3.23,1.22,1.16
14.2480,0.07,0.11,-0.99,3.60,0.98,1.34
14.2650,0.06,0.12,-0.99,3.78,1.04,1.28
14.2810,0.07,0.12,-0.99,3.85,1.22,1.16
14.2970,0.07,0.12,-0.99,3.30,1.16,1.10
14.3130,0.06,0.12,-0.99,3.30,1.16,1.34
14.3280,0.07,0.12,-0.99,3.48,1.10,1.28
14.3430,0.07,0.12,-0.99,3.85,1.16,1.28
14.3590,0.07,0.11,-0.99,3.54,1.59,1.22
14.3750,0.07,0.12,-0.99,3.72,1.16,0.98
14.3850,0.07,0.12,-0.99,3.17,1.28,1.04
14.3960,0.06,0.12,-0.99,3.30,1.40,1.22
14.4170,0.06,0.12,-0.99,3.60,1.22,1.22
14.4350,0.06,0.12,-0.99,3.91,1.10,1.40
14.4510,0.08,0.12,-0.99,3.85,1.34,1.22
14.4660,0.07,0.12,-0.99,3.48,1.71,0.92
14.4820,0.06,0.12,-0.99,3.30,1.22,1.34
14.4980,0.06,0.12,-0.99,3.23,1.34,1.34
14.5130,0.07,0.12,-0.99,3.36,1.34,1.59
14.5280,0.08,0.11,-0.99,3.66,1.46,1.34
14.5440,0.08,0.12,-0.99,3.66,1.34,0.85
14.5590,0.07,0.12,-0.99,3.36,1.04,1.04
14.5750,0.07,0.12,-0.99,3.48,1.22,1.59
14.5890,0.06,0.11,-0.99,3.36,1.16,1.59
14.6010,0.07,0.11,-0.99,3.72,1.22,1.34
14.6170,0.07,0.12,-0.99,3.60,1.28,0.61
14.6340,0.06,0.12,-0.99,3.60,1.22,0.43
14.6500,0.06,0.12,-0.99,3.48,0.85,0.79
14.6670,0.06,0.12,-0.99,3.85,1.04,0.92
14.6820,0.07,0.12,-0.99,3.42,1.04,1.04
14.6970,0.07,0.12,-0.99,3.48,1.04,1.40
14.7130,0.07,0.12,-0.99,3.91,1.34,1.71
14.7290,0.08,0.12,-0.99,3.60,1.28,1.77
14.7440,0.07,0.12,-0.99,3.42,1.10,1.89
14.7590,0.07,0.12,-0.99,3.36,1.28,2.26
14.7740,0.06,0.11,-0.99,3.48,1.10,1.95
14.7840,0.07,0.12,-0.99,3.54,1.04,1.46
14.8000,0.07,0.12,-0.99,3.48,1.34,1.22
14.8170,0.07,0.12,-0.99,3.30,1.04,1.22
14.8330,0.06,0.12,-0.99,3.42,1.22,1.40
14.8490,0.06,0.11,-0.99,3.66,0.98,1.34
14.8650,0.07,0.12,-0.99,3.78,1.10,1.28
14.8820,0.08,0.12,-0.99,3.78,0.85,1.04
14.8980,0.07,0.12,-0.99,3.30,1.10,1.16
14.9120,0.07,0.12,-0.99,3.66,1.04,1.65
14.9280,0.06,0.12,-0.99,3.78,1.28,1.34
14.9330,0.06,0.11,-0.99,3.91,1.16,1.22
14.9490,0.07,0.12,-0.99,3.72,1.16,0.98
14.9720,0.07,0.12,-0.99,3.05,1.10,1.22
14.9880,0.07,0.12,-0.99,3.42,0.79,1.46
15.0060,0.06,0.12,-0.99,3.48,1.65,1.77
15.0210,0.06,0.12,-0.99,3.42,0.98,1.28
15.0230,0.07,0.12,-0.99,3.42,1.04,0.92
15.0400,0.08,0.12,-0.99,3.17,1.04,0.92
15.0690,0.07,0.12,-0.99,3.17,1.04,1.34
15.0850,0.07,0.12,-0.99,3.17,0.92,2.08
15.1020,0.06,0.11,-0.99,3.05,1.28,1.77
15.1170,0.06,0.12,-0.99,3.42,1.40,1.46
15.1230,0.06,0.11,-0.99,3.66,1.59,1.53
15.1400,0.07,0.12,-0.99,3.78,1.16,1.04
15.1560,0.08,0.12,-0.99,3.23,1.16,0.92
15.1710,0.06,0.12,-0.99,3.23,1.22,0.98
15.1870,0.06,0.12,-0.99,3.36,1.34,1.04
15.2100,0.08,0.12,-0.99,3.23,1.10,1.22
15.2260,0.06,0.12,-0.99,3.48,1.16,0.98
15.2280,0.06,0.12,-0.99,3.54,1.10,0.98
15.2440,0.06,0.11,-0.99,3.42,1.28,1.22
15.2670,0.06,0.12,-0.99,3.48,0.85,1.10
15.2840,0.06,0.12,-0.99,3.48,0.98,1.04
15.2990,0.06,0.12,-0.99,3.54,1.22,1.22
15.3160,0.07,0.11,-0.99,3.42,1.28,1.46
15.3330,0.07,0.11,-0.99,3.66,1.28,1.04
15.3490,0.07,0.12,-0.99,3.36,1.34,0.67
15.3650,0.07,0.12,-0.99,3.30,1.16,0.73
15.3810,0.07,0.11,-0.99,3.54,1.04,0.85
15.3970,0.06,0.12,-0.99,3.60,0.79,1.04
15.4130,0.06,0.12,-0.99,3.66,0.85,1.34
15.4290,0.07,0.12,-0.99,3.17,1.40,1.65
15.4330,0.07,0.11,-0.99,3.48,0.85,1.40
15.4480,0.08,0.12,-0.99,3.48,0.92,1.22
15.4760,0.07,0.12,-0.99,3.66,1.40,0.92
15.4870,0.06,0.11,-0.99,3.17,1.59,1.28
15.5040,0.06,0.11,-0.99,3.42,1.22,1.10
15.5220,0.08,0.12,-0.99,3.72,1.40,1.04
15.5370,0.07,0.12,-0.99,3.42,1.16,0.85
15.5380,0.06,0.12,-0.99,3.42,1.04,1.16
15.5680,0.06,0.11,-0.99,3.42,1.10,1.53
15.5850,0.06,0.11,-0.99,3.66,0.92,1.34
15.6010,0.08,0.12,-0.99,3.78,1.16,1.16
15.6170,0.07,0.12,-0.99,3.66,1.16,0.85
15.6330,0.06,0.12,-0.99,3.78,0.85,1.16
15.6490,0.07,0.12,-0.99,3.66,0.98,1.28
15.6640,0.06,0.12,-0.99,3.60,1.04,1.46
15.6700,0.07,0.11,-0.99,3.60,1.34,1.46
15.6860,0.07,0.11,-0.99,3.48,1.16,1.16
15.7070,0.06,0.11,-0.99,3.78,0.98,1.16
15.7240,0.06,0.12,-0.99,3.72,1.22,1.16
15.7390,0.07,0.12,-0.99,3.23,1.34,1.65
15.7560,0.07,0.12,-0.99,3.23,0.85,1.77
15.7720,0.07,0.11,-0.99,3.60,1.04,1.46
15.7870,0.07,0.12,-0.99,3.72,1.10,0.98
15.8030,0.06,0.12,-0.99,3.66,1.16,0.98
15.8180,0.06,0.12,-0.99,3.36,0.98,1.22
15.8340,0.07,0.11,-0.99,3.23,0.85,1.40
15.8490,0.07,0.11,-0.99,3.72,1.16,1.53
15.8580,0.07,0.11,-0.99,4.03,1.04,1.28
15.8740,0.08,0.12,-0.99,3.78,1.16,1.53
15.8900,0.07,0.12,-0.99,3.36,1.34,1.77
15.9070,0.06,0.12,-0.99,3.48,1.16,1.77
15.9220,0.06,0.12,-0.99,3.23,1.34,1.53
15.9380,0.06,0.12,-0.99,3.78,1.28,1.40
15.9530,0.07,0.12,-0.99,3.91,1.16,2.01
15.9680,0.07,0.12,-0.99,3.72,1.04,2.01
15.9790,0.05,0.12,-0.99,3.48,1.28,2.01
15.9960,0.06,0.11,-0.99,3.78,1.16,1.83
16.0120,0.07,0.12,-0.99,3.97,1.40,1.77
16.0290,0.07,0.12,-0.99,3.66,0.85,2.01
16.0460,0.06,0.12,-0.99,3.36,1.40,2.14
16.0610,0.06,0.12,-0.99,3.48,1.04,1.83
16.0780,0.07,0.12,-0.99,3.54,0.98,1.83
16.0940,0.07,0.12,-0.99,3.36,1.53,1.77
16.1090,0.06,0.12,-0.99,3.23,1.04,1.89
16.1250,0.07,0.12,-0.99,3.23,1.28,2.14
16.1400,0.07,0.12,-0.99,3.30,1.22,2.14
16.1550,0.07,0.12,-0.99,3.23,0.61,2.14
16.1700,0.07,0.12,-0.99,3.54,1.04,2.20
16.1850,0.06,0.12,-0.99,3.66,1.22,2.20
16.1960,0.07,0.12,-0.99,3.72,1.28,1.83
16.2120,0.07,0.12,-0.99,3.42,1.04,2.01
16.2290,0.06,0.12,-0.99,2.93,1.34,1.95
16.2450,0.07,0.12,-0.99,3.42,0.98,1.89
16.2620,0.07,0.12,-0.99,3.30,0.85,1.95
16.2780,0.07,0.12,-0.99,3.17,0.92,2.20
16.2940,0.07,0.12,-0.99,2.99,0.85,2.69
16.3100,0.07,0.12,-0.99,3.23,1.10,2.93
16.3250,0.07,0.12,-0.99,3.11,0.67,3.05
16.3390,0.07,0.11,-0.99,3.11,0.79,3.17
16.3560,0.07,0.12,-0.99,3.48,0.98,3.11
16.3720,0.06,0.12,-0.99,3.42,0.85,3.42
16.3880,0.07,0.12,-0.99,2.81,0.79,3.54
16.3960,0.06,0.11,-0.99,2.99,1.59,3.17
16.4110,0.07,0.12,-0.99,3.78,1.04,2.01
16.4340,0.07,0.12,-0.99,4.27,0.73,1.83
16.4500,0.07,0.12,-0.99,3.30,0.85,2.38
16.4660,0.07,0.12,-0.99,2.87,0.55,3.05
16.4830,0.07,0.11,-0.99,3.17,0.92,3.05
16.4850,0.06,0.11,-0.99,3.48,0.55,2.14
16.5140,0.07,0.12,-0.99,3.36,0.98,1.89
16.5310,0.07,0.12,-0.99,3.60,0.92,2.50
16.5480,0.06,0.12,-0.99,3.36,0.73,3.11
16.5630,0.07,0.12,-0.99,3.11,0.98,2.20
16.5790,0.06,0.11,-0.99,2.99,0.98,2.75
16.5850,0.07,0.12,-0.99,3.85,1.34,1.89
16.6000,0.07,0.12,-0.99,4.15,1.16,1.71
16.6220,0.07,0.12,-0.99,3.66,1.04,1.83
16.6370,0.07,0.12,-0.99,3.48,1.46,1.71
16.6540,0.07,0.12,-0.99,3.72,1.22,1.83
16.6710,0.07,0.12,-0.99,3.42,1.16,1.83
16.6880,0.06,0.12,-0.99,3.48,1.10,1.83
16.7020,0.06,0.12,-0.99,3.66,1.40,1.71
16.7200,0.07,0.12,-0.99,3.54,1.34,1.53
16.7360,0.07,0.12,-0.99,3.78,0.73,1.46
16.7520,0.07,0.12,-0.99,3.48,0.85,1.53
16.7680,0.07,0.12,-0.99,3.23,1.16,1.40
16.7850,0.07,0.12,-0.99,2.87,1.28,1.59
16.7890,0.07,0.11,-0.99,3.11,1.10,1.46
16.8050,0.07,0.12,-0.99,3.42,1.16,1.34
16.8310,0.07,0.12,-0.99,3.23,1.10,1.34
16.8460,0.07,0.11,-0.99,3.60,0.73,1.40
16.8550,0.07,0.11,-0.99,4.03,1.10,1.04
16.8760,0.07,0.12,-0.99,4.03,1.04,1.04
16.8870,0.07,0.12,-0.99,3.85,0.98,1.28
16.9040,0.07,0.12,-0.99,3.11,1.04,1.59
16.9210,0.07,0.12,-0.99,3.23,1.16,1.65
16.9370,0.07,0.12,-0.99,3.48,1.10,1.65
16.9540,0.07,0.12,-0.99,3.60,1.16,1.77
16.9700,0.07,0.11,-0.99,3.78,1.22,1.53
16.9870,0.07,0.12,-0.99,4.03,0.43,1.34
17.0020,0.07,0.12,-0.99,4.27,0.61,1.40
17.0180,0.07,0.12,-0.99,4.46,0.73,1.53
17.0330,0.07,0.12,-0.99,3.60,1.22,0.67
17.0490,0.07,0.12,-0.99,2.69,1.40,1.10
17.0650,0.07,0.11,-0.98,3.23,1.22,1.34
17.0800,0.07,0.12,-1.00,3.54,1.40,1.40
17.0880,0.09,0.12,-1.02,2.93,3.05,-0.06
17.1030,0.07,0.11,-1.00,3.30,2.93,-1.95
17.1260,0.06,0.13,-0.99,3.60,2.08,-2.99
17.1420,0.06,0.14,-0.99,2.81,1.53,-0.37
17.1580,0.07,0.12,-0.99,1.83,1.16,1.71
17.1730,0.06,0.10,-0.99,1.65,1.16,1.53
17.1880,0.06,0.11,-0.98,3.11,0.85,1.53
17.1940,0.04,0.11,-0.99,3.78,1.28,1.71
17.2100,0.01,0.10,-1.00,4.64,1.16,1.34
17.2330,0.08,0.11,-0.99,4.52,2.01,-1.71
17.2500,0.12,0.13,-0.99,3.91,2.26,-2.38
17.2650,0.07,0.11,-0.99,3.17,1.59,0.79
17.2810,0.06,0.11,-0.99,3.48,0.98,1.16
17.2960,0.07,0.12,-0.99,3.48,0.92,0.98
17.3120,0.07,0.12,-0.99,3.72,1.04,1.10
17.3160,0.07,0.12,-0.99,3.66,1.16,1.46
17.3320,0.07,0.12,-0.99,3.72,1.10,1.34
17.3550,0.07,0.12,-0.99,3.42,1.22,1.22
17.3720,0.07,0.12,-0.99,3.48,1.28,1.28
17.3880,0.07,0.12,-0.99,3.42,1.04,1.28
17.4040,0.07,0.12,-0.99,3.48,1.04,1.22
17.4200,0.07,0.12,-0.99,3.23,1.34,1.40
17.4360,0.07,0.12,-0.99,3.48,1.22,1.40
17.4510,0.07,0.12,-0.99,3.48,1.28,1.53
17.4680,0.07,0.12,-0.99,3.54,0.67,1.46
17.4840,0.07,0.12,-0.99,3.60,0.98,1.34
17.5010,0.07,0.12,-0.99,3.54,1.04,1.34
17.5160,0.07,0.12,-0.99,3.48,1.28,1.46
17.5320,0.07,0.12,-0.99,3.42,1.53,1.53
17.5480,0.07,0.12,-0.99,3.42,1.16,1.46
17.5630,0.07,0.12,-0.99,3.48,1.77,1.71
17.5780,0.07,0.12,-0.99,3.54,1.34,1.59
17.5930,0.07,0.12,-0.99,3.60,1.04,1.40
17.6040,0.07,0.12,-0.99,3.30,1.28,1.46
17.6220,0.07,0.12,-0.99,3.30,1.53,1.59
17.6380,0.07,0.12,-0.99,3.42,1.59,1.77
17.6540,0.07,0.12,-0.99,3.30,1.65,1.65
17.6690,0.07,0.12,-0.99,3.36,1.10,1.65
17.6860,0.07,0.12,-0.99,3.42,1.34,1.46
17.7010,0.07,0.11,-0.99,3.48,1.28,1.59
17.7170,0.07,0.12,-0.99,3.30,1.04,1.53
17.7340,0.06,0.11,-0.99,3.36,1.28,1.59
17.7500,0.07,0.11,-0.99,3.30,1.59,1.28
17.7660,0.07,0.11,-0.99,3.48,1.34,1.53
17.7810,0.07,0.11,-0.99,3.23,1.53,1.40
17.7960,0.07,0.12,-0.99,3.42,1.46,1.59
17.8120,0.07,0.11,-0.99,3.42,1.16,1.59
17.8270,0.07,0.12,-0.99,3.42,1.40,1.59
17.8370,0.07,0.12,-0.99,3.42,1.22,1.46
17.8540,0.07,0.12,-0.99,3.17,1.16,1.53
17.8700,0.06,0.12,-0.99,3.42,0.92,1.46
17.8870,0.07,0.11,-1.00,3.30,1.28,1.59
17.9030,0.06,0.12,-0.99,3.66,0.92,1.53
17.9200,0.07,0.12,-0.99,3.42,0.98,1.46
17.9350,0.07,0.12,-0.99,3.54,1.28,1.59
17.9500,0.07,0.12,-0.99,3.72,0.98,1.59
17.9670,0.07,0.12,-0.99,3.36,0.98,1.59
17.9830,0.07,0.11,-0.99,3.36,1.04,1.46
17.9990,0.07,0.12,-0.99,3.11,1.10,1.53
18.0150,0.07,0.12,-0.99,3.60,0.67,1.46
18.0310,0.07,0.11,-0.99,3.17,1.40,1.46
18.0470,0.06,0.11,-0.99,3.05,1.28,1.46
18.0630,0.07,0.11,-0.99,3.72,1.46,1.59
18.0700,0.07,0.12,-0.99,3.78,1.22,1.59
18.0860,0.07,0.11,-0.99,3.91,0.98,1.65
18.1060,0.07,0.11,-0.99,3.48,1.04,1.59
18.1230,0.07,0.12,-0.99,3.48,1.04,1.53
18.1400,0.07,0.11,-0.99,3.42,1.40,1.59
18.1550,0.07,0.12,-0.99,3.42,0.98,1.53
18.1720,0.07,0.12,-0.99,3.72,0.79,1.59
18.1870,0.07,0.11,-0.99,3.48,0.92,1.65
18.2020,0.07,0.12,-0.99,3.48,0.92,1.59
18.2190,0.07,0.12,-0.99,3.48,1.22,1.53
18.2350,0.07,0.12,-0.99,3.60,1.10,1.53
18.2500,0.07,0.11,-0.99,3.85,0.85,1.71
18.2650,0.07,0.11,-0.99,4.33,1.22,1.65
18.2800,0.07,0.12,-0.99,3.97,0.85,1.59
18.2950,0.07,0.11,-0.99,3.72,1.04,1.46
18.3060,0.07,0.12,-0.99,3.78,1.40,1.53
18.3230,0.07,0.11,-0.99,3.54,0.55,1.53
18.3400,0.07,0.12,-0.99,3.66,1.22,1.53
18.3550,0.07,0.12,-0.99,3.66,0.92,1.53
18.3720,0.07,0.12,-0.99,3.36,0.98,1.53
18.3870,0.07,0.12,-0.99,3.48,1.22,1.53
18.4030,0.07,0.12,-0.99,3.05,1.34,1.53
18.4180,0.07,0.12,-0.99,3.48,1.28,1.53
18.4330,0.07,0.12,-0.99,2.87,1.53,1.53
18.4480,0.07,0.12,-0.99,3.36,0.92,1.53
18.4630,0.07,0.11,-0.99,3.48,0.55,1.53
18.4780,0.07,0.11,-0.99,3.78,1.22,1.53
18.4890,0.06,0.12,-0.99,4.15,0.79,1.46
18.5040,0.06,0.12,-0.99,4.39,1.04,0.55
18.5250,0.07,0.12,-0.99,3.60,1.59,-0.85
18.5410,0.07,0.12,-0.99,3.30,1.40,1.04
18.5580,0.07,0.11,-0.99,3.42,1.28,1.59
18.5730,0.07,0.12,-0.99,3.60,1.10,1.59
18.5900,0.07,0.12,-0.99,3.85,0.85,1.46
18.6050,0.07,0.12,-0.99,3.66,1.22,1.46
18.6200,0.07,0.12,-0.99,3.42,1.22,1.40
18.6250,0.07,0.12,-0.99,3.11,1.40,1.46
18.6400,0.07,0.12,-0.99,3.48,1.04,1.46
18.6620,0.07,0.12,-0.99,3.36,1.04,1.40
18.6780,0.07,0.12,-0.99,3.42,1.04,1.53
18.6950,0.07,0.12,-0.99,3.11,1.59,1.46
18.7120,0.07,0.12,-0.99,3.17,0.98,1.40
18.7280,0.06,0.12,-0.99,3.17,1.10,1.77
18.7450,0.07,0.12,-0.99,3.48,1.22,1.59
18.7610,0.07,0.12,-0.99,3.36,1.22,1.53
18.7770,0.07,0.12,-0.99,3.42,0.85,1.46
18.7930,0.07,0.12,-0.99,3.42,0.49,1.53
18.8090,0.07,0.12,-0.99,3.23,0.85,1.71
18.8120,0.07,0.12,-0.99,3.17,0.98,1.59
18.8270,0.07,0.12,-0.99,3.60,0.92,1.65
18.8500,0.07,0.12,-0.99,3.72,1.34,1.71
18.8660,0.07,0.12,-0.99,3.85,0.85,1.59
18.8840,0.07,0.12,-0.99,3.54,1.28,1.59
18.8990,0.07,0.12,-0.99,3.36,1.40,1.65
18.9170,0.07,0.12,-0.99,3.30,1.04,1.46
18.9330,0.07,0.12,-0.99,3.48,0.85,1.53
18.9490,0.07,0.11,-0.99,3.30,1.34,1.53
18.9650,0.07,0.12,-0.99,3.23,0.92,1.59
18.9810,0.07,0.12,-0.99,3.60,1.16,1.71
18.9970,0.07,0.12,-0.99,3.78,1.04,1.65
19.0140,0.07,0.12,-0.99,4.15,0.85,1.65
19.0290,0.07,0.12,-0.99,4.15,0.79,1.53
19.0440,0.07,0.12,-0.99,3.91,1.10,1.71
19.0590,0.07,0.12,-0.99,3.66,0.98,1.46
19.0660,0.07,0.12,-0.99,2.62,1.65,1.59
19.0830,0.06,0.10,-0.99,3.54,0.55,1.34
19.1040,0.07,0.11,-0.99,4.52,0.85,1.65
19.1190,0.08,0.17,-1.04,0.37,1.71,1.40
19.1220,0.07,0.15,-1.00,3.42,1.34,1.53
19.1380,0.07,0.13,-1.00,3.66,1.16,1.53
19.1610,0.07,0.12,-0.99,3.54,1.34,1.65
19.1790,0.07,0.12,-0.99,3.60,1.28,1.59
19.1830,0.07,0.12,-0.99,3.48,1.16,1.59
19.2110,0.07,0.12,-0.99,3.42,1.10,1.53
19.2120,0.07,0.12,-0.99,3.60,1.16,1.71
19.2300,0.07,0.12,-0.99,3.60,1.04,1.53
19.2450,0.07,0.12,-0.99,3.54,0.98,1.46
19.2610,0.07,0.12,-0.99,3.72,0.85,1.59
19.2830,0.06,0.12,-0.99,3.48,1.16,1.59
19.3000,0.07,0.12,-0.99,3.42,0.85,1.46
19.3160,0.07,0.12,-0.99,3.48,0.92,1.65
19.3340,0.07,0.12,-0.99,3.54,0.79,1.59
19.3490,0.07,0.12,-0.99,3.60,1.22,1.59
19.3660,0.07,0.12,-0.99,3.54,1.10,1.46
19.3810,0.07,0.12,-0.99,3.36,1.34,1.59
19.3970,0.07,0.12,-0.99,3.42,1.04,1.53
19.4120,0.07,0.12,-0.99,3.42,1.40,1.53
19.4180,0.07,0.12,-0.99,3.48,1.16,1.59
19.4430,0.07,0.12,-0.99,3.66,0.79,1.53
19.4560,0.07,0.12,-0.99,3.48,1.16,1.53
19.4730,0.07,0.12,-0.99,3.36,0.92,1.53
19.4890,0.07,0.12,-0.99,3.60,1.10,1.59
19.5050,0.07,0.12,-0.99,3.48,1.34,1.53
19.5210,0.07,0.12,-0.99,3.78,0.85,1.53
19.5380,0.07,0.12,-0.99,3.54,1.10,1.59
19.5530,0.07,0.12,-0.99,3.60,0.73,1.53
19.5680,0.07,0.12,-0.99,3.60,0.92,1.65
19.5840,0.07,0.12,-0.99,3.48,1.46,1.59
19.6000,0.07,0.12,-0.99,3.48,1.04,1.59
19.6060,0.07,0.12,-0.99,3.60,1.04,1.53
19.6210,0.07,0.12,-0.99,3.66,1.22,1.65
19.6450,0.07,0.12,-0.99,3.42,0.98,1.65
19.6620,0.07,0.12,-0.99,3.54,1.16,1.59
19.6770,0.07,0.12,-0.99,3.36,0.98,1.59
19.6940,0.07,0.12,-0.99,3.48,1.22,1.59
19.7100,0.07,0.12,-0.99,3.54,1.40,1.53
19.7260,0.07,0.12,-0.99,3.66,0.98,1.59
19.7420,0.07,0.12,-1.00,3.48,1.16,1.59
19.7450,0.07,0.12,-0.99,3.54,0.92,1.59
19.7610,0.07,0.12,-0.99,3.48,1.40,1.71
19.7850,0.07,0.12,-0.99,3.42,1.28,1.71
19.8020,0.07,0.11,-0.99,3.36,1.40,1.59
19.8180,0.07,0.12,-0.99,3.48,1.40,1.53
19.8340,0.07,0.12,-0.99,3.42,1.10,1.59
19.8500,0.07,0.12,-0.99,3.54,0.98,1.65
19.8520,0.07,0.12,-0.99,3.42,1.28,1.59
19.8680,0.07,0.11,-0.99,3.48,1.46,1.65
19.8950,0.07,0.12,-0.99,3.54,1.22,1.53
19.9070,0.07,0.12,-0.99,3.66,0.92,1.59
19.9220,0.07,0.12,-0.99,3.48,0.67,1.71
19.9390,0.07,0.12,-0.99,3.30,1.46,1.65
19.9560,0.07,0.12,-0.99,3.42,1.53,1.59
19.9600,0.07,0.12,-0.99,3.60,0.92,1.53
19.9810,0.07,0.12,-0.99,3.54,1.16,1.59
20.0030,0.07,0.12,-0.99,3.66,1.22,1.59
20.0120,0.07,0.12,-0.99,3.60,1.22,1.53
20.0280,0.07,0.12,-0.99,3.60,1.04,1.65
20.0450,0.07,0.12,-0.99,3.54,1.53,1.53
20.0620,0.07,0.12,-0.99,3.66,1.10,1.53
20.0780,0.07,0.12,-0.99,3.42,1.40,1.59
20.0810,0.07,0.12,-0.99,3.36,1.28,1.59
20.1090,0.07,0.12,-0.99,3.66,1.34,1.59
20.1250,0.07,0.12,-0.99,3.23,1.10,1.59
20.1400,0.07,0.12,-0.99,3.48,1.65,1.65
20.1570,0.07,0.12,-0.99,3.42,1.28,1.53
20.1620,0.07,0.12,-0.99,3.54,1.04,1.65
20.1810,0.07,0.12,-0.99,3.42,1.34,1.53
20.2010,0.07,0.12,-0.99,3.42,1.40,1.59
20.2180,0.07,0.12,-0.99,3.60,1.28,1.65
20.2330,0.07,0.12,-0.99,3.42,1.28,1.53
20.2500,0.07,0.12,-0.99,3.42,1.22,1.65
20.2520,0.07,0.12,-0.99,3.42,1.16,1.40
20.2670,0.07,0.12,-0.99,3.42,1.53,1.59
20.2950,0.07,0.12,-0.99,3.60,0.67,1.59
20.3060,0.07,0.12,-0.99,3.66,0.67,1.71
20.3230,0.07,0.12,-0.99,3.54,0.92,1.46
20.3400,0.07,0.12,-0.99,3.48,1.46,1.53
20.3560,0.07,0.12,-0.99,3.54,1.16,1.53
20.3730,0.07,0.12,-0.99,3.54,1.04,1.65
20.3900,0.07,0.12,-0.99,3.48,1.16,1.40
20.4070,0.07,0.12,-0.99,3.36,1.16,1.59
20.4220,0.07,0.12,-0.99,3.42,1.16,1.53
20.4380,0.07,0.12,-0.99,3.54,0.98,1.53
20.4550,0.07,0.12,-0.99,3.66,0.92,1.59
20.4710,0.07,0.12,-0.99,3.48,1.28,1.46
20.4860,0.07,0.12,-0.99,3.54,1.16,1.71
20.5020,0.07,0.12,-0.99,3.42,1.16,1.59
20.5170,0.07,0.12,-0.99,3.36,1.22,1.46
20.5320,0.07,0.12,-0.99,3.66,1.04,1.46
20.5480,0.07,0.12,-0.99,3.60,1.22,1.71
20.5630,0.07,0.12,-0.99,3.48,1.46,1.59
20.5790,0.07,0.12,-0.99,3.54,1.28,1.53
20.5900,0.07,0.12,-0.99,3.97,0.79,1.59
20.6060,0.07,0.12,-0.99,3.97,0.98,1.40
20.6230,0.07,0.12,-0.99,3.85,1.28,1.65
20.6390,0.07,0.12,-0.99,3.54,0.79,1.59
20.6560,0.07,0.11,-0.99,3.54,0.98,1.59
20.6720,0.07,0.12,-1.00,3.36,1.53,1.53
20.6880,0.07,0.13,-0.99,2.81,1.28,1.65
20.7040,0.07,0.13,-1.00,3.48,0.92,1.65
20.7210,0.07,0.12,-0.99,3.42,1.34,1.59
20.7370,0.07,0.12,-0.99,3.60,1.10,1.65
20.7520,0.07,0.12,-0.99,3.17,1.40,1.53
20.7670,0.07,0.12,-0.99,3.48,1.16,1.53
20.7820,0.07,0.12,-0.99,3.48,1.10,1.53
20.7980,0.07,0.12,-0.99,3.60,0.98,1.59
20.8120,0.06,0.11,-0.99,3.54,1.16,1.65
20.8220,0.07,0.12,-0.99,3.60,1.10,1.59
20.8380,0.07,0.12,-0.99,3.48,1.28,1.59
20.8570,0.07,0.12,-0.99,3.54,1.10,1.46
20.8720,0.07,0.12,-0.99,3.42,1.04,1.46
20.8880,0.07,0.12,-0.99,3.42,1.22,1.65
20.9040,0.07,0.12,-0.99,3.36,1.16,1.71
20.9190,0.07,0.12,-0.99,3.42,1.40,1.71
20.9340,0.07,0.12,-0.99,4.03,1.16,1.59
20.9490,0.07,0.12,-0.99,3.66,1.04,1.53
20.9610,0.06,0.10,-0.99,3.17,1.10,0.85
20.9800,0.07,0.11,-0.99,3.48,1.59,-1.10
20.9940,0.07,0.13,-0.99,3.36,1.34,-0.12
21.0110,0.07,0.12,-0.99,3.30,1.46,1.59
21.0270,0.07,0.12,-0.99,3.42,1.16,1.40
21.0420,0.07,0.11,-0.99,3.17,1.10,1.34
21.0580,0.07,0.12,-0.99,3.78,0.79,1.46
21.0740,0.06,0.11,-0.99,3.54,1.16,0.67
21.0900,0.07,0.13,-0.99,3.72,1.53,-1.04
21.0940,0.06,0.11,-0.99,3.42,1.40,1.53
21.1090,0.07,0.11,-0.99,3.85,1.16,1.65
21.1340,0.07,0.12,-0.99,3.97,1.28,1.65
21.1500,0.07,0.12,-0.99,3.36,1.04,1.40
21.1660,0.07,0.12,-0.99,3.60,1.22,1.53
21.1820,0.07,0.12,-0.99,3.72,0.73,1.59
21.1980,0.06,0.11,-0.99,3.66,1.16,0.85
21.2130,0.07,0.11,-0.99,4.09,1.53,-1.28
21.2300,0.08,0.12,-0.99,5.19,0.98,-0.98
21.2450,0.07,0.12,-0.99,5.31,1.71,-0.18
21.2600,0.06,0.12,-0.99,5.07,1.10,0.43
21.2760,0.07,0.12,-0.99,4.21,1.16,0.98
21.2910,0.07,0.12,-0.99,4.52,1.04,0.73
21.3060,0.05,0.11,-0.99,5.92,1.53,0.37
21.3170,0.06,0.13,-0.99,10.31,1.34,1.10
21.3330,0.06,0.14,-0.99,10.44,1.46,0.43
21.3500,0.08,0.17,-0.98,14.28,2.38,-3.85
21.3650,0.12,0.13,-0.99,15.75,2.93,-7.32
21.3810,0.08,0.10,-1.01,12.88,4.39,-5.92
21.3830,0.02,0.09,-1.01,5.80,6.41,2.75
21.3990,0.03,0.13,-0.99,3.60,8.97,3.72
21.4230,0.03,0.12,-0.99,1.89,8.18,-0.31
21.4390,0.05,0.16,-0.97,8.12,9.58,-3.42
21.4570,0.07,0.14,-0.98,11.90,14.71,-8.06
21.4730,0.06,0.13,-0.99,9.83,10.62,-4.39
21.4890,0.04,0.16,-0.97,7.20,6.35,0.49
21.5050,0.02,0.16,-0.97,5.62,3.97,0.00
21.5200,0.02,0.16,-0.97,1.40,-1.59,1.65
21.5360,0.06,0.16,-0.99,-2.26,-2.32,3.11
21.5520,0.07,0.11,-1.01,-6.10,-2.14,6.10
21.5670,0.07,0.11,-1.02,-8.18,-1.16,7.14
21.5810,0.03,0.10,-1.03,-10.50,3.05,1.59
21.5960,0.05,0.11,-1.02,-9.52,6.47,-1.40
21.6060,0.06,0.11,-1.00,-7.02,12.27,-3.30
21.6220,0.03,0.12,-0.98,-1.65,16.48,-3.54
21.6430,0.02,0.13,-0.97,1.22,14.59,-2.56
21.6600,0.05,0.14,-0.98,2.14,10.01,-0.24
21.6760,0.05,0.12,-0.99,2.62,7.81,2.75
21.6910,0.03,0.10,-0.99,2.20,6.53,2.81
21.7070,0.02,0.11,-0.99,1.95,7.51,0.18
21.7130,0.00,0.12,-0.99,1.22,7.87,-1.59
21.7290,0.01,0.13,-0.98,0.92,4.94,-0.92
21.7510,0.03,0.13,-0.97,2.01,2.14,3.11
21.7680,0.02,0.10,-0.99,2.14,-1.65,4.15
21.7840,0.02,0.10,-1.01,0.61,-2.01,0.00
21.7990,0.03,0.12,-1.00,-0.67,-1.28,-1.34
21.8150,0.03,0.13,-0.99,-0.43,-0.61,-0.24
21.8310,0.03,0.11,-0.99,-0.98,-0.06,3.23
21.8340,0.02,0.10,-1.00,-1.46,0.06,2.87
21.8500,0.03,0.11,-0.99,-1.95,-0.06,1.40
21.8740,0.03,0.10,-0.99,-1.28,-0.73,1.83
21.8920,0.01,0.10,-0.99,-2.08,-1.46,1.40
21.9070,0.02,0.10,-0.99,-1.34,-1.28,0.92
21.9240,0.02,0.11,-0.98,2.01,-2.62,1.71
21.9400,0.02,0.10,-0.99,4.52,-4.52,3.72
21.9560,0.05,0.09,-1.01,4.33,-4.27,3.97
21.9570,0.05,0.08,-1.02,2.69,-1.46,2.08
21.9780,0.02,0.09,-1.00,1.16,2.81,-1.59
21.9910,0.05,0.10,-1.00,1.34,3.91,-3.05
22.0060,0.05,0.11,-1.00,2.99,5.92,-2.08
22.0300,0.04,0.11,-1.01,4.09,7.45,1.04
22.0460,0.03,0.10,-1.00,4.46,10.74,2.20
22.0630,0.01,0.09,-1.01,3.97,9.40,2.20
22.0800,0.04,0.11,-0.99,2.50,3.17,0.61
22.0960,0.03,0.11,-1.00,3.72,0.43,1.28
22.1120,0.04,0.11,-1.01,3.97,-3.17,-0.06
22.1280,0.05,0.11,-1.02,2.62,-4.46,-1.10
22.1440,0.05,0.09,-1.03,0.31,-6.16,-1.59
22.1600,0.05,0.09,-1.01,0.00,-7.57,-2.32
22.1770,0.03,0.08,-1.01,-0.73,-8.12,-2.75
22.1930,0.05,0.08,-1.00,-0.79,-6.41,-1.16
22.2080,0.04,0.09,-0.99,-0.12,-4.46,0.92
22.2120,0.03,0.11,-0.97,1.77,-1.46,-1.40
22.2280,0.03,0.10,-0.99,3.54,1.83,-2.50
22.2520,0.04,0.08,-1.01,2.69,2.26,0.31
22.2670,0.04,0.08,-1.00,0.67,0.73,2.50
22.2840,0.04,0.09,-0.99,0.12,0.55,1.28
22.3010,0.03,0.09,-0.98,0.98,0.24,-0.85
22.3180,0.04,0.12,-0.97,3.36,2.38,-1.04
22.3350,0.06,0.11,-0.99,5.19,6.71,-1.83
22.3500,0.05,0.07,-1.01,4.88,8.42,-1.59
22.3660,0.03,0.07,-1.01,3.23,5.07,0.61
22.3810,0.02,0.08,-1.00,0.00,2.26,2.14
22.3970,-0.01,0.09,-0.97,-1.46,-0.37,2.93
22.4130,-0.00,0.10,-0.96,-0.18,1.46,0.73
22.4180,0.04,0.10,-0.94,1.10,3.54,-0.79
22.4330,0.06,0.08,-0.97,1.95,7.69,1.53
22.4570,0.05,0.10,-0.99,2.44,4.15,3.85
22.4730,0.03,0.11,-0.99,2.93,-2.26,-0.18
22.4900,0.04,0.07,-1.00,3.72,-2.44,-0.73
22.5060,0.04,0.06,-1.03,4.46,-1.46,0.18
22.5080,0.04,0.08,-1.02,3.66,0.12,-0.31
22.5230,0.05,0.09,-1.02,2.81,2.01,0.79
22.5410,0.05,0.08,-1.03,2.08,2.69,0.43
22.5570,0.03,0.07,-1.06,1.71,0.79,0.24
22.5770,0.01,0.06,-1.06,0.24,-4.27,3.48
22.5940,0.00,0.08,-1.00,-1.65,-5.25,5.37
22.6110,0.01,0.10,-0.97,-1.04,-0.98,2.87
22.6270,0.02,0.10,-0.95,-0.12,1.34,2.38
22.6440,0.01,0.12,-0.95,2.14,8.30,6.53
22.6610,0.01,0.10,-0.95,4.39,11.54,5.37
22.6770,0.03,0.08,-0.95,5.43,11.60,3.78
22.6930,0.06,0.09,-0.96,4.82,10.68,5.07
22.7090,0.08,0.09,-0.98,4.88,8.06,4.76
22.7260,0.06,0.08,-1.00,5.07,1.83,2.81
22.7420,0.02,0.08,-1.00,4.03,-2.87,0.55
22.7590,0.01,0.08,-1.00,3.78,-2.32,-0.31
22.7730,0.02,0.09,-1.00,4.21,2.87,0.85
22.7890,0.05,0.08,-1.00,4.88,4.70,1.53
22.8040,0.05,0.07,-1.02,4.64,5.92,2.44
22.8110,0.04,0.06,-1.01,3.97,1.89,2.38
22.8260,0.03,0.07,-1.01,3.11,-1.71,1.53
22.8490,0.03,0.08,-1.00,2.50,-2.93,1.65
22.8660,0.03,0.08,-1.00,3.23,-1.95,1.16
22.8810,0.03,0.09,-0.99,4.03,-0.73,1.40
22.8970,0.04,0.07,-0.99,4.46,0.79,2.01
22.9120,0.04,0.07,-0.99,4.94,1.46,2.38
22.9270,0.03,0.07,-1.00,3.72,0.67,1.71
22.9330,0.02,0.07,-1.01,2.14,-0.61,2.20
22.9490,0.02,0.07,-1.01,1.77,-1.95,2.99
22.9700,0.01,0.08,-1.02,1.46,-2.75,3.54
22.9860,0.02,0.07,-1.03,0.73,-2.20,2.56
23.0020,0.02,0.06,-1.02,0.00,0.06,1.59
23.0190,0.03,0.08,-1.00,-0.85,2.08,3.30
23.0360,0.03,0.08,-0.98,-0.85,1.28,2.50
23.0510,0.03,0.09,-0.97,-0.18,1.28,2.81
23.0670,0.03,0.09,-0.97,15.56,1.95,2.69
23.0820,0.04,0.10,-0.97,1.53,1.83,2.38
23.0860,0.03,0.09,-0.97,2.32,0.73,1.71
23.1020,0.04,0.09,-0.96,4.33,1.16,1.22
23.1230,0.05,0.09,-0.97,5.25,2.99,0.98
23.1400,0.05,0.09,-0.98,5.55,2.01,-0.24
23.1570,0.02,0.08,-0.98,5.19,0.73,-0.06
23.1760,0.01,0.09,-0.97,6.29,2.99,0.73
23.1900,0.04,0.07,-1.00,7.93,7.63,-0.24
23.2060,0.04,0.04,-1.02,6.16,7.81,1.95
23.2240,0.04,0.06,-1.02,4.27,3.05,2.44
23.2400,0.03,0.07,-1.00,3.91,1.28,1.28
23.2560,0.02,0.08,-1.01,5.00,1.40,-0.24
23.2730,0.02,0.07,-1.03,4.70,1.59,1.53
23.2880,0.03,0.06,-1.02,3.30,0.79,2.93
23.3040,0.03,0.05,-1.00,2.50,1.83,1.65
23.3200,0.03,0.06,-1.00,1.65,3.42,2.50
23.3360,0.04,0.08,-0.99,1.53,3.54,2.26
23.3520,0.04,0.10,-0.99,2.99,3.36,2.14
23.3570,0.05,0.09,-0.97,3.17,3.05,3.78
23.3760,0.06,0.10,-0.96,3.48,1.83,2.26
23.3960,0.02,0.11,-0.96,5.68,2.87,-1.89
23.4120,0.00,0.11,-1.00,7.81,4.09,-2.87
23.4280,0.00,0.10,-1.01,8.36,3.48,-3.05
23.4440,0.01,0.08,-1.04,7.45,2.20,-3.17
23.4600,0.00,0.08,-1.04,5.98,1.95,-2.14
23.4760,-0.01,0.08,-1.03,4.21,0.43,-0.92
23.4920,-0.00,0.08,-1.03,2.50,-0.06,0.12
23.4960,0.01,0.07,-1.02,1.65,-0.67,-0.06
23.5120,0.01,0.08,-1.01,1.28,1.22,0.37
23.5340,0.01,0.10,-0.99,2.38,3.42,0.98
23.5500,0.01,0.09,-0.99,3.60,4.27,1.04
23.5670,0.02,0.07,-1.01,4.27,6.90,2.26
23.5840,0.04,0.06,-1.01,2.93,7.32,3.48
23.6000,0.04,0.06,-1.00,1.89,4.03,3.17
23.6160,0.02,0.09,-0.97,2.26,0.43,1.95
23.6320,-0.00,0.10,-0.98,3.36,0.85,-0.12
23.6490,0.02,0.09,-0.99,3.54,3.36,-0.06
23.6650,0.03,0.08,-1.00,2.93,5.68,2.08
23.6800,0.05,0.07,-1.00,2.01,6.29,3.11
23.6850,0.05,0.08,-0.98,1.34,3.85,2.44
23.7000,0.02,0.09,-0.96,2.08,-0.61,0.73
23.7220,0.01,0.08,-0.96,2.99,-2.32,0.49
23.7390,0.01,0.07,-0.96,4.21,-1.83,0.85
23.7550,0.01,0.07,-0.97,4.76,1.65,-0.79
23.7730,0.01,0.08,-0.98,4.76,4.52,-1.34
23.7890,0.00,0.07,-1.00,4.39,4.46,-0.37
23.8050,-0.01,0.08,-1.01,3.72,1.83,1.40
23.8070,0.00,0.08,-0.99,4.39,1.46,0.18
23.8370,0.01,0.07,-1.01,5.07,2.75,0.55
23.8400,-0.01,0.08,-1.01,4.52,0.92,1.89
23.8690,-0.02,0.08,-1.01,4.03,-0.24,1.59
23.8850,0.01,0.07,-1.00,4.03,2.62,1.34
23.9020,0.01,0.08,-1.00,4.33,3.85,1.89
23.9180,0.01,0.08,-0.99,4.39,2.32,1.77
23.9340,0.02,0.09,-0.99,4.76,1.40,2.32
23.9380,0.03,0.10,-0.99,5.37,1.34,1.22
23.9540,0.02,0.10,-1.00,5.43,2.01,1.71
23.9760,0.00,0.09,-1.02,4.46,0.06,1.77
23.9920,0.01,0.09,-1.01,3.72,-0.61,0.67
24.0090,-0.02,0.11,-1.00,4.39,0.85,-0.73
24.0260,-0.01,0.10,-1.01,4.58,4.46,1.53
24.0430,-0.02,0.10,-1.01,4.52,0.00,-0.43
24.0580,-0.01,0.09,-1.00,3.91,1.10,1.40
24.0740,0.00,0.07,-1.00,3.48,2.69,3.05
24.0900,0.00,0.07,-0.99,4.09,3.97,4.39
24.1050,-0.01,0.08,-1.00,3.11,0.85,3.85
24.1100,0.00,0.10,-1.00,2.26,-2.38,3.97
24.1250,0.02,0.08,-0.99,3.11,0.06,3.66
24.1410,0.02,0.04,-0.97,3.66,3.97,4.94
24.1630,0.02,0.05,-0.97,3.72,5.43,3.23
24.1790,0.01,0.05,-0.97,4.39,4.70,1.53
24.1950,0.01,0.06,-0.97,4.15,2.01,0.49
24.2120,0.01,0.08,-0.98,3.72,2.26,0.49
24.2120,0.05,0.07,-0.99,3.36,5.07,1.77
24.2280,0.06,0.06,-1.00,2.87,5.92,1.77
24.2520,0.07,0.05,-1.01,0.85,6.59,0.55
24.2730,0.06,0.10,-0.99,-0.18,2.14,-0.49
24.2850,0.02,0.13,-0.98,0.55,-2.14,-1.65
24.3020,-0.01,0.12,-1.00,2.44,-2.01,-1.40
24.3180,-0.02,0.12,-1.01,3.05,-0.79,-0.79
24.3340,-0.01,0.09,-1.00,3.60,-0.55,2.26
24.3500,0.01,0.08,-0.98,3.48,-0.06,4.64
24.3670,-0.01,0.07,-0.97,4.27,-0.24,3.78
24.3820,-0.05,0.09,-0.98,4.58,-2.38,1.95
24.3850,-0.01,0.10,-1.00,5.19,0.12,-0.85
24.4000,0.03,0.09,-1.03,6.29,5.74,-1.59
24.4230,0.03,0.08,-1.04,5.92,4.64,2.08
24.4400,0.02,0.06,-1.04,4.76,2.56,3.60
24.4560,-0.01,0.07,-1.02,2.87,-1.28,2.75
24.4740,-0.03,0.09,-1.02,2.38,-1.53,3.05
24.4900,-0.01,0.09,-1.01,1.83,-2.01,2.26
24.5070,-0.01,0.08,-0.99,1.59,0.55,1.59
24.5230,-0.00,0.06,-0.97,2.01,2.62,3.91
24.5390,0.00,0.06,-0.95,2.38,4.82,3.78
24.5550,0.02,0.07,-0.95,3.23,5.68,3.23
24.5710,0.02,0.07,-0.95,3.91,4.09,2.14
24.5870,0.02,0.10,-0.97,4.82,3.60,1.95
24.5900,0.03,0.09,-0.98,6.77,3.30,2.32
24.6050,0.02,0.07,-1.00,7.08,3.91,2.69
24.6280,0.01,0.09,-1.00,5.49,2.87,4.64
24.6450,0.01,0.11,-1.00,4.52,2.32,2.38
24.6620,0.01,0.12,-1.01,4.52,2.26,-14.89
24.6780,0.00,0.13,-1.01,5.25,3.11,-0.37
24.6930,0.01,0.10,-1.00,5.55,2.81,0.73
24.7090,-0.01,0.08,-1.00,4.76,1.65,0.55
24.7120,-0.01,0.08,-0.99,3.72,2.32,1.40
24.7270,-0.01,0.08,-0.97,4.15,2.93,2.14
24.7540,-0.02,0.08,-0.98,4.94,3.36,1.16
24.7660,-0.02,0.09,-0.99,6.71,4.58,-0.98
24.7820,0.00,0.08,-1.00,7.81,6.59,0.12
24.8000,0.01,0.06,-1.01,6.96,6.65,2.44
24.8150,0.02,0.05,-1.01,5.19,5.37,4.46
24.8320,0.00,0.07,-1.02,1.89,2.26,3.85
24.8490,-0.01,0.10,-1.01,-0.43,0.73,0.67
24.8650,-0.00,0.13,-0.99,-0.43,1.04,-0.61
24.8810,0.00,0.13,-1.00,1.22,3.60,0.24
24.8830,-0.01,0.10,-1.01,2.26,2.93,3.60
24.8980,-0.05,0.10,-1.02,2.38,-0.61,4.88
24.9230,-0.07,0.10,-1.00,2.32,-1.04,1.83
24.9400,-0.03,0.09,-0.99,1.65,1.22,-0.85
24.9570,-0.02,0.08,-1.01,-0.06,2.38,-1.34
24.9730,-0.02,0.09,-1.01,-0.61,1.10,-1.28
24.9890,-0.01,0.11,-0.98,-0.24,2.20,-1.59
25.0070,-0.03,0.10,-0.98,1.83,4.27,-0.18
25.0220,-0.03,0.09,-0.99,3.30,1.65,2.81
25.0380,-0.01,0.08,-1.00,3.54,2.56,1.77
25.0550,0.01,0.07,-1.02,2.75,4.52,1.65
25.0710,-0.01,0.06,-1.02,1.46,1.40,1.10
25.0870,-0.05,0.08,-1.01,0.18,-1.77,1.40
25.1020,-0.02,0.08,-0.99,0.24,-0.85,1.16
25.1050,0.01,0.07,-0.99,0.61,2.62,1.71
25.1340,0.02,0.07,-0.99,0.73,2.20,2.93
25.1490,-0.01,0.07,-0.99,-0.12,1.89,2.93
25.1640,-0.02,0.07,-0.98,-0.92,2.32,0.55
25.1750,-0.00,0.09,-0.99,-0.73,2.20,0.98
25.1910,-0.00,0.07,-0.99,-1.16,1.40,0.61
25.2070,-0.01,0.07,-0.98,0.85,0.18,-0.43
25.2240,-0.00,0.07,-0.99,2.26,0.31,-0.67
25.2410,-0.01,0.07,-1.00,3.42,1.40,-0.24
25.2560,-0.03,0.07,-1.01,2.87,0.37,0.79
25.2720,-0.02,0.08,-1.00,2.08,-0.92,1.53
25.2880,0.00,0.07,-0.99,2.14,-0.31,3.23
25.3040,0.01,0.07,-1.00,2.81,-0.61,2.93
25.3200,-0.01,0.07,-0.99,3.91,0.24,1.83
25.3240,-0.02,0.08,-1.03,4.27,2.32,1.16
25.3400,-0.01,0.07,-1.01,3.91,2.87,0.98
25.3610,-0.01,0.07,-1.01,2.93,1.83,2.26
25.3770,-0.01,0.08,-1.00,3.17,0.67,1.71
25.3940,-0.03,0.07,-1.00,4.82,1.83,0.61
25.4100,-0.03,0.07,-0.99,4.82,1.89,0.79
25.4260,-0.03,0.07,-0.99,4.82,1.53,0.37
25.4420,-0.02,0.08,-0.99,5.00,2.99,-0.37
25.4580,-0.01,0.09,-1.00,5.68,3.54,-0.55
25.4720,0.00,0.07,-1.01,5.62,2.26,0.79
25.4810,-0.02,0.06,-1.00,5.19,0.49,1.04
25.5030,-0.02,0.05,-0.99,4.39,0.00,3.11
25.5180,-0.02,0.06,-1.00,3.78,0.61,3.97
25.5360,-0.02,0.07,-1.00,3.05,1.28,2.56
25.5520,-0.00,0.07,-0.99,3.48,2.81,1.71
25.5680,0.00,0.07,-0.99,3.78,4.21,2.99
25.5840,-0.00,0.08,-0.99,4.39,3.54,3.36
25.5860,-0.01,0.10,-0.99,5.25,2.50,2.87
25.6160,-0.01,0.07,-1.02,5.55,2.01,0.98
25.6310,-0.03,0.07,-1.03,3.97,1.40,0.24
25.6470,-0.03,0.07,-1.02,3.42,0.12,1.65
25.6620,-0.04,0.08,-1.01,3.91,0.00,1.95
25.6720,-0.05,0.09,-1.00,4.27,0.24,2.93
25.6850,-0.02,0.09,-1.00,5.25,1.65,1.40
25.7010,-0.00,0.09,-1.00,5.86,4.15,-0.43
25.7170,0.00,0.09,-1.00,5.55,4.33,0.79
25.7380,-0.03,0.06,-1.00,5.62,2.14,2.01
25.7550,-0.04,0.07,-1.00,4.09,0.98,2.87
25.7720,-0.04,0.08,-1.00,3.60,2.62,1.16
25.7860,-0.03,0.10,-0.99,4.03,3.48,0.49
25.8030,-0.01,0.08,-1.01,5.68,2.99,-0.67
25.8200,-0.01,0.07,-1.02,4.76,1.89,0.61
25.8360,-0.01,0.07,-1.01,3.11,1.28,3.23
25.8510,-0.03,0.08,-1.01,1.89,0.92,3.30
25.8530,-0.02,0.09,-0.98,1.28,2.62,2.87
25.8720,-0.00,0.10,-0.97,2.32,4.33,2.50
25.8970,-0.01,0.07,-0.98,3.85,2.20,2.32
25.9090,0.00,0.06,-1.00,2.87,-4.21,1.95
25.9250,-0.04,0.07,-1.01,2.81,-2.99,-0.12
25.9420,-0.02,0.07,-1.00,1.40,-2.26,3.17
25.9580,0.00,0.09,-0.99,1.16,-1.77,3.91
25.9750,0.01,0.11,-0.98,2.75,-3.11,0.61
25.9900,0.00,0.10,-0.98,4.58,-4.09,-1.04
26.0070,-0.01,0.10,-0.99,7.08,-6.23,-1.40
26.0220,-0.03,0.07,-1.01,7.75,-7.93,-0.31
26.0370,-0.02,0.06,-1.01,6.04,-6.84,-0.31
26.0540,-0.02,0.06,-1.00,4.64,-5.13,-2.32
26.0690,-0.01,0.08,-1.00,3.91,-4.58,-2.50
26.0840,0.01,0.09,-1.00,4.52,-4.94,-1.59
26.1000,0.01,0.08,-0.99,4.82,-5.00,-1.83
26.1150,-0.00,0.08,-1.00,5.55,-5.07,-2.14
26.1250,-0.02,0.09,-0.99,5.37,-5.68,-2.99
26.1420,0.01,0.09,-1.00,5.25,-6.90,-0.31
26.1580,0.03,0.09,-1.00,3.54,-7.14,2.26
26.1750,0.03,0.09,-1.00,3.23,-6.35,0.98
26.1910,0.02,0.09,-1.00,2.93,-6.04,-0.06
26.2070,-0.01,0.10,-1.00,3.17,-4.88,-0.49
26.2230,-0.00,0.09,-1.00,3.54,-4.46,1.65
26.2390,0.02,0.08,-1.00,3.54,-3.42,2.32
26.2550,0.03,0.08,-1.00,4.09,-1.95,1.53
26.2710,0.02,0.09,-0.99,4.52,-1.10,0.98
26.2870,0.02,0.08,-0.99,4.46,-2.44,0.73
26.3030,0.03,0.09,-1.00,5.31,-2.81,1.16
26.3180,0.04,0.08,-1.00,5.86,-2.56,0.49
26.3340,0.03,0.08,-0.99,6.04,-2.08,-1.04
26.3490,0.03,0.09,-0.99,6.04,-1.95,-2.93
26.3640,0.02,0.10,-0.99,6.16,-3.11,-2.44
26.3750,0.03,0.09,-1.00,6.59,-3.72,0.06
26.3910,0.04,0.08,-1.00,6.65,-4.33,-1.46
26.4070,0.04,0.08,-0.99,6.16,-4.46,-3.30
26.4240,0.04,0.09,-0.99,5.68,-5.62,-6.65
26.4410,0.04,0.10,-0.99,5.92,-7.63,-6.65
26.4570,0.05,0.10,-0.99,5.92,-8.48,-2.01
26.4730,0.04,0.11,-1.00,6.35,-8.61,-0.18
26.4880,0.06,0.11,-1.00,5.13,-7.51,-0.55
26.5040,0.08,0.10,-1.00,4.52,-5.86,2.56
26.5200,0.08,0.09,-1.00,3.66,-4.58,2.93
26.5360,0.08,0.09,-1.00,3.85,-3.30,1.46
26.5520,0.05,0.10,-1.00,4.09,-0.55,-1.16
26.5680,0.04,0.10,-0.99,5.00,1.16,-2.14
26.5840,0.06,0.10,-0.99,6.29,1.46,-2.44
26.5990,0.07,0.10,-0.99,6.53,0.31,-0.61
26.6140,0.05,0.10,-1.00,5.43,-0.79,0.06
26.6250,0.05,0.10,-0.99,4.94,-1.16,-0.61
26.6410,0.06,0.10,-0.99,4.33,-1.59,-0.49
26.6570,0.07,0.10,-0.99,4.03,-2.01,-0.61
26.6740,0.08,0.09,-0.99,6.47,1.16,-1.34
26.6900,0.07,0.10,-1.00,5.68,1.59,-2.14
26.7050,0.06,0.11,-0.99,4.52,1.46,-1.59
26.7210,0.06,0.11,-0.99,4.64,1.22,-0.73
26.7360,0.05,0.11,-1.00,4.03,0.61,1.71
26.7520,0.04,0.11,-0.99,3.72,1.22,2.08
26.7680,0.06,0.09,-1.00,3.91,0.92,2.62
26.7740,0.07,0.11,-0.99,3.66,1.46,1.83
26.7890,0.07,0.11,-0.99,5.31,0.55,2.01
26.8120,0.07,0.11,-1.00,5.31,0.92,1.65
26.8290,0.07,0.11,-1.00,4.70,0.98,1.71
26.8460,0.06,0.10,-0.99,3.48,1.28,1.71
26.8610,0.06,0.11,-0.99,3.54,0.98,1.95
26.8770,0.06,0.11,-0.99,3.60,0.92,2.87
26.8940,0.07,0.10,-0.99,3.54,1.04,3.17
26.9100,0.06,0.10,-0.99,3.42,0.98,2.69
26.9250,0.07,0.11,-1.00,3.60,0.73,2.87
26.9400,0.06,0.11,-0.99,3.23,1.28,2.50
26.9550,0.06,0.11,-0.99,2.87,1.04,2.99
26.9690,0.06,0.11,-0.99,2.75,1.34,3.85
26.9850,0.07,0.10,-0.99,3.36,1.34,4.58
27.0010,0.06,0.11,-0.99,4.46,1.16,3.23
27.0120,0.07,0.10,-0.99,3.85,1.10,2.20
27.0290,0.07,0.11,-0.99,3.85,1.53,1.83
27.0450,0.06,0.10,-0.99,3.91,1.34,1.65
27.0610,0.06,0.11,-0.99,5.68,0.55,1.83
27.0780,0.06,0.11,-1.00,5.62,0.85,2.93
27.0950,0.06,0.11,-0.99,4.27,0.79,4.21
27.1120,0.07,0.10,-0.99,3.60,0.73,4.33
27.1270,0.07,0.11,-0.99,4.21,0.85,2.32
27.1430,0.07,0.11,-0.99,5.00,0.67,1.89
27.1590,0.04,0.10,-0.99,5.43,1.04,1.77
27.1740,0.06,0.09,-1.00,5.31,1.22,1.77
27.1890,0.06,0.10,-0.99,5.55,0.73,1.71
27.2030,0.07,0.11,-0.99,6.41,0.67,1.71
27.2190,0.07,0.12,-1.00,5.55,0.98,1.71
27.2290,0.07,0.11,-1.00,3.30,1.34,1.65
27.2440,0.09,0.15,-0.98,3.17,1.34,1.77
27.2610,0.07,0.14,-0.98,4.70,0.98,1.71
27.2780,0.06,0.11,-0.99,5.25,0.92,3.17
27.2930,0.06,0.09,-1.00,5.86,0.67,1.65
27.3100,0.06,0.09,-1.00,5.49,0.79,1.28
27.3250,0.06,0.10,-1.00,4.88,1.10,1.46
27.3400,0.07,0.12,-0.99,4.39,1.04,1.34
27.3540,0.07,0.13,-0.99,5.62,1.04,0.85
27.3700,0.07,0.12,-0.98,7.51,0.67,1.89
27.3850,0.06,0.08,-1.00,5.62,0.55,3.54
27.4000,0.06,0.08,-1.00,4.70,0.79,3.42
27.4120,0.06,0.10,-0.99,3.48,1.53,1.71
27.4280,0.07,0.12,-0.99,3.78,1.34,1.59
27.4440,0.07,0.12,-0.99,3.78,1.34,1.53
27.4620,0.07,0.12,-0.99,3.97,1.04,1.53
27.4770,0.07,0.12,-0.99,3.91,0.79,1.34
27.4920,0.07,0.12,-0.99,3.85,1.28,1.28
27.5060,0.07,0.12,-0.99,3.66,1.10,1.40
27.5220,0.07,0.12,-0.99,3.72,0.98,1.65
27.5380,0.07,0.12,-0.99,3.60,1.22,1.40
27.5530,0.07,0.12,-0.99,3.66,1.10,1.53
27.5670,0.07,0.12,-0.99,3.72,0.98,1.59
27.5780,0.07,0.11,-0.99,3.72,1.10,1.40
27.5940,0.07,0.11,-0.99,3.60,1.34,-0.06
27.6100,0.07,0.12,-0.99,3.66,1.77,-0.61
27.6280,0.06,0.12,-0.99,3.60,1.46,0.18
27.6440,0.06,0.13,-0.99,3.36,1.53,0.98
27.6600,0.07,0.12,-0.99,3.54,0.92,1.65
27.6760,0.07,0.12,-0.99,3.54,1.22,1.77
27.6910,0.07,0.12,-0.99,3.60,1.46,1.65
27.7060,0.07,0.11,-0.99,3.60,1.34,1.65
27.7220,0.07,0.11,-0.99,3.48,1.16,1.53
27.7370,0.07,0.11,-0.99,3.36,1.53,1.46
27.7510,0.07,0.10,-0.99,3.30,1.28,1.95
27.7670,0.07,0.12,-0.99,3.30,0.73,1.95
27.7780,0.07,0.12,-0.99,3.42,1.28,1.16
27.7940,0.08,0.11,-0.99,3.54,0.85,1.28
27.8100,0.07,0.12,-0.99,3.54,1.22,0.85
27.8270,0.06,0.12,-0.99,3.66,1.28,0.73
27.8440,0.08,0.11,-0.99,3.60,1.59,0.73
27.8590,0.06,0.13,-0.99,3.60,1.40,0.92
27.8740,0.06,0.13,-0.99,3.66,1.22,1.89
27.8890,0.06,0.12,-0.99,3.48,1.16,2.20
27.9040,0.06,0.12,-0.99,3.36,1.59,2.32
27.9200,0.05,0.14,-0.99,3.30,1.28,1.77
27.9360,0.06,0.12,-0.99,3.54,1.28,1.59
27.9440,0.07,0.12,-0.99,3.42,1.65,1.77
27.9680,0.07,0.12,-0.99,3.36,1.28,1.59
27.9820,0.07,0.12,-0.99,3.54,1.22,1.65
27.9980,0.07,0.12,-0.99,3.60,1.22,1.71
28.0140,0.07,0.12,-0.99,3.78,1.10,1.65
28.0300,0.07,0.12,-0.99,3.66,1.22,1.71
28.0460,0.07,0.12,-0.99,3.72,1.34,1.71
28.0620,0.07,0.12,-0.99,3.36,1.16,1.65
28.0770,0.07,0.12,-0.99,3.54,1.40,1.77
28.0820,0.07,0.12,-0.99,3.42,1.28,1.65
28.0980,0.07,0.12,-0.99,2.93,1.28,1.59
28.1190,0.06,0.13,-1.00,3.48,1.34,1.53
28.1360,0.07,0.12,-0.99,3.48,1.28,1.59
28.1510,0.07,0.12,-0.99,3.48,1.77,1.83
28.1680,0.07,0.12,-0.99,3.36,1.77,1.53
28.1830,0.07,0.12,-0.99,3.54,1.16,1.65
28.2000,0.07,0.12,-0.99,3.48,0.92,1.59
28.2160,0.07,0.12,-0.99,3.54,1.22,1.53
28.2320,0.07,0.12,-0.99,3.48,1.28,1.65
28.2340,0.07,0.12,-0.99,3.42,1.28,1.59
28.2500,0.07,0.12,-0.99,3.48,1.04,1.59
28.2720,0.07,0.12,-0.99,3.60,1.16,1.46
28.2910,0.07,0.12,-0.99,3.48,1.34,1.71
28.3060,0.07,0.12,-0.99,3.48,1.10,1.59
28.3230,0.07,0.12,-0.99,3.48,1.28,1.59
28.3390,0.07,0.12,-0.99,3.48,1.10,1.65
28.3540,0.07,0.12,-0.99,3.42,1.34,1.65
28.3670,0.07,0.12,-0.99,3.42,1.16,1.46
28.3710,0.07,0.12,-0.99,3.54,0.67,1.46
28.4000,0.07,0.12,-0.99,3.48,0.85,1.53
28.4110,0.07,0.12,-0.99,3.36,1.28,1.53
28.4270,0.07,0.12,-0.99,3.42,1.28,1.65
28.4430,0.07,0.12,-0.99,3.66,0.98,1.59
28.4600,0.07,0.12,-0.99,3.60,0.92,1.59
28.4770,0.07,0.12,-0.99,3.54,1.28,1.65
28.4930,0.07,0.12,-0.99,3.36,1.59,1.65
28.5090,0.07,0.12,-0.99,3.42,1.28,1.65
28.5250,0.07,0.12,-0.99,3.42,1.16,1.59
28.5410,0.07,0.12,-0.99,3.48,1.10,1.59
28.5440,0.07,0.12,-0.99,3.36,1.53,1.71
28.5670,0.07,0.12,-0.99,3.54,1.10,1.53
28.5820,0.07,0.12,-0.99,3.48,1.10,1.46
28.5990,0.07,0.12,-0.99,3.42,1.04,1.59
28.6160,0.07,0.12,-0.99,3.42,1.28,1.59
28.6320,0.07,0.12,-0.99,3.36,1.22,1.65
28.6490,0.07,0.12,-0.99,3.48,1.34,1.53
28.6650,0.07,0.12,-0.99,3.48,0.85,1.46
28.6810,0.07,0.12,-0.99,3.42,1.34,1.53
28.6970,0.07,0.12,-0.99,3.48,1.28,1.65
28.7130,0.07,0.12,-0.99,3.48,1.28,1.46
28.7160,0.07,0.12,-0.99,3.48,1.22,1.59
28.7450,0.07,0.12,-0.99,3.54,0.98,1.53
28.7480,0.07,0.12,-0.99,3.48,1.16,1.59
28.7670,0.07,0.12,-0.99,3.42,1.28,1.40
28.7910,0.07,0.12,-0.99,3.60,0.61,1.59
28.8020,0.07,0.12,-0.99,3.30,1.40,1.71
28.8190,0.07,0.11,-0.99,3.36,1.46,1.53
28.8350,0.07,0.12,-0.99,3.36,1.77,1.65
28.8510,0.07,0.12,-0.99,3.66,1.16,1.65
28.8670,0.07,0.12,-0.99,3.42,1.40,1.65
28.8820,0.07,0.12,-0.99,3.30,1.22,1.53
28.8980,0.07,0.12,-0.99,3.36,1.34,1.59
28.9150,0.07,0.12,-0.99,3.17,1.59,1.59
28.9300,0.07,0.12,-0.99,3.48,1.22,1.53
28.9450,0.07,0.12,-0.99,3.36,1.46,1.46
28.9610,0.04,0.16,-0.99,3.60,0.55,4.64
28.9760,0.09,0.08,-0.99,3.36,0.79,7.93
28.9860,0.07,0.11,-0.99,4.15,1.28,2.50
29.0020,0.07,0.12,-0.99,4.09,1.34,1.46
29.0190,0.07,0.12,-0.99,3.72,1.40,1.59
29.0360,0.07,0.12,-0.99,3.30,0.98,1.53
29.0510,0.07,0.12,-0.99,3.60,0.98,1.59
29.0660,0.07,0.12,-0.99,3.72,0.79,1.53
29.0820,0.07,0.12,-0.99,3.30,0.67,1.59
29.0980,0.07,0.12,-0.99,3.17,0.79,1.53
29.1150,0.07,0.12,-0.99,3.54,1.16,1.77
29.1300,0.06,0.12,-0.99,3.60,1.46,1.59
29.1350,0.07,0.12,-0.99,3.42,0.92,1.46
29.1510,0.06,0.12,-0.99,3.05,1.40,1.65
29.1730,0.07,0.12,-0.99,3.30,1.34,1.65
29.1890,0.07,0.11,-0.99,3.60,1.16,1.46
29.2050,0.06,0.12,-0.99,3.66,1.04,1.59
29.2220,0.07,0.12,-0.99,3.54,1.10,1.65
29.2390,0.07,0.12,-0.99,3.36,1.28,1.65
29.2540,0.16,0.13,-0.98,3.78,1.34,-1.71
29.2690,0.04,0.11,-1.00,4.09,1.95,-3.78
29.2850,0.06,0.12,-0.99,3.91,1.77,-1.83
29.2880,0.05,0.12,-0.99,3.48,1.40,-0.37
29.3040,0.05,0.12,-0.99,3.48,1.16,0.55
29.3310,0.05,0.12,-0.99,3.30,1.46,0.79
29.3430,0.07,0.12,-0.99,3.60,1.46,0.98
29.3590,0.08,0.12,-0.99,3.78,1.34,0.73
29.3750,0.06,0.12,-0.99,3.78,1.53,0.12
29.3920,0.07,0.12,-0.99,3.66,1.40,0.00
29.4090,0.08,0.12,-0.99,3.60,1.53,-0.24
29.4250,0.07,0.12,-0.99,3.60,1.40,-0.37
29.4420,0.06,0.11,-0.99,3.66,1.53,-0.06
29.4570,0.06,0.11,-0.99,3.54,1.46,0.31
29.4740,0.05,0.12,-0.99,3.54,1.34,0.06
29.4890,0.07,0.12,-0.99,3.42,1.16,0.37
29.5050,0.07,0.12,-0.99,3.48,1.34,0.24
29.5200,0.07,0.11,-0.99,3.30,1.40,0.43
29.5350,0.06,0.11,-0.99,3.36,1.46,0.55
29.5500,0.05,0.12,-0.99,3.30,1.40,0.79
29.5650,0.07,0.12,-0.99,3.60,1.04,1.28
29.5740,0.08,0.12,-0.99,3.48,1.10,0.85
29.5960,0.06,0.12,-0.99,3.54,1.40,0.06
29.6130,0.05,0.11,-1.00,3.48,1.53,0.18
29.6280,0.05,0.11,-0.99,3.66,1.10,0.92
29.6440,0.06,0.12,-0.99,3.48,1.04,1.40
29.6600,0.07,0.12,-0.99,3.30,0.98,1.46
29.6650,0.06,0.12,-0.99,3.72,0.98,1.59
29.6780,0.07,0.12,-0.99,3.48,1.10,1.53
29.7010,0.07,0.12,-0.99,3.72,1.46,1.59
29.7180,0.06,0.12,-0.99,3.60,0.92,1.53
29.7350,0.07,0.12,-0.99,3.60,0.92,1.71
29.7510,0.07,0.12,-0.99,3.36,1.28,1.59
29.7660,0.07,0.12,-0.99,3.11,1.04,1.53
29.7690,0.07,0.12,-0.99,3.17,0.79,1.53
29.7990,0.07,0.12,-0.99,3.05,1.22,1.40
29.8140,0.07,0.12,-0.99,3.91,1.40,1.53
29.8300,0.07,0.12,-0.99,3.97,1.53,1.53
29.8450,0.07,0.12,-0.99,3.66,1.34,1.40
29.8610,0.07,0.12,-1.00,3.54,1.53,1.59
29.8770,0.07,0.12,-0.99,3.60,0.92,1.59
29.8840,0.07,0.12,-0.99,3.48,1.40,1.53
29.9000,0.07,0.11,-0.99,3.48,1.04,1.53
29.9240,0.07,0.12,-0.99,3.42,1.10,1.46
29.9390,0.07,0.12,-0.99,3.36,1.28,1.65
29.9550,0.07,0.12,-0.99,3.42,1.22,1.59
29.9700,0.07,0.12,-0.99,3.66,0.92,1.59
29.9860,0.07,0.12,-0.99,3.36,0.98,1.40
29.9910,0.07,0.12,-0.99,3.36,1.22,1.53
30.0060,0.07,0.12,-0.99,3.54,1.04,1.65
30.0280,0.07,0.12,-0.99,3.36,1.40,1.53
30.0440,0.07,0.12,-0.99,3.48,1.10,1.53
30.0620,0.07,0.12,-0.99,3.54,0.98,1.53
30.0780,0.07,0.12,-0.99,3.42,1.46,1.59
30.0930,0.07,0.12,-0.99,3.42,1.28,1.59
30.0940,0.07,0.12,-0.99,3.60,1.28,1.65
30.1120,0.07,0.12,-0.99,3.78,0.85,1.59
30.1280,0.07,0.12,-0.99,3.85,0.98,1.40
30.1550,0.08,0.12,-1.01,3.60,0.98,1.53
30.1720,0.07,0.12,-0.97,3.85,0.92,1.59
30.1800,0.07,0.12,-0.99,3.78,0.67,1.40
30.1960,0.07,0.12,-0.99,3.72,1.04,1.40
30.2180,0.07,0.12,-0.99,2.99,0.92,1.40
30.2340,0.07,0.11,-0.99,2.62,1.71,1.40
30.2360,0.06,0.14,-1.01,3.30,1.16,1.53
30.2650,0.07,0.12,-0.99,3.30,0.85,1.46
30.2810,0.07,0.11,-0.99,3.54,1.22,1.40
30.2970,0.07,0.12,-0.99,3.48,1.40,1.46
30.3140,0.07,0.12,-0.99,3.42,1.22,1.59
30.3290,0.07,0.12,-0.99,3.48,1.28,1.65
30.3440,0.07,0.12,-0.99,3.66,0.92,1.53
30.3510,0.07,0.11,-0.99,3.42,0.61,1.65
30.3670,0.07,0.12,-0.99,3.42,0.79,1.59
30.3890,0.07,0.12,-0.99,3.48,0.98,1.53
30.4050,0.07,0.12,-0.99,3.54,1.34,1.59
30.4220,0.07,0.12,-0.99,3.42,1.10,1.65
30.4370,0.07,0.12,-0.99,3.48,1.28,1.77
30.4530,0.07,0.12,-0.99,3.54,0.85,1.40
30.4640,0.07,0.12,-0.99,3.60,0.73,1.53
30.4720,0.07,0.12,-0.99,3.54,0.92,1.59
30.4970,0.07,0.12,-0.99,3.42,1.16,1.46
30.5140,0.07,0.12,-0.99,3.42,1.10,1.59
30.5300,0.07,0.12,-0.99,3.72,0.98,1.59
30.5460,0.07,0.12,-0.99,3.66,0.92,1.46
30.5620,0.07,0.12,-0.99,3.42,1.10,1.65
30.5790,0.07,0.12,-0.99,3.42,0.98,1.59
30.5940,0.07,0.12,-0.99,3.48,0.92,1.40
30.6100,0.07,0.12,-0.99,3.42,1.16,1.40
30.6260,0.07,0.12,-0.99,3.48,1.22,1.59
30.6420,0.07,0.12,-0.99,3.60,1.16,1.46
30.6580,0.07,0.12,-0.99,3.66,0.98,1.53
30.6740,0.07,0.12,-0.99,3.66,0.98,1.59
30.6900,0.07,0.12,-0.99,3.85,0.43,1.53
30.6970,0.07,0.12,-0.99,3.72,0.98,1.40
30.7200,0.07,0.12,-0.99,3.54,0.98,1.46
30.7300,0.07,0.12,-0.99,3.85,0.92,1.34
30.7460,0.07,0.12,-0.99,3.42,0.55,1.65
30.7650,0.06,0.12,-0.99,3.23,1.10,1.53
30.7800,0.07,0.12,-0.99,3.60,1.10,1.59
30.7860,0.07,0.12,-0.99,3.42,1.16,1.53
30.8020,0.07,0.12,-0.99,3.42,1.22,1.71
30.8260,0.07,0.12,-0.99,3.54,0.85,1.46
30.8420,0.07,0.12,-0.99,3.60,0.98,1.53
30.8580,0.07,0.12,-0.99,3.60,0.92,1.59
30.8740,0.07,0.12,-0.99,3.60,1.10,1.59
30.8910,0.07,0.12,-0.99,3.72,1.28,1.71
30.8920,0.07,0.12,-0.99,4.03,1.04,1.40
30.9080,0.06,0.12,-0.99,3.85,1.16,1.53
30.9310,0.07,0.11,-0.99,3.42,1.04,1.16
30.9470,0.07,0.11,-0.99,3.97,1.46,0.06
30.9640,0.07,0.10,-0.99,4.52,1.65,-0.92
30.9810,0.07,0.12,-0.99,4.76,2.08,-3.23
30.9960,0.08,0.08,-1.00,2.14,0.61,0.92
31.0120,0.08,0.10,-1.00,1.59,0.12,6.35
31.0140,0.07,0.12,-0.99,2.56,0.55,5.00
31.0430,0.06,0.13,-0.99,3.30,0.85,1.40
31.0470,0.06,0.15,-0.99,3.48,1.40,0.73
31.0730,0.06,0.15,-0.98,3.97,1.34,1.46
31.0810,0.06,0.12,-0.99,3.91,1.28,1.65
31.1020,0.07,0.12,-0.99,3.91,1.22,1.53
31.1130,0.07,0.11,-0.99,4.46,1.28,1.28
31.1300,0.07,0.11,-0.99,3.60,0.98,-0.06
31.1470,0.07,0.12,-0.99,3.05,1.46,0.06
31.1620,0.07,0.12,-0.99,3.48,1.40,0.79
31.1780,0.07,0.12,-0.99,3.48,1.34,1.22
31.1930,0.06,0.13,-0.99,3.23,0.79,1.77
31.1970,0.09,0.12,-0.99,3.36,0.85,1.65
31.2130,0.07,0.12,-0.99,3.30,0.79,1.46
31.2350,0.07,0.12,-0.99,3.11,1.10,1.46
31.2530,0.07,0.11,-0.99,3.42,1.16,1.40
31.2690,0.08,0.10,-0.99,3.78,1.28,0.73
31.2850,0.06,0.13,-0.99,3.66,1.22,-0.31
31.3010,0.06,0.12,-1.00,3.48,1.04,0.67
31.3160,0.07,0.11,-0.99,3.23,1.04,0.18
31.3320,0.07,0.11,-0.99,2.99,0.79,-0.49
31.3470,0.07,0.11,-0.98,3.91,1.46,-1.83
31.3620,0.06,0.14,-0.99,3.72,1.89,-1.83
31.3780,0.06,0.13,-0.98,3.42,1.16,0.37
31.3920,0.07,0.12,-0.99,3.54,1.28,1.10
31.4070,0.07,0.11,-0.99,3.42,1.22,0.98
31.4190,0.07,0.10,-1.00,3.42,1.53,-0.55
31.4340,0.07,0.10,-0.99,3.60,1.59,-0.98
31.4520,0.06,0.12,-0.99,3.54,0.92,0.31
31.4630,0.06,0.12,-0.99,3.36,1.28,1.34
31.4760,0.07,0.12,-0.99,3.60,1.10,0.79
31.4940,0.07,0.13,-0.99,3.42,1.71,-0.55
31.5080,0.07,0.11,-0.99,3.66,1.59,-1.10
31.5260,0.07,0.12,-0.99,3.78,1.34,-1.95
31.5420,0.06,0.12,-0.99,3.72,1.22,-1.59
31.5590,0.07,0.10,-0.99,3.66,1.77,-1.65
31.5630,0.06,0.12,-0.99,3.78,1.65,-2.20
31.5760,0.06,0.12,-0.99,3.72,1.83,-2.20
31.6050,0.07,0.13,-0.99,3.66,1.59,-1.59
31.6090,0.07,0.13,-0.99,3.85,1.46,-1.04
31.6250,0.07,0.12,-0.99,3.60,1.59,-1.22
31.6420,0.06,0.11,-0.99,3.78,1.71,-1.65
31.6690,0.07,0.11,-0.99,3.72,1.22,-1.40
31.6750,0.06,0.12,-0.99,3.78,1.59,-1.71
31.6920,0.07,0.12,-0.99,3.85,1.34,-1.83
31.7090,0.07,0.13,-0.99,3.72,1.53,-1.53
31.7260,0.07,0.11,-0.99,3.54,1.59,-1.28
31.7410,0.07,0.12,-0.99,3.66,1.34,-1.04
31.7630,0.07,0.12,-0.99,3.54,1.40,-0.18
31.7780,0.07,0.12,-0.99,3.60,1.28,0.18
31.7940,0.07,0.12,-0.99,3.54,1.10,0.31
31.8100,0.07,0.10,-0.99,3.48,1.46,-0.43
31.8260,0.07,0.12,-0.99,3.85,1.71,-2.01
31.8300,0.07,0.12,-0.99,3.66,1.83,-1.34
31.8580,0.07,0.11,-0.99,3.42,1.89,-1.04
31.8720,0.07,0.12,-1.01,3.48,1.95,-1.34
31.8800,0.06,0.11,-0.99,3.66,1.65,-2.38
31.9040,0.06,0.11,-0.96,3.60,1.46,-2.56
31.9190,0.07,0.15,-1.00,3.66,1.22,-0.67
31.9290,0.07,0.10,-0.98,3.60,1.16,0.79
31.9450,0.07,0.11,-0.98,3.48,1.16,0.24
31.9630,0.06,0.11,-0.99,3.60,1.59,-0.61
31.9780,0.07,0.12,-0.99,3.66,1.10,-1.10
31.9930,0.06,0.12,-0.99,3.78,1.10,-1.77
32.0040,0.07,0.11,-0.99,3.72,1.34,-1.28
32.0190,0.06,0.12,-0.99,3.78,1.28,-1.65
32.0380,0.07,0.12,-0.99,3.66,1.34,-1.71
32.0540,0.06,0.11,-0.99,4.03,1.53,-1.46
32.0690,0.07,0.12,-0.99,3.91,1.46,-1.53
32.0730,0.07,0.13,-0.99,3.54,1.59,-1.34
32.0890,0.07,0.11,-0.99,3.85,1.34,-1.10
32.1110,0.07,0.12,-0.99,3.60,1.46,-0.73
32.1270,0.06,0.12,-0.99,3.54,1.28,0.00
32.1440,0.07,0.11,-0.99,3.60,1.16,0.49
32.1610,0.07,0.11,-0.99,3.66,1.40,-0.61
32.1630,0.07,0.12,-0.99,3.85,1.22,-1.40
32.1780,0.07,0.11,-0.99,3.72,1.65,-1.83
32.2090,0.07,0.12,-0.99,3.78,1.95,-2.20
32.2120,0.06,0.11,-0.99,3.78,1.53,-1.89
32.2390,0.07,0.12,-0.99,3.60,1.89,-2.01
32.2450,0.07,0.12,-0.99,3.91,1.34,-1.59
32.2700,0.06,0.12,-0.99,3.66,1.65,-1.77
32.2850,0.07,0.12,-0.99,3.78,1.65,-1.40
32.2990,0.06,0.11,-0.99,3.66,1.34,-1.46
32.3100,0.06,0.11,-0.99,3.66,1.59,-1.53
32.3280,0.07,0.12,-0.99,3.78,1.40,-1.28
32.3450,0.07,0.12,-0.99,3.85,1.10,-1.46
32.3600,0.07,0.12,-0.99,3.66,1.28,-1.28
32.3760,0.06,0.12,-0.99,3.72,1.16,-0.61
32.3920,0.06,0.12,-0.99,3.85,1.28,-0.98
32.4080,0.07,0.12,-0.99,3.85,1.22,-1.16
32.4110,0.07,0.12,-0.99,3.66,1.65,-1.16
32.4400,0.06,0.11,-0.99,3.72,1.22,-1.40
32.4560,0.06,0.12,-0.99,3.72,1.28,-1.04
32.4640,0.06,0.12,-0.99,3.72,1.34,-0.61
32.4790,0.07,0.13,-0.99,3.72,1.28,-0.67
32.5000,0.07,0.12,-0.99,3.66,1.16,-0.18
32.5160,0.07,0.12,-0.99,3.60,1.10,0.06
32.5320,0.07,0.12,-0.99,3.66,1.16,0.31
32.5470,0.07,0.12,-0.99,3.60,0.98,0.12
32.5630,0.06,0.11,-0.99,3.54,0.98,0.43
32.5660,0.07,0.12,-0.99,3.54,1.16,0.06
32.5820,0.07,0.12,-0.99,3.54,1.40,0.06
32.6040,0.07,0.11,-0.99,3.54,1.40,0.00
32.6210,0.07,0.12,-0.99,3.42,1.59,-0.49
32.6370,0.06,0.11,-0.99,3.72,1.28,-0.18
32.6540,0.07,0.12,-0.99,3.66,1.46,-0.61
32.6710,0.07,0.11,-0.99,3.85,1.22,-0.24
32.6870,0.07,0.12,-0.99,3.54,1.22,-0.18
32.6880,0.07,0.11,-0.99,3.72,1.28,-0.61
32.7180,0.07,0.11,-0.99,3.78,1.71,-2.20
32.7210,0.07,0.12,-0.99,4.03,1.89,-2.69
32.7370,0.07,0.13,-0.99,3.91,1.65,-1.89
32.7650,0.07,0.13,-0.99,3.48,1.28,0.06
32.7750,0.07,0.11,-0.99,3.60,1.10,0.73
32.7910,0.07,0.11,-0.99,3.54,1.04,0.18
32.8120,0.06,0.11,-0.99,3.78,0.98,-0.92
32.8270,0.06,0.12,-0.99,3.91,1.34,-1.40
32.8430,0.07,0.12,-0.99,3.85,0.98,-0.85
32.8600,0.07,0.12,-0.99,3.60,1.40,-0.85
32.8660,0.07,0.12,-0.99,3.60,1.34,-0.73
32.8810,0.06,0.12,-0.99,3.91,0.85,-1.10
32.9030,0.07,0.11,-0.99,4.15,0.98,-1.40
32.9200,0.07,0.12,-0.99,3.66,1.34,-1.89
32.9360,0.07,0.12,-0.99,3.78,1.28,-1.65
32.9520,0.07,0.13,-0.99,3.66,1.59,-1.59
32.9690,0.07,0.13,-0.97,3.72,1.59,-0.43
32.9850,0.07,0.12,-1.00,3.60,1.16,0.61
33.0010,0.06,0.11,-0.99,3.66,0.92,0.49
33.0180,0.06,0.11,-0.99,3.66,1.22,-0.06
33.0340,0.07,0.12,-0.99,3.72,1.16,-0.61
33.0500,0.07,0.12,-0.99,3.91,1.34,-0.98
33.0660,0.06,0.13,-0.99,3.85,1.22,-0.92
33.0820,0.07,0.12,-0.99,3.85,1.22,-0.06
33.0860,0.07,0.12,-0.99,3.72,1.16,0.00
33.1020,0.07,0.12,-0.98,3.36,1.10,0.31
33.1260,0.07,0.13,-1.02,3.23,1.77,0.67
33.1420,0.06,0.10,-0.97,3.66,1.16,0.79
33.1440,0.07,0.13,-1.00,3.54,1.22,0.00
33.1740,0.06,0.10,-1.00,3.78,1.04,0.18
33.1890,0.07,0.10,-0.99,3.72,1.34,-0.61
33.2050,0.07,0.12,-0.99,3.78,1.40,-1.28
33.2100,0.06,0.11,-0.99,3.72,1.34,-1.46
33.2260,0.06,0.12,-0.99,3.85,1.40,-1.65
33.2490,0.07,0.13,-0.99,3.66,1.71,-1.04
33.2650,0.06,0.12,-0.99,3.66,0.98,-0.67
33.2810,0.07,0.12,-0.99,3.78,1.22,-0.92
33.2960,0.06,0.12,-0.99,3.60,1.28,-0.67
33.3120,0.07,0.11,-0.99,3.54,1.40,-0.18
33.3280,0.06,0.12,-1.00,3.54,1.28,-0.43
33.3420,0.06,0.11,-0.99,3.60,1.59,-0.49
33.3580,0.07,0.12,-0.99,3.60,1.10,-0.92
33.3730,0.07,0.12,-0.99,3.72,1.22,-1.28
33.3840,0.06,0.11,-0.99,3.85,1.22,-0.92
33.4000,0.06,0.12,-0.99,3.78,1.28,-1.53
33.4180,0.06,0.11,-0.99,3.72,1.46,-1.71
33.4340,0.07,0.11,-0.99,3.97,1.46,-1.71
33.4500,0.06,0.11,-0.99,3.72,1.10,-1.89
33.4660,0.07,0.12,-0.99,3.85,1.04,-2.08
33.4820,0.07,0.13,-0.99,3.66,1.28,-1.65
33.4970,0.07,0.13,-0.99,3.78,1.34,0.00
33.5120,0.07,0.12,-0.99,3.23,1.10,0.61
33.5170,0.06,0.11,-0.99,3.48,1.10,1.10
33.5330,0.06,0.11,-0.99,3.42,1.28,0.85
33.5560,0.06,0.11,-0.99,3.66,1.34,0.61
33.5710,0.06,0.11,-0.99,3.78,1.40,-0.12
33.5880,0.07,0.13,-0.99,3.97,1.46,-1.34
33.5900,0.06,0.12,-0.99,3.66,1.71,-0.85
33.6200,0.07,0.11,-0.99,3.66,1.04,-0.79
33.6220,0.06,0.11,-0.99,3.85,1.28,-1.89
33.6390,0.07,0.12,-0.99,3.91,1.59,-2.01
33.6610,0.07,0.12,-0.99,3.66,1.28,-1.71
33.6710,0.07,0.12,-0.99,3.97,1.10,-1.22
33.7000,0.07,0.12,-0.99,3.91,1.16,-1.71
33.7160,0.07,0.13,-0.99,3.66,1.22,-1.16
33.7260,0.07,0.12,-0.99,3.60,1.04,-0.24
33.7450,0.06,0.11,-0.99,3.42,1.40,-0.55
33.7610,0.06,0.12,-0.99,3.42,1.53,-1.28
33.7780,0.07,0.12,-0.99,3.60,1.34,-1.16
33.7940,0.07,0.12,-0.99,3.54,1.28,-0.92
33.8100,0.07,0.12,-0.99,3.54,1.34,-0.18
33.8260,0.06,0.11,-0.99,3.60,0.85,0.12
33.8410,0.06,0.11,-0.99,3.54,1.16,-0.49
33.8460,0.06,0.11,-0.99,3.72,1.59,-1.53
33.8610,0.07,0.12,-0.99,3.97,1.65,-2.32
33.8860,0.06,0.12,-0.99,4.15,1.46,-2.20
33.9020,0.06,0.12,-0.99,3.97,1.46,-1.95
33.9170,0.07,0.12,-0.99,3.91,1.04,-1.65
33.9320,0.07,0.13,-0.99,3.72,1.22,-1.46
33.9470,0.06,0.12,-0.99,3.60,1.28,-0.79
33.9620,0.07,0.12,-0.99,3.78,1.10,-0.37
33.9700,0.06,0.12,-0.99,3.60,1.28,-0.31
33.9860,0.06,0.11,-0.99,3.78,1.65,-0.73
34.0030,0.06,0.11,-0.99,3.60,1.40,-0.98
34.0190,0.07,0.12,-0.99,3.97,1.22,-1.40
34.0360,0.07,0.12,-0.99,3.72,1.59,-1.10
34.0520,0.07,0.12,-0.99,3.91,1.46,-0.43
34.0690,0.07,0.12,-0.99,3.66,1.28,-0.37
34.0850,0.07,0.12,-0.99,3.66,1.53,-0.73
34.1010,0.07,0.12,-0.99,3.54,1.34,-0.31
34.1180,0.06,0.12,-0.99,3.66,1.46,0.37
34.1340,0.07,0.12,-0.99,3.66,1.34,0.79
34.1490,0.06,0.11,-0.99,3.48,1.04,1.22
34.1610,0.06,0.11,-0.99,3.72,0.79,0.98
34.1680,0.06,0.10,-0.99,3.72,1.22,0.43
34.1960,0.06,0.09,-0.99,3.78,1.22,-0.85
34.2070,0.06,0.11,-0.99,4.03,1.83,-3.11
34.2240,0.07,0.13,-0.99,3.91,1.59,-1.77
34.2400,0.07,0.12,-0.99,3.91,1.28,-1.22
34.2570,0.07,0.12,-0.99,3.78,1.53,-1.71
34.2610,0.07,0.12,-0.99,3.85,1.71,-2.08
34.2740,0.07,0.12,-0.99,3.97,1.53,-2.01
34.3050,0.06,0.12,-0.99,3.72,1.65,-1.28
34.3210,0.07,0.12,-0.99,3.97,1.40,-1.04
34.3380,0.07,0.12,-0.99,3.66,0.92,-0.61
34.3530,0.07,0.12,-0.99,3.66,1.40,-0.79
34.3680,0.07,0.12,-0.99,3.66,1.34,-0.43
34.3740,0.07,0.15,-0.99,3.66,0.98,-0.31
34.3900,0.07,0.13,-0.99,3.85,0.85,0.00
34.4130,0.06,0.12,-0.99,3.72,1.22,0.24
34.4280,0.07,0.10,-0.99,3.66,1.16,0.00
34.4430,0.06,0.11,-0.99,3.78,1.65,-1.28
34.4480,0.06,0.11,-0.99,3.97,1.40,-2.26
34.4630,0.06,0.12,-0.99,3.91,1.34,-2.69
34.4860,0.06,0.13,-0.99,3.97,1.46,-1.83
34.5030,0.07,0.12,-0.99,3.72,1.22,-1.10
34.5190,0.06,0.13,-0.99,3.54,1.40,-0.61
34.5360,0.07,0.12,-0.99,3.78,0.49,0.18
34.5510,0.07,0.12,-0.99,3.54,1.16,0.73
34.5610,0.07,0.11,-0.99,3.60,0.85,0.67
34.5690,0.07,0.10,-0.99,3.60,1.34,-0.24
34.5920,0.06,0.12,-0.99,3.78,1.71,-2.08
34.6080,0.07,0.12,-0.99,3.66,1.95,-1.65
34.6250,0.06,0.12,-0.99,3.85,1.53,-0.67
34.6420,0.06,0.12,-0.99,3.91,1.10,-0.85
34.6580,0.06,0.12,-0.99,3.91,1.53,-1.22
34.6740,0.06,0.12,-0.99,3.72,1.28,-1.22
34.6760,0.06,0.13,-0.99,3.78,0.61,-0.61
34.7060,0.07,0.12,-0.99,3.60,1.28,0.37
34.7200,0.06,0.11,-0.99,3.54,1.16,0.31
34.7360,0.06,0.10,-0.99,3.66,1.46,-0.98
34.7530,0.06,0.10,-0.99,3.91,1.53,-2.50
34.7600,0.06,0.11,-0.99,3.97,1.65,-3.54
34.7730,0.07,0.13,-0.99,4.21,1.83,-3.11
34.7960,0.07,0.14,-0.99,3.91,1.28,-1.16
34.8140,0.07,0.13,-0.99,3.66,1.22,0.12
34.8290,0.06,0.11,-0.99,3.60,1.40,0.79
34.8450,0.06,0.11,-0.99,3.66,1.40,-0.24
34.8600,0.06,0.10,-0.99,3.78,1.59,-1.77
34.8760,0.06,0.11,-0.99,3.91,1.71,-2.32
34.8800,0.07,0.13,-0.99,4.03,1.34,-2.26
34.9080,0.07,0.12,-0.99,3.91,1.22,-1.04
34.9240,0.07,0.11,-0.99,3.66,1.46,-0.98
34.9400,0.07,0.12,-0.99,3.91,1.40,-1.77
34.9560,0.07,0.11,-0.99,3.91,1.16,-1.71
34.9720,0.06,0.11,-0.99,3.91,1.65,-2.69
34.9880,0.06,0.11,-0.99,4.09,1.65,-3.36
35.0030,0.06,0.12,-0.99,4.15,1.71,-2.81
35.0190,0.06,0.11,-0.99,3.97,1.65,-2.69
35.0290,0.07,0.12,-0.99,4.03,1.71,-3.05
35.0450,0.07,0.13,-0.99,4.03,1.59,-2.50
35.0620,0.06,0.12,-0.99,4.58,1.59,-1.46
35.0790,0.07,0.12,-0.99,3.97,1.53,-0.92
35.0950,0.06,0.12,-0.99,3.85,1.28,-1.16
35.1110,0.07,0.11,-0.99,3.72,1.22,-1.77
35.1260,0.06,0.13,-0.99,3.66,1.34,-2.14
35.1420,0.07,0.12,-0.99,3.85,1.22,-1.22
35.1560,0.06,0.12,-0.99,3.60,1.22,-1.34
35.1630,0.06,0.12,-0.99,3.72,1.40,-1.28
35.1790,0.07,0.13,-0.99,3.60,1.46,-1.40
35.1990,0.06,0.12,-0.99,3.48,1.34,-0.98
35.2160,0.07,0.12,-0.99,3.85,1.28,-1.46
35.2330,0.06,0.11,-0.99,3.78,1.46,-1.89
35.2500,0.07,0.11,-0.99,3.78,1.65,-2.62
35.2660,0.06,0.13,-0.99,4.15,1.40,-2.75
35.2820,0.06,0.13,-0.99,3.60,1.40,-1.77
35.2980,0.07,0.15,-0.99,3.60,1.10,0.18
35.3000,0.06,0.11,-0.99,3.54,1.04,0.73
35.3160,0.07,0.11,-0.99,3.54,1.40,-0.06
35.3390,0.06,0.11,-0.99,3.78,1.34,-0.61
35.3590,0.06,0.12,-0.99,3.72,1.28,-0.85
35.3710,0.07,0.12,-0.99,3.85,1.40,-0.92
35.3900,0.06,0.12,-0.99,3.54,1.28,-0.85
35.4050,0.06,0.12,-0.99,3.72,1.40,-0.98
35.4220,0.06,0.12,-0.99,3.60,1.04,-1.10
35.4230,0.07,0.12,-0.99,3.78,1.04,-0.73
35.4380,0.06,0.11,-0.99,3.54,1.28,-0.79
35.4690,0.06,0.11,-0.99,3.78,1.77,-1.34
35.4850,0.06,0.12,-0.99,3.85,1.71,-2.20
35.5020,0.06,0.13,-0.99,3.78,1.46,-2.01
35.5170,0.07,0.14,-0.99,3.78,1.16,-1.22
35.5330,0.07,0.14,-0.99,3.66,0.92,0.18
35.5390,0.06,0.12,-0.99,3.66,1.10,0.55
35.5630,0.06,0.11,-0.99,3.66,1.04,0.18
35.5720,0.06,0.10,-0.99,3.72,0.92,-0.98
35.5880,0.06,0.11,-0.99,3.91,1.40,-2.75
35.6030,0.06,0.13,-0.99,4.09,1.10,-2.75
35.6250,0.06,0.13,-0.99,4.09,1.16,-2.01
35.6390,0.07,0.14,-0.99,3.78,1.22,-0.79
35.6550,0.06,0.12,-0.99,3.78,1.16,0.31
35.6700,0.06,0.11,-0.99,3.72,0.98,-0.31
35.6850,0.06,0.10,-0.99,3.85,1.34,-1.77
35.7000,0.06,0.11,-0.99,3.97,1.10,-2.14
35.7110,0.06,0.12,-0.99,3.85,1.34,-1.95
35.7270,0.07,0.14,-0.99,3.72,1.34,-1.22
35.7440,0.06,0.12,-0.99,3.66,0.98,-0.31
35.7590,0.06,0.12,-0.99,3.72,1.16,-0.06
35.7750,0.06,0.11,-1.00,3.72,0.92,-0.18
35.7900,0.06,0.11,-0.99,3.66,1.40,-1.28
35.8050,0.06,0.12,-0.99,3.91,1.46,-1.89
35.8120,0.07,0.12,-0.99,3.85,1.59,-1.71
35.8370,0.06,0.11,-0.99,3.91,1.46,-2.20
35.8520,0.07,0.12,-0.99,3.85,1.59,-2.38
35.8690,0.06,0.13,-0.99,3.72,1.71,-2.20
35.8850,0.07,0.13,-0.99,3.54,1.16,-0.73
35.8990,0.06,0.12,-0.99,3.72,0.85,-0.18
35.9100,0.06,0.12,-0.99,3.60,1.34,-0.43
35.9270,0.06,0.11,-0.99,3.78,1.83,-0.61
35.9440,0.06,0.11,-0.99,3.78,1.46,-1.34
35.9600,0.06,0.11,-0.99,3.91,1.77,-2.14
35.9760,0.06,0.12,-0.99,3.85,1.40,-2.08
35.9920,0.07,0.13,-0.99,3.60,1.34,-1.46
36.0070,0.07,0.13,-0.99,3.72,1.40,-0.92
36.0220,0.06,0.12,-0.99,3.66,1.40,-0.24
36.0270,0.06,0.11,-0.99,3.85,1.46,-0.61
36.0430,0.06,0.11,-0.99,3.78,1.16,-0.98
36.0670,0.06,0.12,-0.99,3.85,1.22,-1.40
36.0840,0.07,0.12,-0.99,3.85,1.46,-1.59
36.1000,0.06,0.12,-0.99,3.66,1.71,-1.77
36.1160,0.07,0.13,-0.99,3.85,1.22,-1.16
36.1320,0.06,0.12,-0.99,3.72,1.22,-0.06
36.1490,0.06,0.11,-0.99,3.72,1.71,-0.31
36.1640,0.06,0.11,-0.99,3.60,1.59,-1.34
36.1810,0.06,0.12,-0.99,3.78,1.65,-1.65
36.1830,0.06,0.12,-0.99,3.85,1.34,-1.28
36.1990,0.06,0.13,-0.99,3.72,1.28,-0.92
36.2270,0.07,0.12,-0.99,3.48,1.53,-0.43
36.2380,0.06,0.11,-0.99,3.85,1.40,-0.37
36.2570,0.06,0.11,-0.99,3.85,0.85,-1.10
36.2720,0.06,0.11,-0.99,3.85,1.53,-1.77
36.2890,0.06,0.12,-0.99,3.78,1.83,-2.14
36.3040,0.07,0.12,-0.99,3.66,1.71,-1.71
36.3210,0.06,0.12,-0.99,4.15,1.16,-1.65
36.3360,0.07,0.13,-0.99,3.85,1.95,-1.22
36.3520,0.06,0.13,-0.99,3.85,0.85,0.00
36.3590,0.07,0.11,-0.99,3.60,1.46,0.12
36.3740,0.06,0.11,-0.99,3.78,1.65,-1.28
36.3900,0.06,0.11,-0.99,3.85,1.53,-1.77
36.4120,0.06,0.11,-0.99,3.66,1.53,-2.20
36.4270,0.06,0.12,-0.99,3.85,1.53,-2.20
36.4440,0.07,0.14,-0.99,3.97,1.46,-1.89
36.4600,0.07,0.13,-0.99,3.48,1.04,-0.12
36.4750,0.06,0.13,-0.99,3.42,1.28,0.43
36.4900,0.06,0.12,-0.99,3.72,0.85,0.67
36.4950,0.06,0.11,-1.00,3.60,1.40,0.55
36.5110,0.06,0.11,-0.99,3.66,1.34,-0.85
36.5340,0.06,0.12,-0.99,3.60,1.65,-1.77
36.5510,0.06,0.14,-0.99,3.66,0.92,-0.61
36.5680,0.07,0.13,-0.99,3.60,1.10,1.10
36.5830,0.06,0.12,-0.99,3.60,0.92,1.28
36.6000,0.06,0.10,-0.99,3.60,1.46,0.18
36.6160,0.06,0.11,-0.99,3.66,1.28,-0.73
36.6320,0.06,0.12,-0.99,3.97,1.28,-1.34
36.6480,0.06,0.12,-0.99,4.03,1.04,-0.67
36.6590,0.06,0.12,-0.99,3.78,1.28,-1.04
36.6670,0.06,0.12,-0.99,3.72,1.65,-0.98
36.6910,0.06,0.12,-0.99,3.66,1.59,-1.04
36.7090,0.06,0.14,-0.99,3.72,1.28,0.06
36.7100,0.06,0.13,-0.99,3.66,1.16,0.73
36.7400,0.06,0.12,-0.99,3.60,1.10,1.40
36.7560,0.06,0.10,-0.99,3.54,1.22,1.16
36.7590,0.06,0.11,-0.99,3.54,1.46,0.06
36.7730,0.06,0.12,-0.99,3.72,1.22,-0.55
36.8020,0.06,0.15,-0.99,3.60,1.34,0.31
36.8130,0.07,0.14,-0.99,3.42,1.28,1.10
36.8290,0.06,0.12,-0.99,3.23,1.34,1.71
36.8460,0.06,0.12,-0.99,3.48,1.22,1.71
36.8610,0.06,0.12,-0.99,3.91,1.16,1.71
36.8770,0.06,0.12,-0.99,3.30,1.40,1.77
36.8930,0.07,0.12,-0.99,3.30,1.16,1.53
36.9080,0.07,0.12,-0.99,3.48,1.16,1.59
36.9230,0.06,0.12,-0.99,3.60,0.98,1.59
36.9290,0.07,0.12,-0.99,3.42,1.40,1.53
36.9440,0.06,0.12,-0.99,3.66,0.79,1.53
36.9680,0.06,0.11,-0.99,3.85,1.22,1.53
36.9830,0.06,0.12,-0.99,3.78,1.34,1.77
36.9990,0.06,0.12,-0.99,3.66,0.55,1.89
37.0150,0.06,0.12,-0.99,4.03,1.16,2.62
37.0300,0.07,0.13,-0.99,3.30,0.79,2.99
37.0450,0.06,0.12,-0.99,3.36,0.79,4.46
37.0600,0.06,0.12,-0.99,3.36,0.73,4.88
37.0750,0.06,0.11,-0.99,3.48,0.61,3.78
37.0850,0.06,0.12,-0.99,3.48,0.85,2.32
37.1000,0.06,0.12,-0.99,3.60,0.55,2.08
37.1190,0.06,0.12,-0.99,3.48,1.04,2.26
37.1350,0.06,0.12,-0.99,3.48,1.71,2.08
37.1510,0.06,0.12,-0.99,3.72,1.04,1.95
37.1670,0.06,0.12,-0.99,3.54,1.16,1.77
37.1740,0.06,0.12,-0.99,3.72,1.28,1.59
37.1970,0.06,0.12,-0.99,3.54,0.73,1.53
37.2080,0.06,0.12,-0.99,3.66,0.98,1.65
37.2240,0.06,0.12,-0.99,3.60,0.92,1.83
37.2410,0.06,0.12,-0.99,3.48,1.04,1.77
37.2570,0.06,0.12,-0.99,3.54,1.22,1.83
37.2730,0.06,0.12,-0.99,3.42,0.98,1.77
37.2890,0.06,0.12,-0.99,3.60,0.98,1.71
37.3050,0.06,0.12,-0.99,3.60,1.34,1.65
37.3210,0.07,0.12,-0.99,3.54,0.98,1.77
37.3240,0.07,0.12,-0.99,3.36,1.34,1.71
37.3400,0.06,0.12,-0.99,3.54,0.79,1.65
37.3640,0.06,0.12,-0.99,3.85,0.73,1.71
37.3810,0.06,0.12,-0.99,3.97,0.55,1.59
37.3970,0.06,0.12,-0.99,3.97,0.31,1.53
37.4130,0.06,0.12,-0.99,3.78,0.31,1.40
37.4280,0.07,0.12,-1.00,3.72,1.04,1.65
37.4430,0.06,0.12,-0.99,3.91,0.43,1.53
37.4580,0.06,0.12,-0.99,3.91,0.43,1.53
37.4730,0.06,0.12,-0.99,3.72,0.49,1.53
37.4870,0.06,0.12,-0.99,3.85,0.67,1.46
37.5030,0.06,0.12,-0.99,3.42,0.92,1.53
37.5140,0.06,0.10,-0.96,2.20,1.71,1.46
37.5320,0.07,0.12,-0.99,3.23,1.10,1.83
37.5470,0.06,0.12,-0.99,3.42,1.10,1.59
37.5640,0.07,0.12,-0.99,3.48,1.10,1.71
37.5800,0.06,0.12,-0.99,3.66,1.34,1.65
37.5950,0.06,0.12,-0.99,3.48,0.85,1.59
37.6120,0.06,0.12,-0.99,3.60,0.85,1.59
37.6140,0.06,0.12,-0.99,3.36,0.79,1.65
37.6420,0.06,0.12,-0.99,3.48,1.04,1.59
37.6480,0.06,0.12,-0.99,3.54,1.16,1.59
37.6650,0.06,0.12,-0.99,3.54,0.55,1.46
37.6830,0.06,0.12,-0.99,3.30,0.85,1.59
37.6980,0.06,0.12,-0.99,3.60,0.67,1.59
37.7160,0.06,0.12,-0.99,3.60,1.16,1.53
37.7320,0.06,0.12,-0.99,3.54,0.92,1.46
37.7490,0.06,0.12,-0.99,3.48,0.92,1.53
37.7600,0.06,0.12,-0.99,3.60,1.10,1.65
37.7660,0.06,0.12,-0.99,3.54,0.98,1.53
37.7830,0.06,0.12,-0.99,3.66,1.04,1.71
37.7990,0.06,0.12,-0.99,3.60,1.22,1.65
37.8150,0.06,0.12,-0.99,3.48,1.22,1.77
37.8300,0.06,0.12,-0.99,3.54,0.85,1.59
37.8460,0.06,0.12,-0.99,3.72,1.04,0.98
37.8720,0.04,0.03,-1.01,2.93,1.10,3.11
37.8830,0.04,0.09,-1.00,2.87,-0.43,9.28
37.9010,0.06,0.15,-0.98,2.75,-0.06,10.01
37.9160,0.05,0.16,-0.99,2.81,-0.37,10.07
37.9330,0.08,0.16,-0.98,2.56,-0.61,10.99
37.9480,0.06,0.12,-0.99,2.93,0.24,6.65
37.9600,0.05,0.10,-0.99,2.69,0.24,6.77
37.9790,0.07,0.11,-0.99,2.93,0.37,7.93
37.9830,0.08,0.11,-0.99,3.17,0.31,6.96
37.9990,0.08,0.12,-0.99,3.30,0.49,5.00
38.0220,0.07,0.12,-0.99,3.36,0.18,5.19
38.0390,0.07,0.13,-0.99,3.23,0.61,6.53
38.0550,0.10,0.17,-0.98,3.17,0.61,4.76
38.0710,0.06,0.12,-0.99,3.36,0.92,1.65
38.0860,0.06,0.12,-0.99,3.36,0.98,1.71
38.1020,0.06,0.12,-0.99,3.48,0.67,1.65
38.1190,0.06,0.12,-0.99,3.36,1.04,1.59
38.1340,0.06,0.13,-0.99,3.23,1.04,2.08
38.1510,0.06,0.12,-0.99,3.30,0.49,2.99
38.1660,0.07,0.11,-0.99,3.48,1.10,2.32
38.1820,0.07,0.12,-0.99,3.66,0.85,1.95
38.1990,0.06,0.12,-0.99,3.54,1.16,1.71
38.2150,0.06,0.12,-0.99,3.66,0.92,1.53
38.2300,0.06,0.12,-0.99,3.17,1.16,1.65
38.2390,0.06,0.12,-0.99,3.17,1.04,1.65
38.2600,0.06,0.12,-0.99,3.30,1.04,1.77
38.2740,0.06,0.16,-0.98,3.85,0.55,1.95
38.2900,0.07,0.10,-0.99,4.21,1.28,-0.79
38.3060,0.07,0.11,-0.99,3.66,1.53,-1.04
38.3110,0.06,0.11,-0.99,3.72,1.10,-0.55
38.3270,0.07,0.14,-0.99,3.91,1.59,-0.49
38.3460,0.07,0.12,-0.99,4.09,1.77,-2.08
38.3630,0.06,0.10,-0.99,3.66,1.53,-1.65
38.3790,0.06,0.11,-0.99,3.54,1.22,0.12
38.3960,0.07,0.13,-0.99,3.72,1.53,0.06
38.4130,0.06,0.13,-0.99,3.72,1.10,-0.79
38.4290,0.07,0.13,-0.99,4.09,1.46,-2.01
38.4450,0.06,0.10,-1.00,4.03,1.65,-2.20
38.4630,0.06,0.10,-0.99,3.54,1.46,0.18
38.4790,0.06,0.12,-0.99,3.48,0.85,1.40
38.4950,0.06,0.12,-0.99,3.48,1.04,1.59
38.5110,0.07,0.12,-0.99,3.30,1.40,1.53
38.5270,0.06,0.12,-0.99,3.42,1.22,1.46
38.5300,0.06,0.12,-0.99,3.66,0.98,1.04
38.5450,0.04,0.13,-0.99,3.66,1.16,0.18
38.5700,0.07,0.11,-0.99,3.85,1.46,0.24
38.5870,0.06,0.12,-0.99,3.66,1.34,1.28
38.5870,0.06,0.12,-0.99,3.48,1.10,1.71
38.6190,0.06,0.12,-0.99,3.72,0.92,1.83
38.6350,0.06,0.11,-0.99,3.54,0.85,1.53
38.6360,0.07,0.11,-0.99,3.60,1.10,1.16
38.6590,0.08,0.12,-0.99,3.54,1.28,1.10
38.6830,0.07,0.12,-0.99,3.54,1.04,1.10
38.6860,0.07,0.12,-0.99,3.60,0.92,1.46
38.7150,0.06,0.12,-0.99,3.72,0.79,1.46
38.7190,0.06,0.12,-0.99,3.60,1.34,1.10
38.7340,0.07,0.12,-0.99,3.54,1.28,0.92
38.7590,0.07,0.12,-0.99,3.42,1.22,1.28
38.7740,0.06,0.12,-0.99,3.36,0.98,1.65
38.7900,0.06,0.12,-0.99,3.36,1.16,1.77
38.8060,0.06,0.12,-0.99,3.36,0.92,1.89
38.8220,0.06,0.12,-0.99,3.42,0.98,1.83
38.8370,0.06,0.12,-0.99,3.48,1.40,1.83
38.8410,0.07,0.11,-0.99,3.78,0.92,1.65
38.8590,0.07,0.12,-0.99,3.60,1.10,1.53
38.8820,0.06,0.12,-0.99,3.48,0.92,1.40
38.8980,0.06,0.12,-0.99,3.54,1.10,1.34
38.9150,0.06,0.12,-0.99,3.72,1.10,1.46
38.9310,0.06,0.12,-0.99,3.48,1.46,1.34
38.9470,0.07,0.12,-0.99,3.54,1.22,1.10
38.9630,0.07,0.12,-0.99,3.60,1.16,1.04
38.9790,0.06,0.12,-0.99,3.72,0.85,0.73
38.9950,0.06,0.12,-0.99,3.60,1.04,0.67
39.0110,0.07,0.12,-0.99,3.48,1.46,0.67
39.0260,0.07,0.12,-0.99,3.72,1.10,0.61
39.0420,0.06,0.12,-0.99,3.66,1.10,0.79
39.0470,0.06,0.12,-0.99,3.78,0.92,0.73
39.0630,0.06,0.12,-0.99,3.54,1.28,0.61
39.0870,0.07,0.12,-0.99,3.54,1.16,0.55
39.1030,0.07,0.12,-0.99,3.54,1.22,0.85
39.1180,0.06,0.12,-0.99,3.66,1.28,0.92
39.1340,0.07,0.12,-0.99,3.54,1.40,1.16
39.1500,0.06,0.12,-0.99,3.42,0.98,1.10
39.1590,0.06,0.12,-0.99,3.54,1.10,1.16
39.1700,0.06,0.12,-0.99,3.60,1.22,1.22
39.1950,0.06,0.12,-0.99,3.78,0.92,1.22
39.2120,0.06,0.12,-0.99,3.78,0.85,1.34
39.2280,0.06,0.12,-0.99,3.66,0.92,1.34
39.2450,0.07,0.12,-0.99,3.60,0.61,1.40
39.2610,0.06,0.12,-0.99,3.78,0.85,1.59
39.2780,0.06,0.12,-0.99,3.60,0.92,1.40
39.2940,0.07,0.12,-0.99,3.60,0.98,1.59
39.3100,0.06,0.12,-0.99,3.60,1.16,1.40
39.3260,0.07,0.12,-0.99,3.66,0.73,1.53
39.3410,0.07,0.12,-0.99,3.48,0.85,1.65
39.3580,0.06,0.12,-0.99,3.60,1.04,1.65
39.3730,0.06,0.12,-0.99,3.60,1.04,1.71
39.3780,0.06,0.12,-0.99,3.48,1.04,1.71
39.3930,0.07,0.12,-0.99,3.42,0.98,1.71
39.4190,0.07,0.12,-0.99,3.85,0.79,1.95
39.4340,0.06,0.12,-0.99,3.54,0.85,2.26
39.4490,0.06,0.12,-0.99,3.42,0.79,2.32
39.4650,0.06,0.12,-0.99,3.23,1.10,2.62
39.4800,0.06,0.12,-0.99,3.42,0.79,2.62
39.4860,0.07,0.12,-0.99,3.54,0.73,2.87
39.5120,0.06,0.12,-0.99,3.54,0.85,3.11
39.5190,0.06,0.12,-0.99,3.48,0.73,3.30
39.5440,0.08,0.12,-0.99,3.30,1.04,3.42
39.5590,0.06,0.12,-0.99,3.42,1.16,3.05
39.5680,0.07,0.12,-0.99,3.48,0.85,2.99
39.5880,0.07,0.12,-0.99,3.48,0.79,2.99
39.6040,0.06,0.12,-0.99,3.72,0.55,2.87
39.6190,0.06,0.11,-0.99,3.36,1.04,3.30
39.6250,0.06,0.12,-0.99,3.36,0.98,3.78
39.6410,0.07,0.12,-0.99,3.23,0.67,3.91
39.6600,0.06,0.12,-0.99,3.30,0.61,3.91
39.6760,0.06,0.12,-0.99,3.17,0.85,3.91
39.6930,0.06,0.11,-0.99,3.36,0.43,4.33
39.7090,0.06,0.11,-0.99,3.17,0.49,5.00
39.7270,0.07,0.12,-0.99,3.30,0.31,5.80
39.7430,0.08,0.13,-0.99,3.42,0.67,5.25
39.7600,0.07,0.12,-0.99,3.36,0.31,4.46
39.7760,0.07,0.12,-0.99,3.23,0.79,3.72
39.7920,0.07,0.12,-0.99,3.11,0.79,3.23
39.8070,0.07,0.12,-0.99,3.54,0.98,2.81
39.8230,0.06,0.12,-0.99,3.66,0.67,2.81
39.8390,0.06,0.12,-0.99,3.48,0.55,2.93
39.8550,0.06,0.12,-0.99,3.36,0.92,3.05
39.8610,0.06,0.12,-0.99,3.30,0.98,2.81
39.8760,0.07,0.12,-0.99,3.23,0.73,2.81
39.8920,0.06,0.12,-0.99,3.72,0.49,2.69
39.9130,0.06,0.12,-0.99,3.48,0.73,2.81
39.9300,0.06,0.12,-0.99,3.36,0.85,3.05
39.9470,0.06,0.12,-0.99,3.54,0.43,3.11
39.9630,0.07,0.12,-0.99,3.42,0.55,3.05
39.9790,0.06,0.12,-0.99,3.60,0.61,2.81
39.9950,0.06,0.12,-0.99,3.54,1.04,2.93
40.0110,0.06,0.12,-0.99,3.66,0.37,2.99
40.0130,0.07,0.12,-0.99,3.42,0.79,3.17
40.0290,0.07,0.12,-0.99,3.30,0.98,2.81
40.0540,0.06,0.12,-0.99,3.48,0.98,2.62
40.0710,0.06,0.12,-0.99,3.30,0.67,2.99
40.0880,0.06,0.12,-0.99,3.48,0.73,3.23
40.1030,0.06,0.12,-0.99,3.23,1.04,3.30
40.1180,0.06,0.12,-0.99,3.54,0.85,3.17
40.1330,0.07,0.12,-0.99,3.54,0.43,3.23
40.1480,0.07,0.12,-0.99,3.42,0.92,2.93
40.1640,0.07,0.12,-0.99,3.36,1.04,2.81
40.1790,0.06,0.12,-0.99,3.48,1.04,2.62
40.1890,0.06,0.12,-0.99,3.54,1.10,2.69
40.2040,0.07,0.12,-0.99,3.42,0.98,2.62
40.2250,0.06,0.12,-0.99,3.66,0.43,2.50
40.2420,0.06,0.12,-0.99,3.60,1.10,2.62
40.2570,0.07,0.12,-0.99,3.60,0.73,2.87
40.2740,0.07,0.12,-0.99,3.60,1.10,2.81
40.2900,0.06,0.12,-0.99,3.60,0.85,2.62
40.3060,0.06,0.12,-0.99,3.42,1.04,2.87
40.3230,0.07,0.12,-0.99,3.60,0.79,2.75
40.3380,0.07,0.12,-0.99,3.30,0.79,2.81
40.3420,0.06,0.12,-0.99,3.42,0.85,2.81
40.3580,0.06,0.12,-0.99,3.78,0.85,2.81
40.3830,0.07,0.12,-0.99,3.42,0.98,2.81
40.3990,0.07,0.12,-0.99,3.30,0.85,2.62
40.4160,0.06,0.12,-0.99,3.72,0.79,2.50
40.4160,0.06,0.12,-0.99,3.48,0.67,2.50
40.4330,0.06,0.12,-0.99,3.23,0.67,2.44
40.4580,0.06,0.12,-0.99,3.60,0.98,2.56
40.4670,0.06,0.12,-0.99,3.54,0.85,2.50
40.4820,0.07,0.12,-0.99,3.48,0.67,2.50
40.5060,0.07,0.12,-0.99,3.48,0.92,2.38
40.5160,0.07,0.12,-0.99,3.60,0.92,2.32
40.5330,0.06,0.12,-0.99,3.36,1.04,1.95
40.5480,0.06,0.12,-0.99,3.42,1.22,2.20
40.5640,0.06,0.12,-0.99,3.42,1.10,2.32
40.5830,0.06,0.12,-0.99,3.54,0.85,2.50
40.5860,0.07,0.12,-0.99,3.36,0.73,2.50
40.6140,0.08,0.12,-0.99,3.30,0.92,2.26
40.6300,0.06,0.12,-0.99,3.42,1.04,2.08
40.6460,0.05,0.12,-0.99,3.48,0.98,2.26
40.6610,0.07,0.12,-0.99,3.48,1.10,2.50
40.6760,0.07,0.12,-0.99,3.60,0.98,2.32
40.6870,0.07,0.12,-0.99,3.48,1.16,2.26
40.7020,0.07,0.12,-0.99,3.54,0.55,1.95
40.7240,0.06,0.12,-0.99,3.66,0.92,2.14
40.7410,0.06,0.12,-0.99,3.66,0.79,2.01
40.7560,0.06,0.12,-0.99,3.60,1.16,2.20
40.7720,0.07,0.12,-0.99,3.48,0.98,2.50
40.7870,0.07,0.12,-0.99,3.42,1.22,2.44
40.7910,0.06,0.12,-0.99,3.60,1.10,2.14
40.8190,0.07,0.12,-0.99,3.60,0.85,2.08
40.8300,0.06,0.12,-0.99,3.48,1.04,1.95
40.8460,0.06,0.12,-0.99,3.54,0.98,2.08
40.8650,0.06,0.12,-0.99,3.48,1.04,2.01
40.8800,0.06,0.12,-0.99,3.48,0.85,2.14
40.8970,0.07,0.12,-0.99,3.42,1.10,2.32
40.9130,0.07,0.12,-0.99,3.23,0.73,2.14
40.9290,0.07,0.12,-0.99,3.36,0.85,1.89
40.9450,0.06,0.12,-0.99,3.54,0.98,1.77
40.9580,0.06,0.12,-0.99,3.60,0.67,1.95
40.9770,0.06,0.12,-0.99,3.42,0.85,1.95
40.9930,0.06,0.12,-0.99,3.48,0.79,2.14
41.0090,0.07,0.12,-0.99,3.54,0.98,1.95
41.0250,0.07,0.12,-0.99,3.54,0.61,1.77
41.0300,0.06,0.12,-0.99,3.42,0.98,1.83
41.0450,0.05,0.12,-0.99,3.36,1.16,1.83
41.0620,0.05,0.12,-0.99,3.48,1.04,2.14
41.0860,0.06,0.12,-0.99,3.48,0.92,2.26
41.1040,0.07,0.12,-0.99,3.60,0.98,2.14
41.1040,0.08,0.12,-0.99,3.54,0.49,2.08
41.1350,0.07,0.12,-0.99,3.36,0.85,2.08
41.1370,0.06,0.12,-0.99,3.60,0.67,1.83
41.1660,0.06,0.12,-0.99,3.54,0.79,1.89
41.1700,0.06,0.12,-0.99,3.54,1.04,2.01
41.1850,0.06,0.12,-0.99,3.48,1.16,2.14
41.2070,0.07,0.12,-0.99,3.42,1.16,2.01
41.2230,0.07,0.12,-0.99,3.66,0.85,2.14
41.2410,0.06,0.12,-0.99,3.78,0.85,2.08
41.2570,0.07,0.12,-0.99,3.42,1.16,2.32
41.2730,0.06,0.12,-0.99,3.54,1.22,2.01
41.2890,0.06,0.12,-0.99,3.42,0.92,2.01
41.3050,0.06,0.12,-0.99,3.66,0.73,2.01
41.3080,0.06,0.12,-0.99,3.54,0.92,1.95
41.3360,0.06,0.12,-0.99,3.48,0.67,1.83
41.3510,0.07,0.12,-0.99,3.72,0.55,1.83
41.3660,0.07,0.12,-0.99,3.54,0.92,1.83
41.3810,0.07,0.12,-0.99,3.72,0.73,1.53
41.3960,0.06,0.12,-0.99,3.78,0.73,1.46
41.4070,0.06,0.12,-0.99,3.48,0.92,1.34
41.4230,0.06,0.12,-0.99,3.42,0.61,1.46
41.4420,0.07,0.12,-0.99,3.66,0.73,1.71
41.4580,0.06,0.12,-0.99,3.72,0.85,1.83
41.4750,0.07,0.12,-0.99,3.48,0.92,1.95
41.4900,0.08,0.12,-0.99,3.54,0.55,2.32
41.5060,0.07,0.12,-0.99,3.66,0.79,1.95
41.5220,0.06,0.12,-0.99,3.48,0.55,1.95
41.5370,0.06,0.12,-0.99,3.66,0.98,1.95
41.5510,0.06,0.12,-0.99,3.72,0.43,1.83
41.5620,0.07,0.12,-0.99,3.78,0.92,1.89
41.5790,0.07,0.12,-0.99,3.66,0.73,1.83
41.5950,0.07,0.12,-0.99,3.66,0.43,1.65
41.6120,0.06,0.12,-0.99,3.91,0.61,1.71
41.6280,0.06,0.12,-0.99,3.60,0.43,1.65
41.6440,0.06,0.12,-0.99,3.54,0.92,1.71
41.6580,0.06,0.12,-0.99,3.54,0.55,1.77
41.6670,0.07,0.12,-0.99,3.85,0.49,1.71
41.6890,0.07,0.12,-0.99,3.72,0.37,1.71
41.7000,0.06,0.12,-0.99,3.60,0.92,1.89
41.7170,0.07,0.12,-0.99,3.48,0.73,1.95
41.7330,0.07,0.12,-0.99,3.66,1.10,1.95
41.7490,0.06,0.12,-0.99,3.48,0.37,1.65
41.7640,0.06,0.12,-0.99,3.60,0.73,1.77
41.7800,0.06,0.12,-0.99,3.60,1.04,2.08
41.7960,0.07,0.12,-0.99,3.48,1.16,1.95
41.8000,0.06,0.12,-0.99,3.60,0.31,1.83
41.8150,0.07,0.12,-0.99,3.54,0.98,2.14
41.8380,0.07,0.12,-0.99,3.66,0.67,2.20
41.8570,0.06,0.12,-0.99,3.72,0.79,2.08
41.8710,0.05,0.12,-0.99,3.42,0.92,2.26
41.8870,0.06,0.12,-0.99,3.54,0.79,2.32
41.9020,0.07,0.12,-0.99,3.30,0.79,2.62
41.9190,0.06,0.12,-0.99,3.42,1.22,2.62
41.9280,0.06,0.12,-0.99,3.48,0.55,2.69
41.9440,0.06,0.12,-0.99,3.36,0.49,2.69
41.9600,0.07,0.12,-0.99,3.30,0.85,2.56
41.9810,0.06,0.12,-0.99,3.36,0.85,2.44
41.9960,0.07,0.12,-0.99,3.42,0.79,2.56
42.0120,0.07,0.12,-0.99,3.48,0.92,2.50
42.0280,0.03,0.12,-0.99,3.42,0.85,2.75
42.0440,0.06,0.12,-0.99,3.66,0.49,3.11
42.0590,0.05,0.12,-0.99,3.42,0.43,3.42
42.0750,0.07,0.12,-0.99,3.48,0.24,3.97
42.0820,0.07,0.12,-0.99,3.72,0.37,3.54
42.0980,0.06,0.12,-0.99,3.42,0.67,3.36
42.1200,0.07,0.12,-0.99,3.54,0.37,3.48
42.1360,0.06,0.12,-0.99,3.42,0.79,3.54
42.1520,0.06,0.12,-0.99,3.42,0.85,3.97
42.1680,0.07,0.12,-0.99,3.36,0.55,4.15
42.1700,0.07,0.12,-0.99,3.30,0.79,3.78
42.1860,0.06,0.12,-0.99,3.23,0.73,3.66
42.2090,0.07,0.12,-0.99,3.48,0.85,3.60
42.2260,0.06,0.12,-0.99,3.66,0.06,3.42
42.2420,0.06,0.12,-0.99,3.48,0.55,3.54
42.2590,0.06,0.12,-0.99,3.42,0.61,3.72
42.2750,0.06,0.12,-0.99,3.36,0.37,4.33
42.2920,0.07,0.12,-0.99,3.30,0.43,5.31
42.3080,0.08,0.12,-0.99,3.17,0.43,5.07
42.3240,0.07,0.12,-0.99,3.54,0.18,4.03
42.3390,0.07,0.12,-0.99,3.48,0.55,3.91
42.3420,0.06,0.12,-0.99,3.48,0.31,3.48
42.3710,0.07,0.12,-0.99,3.60,-0.06,3.42
42.3870,0.06,0.12,-0.99,3.48,0.18,3.54
42.3920,0.07,0.12,-0.99,3.48,0.43,3.60
42.4080,0.06,0.12,-0.99,3.42,0.49,3.23
42.4320,0.06,0.12,-0.99,3.72,0.31,3.17
42.4330,0.06,0.12,-0.99,3.60,0.49,3.11
42.4620,0.06,0.12,-0.99,3.48,0.00,3.11
42.4770,0.06,0.12,-0.99,3.42,0.24,3.23
42.4940,0.05,0.12,-0.99,3.48,0.85,4.03
42.5100,0.05,0.12,-0.99,3.42,0.12,4.76
42.5180,0.06,0.12,-0.99,3.30,0.24,5.31
42.5400,0.07,0.12,-0.99,3.23,0.73,5.25
42.5510,0.08,0.12,-0.99,3.36,0.55,4.15
42.5670,0.06,0.12,-0.99,3.30,0.67,3.91
42.5830,0.07,0.12,-0.99,3.30,0.37,4.03
42.6000,0.07,0.12,-0.99,3.48,0.49,4.09
42.6150,0.07,0.12,-0.99,3.78,0.37,3.54
42.6310,0.07,0.12,-0.99,3.54,0.61,3.36
42.6470,0.06,0.12,-0.99,3.36,0.18,2.99
42.6620,0.06,0.12,-0.99,3.42,0.55,3.05
42.6770,0.06,0.12,-0.99,3.42,0.43,3.17
42.6930,0.06,0.12,-0.99,3.23,0.79,3.60
42.7080,0.06,0.12,-0.99,3.48,0.55,3.48
42.7230,0.06,0.12,-0.99,3.30,0.85,3.36
42.7340,0.07,0.12,-0.99,3.30,0.73,3.30
42.7500,0.06,0.12,-0.99,3.42,0.37,3.36
42.7660,0.06,0.12,-0.99,3.42,0.49,3.48
42.7830,0.06,0.12,-0.99,3.36,0.49,4.03
42.7990,0.08,0.12,-0.99,3.42,0.85,4.33
42.8150,0.08,0.12,-0.99,3.54,0.73,3.97
42.8300,0.07,0.12,-0.99,3.42,0.79,3.23
42.8470,0.05,0.12,-0.99,3.30,0.61,3.05
42.8570,0.05,0.12,-0.99,3.05,0.12,3.48
42.8650,0.07,0.12,-0.99,3.23,0.31,4.21
42.8880,0.08,0.12,-0.99,3.42,0.67,3.78
42.9040,0.08,0.12,-0.99,3.30,0.73,3.42
42.9200,0.07,0.12,-0.99,3.54,0.79,2.87
42.9360,0.07,0.12,-0.99,3.36,1.28,2.75
42.9520,0.05,0.12,-0.99,3.42,0.85,2.81
42.9610,0.06,0.12,-0.99,3.36,-0.06,3.36
42.9790,0.07,0.12,-0.99,3.42,0.37,3.17
42.9940,0.08,0.12,-0.99,3.54,0.92,3.05
43.0160,0.07,0.12,-0.99,3.54,0.79,2.26
43.0320,0.06,0.12,-0.99,3.54,1.10,1.95
43.0460,0.06,0.12,-0.99,3.54,0.79,1.83
43.0620,0.05,0.11,-0.99,3.23,0.55,2.01
43.0660,0.06,0.12,-0.99,3.60,0.55,3.30
43.0820,0.07,0.12,-0.99,3.42,0.12,3.11
43.1060,0.07,0.12,-0.99,3.48,0.12,2.87
43.1240,0.07,0.12,-0.99,3.48,0.85,3.05
43.1400,0.07,0.12,-0.99,3.42,0.92,2.81
43.1550,0.07,0.12,-0.99,3.54,0.67,2.69
43.1580,0.07,0.12,-0.99,3.60,0.98,2.14
43.1730,0.07,0.12,-0.99,3.72,0.79,1.95
43.2030,0.06,0.12,-0.99,3.66,0.67,1.65
43.2060,0.06,0.12,-0.99,3.72,0.79,1.59
43.2220,0.06,0.12,-0.99,3.66,0.98,1.65
43.2470,0.06,0.12,-0.99,3.48,1.16,1.59
43.2630,0.06,0.12,-0.99,3.54,0.79,1.53
43.2800,0.06,0.12,-0.99,3.36,0.92,1.59
43.2960,0.06,0.12,-0.99,3.72,0.85,1.71
43.3120,0.06,0.12,-0.99,3.78,0.92,1.59
43.3280,0.06,0.12,-0.99,3.66,1.04,1.59
43.3440,0.06,0.12,-0.99,3.78,0.79,1.46
43.3590,0.07,0.12,-0.99,3.72,0.55,1.59
43.3630,0.07,0.12,-0.99,3.78,0.73,1.59
43.3790,0.06,0.12,-0.99,3.54,0.67,1.77
43.4030,0.07,0.12,-0.99,3.66,0.92,1.59
43.4200,0.06,0.12,-0.99,3.66,0.61,1.40
43.4360,0.06,0.12,-0.99,3.54,0.67,1.40
43.4530,0.07,0.12,-0.99,3.60,0.24,1.40
43.4690,0.06,0.12,-0.99,3.54,0.67,1.46
43.4850,0.06,0.12,-0.99,3.72,0.55,1.53
43.5010,0.07,0.12,-0.99,3.48,0.79,1.59
43.5170,0.07,0.12,-0.99,3.60,0.85,1.59
43.5330,0.06,0.12,-0.99,3.66,0.55,1.53
43.5490,0.06,0.12,-0.99,3.54,0.61,1.65
43.5570,0.07,0.12,-0.99,3.54,0.79,1.59
43.5790,0.06,0.12,-0.99,3.42,1.28,1.71
43.5870,0.07,0.12,-0.99,3.60,0.98,1.40
43.6090,0.06,0.12,-0.99,3.66,0.79,1.65
43.6200,0.06,0.12,-0.99,3.54,0.73,1.46
43.6360,0.07,0.12,-0.99,3.42,0.98,1.59
43.6530,0.07,0.12,-0.99,3.60,1.04,1.46
43.6700,0.06,0.12,-0.99,3.66,0.92,1.53
43.6860,0.07,0.12,-0.99,3.72,0.98,1.59
43.7020,0.06,0.12,-0.99,3.66,0.85,1.46
43.7180,0.07,0.13,-0.99,3.66,0.73,1.46
43.7350,0.06,0.12,-0.99,3.48,0.92,1.46
43.7510,0.07,0.12,-0.99,3.85,0.49,1.53
43.7660,0.07,0.12,-0.99,3.72,0.98,1.46
43.7810,0.06,0.12,-0.99,3.54,1.10,1.40
43.7970,0.06,0.12,-0.99,3.66,0.85,1.59
43.8130,0.06,0.12,-0.99,3.36,0.85,1.46
43.8290,0.07,0.11,-0.98,3.85,1.22,1.65
43.8440,0.06,0.12,-0.99,3.66,0.85,1.53
43.8570,0.06,0.12,-0.99,3.54,1.22,1.65
43.8690,0.07,0.12,-0.99,3.36,1.16,1.65
43.8860,0.06,0.12,-0.99,3.48,0.92,1.59
43.9030,0.06,0.11,-1.00,3.48,1.28,1.83
43.9190,0.06,0.12,-0.99,2.87,-0.18,6.59
43.9340,0.07,0.11,-1.00,3.66,0.55,6.41
43.9490,0.07,0.20,-0.97,2.75,0.06,6.29
43.9630,0.06,0.11,-0.99,3.42,0.98,1.46
43.9790,0.06,0.12,-0.99,3.60,0.73,1.40
43.9860,0.06,0.12,-0.99,3.30,1.04,1.59
44.0020,0.07,0.12,-0.99,3.36,0.85,1.59
44.0190,0.06,0.12,-0.99,3.36,0.92,1.59
44.0360,0.06,0.12,-0.99,3.66,0.79,1.71
44.0520,0.06,0.12,-0.99,3.54,1.04,1.53
44.0690,0.06,0.12,-0.99,3.48,0.92,1.59
44.0850,0.07,0.12,-0.99,3.54,0.85,1.46
44.1010,0.06,0.12,-0.99,3.36,0.79,1.59
44.1030,0.06,0.12,-0.99,3.66,0.67,1.46
44.1180,0.06,0.12,-0.99,3.60,0.79,1.65
44.1390,0.06,0.12,-0.99,3.36,0.98,1.40
44.1570,0.06,0.12,-0.99,3.42,0.98,1.53
44.1730,0.07,0.12,-0.99,3.54,1.04,1.46
44.1890,0.06,0.12,-0.99,3.66,0.92,1.65
44.2060,0.06,0.12,-0.99,3.66,1.22,1.65
44.2220,0.06,0.12,-0.99,3.72,0.85,1.53
44.2370,0.07,0.12,-0.99,3.66,0.92,1.46
44.2390,0.07,0.12,-0.99,3.72,1.04,1.59
44.2570,0.07,0.12,-0.99,3.66,0.49,1.59
44.2770,0.06,0.12,-0.99,3.60,0.85,1.71
44.2940,0.06,0.12,-0.99,3.42,1.10,1.65
44.3090,0.06,0.12,-0.99,3.72,0.61,1.46
44.3280,0.06,0.12,-0.99,3.54,1.16,1.65
44.3440,0.06,0.12,-0.99,3.54,1.04,1.53
44.3590,0.06,0.12,-0.99,3.54,0.92,1.65
44.3740,0.07,0.12,-0.99,3.60,0.67,1.65
44.3910,0.06,0.12,-0.99,3.60,1.04,1.59
44.4070,0.06,0.12,-0.99,3.36,0.98,1.53
44.4120,0.06,0.12,-0.99,3.54,1.22,1.59
44.4380,0.06,0.12,-0.99,3.54,1.10,1.59
44.4540,0.06,0.12,-0.99,3.54,1.28,1.77
44.4690,0.06,0.12,-0.99,3.66,1.04,1.53
44.4780,0.06,0.12,-0.99,3.48,1.10,1.46
44.4960,0.07,0.12,-0.99,3.48,1.10,1.53
44.5120,0.06,0.12,-0.99,3.66,0.92,1.46
44.5290,0.06,0.12,-0.99,3.48,0.98,1.71
44.5440,0.06,0.12,-0.99,3.60,1.16,1.65
44.5610,0.06,0.12,-0.99,3.66,0.92,1.59
44.5620,0.06,0.12,-0.99,3.72,1.28,1.71
44.5930,0.06,0.12,-0.99,3.42,1.04,1.59
44.5950,0.06,0.12,-0.99,3.48,1.22,1.59
44.6110,0.06,0.12,-0.99,3.60,0.92,1.59
44.6350,0.07,0.12,-0.99,3.60,1.16,1.65
44.6510,0.06,0.12,-0.99,3.54,1.16,1.65
44.6680,0.07,0.12,-0.99,3.42,1.04,1.53
44.6840,0.07,0.12,-0.99,3.54,0.79,1.65
44.7020,0.06,0.12,-0.99,3.42,1.40,1.53
44.7170,0.07,0.12,-0.99,3.42,1.22,1.65
44.7190,0.06,0.12,-0.99,3.36,1.16,1.77
44.7480,0.06,0.12,-0.99,3.36,1.10,1.53
44.7630,0.06,0.12,-0.99,3.42,1.04,1.53
44.7690,0.06,0.12,-0.99,3.54,1.16,1.65
44.7850,0.06,0.12,-0.99,3.66,1.28,1.53
44.8010,0.06,0.12,-0.99,3.42,0.55,1.53
44.8230,0.06,0.12,-0.99,3.48,0.67,1.53
44.8390,0.06,0.12,-0.99,3.60,1.22,1.65
44.8550,0.06,0.12,-0.99,3.54,0.73,1.53
44.8570,0.06,0.12,-0.99,3.66,1.34,1.65
44.8730,0.10,0.11,-0.99,3.54,0.98,1.22
44.9030,0.09,0.11,-0.99,3.60,1.16,0.43
44.9180,0.04,0.12,-0.99,3.54,1.22,0.18
44.9230,0.05,0.12,-0.99,3.48,1.34,1.34
44.9510,0.05,0.12,-0.99,3.54,1.22,1.53
44.9560,0.06,0.12,-0.99,3.60,1.16,1.71
44.9710,0.06,0.12,-0.99,3.72,0.79,1.53
44.9970,0.06,0.12,-0.99,3.48,1.16,1.53
45.0120,0.06,0.12,-0.99,3.54,1.10,1.46
45.0270,0.06,0.12,-0.99,3.54,0.98,1.65
45.0420,0.06,0.12,-0.99,3.54,0.85,1.46
45.0560,0.07,0.12,-0.99,3.54,1.22,1.65
45.0630,0.06,0.12,-0.99,3.23,1.28,1.59
45.0870,0.07,0.12,-0.99,3.54,1.28,1.59
45.1050,0.06,0.12,-0.99,3.42,1.22,1.46
45.1200,0.07,0.12,-0.99,3.42,1.16,1.59
45.1220,0.06,0.12,-0.99,3.54,0.79,1.59
45.1520,0.06,0.12,-0.99,3.48,1.16,1.59
45.1690,0.06,0.12,-0.99,3.60,0.85,1.53
45.1710,0.06,0.12,-0.99,3.72,1.04,1.59
45.1870,0.06,0.12,-0.99,3.60,1.16,1.53
45.2020,0.06,0.12,-0.99,3.48,0.98,1.46
45.2180,0.06,0.12,-0.99,3.60,0.79,1.65
45.2340,0.06,0.12,-0.99,3.48,1.65,1.59
45.2590,0.06,0.12,-0.99,3.60,1.16,1.59
45.2740,0.07,0.12,-0.99,3.36,0.98,1.46
45.2900,0.06,0.12,-0.99,3.42,1.53,1.53
45.3060,0.06,0.12,-0.99,3.54,1.16,1.59
45.3230,0.07,0.12,-0.99,3.54,0.98,1.46
45.3250,0.06,0.12,-0.99,3.42,0.92,1.65
45.3420,0.07,0.12,-0.99,3.42,1.40,1.71
45.3580,0.06,0.12,-0.99,3.48,1.22,1.71
45.3740,0.07,0.12,-0.99,3.60,1.16,1.53
45.3980,0.06,0.12,-0.99,3.54,1.10,1.53
45.4130,0.06,0.12,-0.99,3.54,1.16,1.53
45.4300,0.06,0.12,-0.99,3.48,1.46,1.53
45.4460,0.06,0.12,-0.99,3.66,1.46,1.65
45.4620,0.07,0.12,-0.99,3.54,1.28,1.59
45.4770,0.06,0.12,-0.99,3.30,1.34,1.46
45.4930,0.06,0.12,-0.99,3.36,1.34,1.59
45.5090,0.07,0.12,-0.99,3.36,1.04,1.59
45.5240,0.06,0.12,-0.99,3.36,1.53,1.59
45.5410,0.06,0.12,-0.99,3.48,0.98,1.53
45.5560,0.06,0.12,-0.99,3.30,1.16,1.46
45.5720,0.06,0.12,-0.99,3.30,0.92,1.53
45.5880,0.06,0.12,-0.99,3.42,1.28,1.59
45.5960,0.06,0.12,-0.99,3.36,0.98,1.65
45.6120,0.07,0.12,-0.99,3.36,1.10,1.59
45.6340,0.06,0.12,-0.99,3.36,1.28,1.59
45.6350,0.07,0.12,-0.99,3.42,0.98,1.59
45.6560,0.06,0.12,-0.99,3.48,1.40,1.53
45.6700,0.07,0.12,-0.99,3.48,1.16,1.46
45.6860,0.07,0.12,-0.99,3.54,1.16,1.46
45.7100,0.06,0.12,-0.99,3.17,1.46,1.77
45.7260,0.07,0.12,-0.99,3.30,1.10,1.46
45.7410,0.06,0.12,-0.99,3.48,1.10,1.46
45.7580,0.07,0.12,-0.99,3.54,0.92,1.53
45.7740,0.07,0.12,-0.99,3.66,1.22,1.53
45.7760,0.06,0.12,-0.99,3.42,1.40,1.59
45.7920,0.06,0.12,-0.99,3.48,1.04,1.53
45.8190,0.06,0.12,-0.99,3.54,0.79,1.53
45.8350,0.07,0.12,-0.99,3.42,0.92,1.59
45.8510,0.06,0.12,-0.99,3.48,1.16,1.53
45.8560,0.06,0.12,-0.99,3.48,1.04,1.65
45.8690,0.06,0.12,-0.99,3.54,0.92,1.71
45.8860,0.06,0.12,-0.99,3.30,1.22,1.59
45.9030,0.06,0.12,-0.99,3.05,1.40,1.53
45.9190,0.08,0.12,-0.99,3.17,1.46,1.40
45.9440,0.12,0.14,-0.98,4.09,1.04,0.85
45.9600,0.05,0.11,-0.99,3.78,1.46,-1.53
45.9760,0.06,0.12,-0.99,3.66,1.22,0.00
45.9920,0.05,0.11,-0.99,3.66,1.04,0.92
46.0060,0.06,0.11,-0.99,3.66,0.85,1.04
46.0230,0.07,0.12,-0.99,3.66,1.04,1.10
46.0380,0.06,0.12,-0.99,3.48,0.92,1.28
46.0550,0.07,0.13,-0.99,3.11,1.04,1.77
46.0610,0.07,0.12,-0.99,3.30,0.49,2.26
46.0770,0.06,0.11,-0.99,3.78,1.16,0.55
46.1010,0.06,0.11,-0.99,3.48,0.98,0.85
46.1170,0.06,0.12,-0.99,3.54,1.10,0.92
46.1330,0.06,0.11,-0.99,3.48,1.04,2.14
46.1370,0.06,0.11,-0.99,3.36,1.10,2.01
46.1650,0.06,0.12,-0.99,3.48,1.10,2.14
46.1700,0.06,0.11,-0.99,3.72,0.92,2.08
46.1860,0.07,0.12,-0.99,3.42,1.46,1.59
46.2110,0.07,0.12,-0.99,3.60,1.10,1.95
46.2280,0.06,0.11,-0.99,3.54,1.22,1.95
46.2440,0.06,0.12,-0.99,3.97,0.67,1.53
46.2600,0.07,0.12,-0.99,3.66,0.85,1.34
46.2750,0.07,0.13,-0.99,3.42,1.22,1.22
46.2900,0.06,0.12,-0.99,3.48,0.85,2.38
46.3060,0.06,0.12,-0.99,3.54,0.92,2.69
46.3210,0.07,0.12,-0.99,3.36,1.22,3.30
46.3370,0.06,0.11,-0.99,3.48,0.92,2.32
46.3520,0.06,0.11,-0.99,3.60,0.67,1.77
46.3610,0.07,0.12,-0.99,3.66,0.73,1.65
46.3770,0.07,0.12,-0.99,3.48,1.22,1.83
46.3990,0.07,0.13,-0.99,3.78,1.10,2.01
46.4010,0.07,0.12,-0.99,3.30,1.16,2.87
46.4300,0.06,0.11,-0.99,3.23,0.79,2.50
46.4340,0.06,0.11,-0.99,3.48,1.04,2.56
46.4550,0.06,0.11,-0.99,3.60,0.92,1.65
46.4730,0.06,0.12,-0.99,3.54,1.34,1.53
46.4910,0.06,0.12,-0.99,3.48,1.40,1.65
46.5070,0.07,0.12,-0.99,3.48,1.10,1.59
46.5240,0.07,0.12,-0.99,3.48,1.16,1.34
46.5390,0.07,0.12,-0.99,3.48,1.16,0.92
46.5560,0.06,0.11,-0.99,3.48,1.10,1.40
46.5570,0.06,0.11,-0.99,3.42,0.98,1.59
46.5740,0.06,0.11,-0.99,3.54,1.46,1.46
46.6030,0.06,0.12,-0.99,3.54,1.16,1.40
46.6190,0.07,0.12,-0.99,3.54,1.10,1.34
46.6240,0.07,0.12,-0.99,3.60,1.28,1.04
46.6490,0.06,0.12,-0.99,3.48,1.34,1.10
46.6570,0.06,0.12,-0.99,3.36,1.04,1.22
46.6730,0.06,0.11,-0.99,3.36,0.98,1.34
46.6910,0.06,0.11,-0.99,3.42,1.22,1.59
46.7060,0.06,0.12,-0.99,3.66,1.28,1.59
46.7230,0.07,0.12,-0.99,3.48,1.04,1.40
46.7410,0.08,0.13,-0.99,3.54,1.22,1.04
46.7570,0.06,0.12,-0.99,3.48,0.92,1.34
46.7730,0.06,0.11,-0.99,3.36,1.34,1.83
46.7740,0.06,0.11,-0.99,3.30,1.40,1.83
46.8060,0.06,0.11,-0.99,3.30,1.34,1.71
46.8220,0.07,0.12,-0.99,3.48,0.92,1.71
46.8370,0.08,0.13,-0.99,3.42,1.04,1.46
46.8400,0.07,0.13,-0.99,3.42,0.85,1.89
46.8570,0.06,0.11,-0.99,3.42,0.98,2.44
46.8840,0.05,0.11,-0.99,3.23,0.79,2.20
46.8900,0.06,0.11,-0.99,3.60,1.04,1.83
46.9060,0.06,0.11,-0.99,3.54,1.04,1.71
46.9290,0.07,0.12,-0.99,3.36,0.92,2.01
46.9440,0.07,0.12,-0.99,3.30,0.92,2.69
46.9550,0.07,0.12,-0.99,3.48,0.67,2.50
46.9630,0.07,0.12,-0.99,3.36,0.67,2.50
46.9860,0.07,0.12,-0.99,3.36,1.04,2.38
47.0040,0.07,0.12,-0.99,3.23,0.55,3.42
47.0190,0.07,0.12,-0.99,3.23,0.85,3.30
47.0360,0.06,0.11,-0.99,3.36,0.98,3.23
47.0530,0.06,0.11,-0.99,3.36,1.10,2.26
47.0690,0.06,0.12,-0.99,3.48,0.98,1.77
47.0860,0.07,0.12,-0.99,3.48,0.79,2.08
47.1020,0.06,0.12,-0.99,3.60,0.79,2.38
47.1030,0.06,0.12,-0.99,3.54,0.55,2.99
47.1320,0.06,0.12,-0.99,3.30,0.73,2.50
47.1480,0.06,0.12,-0.99,3.66,0.85,2.50
47.1630,0.07,0.12,-0.99,3.48,0.79,3.05
47.1700,0.06,0.11,-0.99,3.23,0.79,3.36
47.1860,0.06,0.12,-0.99,3.54,0.92,3.36
47.2020,0.06,0.11,-0.99,3.36,0.79,2.81
47.2240,0.07,0.12,-0.99,3.42,1.22,2.38
47.2390,0.07,0.12,-0.99,3.60,1.04,2.62
47.2550,0.07,0.12,-0.99,3.23,0.55,4.09
47.2700,0.06,0.12,-0.99,3.48,0.85,2.99
47.2860,0.06,0.13,-0.99,3.66,0.85,2.99
47.3030,0.07,0.11,-0.99,3.42,0.73,3.17
47.3070,0.06,0.12,-0.99,3.54,0.55,2.69
47.3230,0.05,0.12,-0.99,3.60,0.61,2.87
47.3470,0.06,0.11,-0.99,3.48,0.55,3.54
47.3630,0.07,0.12,-0.99,3.54,1.10,2.20
47.3800,0.06,0.12,-0.99,3.42,0.85,2.14
47.3960,0.07,0.12,-0.99,3.48,0.92,2.62
47.4120,0.06,0.11,-0.99,3.30,1.10,2.81
47.4280,0.06,0.13,-0.99,3.54,0.73,3.78
47.4440,0.06,0.10,-0.99,3.54,0.55,3.54
47.4590,0.07,0.12,-0.99,3.54,0.61,2.08
47.4750,0.07,0.12,-0.99,3.72,0.37,2.99
47.4800,0.06,0.11,-0.99,3.36,0.92,2.56
47.5050,0.07,0.12,-0.99,3.54,0.85,1.95
47.5130,0.07,0.13,-0.99,3.72,0.79,2.32
