Timestamp, AccX, AccY, AccZ, GyroX, GyroY, GyroZ
0.0110,0.07,0.12,-0.99,3.17,4.27,2.14
0.0260,0.08,0.11,-0.99,3.11,3.66,2.20
0.0400,0.08,0.12,-1.00,2.81,3.97,2.32
0.0550,0.08,0.12,-1.00,3.17,3.97,2.32
0.0660,0.08,0.12,-0.99,3.05,3.97,2.14
0.0840,0.08,0.12,-1.00,3.30,3.66,2.20
0.1000,0.07,0.12,-0.99,3.17,4.09,2.14
0.1160,0.07,0.11,-1.00,2.99,4.15,2.20
0.1180,0.07,0.11,-1.00,3.05,4.27,2.26
0.1460,0.08,0.11,-1.00,3.05,3.97,2.20
0.1610,0.08,0.11,-0.99,3.36,4.03,2.20
0.1760,0.08,0.12,-0.99,3.30,4.09,2.32
0.1910,0.08,0.12,-1.00,3.48,3.97,2.26
0.2060,0.08,0.12,-1.00,3.30,4.09,2.20
0.2170,0.08,0.12,-1.00,3.36,4.09,2.20
0.2340,0.07,0.11,-0.99,3.05,3.91,2.01
0.2490,0.07,0.11,-0.99,3.30,4.03,2.56
0.2660,0.07,0.12,-0.99,2.81,3.97,2.44
0.2810,0.08,0.12,-1.00,2.87,3.91,2.38
0.2960,0.07,0.12,-1.00,2.99,4.39,2.44
0.3110,0.07,0.12,-1.00,2.69,3.85,2.99
0.3260,0.07,0.12,-0.99,2.81,3.42,5.31
0.3420,0.07,0.11,-1.00,2.44,3.30,7.08
0.3500,0.08,0.11,-1.00,2.69,3.36,6.84
0.3660,0.08,0.11,-1.00,2.93,3.60,5.98
0.3850,0.08,0.11,-1.00,2.69,3.78,4.52
0.4020,0.08,0.12,-0.99,3.05,4.09,3.72
0.4180,0.08,0.12,-1.00,3.05,4.03,3.11
0.4350,0.07,0.12,-0.99,2.81,3.72,3.17
0.4520,0.08,0.12,-1.00,2.81,3.91,3.11
0.4690,0.08,0.12,-0.99,3.23,3.66,3.23
0.4840,0.08,0.12,-1.00,2.93,3.97,3.42
0.5000,0.08,0.11,-1.00,2.87,3.78,3.30
0.5150,0.07,0.11,-1.00,2.99,3.66,3.11
0.5310,0.07,0.11,-0.99,2.93,4.09,3.17
0.5460,0.07,0.12,-0.99,2.69,3.97,3.30
0.5520,0.08,0.11,-1.00,2.69,3.97,3.91
0.5670,0.08,0.11,-1.00,2.93,3.85,4.33
0.5930,0.08,0.11,-0.99,2.56,3.78,4.58
0.6040,0.08,0.10,-1.00,2.69,3.78,5.13
0.6210,0.07,0.13,-0.99,2.75,3.60,5.80
0.6380,0.07,0.13,-1.00,2.87,4.03,4.27
0.6530,0.08,0.12,-1.00,2.81,3.91,2.87
0.6690,0.08,0.12,-0.99,2.81,4.03,2.44
0.6840,0.08,0.12,-1.00,2.93,4.03,2.56
0.6990,0.08,0.12,-1.00,2.81,4.15,2.56
0.7040,0.08,0.12,-1.00,2.87,4.03,2.38
0.7200,0.07,0.11,-1.00,2.69,4.03,2.20
0.7400,0.07,0.11,-1.00,3.17,4.03,2.20
0.7570,0.08,0.11,-1.00,2.99,4.21,2.26
0.7730,0.08,0.11,-1.00,3.05,4.15,2.20
0.7880,0.08,0.12,-1.00,3.23,3.97,2.26
0.8060,0.07,0.12,-1.00,3.11,4.15,2.38
0.8220,0.06,0.10,-1.00,2.75,3.66,2.75
0.8390,0.07,0.14,-0.99,2.69,3.42,4.70
0.8420,0.08,0.13,-0.99,2.69,3.72,3.54
0.8570,0.08,0.12,-0.99,2.69,3.72,3.11
0.8790,0.08,0.12,-0.99,2.87,4.09,2.32
0.8960,0.07,0.12,-1.00,3.36,4.15,2.38
0.9110,0.07,0.11,-1.00,3.30,4.03,2.32
0.9280,0.07,0.11,-1.00,3.17,3.85,2.26
0.9450,0.08,0.11,-1.00,3.11,3.85,2.14
0.9610,0.08,0.11,-1.00,2.93,4.03,2.26
0.9760,0.07,0.12,-1.00,3.11,4.21,2.50
0.9790,0.07,0.12,-1.00,2.99,3.66,3.91
1.0060,0.07,0.12,-1.00,2.75,3.60,4.46
1.0110,0.08,0.12,-1.00,2.87,3.72,4.27
1.0270,0.08,0.12,-1.00,2.99,3.85,3.60
1.0480,0.08,0.12,-0.99,2.93,3.91,3.36
1.0650,0.08,0.12,-0.99,3.36,3.97,2.87
1.0810,0.08,0.12,-1.00,3.05,3.85,2.32
1.0970,0.08,0.12,-0.99,3.23,4.21,2.26
1.1130,0.08,0.13,-0.99,3.17,4.03,1.77
1.1280,0.07,0.11,-1.00,3.17,4.15,2.56
1.1440,0.07,0.11,-1.00,2.93,3.91,2.81
1.1600,0.08,0.11,-1.00,3.11,4.15,2.93
1.1760,0.07,0.11,-1.00,2.87,3.78,2.50
1.1900,0.07,0.12,-1.00,2.99,3.85,2.56
1.1980,0.07,0.12,-1.00,2.99,3.97,2.69
1.2140,0.07,0.11,-1.00,3.17,3.97,2.69
1.2310,0.08,0.12,-0.99,2.87,4.03,2.56
1.2460,0.08,0.13,-0.99,3.05,3.72,2.69
1.2660,0.08,0.12,-0.99,3.42,3.66,2.87
1.2810,0.07,0.11,-1.00,3.17,3.91,2.62
1.2850,0.07,0.11,-1.00,3.42,3.85,2.26
1.3010,0.08,0.11,-1.00,3.11,3.72,2.38
1.3210,0.08,0.11,-0.99,2.99,3.72,2.26
1.3370,0.08,0.11,-1.00,2.87,4.03,2.08
1.3550,0.08,0.11,-0.99,3.05,3.97,2.20
1.3700,0.07,0.11,-1.00,3.23,4.09,2.08
1.3870,0.08,0.11,-1.00,3.36,4.03,2.20
1.4030,0.08,0.12,-0.99,3.30,3.97,2.20
1.4200,0.08,0.12,-0.99,2.99,4.03,2.01
1.4360,0.08,0.12,-0.99,3.05,3.78,2.26
1.4510,0.08,0.12,-0.99,2.99,4.03,2.26
1.4670,0.08,0.12,-0.99,3.17,4.09,2.32
1.4820,0.08,0.12,-1.00,3.17,3.91,2.38
1.4970,0.08,0.12,-1.00,3.05,4.09,2.26
1.5130,0.08,0.12,-1.00,3.23,4.09,2.14
1.5280,0.08,0.12,-0.99,2.93,4.15,2.26
1.5420,0.08,0.11,-0.99,3.05,3.85,2.20
1.5540,0.07,0.12,-1.00,3.30,3.97,2.20
1.5700,0.07,0.12,-1.00,3.23,3.97,2.20
1.5870,0.08,0.11,-0.99,3.05,3.97,2.20
1.6030,0.08,0.12,-1.00,3.17,3.78,2.08
1.6190,0.08,0.12,-0.99,3.05,3.72,2.20
1.6220,0.08,0.11,-1.00,2.99,4.03,2.32
1.6370,0.08,0.11,-1.00,2.99,3.97,2.26
1.6660,0.08,0.11,-1.00,2.81,3.97,2.99
1.6800,0.08,0.12,-0.99,2.87,3.60,2.99
1.6890,0.08,0.12,-0.99,2.93,3.85,2.81
1.7060,0.08,0.12,-1.00,2.93,4.09,2.62
1.7230,0.08,0.12,-1.00,2.93,3.97,2.44
1.7400,0.08,0.12,-1.00,2.99,3.72,2.50
1.7560,0.08,0.11,-1.00,2.87,4.03,2.44
1.7730,0.08,0.12,-1.00,3.11,4.21,2.26
1.7890,0.07,0.11,-1.00,3.30,3.97,2.32
1.7890,0.08,0.11,-1.00,3.11,4.15,2.38
1.8200,0.08,0.12,-0.99,2.99,3.97,2.38
1.8350,0.08,0.12,-0.99,2.93,3.91,2.38
1.8490,0.08,0.12,-0.99,3.11,3.85,2.20
1.8640,0.08,0.12,-0.99,3.11,3.60,2.26
1.8790,0.08,0.12,-1.00,2.99,3.85,2.26
1.8900,0.08,0.12,-1.00,3.11,3.97,2.14
1.9060,0.08,0.12,-1.00,3.17,3.97,2.14
1.9230,0.08,0.11,-0.99,3.11,4.27,2.14
1.9390,0.08,0.12,-1.00,2.93,4.03,2.26
1.9560,0.08,0.12,-1.00,3.05,3.97,2.32
1.9720,0.08,0.11,-1.00,3.11,4.15,2.32
1.9880,0.07,0.12,-1.00,2.99,4.09,2.01
2.0040,0.08,0.12,-1.00,3.17,4.03,2.32
2.0190,0.08,0.12,-1.00,2.93,4.09,2.14
2.0230,0.08,0.12,-1.00,2.99,3.91,2.20
2.0520,0.08,0.12,-0.99,2.81,4.33,2.14
2.0590,0.08,0.12,-0.99,3.05,3.85,2.20
2.0840,0.08,0.12,-0.99,3.17,4.09,2.14
2.0990,0.07,0.12,-1.00,3.17,3.91,2.20
2.1090,0.08,0.12,-1.00,3.11,4.09,2.26
2.1250,0.08,0.11,-1.00,2.81,3.97,2.14
2.1420,0.08,0.11,-1.00,2.93,4.15,2.32
2.1580,0.08,0.11,-1.00,3.17,4.09,2.20
2.1760,0.08,0.12,-1.00,3.11,3.91,2.14
2.1920,0.07,0.12,-1.00,3.11,3.91,2.26
2.2080,0.08,0.12,-1.00,3.05,3.97,2.20
2.2250,0.08,0.12,-1.00,2.93,4.27,2.26
2.2410,0.08,0.12,-1.00,2.87,4.03,2.14
2.2560,0.08,0.12,-0.99,2.93,4.39,2.14
2.2580,0.08,0.12,-1.00,2.99,3.85,1.95
2.2810,0.11,0.16,-0.99,3.11,4.21,1.59
2.3020,0.06,0.11,-1.00,3.17,4.39,0.31
2.3180,0.07,0.12,-1.00,2.93,4.33,1.59
2.3300,0.07,0.12,-1.00,3.36,4.09,1.65
2.3460,0.06,0.10,-1.00,3.17,3.97,1.71
2.3620,0.08,0.12,-0.99,2.62,4.03,3.36
2.3790,0.08,0.11,-1.00,2.87,3.97,3.30
2.3940,0.07,0.11,-1.00,2.81,3.85,2.56
2.4100,0.07,0.11,-1.00,2.93,4.09,2.32
2.4260,0.08,0.11,-1.00,2.87,3.91,1.89
2.4430,0.08,0.12,-0.99,2.93,4.15,1.83
2.4580,0.07,0.12,-0.99,3.17,4.21,1.89
2.4740,0.07,0.12,-0.99,2.93,4.15,2.87
2.4890,0.08,0.11,-1.00,3.11,3.66,3.42
2.4960,0.08,0.11,-1.00,2.93,3.78,3.36
2.5120,0.08,0.13,-0.99,2.87,3.97,3.17
2.5340,0.08,0.11,-1.00,2.99,3.60,3.30
2.5490,0.08,0.12,-0.99,3.11,3.60,3.05
2.5650,0.08,0.12,-0.99,2.87,4.09,3.23
2.5800,0.07,0.12,-1.00,2.81,3.78,4.21
2.5950,0.08,0.16,-0.99,2.69,3.48,4.52
2.6120,0.07,0.10,-1.00,2.81,3.36,4.82
2.6270,0.08,0.10,-1.00,2.99,3.72,3.54
2.6340,0.08,0.10,-1.00,2.87,3.72,2.99
2.6500,0.07,0.11,-1.00,2.93,4.09,2.81
2.6710,0.07,0.11,-1.00,2.99,4.03,2.69
2.6870,0.08,0.11,-1.00,2.87,3.85,2.81
2.7020,0.08,0.12,-0.99,2.93,4.15,2.75
2.7180,0.08,0.12,-1.00,3.05,4.15,2.93
2.7330,0.08,0.12,-0.99,2.75,3.85,2.87
2.7480,0.08,0.12,-1.00,2.81,3.91,2.69
2.7620,0.07,0.12,-1.00,3.17,3.78,3.17
2.7780,0.07,0.11,-0.99,2.87,3.97,3.30
2.7890,0.07,0.11,-1.00,2.99,3.85,3.30
2.8040,0.08,0.11,-1.00,3.05,3.85,3.60
2.8230,0.08,0.11,-1.00,3.11,4.09,2.81
2.8270,0.08,0.12,-1.00,2.93,3.97,2.62
2.8540,0.08,0.12,-0.99,2.93,4.03,2.75
2.8630,0.07,0.12,-1.00,2.99,3.97,2.44
2.8850,0.08,0.12,-0.99,2.99,3.85,2.81
2.8950,0.08,0.12,-0.99,2.81,4.03,3.05
2.9110,0.08,0.12,-0.99,2.99,3.78,3.05
2.9310,0.08,0.12,-1.00,2.75,3.91,3.42
2.9470,0.07,0.11,-1.00,3.11,3.97,3.36
2.9620,0.08,0.11,-1.00,3.17,3.48,3.11
2.9770,0.08,0.11,-1.00,2.81,3.78,3.05
2.9920,0.08,0.12,-0.99,2.69,3.97,3.48
3.0060,0.08,0.12,-0.99,2.93,4.09,3.78
3.0220,0.08,0.11,-1.00,2.87,3.91,3.91
3.0330,0.08,0.12,-1.00,2.87,3.97,3.60
3.0500,0.08,0.13,-0.99,2.99,4.03,3.17
3.0660,0.08,0.12,-0.99,2.87,4.03,3.42
3.0820,0.08,0.12,-0.99,2.99,3.72,3.60
3.0970,0.08,0.11,-1.00,2.81,3.66,3.60
3.1120,0.08,0.11,-1.00,2.81,4.09,3.60
3.1270,0.08,0.11,-1.00,2.81,3.78,3.91
3.1430,0.07,0.12,-1.00,2.81,3.91,3.78
3.1540,0.07,0.12,-1.00,3.17,4.03,3.78
3.1710,0.08,0.12,-1.00,2.93,3.72,3.97
3.1860,0.08,0.12,-0.99,2.93,3.85,3.66
3.2040,0.07,0.12,-1.00,2.99,3.60,3.91
3.2190,0.08,0.12,-1.00,2.69,3.60,4.33
3.2210,0.08,0.11,-1.00,2.81,3.85,4.39
3.2370,0.08,0.12,-0.99,2.93,3.85,4.27
3.2590,0.08,0.11,-0.99,2.69,3.78,4.33
3.2810,0.08,0.11,-1.00,2.99,3.72,3.66
3.2920,0.08,0.12,-1.00,2.99,3.85,2.87
3.3090,0.08,0.12,-0.99,2.69,3.78,3.42
3.3250,0.08,0.12,-0.99,2.81,3.48,3.54
3.3430,0.08,0.12,-0.99,2.69,3.48,4.76
3.3580,0.08,0.12,-0.99,2.87,3.72,4.76
3.3740,0.08,0.10,-1.00,2.87,4.03,4.46
3.3890,0.08,0.10,-1.00,3.05,4.03,3.42
3.3920,0.08,0.11,-1.00,3.05,3.78,2.56
3.4080,0.08,0.12,-1.00,3.11,3.85,2.93
3.4330,0.08,0.12,-0.99,3.11,3.78,3.11
3.4490,0.08,0.12,-0.99,2.81,3.85,3.54
3.4650,0.08,0.11,-1.00,2.81,3.72,3.60
3.4800,0.08,0.11,-1.00,2.69,3.97,3.23
3.4960,0.08,0.11,-0.99,2.75,3.85,3.23
3.5120,0.08,0.11,-1.00,2.87,3.78,3.17
3.5270,0.08,0.12,-1.00,3.11,3.97,3.23
3.5330,0.08,0.12,-1.00,3.17,4.03,3.05
3.5480,0.07,0.13,-0.99,2.75,3.85,3.17
3.5700,0.08,0.12,-1.00,2.69,3.91,3.97
3.5860,0.08,0.11,-1.00,2.87,3.85,4.21
3.6030,0.08,0.10,-1.00,2.87,3.97,3.72
3.6200,0.08,0.11,-1.00,2.75,3.91,2.87
3.6350,0.08,0.12,-1.00,3.05,3.85,2.69
3.6500,0.08,0.13,-0.99,3.05,4.03,3.17
3.6650,0.08,0.12,-0.99,2.99,3.78,3.72
3.6800,0.07,0.12,-1.00,2.81,3.72,4.15
3.6950,0.08,0.11,-1.00,2.75,3.85,4.03
3.7020,0.08,0.11,-1.00,2.93,3.78,3.23
3.7180,0.08,0.12,-1.00,2.87,3.78,3.11
3.7390,0.08,0.12,-1.00,2.87,3.97,3.30
3.7560,0.08,0.12,-0.99,2.93,4.03,3.54
3.7720,0.08,0.13,-0.99,2.87,3.72,3.78
3.7880,0.07,0.11,-1.00,2.87,3.60,3.78
3.8030,0.08,0.11,-1.00,3.11,3.54,4.33
3.8180,0.08,0.11,-1.00,2.99,3.42,3.78
3.8220,0.08,0.12,-1.00,3.05,3.91,3.17
3.8380,0.08,0.12,-0.99,2.87,4.03,3.48
3.8650,0.08,0.12,-0.99,2.87,3.66,3.36
3.8750,0.08,0.12,-1.00,2.87,3.97,3.36
3.8920,0.08,0.12,-1.00,2.87,3.66,3.66
3.9090,0.08,0.12,-1.00,3.05,3.85,3.78
3.9240,0.08,0.12,-1.00,2.99,3.66,4.09
3.9400,0.07,0.12,-1.00,2.93,3.78,3.97
3.9550,0.07,0.11,-1.00,2.75,3.78,3.66
3.9700,0.08,0.12,-0.99,2.75,4.09,3.48
3.9850,0.07,0.11,-1.00,2.93,3.85,3.72
3.9990,0.08,0.11,-1.00,2.93,3.72,4.03
4.0090,0.08,0.11,-1.00,3.11,4.03,3.54
4.0240,0.08,0.12,-0.99,2.93,3.85,3.60
4.0450,0.08,0.13,-0.99,2.99,3.60,4.03
4.0600,0.08,0.12,-0.99,2.87,4.03,4.64
4.0770,0.08,0.11,-1.00,2.87,3.97,4.21
4.0820,0.08,0.10,-1.00,2.93,4.03,3.36
4.0970,0.08,0.12,-1.00,2.99,4.15,2.75
4.1240,0.08,0.12,-1.00,3.05,4.15,2.99
4.1360,0.08,0.12,-1.00,2.93,4.15,3.42
4.1530,0.08,0.11,-1.00,2.93,3.85,3.54
4.1690,0.08,0.12,-0.99,2.99,3.66,3.66
4.1850,0.08,0.12,-0.99,2.93,3.85,3.48
4.2000,0.08,0.11,-1.00,3.05,3.97,3.17
4.2150,0.08,0.12,-1.00,3.11,3.66,3.17
4.2300,0.08,0.12,-1.00,3.17,3.97,3.36
4.2450,0.08,0.12,-0.99,2.99,3.91,3.78
4.2520,0.08,0.11,-1.00,2.81,3.85,3.72
4.2680,0.07,0.11,-1.00,2.75,3.91,3.48
4.2900,0.08,0.11,-1.00,2.93,3.91,3.11
4.3070,0.08,0.12,-0.99,2.99,3.91,2.26
4.3230,0.08,0.12,-0.99,3.05,3.85,2.93
4.3390,0.08,0.12,-0.99,3.17,3.66,3.54
4.3400,0.08,0.12,-1.00,3.11,3.54,4.09
4.3580,0.08,0.12,-1.00,2.99,3.85,3.72
4.3820,0.08,0.11,-1.00,2.99,3.78,3.30
4.4000,0.07,0.12,-0.99,3.05,3.85,3.48
4.4070,0.08,0.13,-0.99,2.87,3.54,4.64
4.4230,0.07,0.13,-0.99,2.93,3.66,5.49
4.4440,0.08,0.12,-1.00,2.62,3.66,5.80
4.4600,0.08,0.13,-0.99,2.75,3.42,6.96
4.4750,0.07,0.11,-1.00,2.56,3.36,7.26
4.4900,0.08,0.11,-1.00,2.75,3.17,7.08
4.4980,0.08,0.10,-1.00,2.56,3.30,6.71
4.5150,0.07,0.10,-1.00,2.87,3.78,4.94
4.5300,0.08,0.11,-1.00,2.99,4.03,4.03
4.5470,0.07,0.11,-1.00,2.81,3.72,3.60
4.5640,0.07,0.11,-1.00,2.69,3.60,3.97
4.5800,0.08,0.12,-1.00,2.81,3.60,3.97
4.5970,0.08,0.11,-0.99,2.93,3.72,3.36
4.6120,0.08,0.12,-0.99,2.81,3.85,3.30
4.6180,0.08,0.12,-0.99,2.87,3.78,3.36
4.6420,0.08,0.11,-1.00,2.93,3.85,3.66
4.6510,0.08,0.11,-1.00,2.99,3.91,3.30
4.6720,0.08,0.11,-1.00,2.87,4.03,3.11
4.6840,0.08,0.12,-1.00,2.69,3.85,2.69
4.7000,0.08,0.12,-0.99,2.93,3.85,2.69
4.7170,0.08,0.12,-0.99,2.93,4.03,2.87
4.7340,0.08,0.12,-1.00,3.05,3.85,3.17
4.7490,0.08,0.11,-0.99,2.99,3.60,3.78
4.7650,0.08,0.12,-1.00,2.69,3.60,3.54
4.7800,0.08,0.12,-0.99,2.81,3.91,2.93
4.7960,0.08,0.12,-0.99,3.11,3.91,3.23
4.8110,0.08,0.12,-1.00,2.87,4.03,3.30
4.8270,0.08,0.12,-1.00,2.81,3.48,3.91
4.8420,0.08,0.11,-1.00,3.11,3.66,3.78
4.8570,0.08,0.11,-1.00,2.87,3.60,3.60
4.8670,0.08,0.12,-0.99,3.05,3.97,3.30
4.8840,0.08,0.12,-0.99,2.93,3.66,3.85
4.9000,0.08,0.11,-1.00,2.87,3.48,4.03
4.9170,0.08,0.11,-1.00,2.87,3.97,3.66
4.9310,0.08,0.11,-1.00,2.81,3.66,3.54
4.9470,0.08,0.12,-0.99,2.81,3.78,3.66
4.9510,0.08,0.12,-0.99,2.93,3.78,4.46
4.9660,0.08,0.12,-1.00,2.99,3.72,4.52
4.9880,0.08,0.11,-1.00,3.05,3.60,4.15
5.0050,0.07,0.11,-1.00,2.87,3.66,3.72
5.0220,0.08,0.11,-1.00,3.05,3.78,3.85
5.0370,0.08,0.12,-1.00,2.81,3.72,4.15
5.0550,0.08,0.12,-1.00,2.87,3.60,4.46
5.0700,0.08,0.12,-0.99,2.69,3.48,4.82
5.0860,0.08,0.11,-1.00,2.75,3.72,4.15
5.0880,0.08,0.11,-1.00,2.75,3.66,3.60
5.1040,0.08,0.12,-0.99,2.93,3.72,3.05
5.1320,0.08,0.12,-1.00,2.93,3.78,3.05
5.1430,0.08,0.12,-0.99,2.93,4.09,3.36
5.1590,0.08,0.12,-0.99,2.87,3.66,3.66
5.1760,0.08,0.12,-1.00,2.69,3.60,3.97
5.1920,0.08,0.12,-1.00,3.05,3.54,4.33
5.2080,0.08,0.11,-1.00,2.62,3.78,4.15
5.2250,0.08,0.12,-0.99,2.81,3.66,3.36
5.2400,0.08,0.12,-1.00,2.93,3.85,3.42
5.2430,0.08,0.12,-0.99,2.81,3.85,3.60
5.2580,0.08,0.12,-0.99,2.93,3.72,3.72
5.2830,0.08,0.12,-0.99,2.87,3.91,4.21
5.3000,0.07,0.12,-1.00,2.69,3.72,4.39
5.3160,0.08,0.11,-1.00,2.87,3.66,5.13
5.3310,0.07,0.11,-1.00,2.69,3.91,4.39
5.3470,0.08,0.11,-1.00,2.81,3.78,4.15
5.3620,0.08,0.11,-1.00,2.69,3.60,3.91
5.3780,0.08,0.12,-0.99,2.93,4.09,3.36
5.3930,0.08,0.12,-0.99,2.93,4.21,3.05
5.4080,0.08,0.12,-0.99,2.99,3.72,3.42
5.4240,0.07,0.12,-1.00,2.99,3.72,3.72
5.4390,0.08,0.12,-0.99,2.87,3.66,3.72
5.4530,0.08,0.12,-1.00,2.81,3.85,3.78
5.4650,0.08,0.10,-1.00,2.87,3.72,3.72
5.4830,0.08,0.11,-1.00,2.93,3.85,3.23
5.4990,0.08,0.12,-0.99,2.93,4.03,2.75
5.5150,0.08,0.12,-0.99,2.81,4.27,2.93
5.5300,0.08,0.12,-0.99,2.93,3.78,3.11
5.5450,0.08,0.12,-1.00,2.87,3.91,3.11
5.5600,0.08,0.12,-0.99,2.93,4.03,3.17
5.5750,0.08,0.12,-0.99,2.81,3.85,3.42
5.5910,0.07,0.12,-1.00,2.99,3.85,3.78
5.6060,0.08,0.11,-1.00,2.99,3.60,3.66
5.6150,0.08,0.11,-1.00,3.05,3.85,2.99
5.6320,0.08,0.12,-0.99,2.99,4.09,2.44
5.6490,0.08,0.13,-0.99,2.99,3.91,2.87
5.6650,0.08,0.12,-1.00,2.87,4.15,3.23
5.6840,0.08,0.12,-1.00,2.99,3.72,3.17
5.7000,0.08,0.11,-1.00,2.87,4.03,2.99
5.7150,0.08,0.12,-1.00,2.87,3.78,3.11
5.7300,0.08,0.11,-1.00,3.05,3.78,2.99
5.7460,0.08,0.11,-1.00,3.11,4.03,2.87
5.7640,0.08,0.12,-1.00,3.05,4.03,2.56
5.7810,0.08,0.13,-0.99,3.05,3.97,2.44
5.7970,0.08,0.12,-1.00,3.05,3.85,2.87
5.8120,0.08,0.12,-0.99,2.99,3.72,3.05
5.8270,0.08,0.12,-0.99,3.17,3.97,3.23
5.8410,0.08,0.12,-0.99,2.93,3.91,3.36
5.8530,0.07,0.12,-0.99,2.81,4.03,3.91
5.8700,0.08,0.12,-1.00,2.87,3.66,3.97
5.8860,0.08,0.11,-1.00,3.05,3.60,4.03
5.9010,0.08,0.11,-0.99,2.93,3.91,4.03
5.9170,0.08,0.12,-1.00,2.75,4.03,3.48
5.9320,0.08,0.12,-1.00,2.87,4.21,3.42
5.9470,0.08,0.12,-1.00,2.99,3.91,3.78
5.9620,0.08,0.12,-1.00,2.87,3.78,4.52
5.9770,0.08,0.11,-1.00,2.93,3.85,4.58
5.9860,0.08,0.11,-1.00,2.93,3.78,4.27
6.0080,0.08,0.11,-1.00,2.87,3.72,3.60
6.0200,0.08,0.11,-1.00,2.99,3.91,3.23
6.0360,0.08,0.12,-0.99,2.93,3.78,3.42
6.0530,0.08,0.12,-0.99,2.99,3.85,3.36
6.0680,0.08,0.12,-0.99,3.17,3.91,3.42
6.0850,0.08,0.11,-1.00,2.87,3.78,3.66
6.1010,0.08,0.11,-1.00,2.81,3.97,3.48
6.1170,0.08,0.11,-1.00,2.87,3.97,3.85
6.1330,0.08,0.11,-1.00,2.87,3.42,3.42
6.1480,0.08,0.11,-1.00,2.75,3.72,2.87
6.1630,0.08,0.12,-0.99,3.05,4.09,2.50
6.1700,0.08,0.13,-0.99,2.93,3.91,2.99
6.1920,0.08,0.12,-0.99,2.81,3.72,3.97
6.2080,0.08,0.12,-0.99,2.81,3.91,4.15
6.2200,0.08,0.13,-0.99,2.69,3.97,4.46
6.2370,0.08,0.12,-0.99,2.69,3.42,4.64
6.2520,0.08,0.12,-0.99,2.87,3.48,4.52
6.2680,0.08,0.11,-1.00,2.62,3.66,4.21
6.2840,0.08,0.11,-1.00,2.81,3.78,4.09
6.3000,0.08,0.11,-1.00,2.75,3.66,4.21
6.3160,0.08,0.11,-1.00,2.81,3.48,4.03
6.3310,0.08,0.12,-1.00,2.75,3.85,3.97
6.3460,0.08,0.11,-1.00,2.93,3.85,4.33
6.3600,0.08,0.11,-1.00,2.81,3.91,4.27
6.3750,0.08,0.11,-0.99,2.93,3.60,3.78
6.3860,0.08,0.11,-1.00,2.99,3.91,3.48
6.4030,0.08,0.12,-1.00,3.05,3.72,3.17
6.4190,0.08,0.11,-1.00,3.11,4.03,2.99
6.4380,0.08,0.12,-0.99,2.87,3.91,2.56
6.4530,0.08,0.12,-0.99,2.99,4.03,2.38
6.4700,0.08,0.12,-1.00,2.93,4.09,2.99
6.4850,0.08,0.12,-1.00,2.81,3.78,3.60
6.5000,0.08,0.12,-0.99,2.75,3.72,4.03
6.5090,0.08,0.12,-0.99,2.81,3.72,4.33
6.5240,0.08,0.11,-1.00,2.99,3.66,4.03
6.5400,0.08,0.11,-0.99,2.81,3.85,4.09
6.5580,0.08,0.11,-1.00,2.87,3.66,3.97
6.5730,0.08,0.11,-1.00,2.81,3.72,3.91
6.5890,0.08,0.12,-1.00,2.93,3.85,3.72
6.6060,0.08,0.13,-0.99,2.87,3.91,3.60
6.6220,0.08,0.13,-0.99,2.99,3.42,4.15
6.6370,0.08,0.12,-1.00,2.81,3.72,4.70
6.6520,0.08,0.12,-0.99,2.62,3.78,5.68
6.6620,0.08,0.12,-1.00,2.62,3.72,5.92
6.6790,0.08,0.12,-0.99,2.50,3.60,6.04
6.6960,0.08,0.12,-0.99,2.75,3.42,6.23
6.7120,0.07,0.11,-1.00,2.69,3.54,6.23
6.7270,0.08,0.11,-1.00,2.81,3.54,6.29
6.7420,0.08,0.11,-0.99,2.75,3.42,6.47
6.7570,0.08,0.12,-0.99,2.75,3.48,6.59
6.7720,0.08,0.11,-1.00,2.62,3.48,6.65
6.7870,0.07,0.11,-1.00,2.87,3.66,6.10
6.8020,0.07,0.11,-1.00,2.75,3.66,6.10
6.8120,0.08,0.11,-1.00,2.93,3.78,5.62
6.8290,0.08,0.11,-1.00,2.75,3.54,4.88
6.8460,0.08,0.12,-0.99,2.69,3.78,4.94
6.8620,0.08,0.12,-0.99,2.87,3.72,5.49
6.8760,0.08,0.12,-0.99,2.99,3.42,5.55
6.8930,0.07,0.10,-1.00,2.99,3.60,4.88
6.9090,0.08,0.11,-0.99,2.75,3.42,5.31
6.9230,0.08,0.10,-1.00,2.75,3.78,4.33
6.9400,0.08,0.11,-1.00,2.75,3.91,3.66
6.9560,0.08,0.12,-0.99,2.81,3.66,3.78
6.9720,0.08,0.12,-1.00,2.87,3.85,2.99
6.9880,0.08,0.12,-1.00,2.81,3.72,3.05
7.0040,0.08,0.12,-0.99,2.87,3.78,3.11
7.0190,0.08,0.12,-1.00,2.99,3.78,3.48
7.0290,0.08,0.11,-1.00,2.81,3.60,3.91
7.0450,0.08,0.12,-0.99,2.81,3.72,3.42
7.0620,0.08,0.12,-0.99,3.11,4.03,3.48
7.0790,0.08,0.12,-0.99,2.87,3.78,3.54
7.0940,0.08,0.12,-1.00,2.93,3.78,3.78
7.1110,0.08,0.11,-1.00,2.87,3.48,3.91
7.1270,0.08,0.12,-0.99,2.81,3.66,3.78
7.1420,0.08,0.11,-0.99,2.99,3.78,3.72
7.1460,0.07,0.11,-1.00,2.87,4.09,3.05
7.1610,0.07,0.12,-1.00,3.11,3.91,3.48
7.1840,0.08,0.13,-0.99,2.87,3.54,4.52
7.2010,0.08,0.12,-0.99,2.69,3.97,4.88
7.2170,0.08,0.12,-0.99,2.81,3.78,4.39
7.2340,0.08,0.11,-1.00,2.93,3.54,4.58
7.2500,0.08,0.12,-1.00,2.81,3.78,4.52
7.2650,0.08,0.11,-0.99,2.99,3.66,4.39
7.2800,0.08,0.12,-1.00,2.62,3.54,4.27
7.2840,0.08,0.12,-0.99,2.87,3.60,4.15
7.3000,0.08,0.11,-1.00,2.93,3.48,4.82
7.3200,0.08,0.10,-1.00,2.81,3.85,3.78
7.3380,0.07,0.11,-1.00,2.99,3.48,3.54
7.3550,0.08,0.12,-0.99,2.81,3.85,4.39
7.3710,0.08,0.12,-0.99,2.99,3.78,4.21
7.3870,0.08,0.12,-0.99,2.87,3.78,5.07
7.4020,0.08,0.11,-1.00,2.87,3.60,4.33
7.4180,0.08,0.10,-1.00,2.99,3.97,3.66
7.4210,0.07,0.11,-1.00,3.05,4.03,2.87
7.4370,0.08,0.12,-0.99,3.11,3.97,2.75
7.4580,0.08,0.12,-0.99,2.93,3.97,3.66
7.4760,0.08,0.11,-0.99,2.87,3.85,4.15
7.4930,0.08,0.11,-0.99,2.87,3.66,4.82
7.5090,0.08,0.11,-1.00,2.93,3.66,4.39
7.5250,0.08,0.12,-0.99,2.99,3.60,4.27
7.5410,0.08,0.11,-1.00,2.87,3.78,4.27
7.5570,0.08,0.11,-1.00,2.69,3.97,3.60
7.5730,0.08,0.11,-1.00,2.99,3.85,3.11
7.5890,0.08,0.12,-0.99,3.11,4.09,2.20
7.6040,0.08,0.12,-0.99,3.11,4.09,2.87
7.6190,0.08,0.13,-0.99,3.11,3.91,3.72
7.6350,0.08,0.12,-1.00,2.81,3.72,3.85
7.6500,0.08,0.12,-1.00,2.62,3.85,3.60
7.6590,0.08,0.11,-1.00,2.99,3.78,3.23
7.6750,0.08,0.12,-0.99,3.23,3.85,2.62
7.6960,0.08,0.13,-0.99,3.17,3.85,2.99
7.7120,0.08,0.13,-0.99,2.81,3.60,4.15
7.7260,0.08,0.13,-0.99,2.75,3.72,4.52
7.7430,0.08,0.12,-0.99,2.87,3.60,5.37
7.7580,0.07,0.11,-1.00,2.69,3.60,5.19
7.7740,0.07,0.10,-1.00,2.69,3.66,4.58
7.7890,0.08,0.11,-1.00,3.05,3.66,3.11
7.8050,0.08,0.13,-0.99,2.81,3.60,4.58
7.8190,0.08,0.13,-0.99,2.69,3.66,5.31
7.8300,0.07,0.12,-1.00,2.62,3.66,6.04
7.8460,0.08,0.11,-1.00,2.69,3.11,6.65
7.8650,0.08,0.10,-1.00,2.81,3.23,5.68
7.8790,0.08,0.10,-1.00,2.75,4.03,4.03
7.8950,0.08,0.11,-0.99,3.05,3.97,3.36
7.9110,0.08,0.12,-0.99,3.23,4.21,2.69
7.9270,0.07,0.12,-1.00,3.11,3.91,2.99
7.9430,0.07,0.11,-1.00,2.87,3.91,4.52
7.9580,0.08,0.11,-0.99,2.75,3.91,4.15
7.9640,0.08,0.11,-0.99,3.11,3.91,2.75
7.9850,0.08,0.12,-1.00,3.11,3.97,2.62
8.0020,0.08,0.12,-1.00,3.05,4.15,2.44
8.0180,0.08,0.12,-0.99,2.93,3.97,2.50
8.0350,0.08,0.12,-0.99,2.93,3.78,3.23
8.0520,0.08,0.12,-0.99,2.93,3.97,4.15
8.0680,0.08,0.10,-1.00,2.75,3.66,4.33
8.0830,0.08,0.12,-1.00,2.99,3.97,3.23
8.0990,0.08,0.12,-0.99,2.87,3.60,3.72
8.1130,0.08,0.12,-0.99,2.81,3.91,3.72
8.1280,0.08,0.12,-0.99,2.93,3.85,3.48
8.1430,0.08,0.12,-0.99,3.05,3.85,3.78
8.1590,0.08,0.12,-0.99,2.93,3.60,3.97
8.1690,0.08,0.11,-0.99,2.87,3.60,4.33
8.1860,0.08,0.11,-1.00,2.81,3.85,4.15
8.2020,0.08,0.11,-1.00,3.05,3.91,3.54
8.2190,0.07,0.11,-1.00,3.05,3.91,3.36
8.2340,0.08,0.11,-0.99,3.23,3.72,3.17
8.2510,0.08,0.13,-0.99,3.11,4.21,2.99
8.2670,0.08,0.13,-0.99,2.93,3.60,4.27
8.2830,0.08,0.12,-1.00,2.87,3.85,4.27
8.2980,0.08,0.12,-1.00,2.75,3.78,3.66
8.3130,0.08,0.12,-0.99,2.99,3.85,3.30
8.3300,0.08,0.11,-1.00,2.81,3.97,3.72
8.3350,0.08,0.11,-1.00,3.11,3.78,3.30
8.3510,0.08,0.12,-0.99,2.99,3.91,3.54
8.3730,0.08,0.13,-0.99,3.17,3.72,4.33
8.3920,0.08,0.12,-1.00,2.69,3.60,4.94
8.3920,0.08,0.12,-0.99,2.69,3.78,4.88
8.4080,0.08,0.10,-1.00,2.93,3.72,4.03
8.4300,0.08,0.11,-1.00,2.87,4.27,3.11
8.4470,0.08,0.12,-1.00,2.81,3.78,3.48
8.4630,0.08,0.12,-0.99,2.75,3.85,3.85
8.4820,0.08,0.14,-0.99,2.81,3.60,4.09
8.4980,0.08,0.13,-0.99,2.75,3.23,5.37
8.5130,0.08,0.11,-0.99,2.69,3.60,5.92
8.5280,0.07,0.10,-1.00,2.81,3.72,4.52
8.5430,0.08,0.11,-0.99,2.75,3.72,4.82
8.5590,0.08,0.11,-1.00,2.81,3.66,4.76
8.5750,0.08,0.12,-0.99,2.93,3.85,3.42
8.5900,0.07,0.12,-1.00,3.05,3.85,3.85
8.6010,0.08,0.12,-0.99,2.87,3.66,5.00
8.6170,0.08,0.12,-1.00,2.81,3.85,4.52
8.6330,0.08,0.11,-1.00,2.50,3.48,5.00
8.6510,0.08,0.11,-1.00,2.75,3.85,4.82
8.6660,0.08,0.12,-1.00,3.05,3.60,3.97
8.6810,0.07,0.12,-0.99,2.99,4.15,3.66
8.6960,0.08,0.13,-0.99,2.62,3.72,4.88
8.7120,0.08,0.12,-0.99,2.62,3.60,5.43
8.7270,0.08,0.12,-1.00,2.62,3.54,5.62
8.7430,0.08,0.11,-1.00,2.75,3.54,5.07
8.7590,0.08,0.10,-1.00,2.75,4.03,3.91
8.7740,0.08,0.12,-1.00,2.81,3.60,3.72
8.7890,0.08,0.11,-1.00,2.87,3.72,3.36
8.8000,0.08,0.12,-0.99,2.93,3.78,2.87
8.8160,0.08,0.12,-0.99,3.17,3.72,2.99
8.8320,0.08,0.12,-0.99,3.05,3.97,3.72
8.8490,0.08,0.13,-0.99,2.75,3.66,4.33
8.8660,0.07,0.11,-1.00,2.81,3.72,4.46
8.8810,0.08,0.10,-1.00,2.81,4.03,3.78
8.8970,0.08,0.10,-1.00,2.81,3.97,3.36
8.9120,0.08,0.12,-0.99,2.93,3.97,2.26
8.9160,0.08,0.12,-1.00,3.05,4.03,2.14
8.9320,0.08,0.13,-0.99,3.05,3.85,2.56
8.9560,0.08,0.12,-0.99,3.11,3.91,3.11
8.9730,0.07,0.12,-1.00,2.99,3.66,3.48
8.9860,0.08,0.10,-1.00,3.05,3.85,4.27
8.9900,0.08,0.10,-1.00,2.87,4.15,2.93
9.0060,0.07,0.12,-0.99,2.93,4.27,2.38
9.0240,0.08,0.12,-1.00,2.93,4.03,2.20
9.0400,0.08,0.12,-1.00,3.11,4.03,2.14
9.0550,0.08,0.12,-0.99,3.23,4.03,2.50
9.0770,0.08,0.12,-0.98,3.11,3.72,2.62
9.0930,0.08,0.12,-1.00,2.87,3.97,2.38
9.1100,0.08,0.12,-1.00,2.99,4.09,2.20
9.1270,0.08,0.12,-0.99,2.87,3.78,2.08
9.1420,0.08,0.12,-0.99,2.87,4.21,2.14
9.1600,0.08,0.12,-1.00,2.93,3.97,2.26
9.1760,0.08,0.11,-1.00,2.99,4.21,2.20
9.1930,0.08,0.12,-0.99,3.05,3.85,2.08
9.2090,0.08,0.11,-0.99,2.93,3.97,2.26
9.2250,0.08,0.11,-1.00,3.05,4.09,2.20
9.2420,0.08,0.12,-1.00,3.11,4.15,2.20
9.2580,0.08,0.12,-0.99,2.93,4.21,2.14
9.2750,0.08,0.12,-0.99,2.99,4.21,2.26
9.2900,0.08,0.12,-0.99,3.11,4.21,2.14
9.3060,0.08,0.12,-0.99,3.17,3.97,2.32
9.3210,0.08,0.12,-1.00,3.05,3.91,2.20
9.3360,0.08,0.12,-0.99,3.05,4.15,2.20
9.3510,0.08,0.12,-1.00,3.05,3.97,2.26
9.3630,0.08,0.11,-0.99,3.11,4.64,2.26
9.3780,0.08,0.11,-1.00,2.99,4.09,2.20
9.3980,0.08,0.11,-1.00,2.99,4.21,2.26
9.4130,0.08,0.12,-0.99,3.05,3.85,2.32
9.4150,0.08,0.12,-0.99,3.05,4.33,2.20
9.4310,0.08,0.12,-0.99,2.87,3.97,2.26
9.4530,0.08,0.12,-1.00,3.11,4.33,2.26
9.4700,0.08,0.12,-0.99,2.93,4.09,2.14
9.4870,0.08,0.12,-0.99,3.17,4.21,2.14
9.5030,0.08,0.12,-0.99,3.05,4.27,2.20
9.5190,0.08,0.12,-1.00,2.99,4.33,2.20
9.5350,0.08,0.12,-1.00,3.11,3.97,2.14
9.5510,0.08,0.12,-0.99,3.11,4.03,2.20
9.5660,0.08,0.11,-1.00,3.23,4.15,2.08
9.5820,0.08,0.11,-1.00,2.81,4.39,2.20
9.5970,0.08,0.11,-1.00,3.05,4.03,1.95
9.6030,0.08,0.11,-1.00,2.99,4.03,2.14
9.6190,0.08,0.11,-0.99,2.93,4.09,2.14
9.6410,0.08,0.12,-1.00,2.99,3.97,2.20
9.6570,0.08,0.12,-0.99,3.11,4.15,2.20
9.6730,0.08,0.12,-0.99,2.99,4.27,2.20
9.6890,0.08,0.12,-0.99,3.23,3.91,2.14
9.7040,0.08,0.12,-0.99,2.99,3.91,2.01
9.7080,0.08,0.12,-0.99,2.99,4.15,2.20
9.7240,0.08,0.12,-0.99,3.05,4.33,2.20
9.7460,0.08,0.12,-1.00,3.17,4.03,2.32
9.7640,0.08,0.11,-1.00,2.93,4.09,2.20
9.7640,0.08,0.11,-0.99,2.87,3.97,2.26
9.7950,0.08,0.11,-1.00,2.93,4.27,2.20
9.8110,0.08,0.11,-1.00,3.11,4.09,2.14
9.8270,0.08,0.11,-1.00,2.99,4.03,2.32
9.8430,0.08,0.12,-0.99,2.99,4.21,2.14
9.8590,0.08,0.12,-0.99,3.05,4.03,2.14
9.8750,0.08,0.12,-0.99,3.17,3.91,2.38
9.8870,0.08,0.12,-0.99,3.11,4.03,2.26
9.9050,0.08,0.12,-0.99,3.05,3.97,2.20
9.9200,0.08,0.12,-0.99,2.99,3.78,2.14
9.9300,0.08,0.12,-1.00,3.11,4.21,2.20
9.9460,0.08,0.12,-0.99,3.11,4.21,2.14
9.9630,0.09,0.12,-0.99,3.17,3.91,2.01
9.9790,0.08,0.12,-1.00,3.05,4.21,0.43
9.9950,0.08,0.11,-1.00,3.05,4.33,0.85
10.0110,0.08,0.11,-1.00,3.11,4.46,0.73
10.0260,0.08,0.11,-1.00,3.30,4.27,0.98
10.0420,0.07,0.11,-1.00,3.42,3.97,0.67
10.0580,0.07,0.12,-1.00,3.23,4.03,0.79
10.0640,0.07,0.12,-1.00,3.36,4.39,1.04
10.0870,0.08,0.12,-1.00,3.23,4.39,1.40
10.1020,0.08,0.12,-0.99,3.42,4.15,1.22
10.1190,0.08,0.12,-0.99,3.30,3.97,1.22
10.1360,0.08,0.12,-1.00,3.36,4.09,1.40
10.1530,0.08,0.11,-1.00,3.11,4.15,1.83
10.1690,0.08,0.11,-1.00,3.05,4.39,1.95
10.1850,0.08,0.11,-0.99,3.05,4.03,1.89
10.1990,0.08,0.11,-1.00,3.17,4.03,1.77
10.2030,0.08,0.11,-1.00,3.23,4.15,1.77
10.2190,0.07,0.12,-1.00,3.17,4.21,1.77
10.2430,0.07,0.12,-1.00,3.23,4.15,1.77
10.2600,0.07,0.12,-0.99,3.17,4.15,1.83
10.2750,0.08,0.12,-0.99,3.36,4.09,2.08
10.2900,0.08,0.12,-0.99,3.11,4.09,2.20
10.2940,0.08,0.12,-0.99,3.17,3.85,2.08
10.3200,0.08,0.12,-0.99,3.42,4.03,1.89
10.3350,0.08,0.12,-1.00,3.30,4.58,1.89
10.3440,0.07,0.11,-1.00,3.05,4.39,1.95
10.3660,0.08,0.11,-1.00,3.05,4.03,2.38
10.3770,0.09,0.12,-0.99,3.05,4.27,2.44
10.3950,0.09,0.12,-0.99,3.36,3.97,2.14
10.4100,0.07,0.11,-1.00,3.30,4.15,2.20
10.4250,0.07,0.12,-1.00,3.23,4.15,2.50
10.4280,0.07,0.12,-1.00,3.23,3.85,2.81
10.4570,0.08,0.12,-0.99,3.23,3.91,2.75
10.4720,0.08,0.12,-0.99,3.11,3.97,2.62
10.4880,0.08,0.12,-0.99,3.11,3.97,2.38
10.4950,0.08,0.12,-0.99,3.05,3.97,2.38
10.5150,0.08,0.12,-0.99,2.99,4.09,2.62
10.5310,0.08,0.12,-0.99,2.93,4.21,2.32
10.5480,0.08,0.12,-1.00,3.11,4.09,2.14
10.5640,0.07,0.11,-0.99,2.81,4.33,2.01
10.5790,0.08,0.11,-1.00,3.05,4.03,1.95
10.5940,0.08,0.11,-1.00,3.05,4.27,2.01
10.6090,0.07,0.12,-1.00,3.11,4.27,1.89
10.6240,0.07,0.12,-1.00,3.17,3.85,2.20
10.6390,0.07,0.12,-0.99,3.05,4.33,2.26
10.6540,0.08,0.12,-0.99,3.05,4.09,2.20
10.6660,0.08,0.12,-0.99,3.17,4.27,2.50
10.6820,0.08,0.11,-0.99,2.99,4.09,2.75
10.6980,0.08,0.12,-0.99,3.05,4.03,2.62
10.7150,0.09,0.12,-0.99,2.99,4.09,2.26
10.7310,0.08,0.12,-1.00,2.99,4.15,2.20
10.7460,0.07,0.11,-1.00,3.05,3.78,1.95
10.7610,0.07,0.11,-1.00,2.99,4.21,2.01
10.7760,0.08,0.11,-1.00,3.30,4.39,2.38
10.7910,0.08,0.11,-1.00,3.17,4.33,2.38
10.8060,0.08,0.12,-0.99,3.23,4.27,2.38
10.8210,0.07,0.12,-0.99,2.93,4.27,2.26
10.8320,0.08,0.12,-0.99,3.05,4.15,2.26
10.8480,0.08,0.12,-0.99,3.05,4.09,2.26
10.8640,0.08,0.12,-1.00,3.05,4.27,2.26
10.8820,0.08,0.12,-0.99,3.05,4.27,2.26
10.8980,0.09,0.12,-0.99,2.87,4.09,2.32
10.9130,0.08,0.12,-0.99,2.81,3.91,2.26
10.9290,0.08,0.11,-1.00,3.17,3.72,2.38
10.9450,0.07,0.11,-1.00,2.81,4.03,2.69
10.9610,0.07,0.12,-1.00,2.93,3.85,2.75
10.9760,0.08,0.12,-1.00,3.05,3.91,2.44
10.9910,0.08,0.12,-0.99,3.17,4.09,2.44
11.0070,0.08,0.12,-0.99,2.93,4.21,2.14
11.0210,0.08,0.12,-1.00,2.99,3.97,2.26
11.0320,0.08,0.11,-0.99,3.11,3.85,2.08
11.0480,0.08,0.11,-1.00,3.11,3.97,2.50
11.0660,0.08,0.12,-1.00,3.05,4.03,2.56
11.0810,0.08,0.12,-0.99,3.17,4.21,2.26
11.0900,0.08,0.12,-1.00,2.93,4.27,1.83
11.1060,0.08,0.12,-1.00,3.48,4.15,1.22
11.1230,0.08,0.11,-0.99,3.30,4.09,0.98
11.1400,0.07,0.12,-1.00,3.11,4.39,1.22
11.1560,0.07,0.12,-0.99,3.05,4.03,1.53
11.1560,0.07,0.12,-0.99,3.11,4.09,1.53
11.1730,0.08,0.12,-0.99,3.17,3.97,1.53
11.1910,0.08,0.12,-1.00,3.17,4.03,1.71
11.2060,0.08,0.11,-1.00,3.11,4.27,1.83
11.2230,0.07,0.12,-1.00,2.99,4.27,2.26
11.2390,0.08,0.12,-1.00,2.93,4.09,2.26
11.2600,0.08,0.12,-0.99,2.99,3.66,2.01
11.2780,0.08,0.12,-0.99,3.23,4.09,1.83
11.2940,0.08,0.12,-0.99,3.23,4.09,1.77
11.3100,0.08,0.12,-1.00,3.17,4.21,2.20
11.3270,0.08,0.12,-1.00,2.99,4.09,2.32
11.3430,0.08,0.12,-0.99,2.75,3.78,2.38
11.3600,0.08,0.12,-0.99,2.81,4.09,2.26
11.3750,0.08,0.11,-1.00,3.05,4.03,2.14
11.3910,0.08,0.11,-1.00,3.23,4.21,2.01
11.4060,0.07,0.11,-1.00,3.30,4.09,2.01
11.4120,0.08,0.11,-1.00,3.11,4.03,1.83
11.4270,0.09,0.12,-0.99,3.05,4.09,1.71
11.4510,0.09,0.12,-0.99,3.05,4.15,1.71
11.4670,0.09,0.12,-0.99,3.23,4.21,1.83
11.4840,0.08,0.12,-0.99,3.30,4.09,1.65
11.5000,0.07,0.12,-0.99,3.30,4.03,1.10
11.5160,0.08,0.12,-1.00,3.17,4.03,0.73
11.5320,0.07,0.12,-1.00,3.17,4.33,0.73
11.5480,0.07,0.12,-0.99,3.11,3.97,1.04
11.5630,0.08,0.12,-1.00,3.11,4.27,1.22
11.5790,0.08,0.11,-0.99,3.11,4.21,1.10
11.5900,0.09,0.11,-0.99,3.11,4.09,1.40
11.6000,0.07,0.11,-1.00,2.93,3.85,1.40
11.6220,0.08,0.12,-1.00,3.11,4.33,1.46
11.6400,0.08,0.12,-1.00,3.17,4.03,1.40
11.6560,0.08,0.12,-0.99,3.30,3.91,1.53
11.6720,0.08,0.12,-0.99,3.05,4.21,2.01
11.6880,0.08,0.12,-1.00,2.93,4.09,2.26
11.6900,0.08,0.12,-0.99,3.05,3.97,2.44
11.7060,0.09,0.12,-1.00,2.99,3.97,2.26
11.7240,0.09,0.12,-0.99,2.93,3.91,2.14
11.7400,0.09,0.12,-1.00,3.11,4.03,1.83
11.7560,0.08,0.12,-1.00,2.99,4.09,1.83
11.7720,0.07,0.12,-0.99,3.17,4.39,1.40
11.7910,0.07,0.12,-1.00,2.99,4.27,1.40
11.8070,0.08,0.11,-1.00,3.05,4.21,1.53
11.8220,0.08,0.11,-0.99,3.05,4.03,1.89
11.8390,0.08,0.11,-0.99,2.99,4.27,2.08
11.8560,0.08,0.12,-0.99,3.17,4.15,2.08
11.8730,0.08,0.12,-0.99,2.99,3.85,2.14
11.8880,0.07,0.12,-1.00,2.99,4.03,2.14
11.8900,0.08,0.12,-1.00,3.05,4.15,1.95
11.9190,0.08,0.12,-1.00,3.23,4.15,2.01
11.9230,0.08,0.12,-0.99,3.17,3.97,2.32
11.9400,0.08,0.12,-0.99,2.99,4.03,2.20
11.9560,0.08,0.12,-0.99,3.17,3.97,2.14
11.9740,0.07,0.11,-1.00,3.11,4.09,1.95
11.9900,0.08,0.11,-1.00,2.93,4.21,2.44
12.0060,0.08,0.11,-0.99,2.93,4.03,2.56
12.0230,0.08,0.12,-0.99,2.99,3.97,2.38
12.0390,0.08,0.12,-0.99,3.05,4.03,2.14
12.0580,0.08,0.12,-0.99,2.99,4.46,1.89
12.0750,0.07,0.12,-0.99,3.23,4.09,1.95
12.0910,0.08,0.12,-1.00,2.99,4.09,2.38
12.1070,0.08,0.12,-0.99,3.05,3.85,2.44
12.1230,0.08,0.12,-0.99,2.87,4.03,2.50
12.1260,0.08,0.12,-0.99,2.93,4.21,2.14
12.1530,0.08,0.12,-0.99,3.17,4.09,2.01
12.1680,0.07,0.12,-1.00,3.11,4.27,1.83
12.1760,0.07,0.12,-1.00,3.05,4.09,1.95
12.1920,0.08,0.11,-0.99,2.99,3.97,2.26
12.2140,0.08,0.11,-0.99,2.81,3.91,2.26
12.2150,0.08,0.11,-1.00,2.99,3.91,2.32
12.2430,0.08,0.11,-1.00,2.99,3.91,2.14
12.2480,0.08,0.12,-0.99,3.23,4.03,2.14
12.2670,0.08,0.12,-0.99,3.17,3.97,2.08
12.2880,0.08,0.12,-0.99,3.17,4.09,2.20
12.3000,0.08,0.12,-1.00,3.17,3.72,2.44
12.3150,0.08,0.12,-0.99,3.05,4.09,2.44
12.3340,0.08,0.12,-0.99,2.93,4.09,2.26
12.3500,0.08,0.12,-0.99,3.11,3.97,1.53
12.3660,0.08,0.12,-1.00,3.11,4.15,1.22
12.3810,0.08,0.12,-0.99,3.17,4.39,1.16
12.3950,0.07,0.11,-1.00,3.11,4.33,1.34
12.4100,0.07,0.11,-1.00,3.17,4.21,2.14
12.4250,0.08,0.11,-1.00,2.93,4.39,2.50
12.4360,0.08,0.12,-1.00,2.99,4.21,2.50
12.4520,0.08,0.12,-1.00,2.87,4.27,2.26
12.4710,0.08,0.12,-0.99,3.23,3.97,1.77
12.4740,0.08,0.12,-0.99,3.30,4.03,1.34
12.4910,0.07,0.12,-1.00,3.11,4.15,1.83
12.5070,0.08,0.12,-0.99,3.11,4.27,2.26
12.5230,0.08,0.12,-0.99,3.11,4.15,2.26
12.5420,0.08,0.12,-0.99,2.99,4.03,2.50
12.5590,0.08,0.12,-0.99,3.05,4.15,2.32
12.5750,0.08,0.12,-1.00,3.11,4.21,2.01
12.5910,0.08,0.12,-1.00,3.05,4.03,2.08
12.6070,0.08,0.12,-1.00,2.99,4.09,2.26
12.6230,0.08,0.12,-0.99,2.87,3.91,2.14
12.6390,0.08,0.12,-1.00,3.30,3.85,2.26
12.6540,0.08,0.12,-0.99,3.30,4.21,2.20
12.6590,0.07,0.12,-0.99,3.05,4.03,1.95
12.6750,0.08,0.12,-0.99,3.17,3.97,2.14
12.7010,0.07,0.12,-0.99,2.99,3.91,2.20
12.7130,0.08,0.12,-0.99,3.23,3.91,2.20
12.7310,0.08,0.12,-1.00,3.05,4.21,2.26
12.7460,0.08,0.12,-0.99,2.75,4.03,2.56
12.7480,0.08,0.12,-0.99,3.05,3.85,2.44
12.7770,0.08,0.12,-0.99,3.11,3.97,2.20
12.7930,0.08,0.12,-0.99,2.87,4.03,1.77
12.8080,0.08,0.11,-1.00,3.17,4.09,1.53
12.8240,0.08,0.11,-0.99,3.17,3.97,2.26
12.8400,0.08,0.11,-0.99,3.17,4.09,2.44
12.8570,0.08,0.12,-1.00,3.05,3.78,2.56
12.8630,0.08,0.12,-1.00,3.17,4.15,2.50
12.8790,0.08,0.12,-0.99,3.17,4.27,1.89
12.9020,0.08,0.12,-0.99,3.30,4.15,2.32
12.9180,0.08,0.12,-1.00,3.11,4.09,2.38
12.9350,0.08,0.12,-1.00,3.17,4.21,2.38
12.9500,0.08,0.12,-0.99,3.05,4.03,2.08
12.9660,0.08,0.12,-1.00,3.11,4.09,2.08
12.9810,0.08,0.11,-1.00,3.11,4.21,2.50
12.9970,0.08,0.12,-1.00,3.05,3.72,2.50
13.0120,0.09,0.11,-0.99,3.11,3.85,2.08
13.0280,0.08,0.12,-0.99,3.17,4.21,1.83
13.0430,0.08,0.12,-0.99,3.36,4.09,1.34
13.0520,0.08,0.12,-1.00,3.17,4.15,1.28
13.0670,0.07,0.11,-0.99,3.23,4.33,1.83
13.0880,0.07,0.12,-1.00,2.99,3.78,2.08
13.1030,0.08,0.12,-0.99,3.17,3.72,2.26
13.1070,0.08,0.12,-0.99,2.81,3.91,2.32
13.1220,0.08,0.12,-0.99,2.93,4.03,2.08
13.1470,0.08,0.12,-0.99,2.99,4.15,1.71
13.1640,0.08,0.11,-0.99,3.05,4.15,2.01
13.1800,0.08,0.11,-1.00,3.23,3.97,2.38
13.1960,0.08,0.11,-1.00,3.30,3.78,2.44
13.2120,0.07,0.12,-1.00,2.99,3.85,2.38
13.2280,0.08,0.12,-1.00,2.99,3.91,2.08
13.2310,0.08,0.12,-0.99,3.17,4.27,1.77
13.2610,0.08,0.11,-0.99,3.17,4.09,1.83
13.2630,0.08,0.11,-1.00,3.11,4.21,2.20
13.2920,0.08,0.12,-0.99,3.17,4.03,2.56
13.3070,0.08,0.12,-0.99,3.11,3.85,2.69
13.3220,0.08,0.12,-1.00,3.23,3.78,2.56
13.3330,0.08,0.12,-0.99,3.17,4.03,2.20
13.3500,0.08,0.12,-1.00,2.93,4.03,1.77
13.3660,0.08,0.12,-0.99,3.17,4.03,1.59
13.3840,0.07,0.11,-1.00,3.11,4.15,2.01
13.4000,0.08,0.12,-0.99,3.05,4.39,2.14
13.4160,0.08,0.12,-0.99,3.05,3.91,2.32
13.4330,0.08,0.12,-1.00,3.11,4.03,2.38
13.4490,0.07,0.12,-0.99,3.05,4.03,2.26
13.4650,0.07,0.12,-1.00,3.05,4.39,1.83
13.4810,0.08,0.12,-0.99,3.05,4.21,2.01
13.4970,0.08,0.12,-1.00,3.05,4.09,2.08
13.5130,0.08,0.12,-1.00,3.17,4.21,2.32
13.5280,0.08,0.12,-0.99,3.17,4.15,2.44
13.5340,0.08,0.12,-1.00,3.11,4.46,2.56
13.5490,0.08,0.12,-0.99,3.30,3.91,2.44
13.5730,0.08,0.12,-1.00,2.99,4.03,2.38
13.5900,0.08,0.12,-0.99,3.17,4.03,2.44
13.5920,0.08,0.12,-0.99,3.23,4.15,2.26
13.6060,0.08,0.12,-0.99,3.11,4.03,2.26
13.6240,0.08,0.12,-1.00,2.81,3.97,2.20
13.6390,0.08,0.12,-0.99,2.93,4.09,2.44
13.6550,0.08,0.12,-0.99,3.30,4.15,2.50
13.6830,0.07,0.12,-0.99,3.11,3.85,2.20
13.6940,0.08,0.12,-1.00,3.11,4.21,2.08
13.7100,0.08,0.12,-1.00,3.17,3.97,2.20
13.7270,0.08,0.12,-0.99,2.99,4.15,2.26
13.7450,0.08,0.12,-0.99,2.99,3.97,2.44
13.7600,0.08,0.12,-1.00,3.05,3.78,2.38
13.7770,0.08,0.12,-1.00,3.23,3.85,2.50
13.7920,0.09,0.11,-0.99,3.23,3.66,2.38
13.8090,0.08,0.12,-0.99,2.93,4.09,2.20
13.8250,0.08,0.12,-0.99,3.05,4.09,1.95
13.8410,0.08,0.12,-1.00,3.23,4.27,2.20
13.8570,0.08,0.12,-0.99,3.11,4.03,2.01
13.8730,0.08,0.12,-1.00,3.17,4.03,2.38
13.8780,0.07,0.12,-1.00,3.05,3.72,2.38
13.8940,0.08,0.12,-1.00,3.17,3.72,2.08
13.9170,0.08,0.12,-0.99,3.23,4.15,2.26
13.9330,0.08,0.12,-0.99,2.99,3.97,2.20
13.9500,0.08,0.12,-1.00,3.11,3.91,2.14
13.9670,0.08,0.11,-0.99,3.05,4.03,2.38
13.9840,0.08,0.11,-1.00,3.11,3.97,2.56
13.9980,0.08,0.11,-0.99,3.36,3.72,2.62
14.0140,0.08,0.12,-0.99,3.23,4.03,2.44
14.0290,0.09,0.12,-1.00,2.99,3.97,2.44
14.0450,0.07,0.12,-1.00,3.11,4.15,2.20
14.0610,0.08,0.12,-0.99,3.11,4.15,2.44
14.0770,0.08,0.12,-1.00,3.17,4.03,2.50
14.0920,0.09,0.12,-0.99,3.11,3.85,2.44
14.1080,0.07,0.12,-0.99,3.05,4.15,1.95
14.1230,0.07,0.12,-1.00,3.11,3.97,1.83
14.1340,0.08,0.11,-1.00,2.99,4.27,2.20
14.1500,0.08,0.11,-1.00,3.11,4.03,2.56
14.1670,0.07,0.12,-0.99,3.05,3.91,2.93
14.1830,0.08,0.12,-0.99,2.93,4.09,2.75
14.2000,0.08,0.12,-1.00,3.05,4.03,2.62
14.2160,0.08,0.13,-1.00,2.99,3.91,2.38
14.2320,0.08,0.12,-0.99,3.05,3.85,2.01
14.2490,0.08,0.12,-1.00,3.05,3.72,2.26
14.2630,0.08,0.11,-1.00,3.17,4.03,2.62
14.2790,0.08,0.11,-1.00,2.93,3.97,3.66
14.2930,0.08,0.12,-1.00,3.05,3.78,3.72
14.3000,0.07,0.13,-1.00,3.11,4.09,3.11
14.3190,0.08,0.12,-0.99,3.05,3.97,2.44
14.3370,0.08,0.12,-0.99,3.05,4.03,2.32
14.3530,0.08,0.12,-1.00,2.93,4.15,2.20
14.3690,0.08,0.12,-1.00,3.17,4.21,2.50
14.3860,0.08,0.12,-0.99,3.05,3.72,2.81
14.4020,0.07,0.12,-1.00,2.87,3.91,2.99
14.4180,0.08,0.12,-0.99,3.11,3.66,2.81
14.4340,0.08,0.12,-0.99,3.23,3.85,2.50
14.4500,0.09,0.12,-0.99,2.99,3.91,2.38
14.4540,0.08,0.12,-1.00,2.93,4.21,2.32
14.4800,0.08,0.12,-1.00,3.11,3.72,2.50
14.4950,0.08,0.12,-0.99,2.87,3.91,2.75
14.5100,0.08,0.12,-0.99,2.99,3.91,2.75
14.5190,0.08,0.12,-0.99,2.87,4.15,2.69
14.5350,0.08,0.12,-0.99,2.87,4.21,2.50
14.5560,0.08,0.12,-0.99,3.05,4.21,2.50
14.5720,0.08,0.12,-1.00,3.05,4.15,2.44
14.5890,0.08,0.12,-0.99,3.17,4.09,2.32
14.6040,0.08,0.11,-1.00,3.17,4.15,2.26
14.6210,0.08,0.12,-1.00,2.99,4.09,2.56
14.6370,0.08,0.12,-0.99,2.81,4.03,2.44
14.6530,0.07,0.12,-0.99,2.93,3.91,1.77
14.6580,0.07,0.12,-1.00,2.99,4.03,1.77
14.6740,0.08,0.11,-0.99,3.05,4.09,1.89
14.6980,0.08,0.12,-1.00,3.23,3.78,2.32
14.7130,0.08,0.12,-0.99,3.11,3.78,2.14
14.7270,0.08,0.12,-1.00,2.99,3.85,2.20
14.7320,0.07,0.12,-1.00,3.17,4.15,2.32
14.7480,0.09,0.12,-0.99,3.17,3.85,2.08
14.7700,0.07,0.12,-1.00,2.93,4.03,1.71
14.7860,0.07,0.12,-0.99,3.05,4.33,1.65
14.8030,0.08,0.11,-1.00,3.23,4.27,1.89
14.8180,0.08,0.11,-1.00,3.23,4.27,2.08
14.8340,0.08,0.12,-1.00,3.11,3.91,2.32
14.8380,0.08,0.12,-1.00,3.05,3.97,1.83
14.8540,0.08,0.12,-0.99,2.87,4.27,1.89
14.8690,0.09,0.12,-0.99,2.93,4.03,1.95
14.8930,0.08,0.12,-1.00,3.11,4.27,1.89
14.9080,0.09,0.11,-0.99,3.30,4.33,2.32
14.9250,0.07,0.12,-1.00,3.17,3.97,2.44
14.9410,0.08,0.12,-1.00,3.05,3.97,2.44
14.9570,0.08,0.12,-0.99,3.23,3.97,2.56
14.9730,0.08,0.12,-0.99,2.93,4.09,2.26
14.9750,0.08,0.12,-0.99,2.93,4.15,2.08
14.9930,0.08,0.12,-1.00,2.99,3.97,1.77
15.0070,0.08,0.11,-1.00,3.11,4.09,1.83
15.0350,0.08,0.12,-1.00,3.11,4.15,2.14
15.0470,0.08,0.12,-1.00,3.17,3.97,1.83
15.0630,0.08,0.12,-0.99,3.05,4.33,1.59
15.0800,0.09,0.11,-0.99,2.99,3.78,1.77
15.0950,0.07,0.11,-1.00,3.17,4.27,2.20
15.1110,0.08,0.11,-1.00,3.30,4.15,2.62
15.1270,0.07,0.12,-0.99,3.17,4.09,2.26
15.1430,0.08,0.12,-1.00,3.11,4.09,1.77
15.1590,0.08,0.12,-0.99,3.11,4.33,1.95
15.1750,0.08,0.12,-1.00,2.99,3.91,2.01
15.1910,0.08,0.12,-0.99,2.87,3.91,1.77
15.2070,0.08,0.12,-1.00,3.05,4.15,2.01
15.2140,0.09,0.12,-0.99,2.87,4.27,2.08
15.2290,0.09,0.12,-0.99,2.93,4.33,1.83
15.2520,0.08,0.12,-1.00,3.11,4.03,1.53
15.2690,0.09,0.11,-1.00,2.99,3.91,1.77
15.2850,0.08,0.12,-1.00,3.17,4.21,2.26
15.3000,0.07,0.12,-0.99,2.87,4.03,2.26
15.3170,0.08,0.12,-1.00,3.11,4.09,2.20
15.3330,0.08,0.12,-1.00,3.11,4.15,2.26
15.3480,0.09,0.12,-1.00,3.11,3.78,2.26
15.3640,0.07,0.12,-1.00,2.93,3.85,2.08
15.3690,0.08,0.12,-0.99,3.05,4.15,2.01
15.3930,0.09,0.12,-0.99,2.93,4.27,2.01
15.4010,0.08,0.12,-1.00,3.23,3.78,2.01
15.4240,0.09,0.12,-0.99,3.05,4.09,2.08
15.4240,0.06,0.12,-1.00,3.11,3.85,1.59
15.4400,0.07,0.12,-0.99,3.11,4.03,1.59
15.4710,0.08,0.11,-1.00,3.17,4.03,1.89
15.4730,0.08,0.12,-1.00,2.75,4.46,2.08
15.4930,0.08,0.12,-1.00,2.99,4.09,2.20
15.5060,0.08,0.12,-1.00,2.99,4.09,2.38
15.5330,0.09,0.12,-1.00,3.05,3.91,2.01
15.5450,0.08,0.12,-0.99,3.11,4.09,1.65
15.5610,0.07,0.11,-1.00,3.17,4.15,1.59
15.5760,0.07,0.11,-1.00,3.17,4.27,1.83
15.5960,0.08,0.12,-1.00,2.99,4.15,2.14
15.6100,0.07,0.12,-0.99,3.17,3.97,2.01
15.6150,0.08,0.12,-0.99,3.05,3.97,2.08
15.6310,0.08,0.12,-0.99,3.11,4.09,2.01
15.6530,0.08,0.12,-1.00,2.99,4.33,2.08
15.6690,0.07,0.12,-1.00,3.05,4.09,2.20
15.6860,0.07,0.12,-0.99,2.81,4.15,2.26
15.7020,0.08,0.12,-1.00,2.99,4.09,2.20
15.7170,0.08,0.12,-0.99,2.81,4.09,2.38
15.7330,0.08,0.12,-0.99,3.11,3.91,2.32
15.7490,0.08,0.12,-1.00,2.99,3.91,2.20
15.7650,0.08,0.12,-1.00,3.11,4.09,2.26
15.7790,0.08,0.12,-1.00,2.87,3.97,2.26
15.7930,0.08,0.12,-0.99,2.99,3.97,2.26
15.8090,0.08,0.12,-0.99,2.99,3.78,2.38
15.8240,0.08,0.12,-0.99,2.93,4.09,2.99
15.8350,0.08,0.12,-0.99,2.93,3.78,2.56
15.8520,0.08,0.12,-0.99,2.99,4.03,2.56
15.8680,0.08,0.12,-0.99,3.23,3.78,2.50
15.8860,0.08,0.11,-0.99,2.99,3.97,2.38
15.9020,0.08,0.11,-0.99,3.11,4.03,2.26
15.9190,0.08,0.11,-0.99,3.11,4.15,2.50
15.9350,0.08,0.11,-1.00,2.87,3.85,2.56
15.9510,0.08,0.11,-0.99,3.11,3.85,2.38
15.9670,0.08,0.12,-1.00,2.75,3.91,2.20
15.9830,0.08,0.12,-0.99,3.05,3.97,1.89
15.9990,0.08,0.12,-0.99,2.99,4.21,1.46
16.0150,0.08,0.11,-0.99,3.17,4.15,1.16
16.0290,0.08,0.11,-1.00,3.17,4.21,0.55
16.0440,0.08,0.12,-0.99,3.11,4.33,0.49
16.0590,0.08,0.12,-0.99,3.17,4.70,-0.43
16.0740,0.07,0.12,-0.99,3.36,4.52,-0.49
16.0860,0.08,0.12,-1.00,3.23,4.09,-0.12
16.1020,0.08,0.12,-0.99,3.17,4.33,0.55
16.1180,0.08,0.12,-0.99,2.93,4.52,1.46
16.1360,0.08,0.11,-1.00,3.11,4.27,1.89
16.1520,0.07,0.11,-1.00,2.99,4.27,1.53
16.1690,0.08,0.12,-1.00,2.93,4.33,1.22
16.1850,0.08,0.12,-0.99,2.81,4.09,1.04
16.2010,0.08,0.12,-0.99,3.11,3.97,1.22
16.2170,0.09,0.11,-1.00,3.17,4.21,1.53
16.2320,0.08,0.12,-0.99,2.93,4.27,1.77
16.2460,0.07,0.12,-1.00,3.17,4.09,1.40
16.2610,0.07,0.12,-1.00,2.93,4.15,1.28
16.2750,0.08,0.12,-1.00,3.05,4.21,1.65
16.2910,0.08,0.11,-1.00,2.93,4.33,1.65
16.3020,0.08,0.11,-1.00,3.23,3.97,1.65
16.3190,0.07,0.10,-1.00,3.11,4.33,1.16
16.3360,0.08,0.11,-1.00,2.93,4.21,0.85
16.3520,0.08,0.12,-1.00,3.17,4.27,0.49
16.3680,0.08,0.12,-1.00,3.11,4.21,0.55
16.3700,0.08,0.12,-0.99,3.05,4.33,0.31
16.3990,0.08,0.12,-0.99,3.11,4.27,0.73
16.4140,0.08,0.12,-0.99,3.23,4.15,0.92
16.4290,0.08,0.12,-0.99,3.17,4.33,0.37
16.4450,0.08,0.12,-0.99,3.11,4.21,0.43
16.4600,0.08,0.12,-1.00,2.93,4.21,0.67
16.4750,0.08,0.12,-0.99,3.05,4.15,0.92
16.4860,0.08,0.12,-1.00,2.99,3.91,1.53
16.5020,0.08,0.11,-0.99,2.99,4.09,1.83
16.5200,0.08,0.11,-1.00,3.23,4.15,1.40
16.5360,0.08,0.11,-0.99,2.93,4.15,1.10
16.5520,0.08,0.11,-1.00,3.30,4.03,1.04
16.5680,0.08,0.12,-1.00,2.99,3.97,1.46
16.5850,0.08,0.12,-0.99,3.05,3.91,1.71
16.6010,0.08,0.12,-0.99,3.17,4.21,1.83
16.6170,0.08,0.12,-1.00,3.17,4.46,1.10
16.6330,0.08,0.12,-1.00,3.30,4.52,0.79
16.6480,0.08,0.12,-0.99,3.05,4.27,1.22
16.6520,0.08,0.12,-0.99,2.93,4.15,1.71
16.6790,0.08,0.12,-0.99,2.87,4.03,2.01
16.6940,0.08,0.11,-1.00,2.99,4.15,1.95
16.7020,0.08,0.11,-1.00,3.11,3.85,2.08
16.7220,0.08,0.11,-0.99,2.87,4.09,1.53
16.7400,0.08,0.12,-1.00,2.93,4.21,1.77
16.7560,0.08,0.11,-1.00,3.05,4.03,1.10
16.7730,0.08,0.12,-1.00,3.30,4.15,1.04
16.7880,0.08,0.12,-0.99,3.23,4.21,0.92
16.7940,0.08,0.12,-1.00,3.17,4.33,1.16
16.8060,0.08,0.12,-0.99,2.99,4.39,1.34
16.8240,0.08,0.11,-1.00,3.17,4.21,0.92
16.8400,0.08,0.11,-1.00,3.11,4.21,-0.12
16.8670,0.08,0.11,-0.99,3.30,4.33,-0.43
16.8730,0.08,0.12,-1.00,3.23,4.27,-0.31
16.8940,0.08,0.12,-0.99,3.17,4.27,0.00
16.9120,0.08,0.12,-1.00,3.11,4.09,0.43
16.9280,0.08,0.11,-1.00,3.17,4.03,0.98
16.9440,0.08,0.11,-1.00,3.30,4.15,1.10
16.9600,0.08,0.12,-1.00,3.23,4.09,1.04
16.9770,0.08,0.12,-0.99,3.23,4.15,0.92
16.9920,0.08,0.12,-0.99,3.30,4.09,1.04
17.0090,0.08,0.12,-0.99,3.11,4.03,1.34
17.0250,0.08,0.12,-0.99,2.99,4.21,1.16
17.0410,0.08,0.12,-0.99,3.05,4.15,1.46
17.0570,0.08,0.12,-1.00,3.17,4.52,1.40
17.0720,0.08,0.12,-0.99,2.99,4.09,1.16
17.0870,0.08,0.11,-1.00,3.11,4.39,1.16
17.0960,0.08,0.11,-1.00,3.11,4.21,1.04
17.1180,0.08,0.11,-1.00,3.17,3.97,1.22
17.1280,0.08,0.11,-0.99,2.99,4.03,1.28
17.1450,0.08,0.11,-1.00,3.23,4.15,1.28
17.1610,0.08,0.12,-0.99,3.05,3.97,1.04
17.1820,0.08,0.12,-0.99,3.23,4.21,0.85
17.1970,0.08,0.12,-0.99,3.05,4.21,0.49
17.2120,0.08,0.12,-1.00,3.30,4.39,0.92
17.2270,0.08,0.13,-1.00,3.30,4.03,1.53
17.2330,0.08,0.12,-1.00,3.11,4.15,1.22
17.2480,0.08,0.12,-0.99,2.75,4.21,0.98
17.2720,0.08,0.11,-1.00,2.99,4.46,0.92
17.2880,0.08,0.11,-1.00,3.23,4.33,0.92
17.3040,0.08,0.11,-1.00,3.11,4.39,0.67
17.3060,0.08,0.11,-1.00,3.23,4.09,0.73
17.3220,0.08,0.12,-1.00,3.23,4.21,0.73
17.3510,0.08,0.12,-1.00,3.05,4.39,1.16
17.3620,0.08,0.11,-1.00,3.05,4.21,0.79
17.3780,0.08,0.12,-0.99,3.30,4.39,0.43
17.3950,0.08,0.12,-0.99,3.30,4.09,0.49
17.4110,0.08,0.13,-0.99,3.05,3.91,0.73
17.4290,0.08,0.12,-0.99,3.17,3.85,1.22
17.4450,0.08,0.12,-1.00,3.05,4.15,1.16
17.4600,0.08,0.11,-1.00,2.99,4.27,1.40
17.4750,0.08,0.11,-1.00,3.05,4.27,1.10
17.4900,0.08,0.11,-1.01,3.66,3.72,0.98
17.5050,0.08,0.11,-1.00,3.17,4.52,0.49
17.5170,0.08,0.10,-0.94,2.81,4.39,0.61
17.5340,0.07,0.14,-1.02,3.30,3.72,0.31
17.5500,0.08,0.12,-0.99,3.23,4.33,0.49
17.5650,0.08,0.12,-0.97,3.05,4.15,1.04
17.5800,0.08,0.12,-0.99,3.23,4.03,0.73
17.5950,0.08,0.13,-0.99,3.05,4.27,1.04
17.6110,0.08,0.12,-1.03,3.17,4.21,1.28
17.6270,0.08,0.11,-0.96,3.36,3.66,0.55
17.6340,0.08,0.11,-0.99,3.17,4.52,0.55
17.6490,0.08,0.11,-0.99,2.99,4.39,0.85
17.6720,0.08,0.12,-1.01,3.05,4.46,0.67
17.6880,0.08,0.11,-0.99,3.23,4.21,0.73
17.6950,0.08,0.11,-1.00,3.05,4.39,0.73
17.7070,0.07,0.12,-1.00,3.05,4.33,0.92
17.7320,0.08,0.12,-1.00,3.11,4.27,1.04
17.7480,0.08,0.12,-1.00,3.36,4.27,0.06
17.7650,0.08,0.11,-0.99,3.30,4.27,0.12
17.7660,0.08,0.12,-0.99,3.54,4.15,0.31
17.7940,0.08,0.12,-0.99,3.36,4.27,0.43
17.8110,0.08,0.12,-1.00,3.23,4.52,0.37
17.8270,0.08,0.11,-1.00,3.05,4.33,1.16
17.8440,0.08,0.11,-0.99,3.11,4.52,1.04
17.8600,0.08,0.12,-0.99,3.05,4.09,1.10
17.8650,0.08,0.11,-1.00,3.23,4.09,1.16
17.8800,0.08,0.11,-1.00,3.11,3.85,0.85
17.9030,0.08,0.11,-0.99,3.30,4.27,0.73
17.9190,0.08,0.12,-0.99,3.23,4.39,0.37
17.9350,0.08,0.12,-0.99,3.36,4.27,0.37
17.9520,0.08,0.12,-1.00,3.36,4.27,0.67
17.9690,0.08,0.12,-1.00,3.23,4.21,0.79
17.9860,0.08,0.11,-0.99,3.23,4.15,0.00
18.0020,0.08,0.12,-0.99,3.23,4.21,-0.18
18.0180,0.08,0.12,-1.00,3.11,4.21,15.56
18.0340,0.08,0.13,-1.00,3.42,4.33,0.24
18.0490,0.08,0.12,-0.99,3.30,4.03,0.67
18.0640,0.08,0.12,-0.99,2.93,4.09,1.16
18.0690,0.08,0.11,-1.00,3.30,4.33,0.98
18.0850,0.08,0.10,-1.00,3.23,4.33,1.04
18.1060,0.08,0.11,-0.99,3.30,4.15,0.49
18.1230,0.08,0.11,-0.99,3.36,4.09,0.43
18.1400,0.08,0.12,-1.00,3.23,4.21,0.92
18.1560,0.08,0.12,-0.99,3.17,4.39,1.04
18.1720,0.08,0.12,-0.99,3.23,4.21,1.16
18.1870,0.08,0.11,-0.99,3.17,4.39,1.28
18.2030,0.08,0.11,-0.99,3.11,4.21,0.73
18.2070,0.08,0.12,-0.99,3.05,4.39,0.55
18.2220,0.08,0.12,-1.00,3.23,4.27,0.55
18.2460,0.08,0.11,-1.00,3.11,4.21,0.67
18.2630,0.08,0.12,-0.99,3.17,4.03,0.79
18.2780,0.08,0.11,-1.00,3.11,4.27,0.73
18.2950,0.08,0.11,-1.00,2.93,4.09,0.85
18.3110,0.08,0.11,-1.00,3.23,3.97,0.98
18.3270,0.08,0.11,-0.99,3.17,4.33,0.49
18.3420,0.08,0.12,-0.99,3.23,3.97,0.31
18.3580,0.08,0.12,-1.00,3.30,4.15,0.55
18.3630,0.08,0.12,-1.00,3.11,4.58,0.61
18.3900,0.08,0.12,-0.99,3.23,4.46,0.67
18.4050,0.08,0.12,-0.99,3.54,4.33,0.37
18.4210,0.08,0.11,-0.99,3.30,4.52,0.06
18.4290,0.08,0.11,-1.00,3.11,4.39,-0.37
18.4520,0.08,0.12,-1.00,3.48,4.52,-0.24
18.4670,0.07,0.11,-0.99,2.99,4.46,-0.43
18.4780,0.08,0.12,-1.00,3.11,4.15,-0.37
18.4960,0.08,0.11,-1.00,3.17,4.46,-0.73
18.5110,0.08,0.11,-1.00,3.48,4.52,-1.10
18.5270,0.08,0.11,-0.98,3.48,4.46,-1.22
18.5440,0.08,0.12,-0.99,3.54,4.76,-2.26
18.5610,0.07,0.12,-1.00,3.23,4.76,-1.16
18.5760,0.07,0.12,-0.99,3.30,4.27,-0.37
18.5930,0.08,0.12,-0.99,3.60,4.09,0.79
18.6080,0.08,0.12,-0.99,3.11,4.09,0.37
18.6110,0.08,0.12,-0.99,3.36,4.09,0.24
18.6270,0.08,0.12,-1.00,3.17,4.21,-0.06
18.6550,0.07,0.11,-1.00,3.11,4.21,0.12
18.6660,0.07,0.11,-0.99,3.17,4.27,0.31
18.6830,0.08,0.12,-1.00,3.36,4.15,0.37
18.6990,0.08,0.12,-1.00,3.23,4.21,0.49
18.7160,0.08,0.12,-0.99,3.11,4.58,0.18
18.7330,0.08,0.12,-0.99,3.30,4.21,0.37
18.7500,0.08,0.12,-1.00,3.23,4.52,-15.44
18.7640,0.08,0.12,-1.00,3.48,4.39,0.06
18.7800,0.08,0.12,-1.00,3.30,4.27,-0.12
18.7950,0.08,0.12,-0.99,3.42,4.39,-0.06
18.8000,0.08,0.11,-0.99,3.48,3.97,0.73
18.8160,0.08,0.11,-0.99,3.11,4.58,0.73
18.8370,0.08,0.11,-1.00,3.11,4.46,0.00
18.8540,0.08,0.12,-0.99,3.17,4.39,0.12
18.8700,0.08,0.12,-1.00,3.42,4.15,0.12
18.8860,0.07,0.11,-0.99,3.42,4.15,0.31
18.9030,0.08,0.11,-1.00,3.11,4.21,0.37
18.9200,0.08,0.12,-1.00,3.36,4.21,0.31
18.9370,0.08,0.12,-0.99,3.17,4.27,0.43
18.9530,0.08,0.12,-0.99,3.17,4.33,-0.49
18.9690,0.08,0.11,-1.00,3.17,4.33,-1.71
18.9850,0.07,0.11,-1.00,3.42,4.70,-1.46
19.0010,0.07,0.12,-1.00,3.42,4.52,-1.04
19.0170,0.08,0.12,-0.99,3.17,4.33,-0.18
19.0330,0.08,0.12,-0.99,3.17,4.64,0.49
19.0370,0.08,0.12,-0.99,3.11,4.21,0.43
19.0530,0.08,0.11,-1.00,3.17,4.58,-0.18
19.0760,0.08,0.10,-1.00,3.54,4.52,-0.67
19.0940,0.07,0.12,-1.00,3.66,4.70,-0.92
19.1090,0.08,0.12,-0.99,3.42,4.39,-0.55
19.1260,0.08,0.12,-1.00,3.23,4.39,0.24
19.1420,0.08,0.11,-0.99,3.17,4.52,0.06
19.1570,0.08,0.12,-1.00,3.30,4.21,-0.49
19.1730,0.08,0.12,-0.99,3.36,4.58,-0.49
19.1760,0.08,0.12,-0.99,3.30,4.15,-0.18
19.2050,0.08,0.12,-1.00,3.17,4.21,0.12
19.2210,0.08,0.12,-1.00,3.54,4.39,0.12
19.2370,0.08,0.11,-1.00,3.36,4.70,0.31
19.2450,0.08,0.11,-1.00,3.23,4.46,-0.67
19.2600,0.08,0.11,-1.00,3.42,4.33,-0.73
19.2830,0.08,0.11,-0.99,3.48,4.39,-0.24
19.2990,0.08,0.12,-0.99,3.30,4.21,-0.06
19.3140,0.08,0.12,-0.99,3.11,4.52,0.37
19.3290,0.08,0.11,-1.00,3.30,4.33,0.31
19.3450,0.08,0.11,-1.00,3.42,4.33,-0.79
19.3610,0.07,0.11,-1.00,3.54,4.52,-1.71
19.3760,0.07,0.12,-0.99,3.30,4.33,-0.92
19.3840,0.08,0.12,-0.99,3.17,4.33,0.18
19.4060,0.08,0.12,-1.00,3.17,4.58,0.06
19.4160,0.08,0.12,-0.99,3.05,4.39,0.24
19.4330,0.08,0.12,-0.99,3.30,4.46,-0.31
19.4500,0.08,0.12,-1.00,3.36,4.39,-0.12
19.4660,0.07,0.12,-0.99,3.17,4.39,0.31
19.4820,0.08,0.12,-0.99,3.17,4.27,1.28
19.5000,0.08,0.11,-1.00,3.11,4.09,0.06
19.5000,0.08,0.12,-0.99,3.30,4.27,0.43
19.5300,0.08,0.12,-1.00,3.48,3.91,0.79
19.5410,0.08,0.12,-1.00,3.11,4.27,0.79
19.5590,0.07,0.12,-0.99,3.17,4.03,1.04
19.5750,0.08,0.11,-0.99,3.23,4.21,1.04
19.5900,0.08,0.12,-1.00,3.60,4.33,0.55
19.6090,0.08,0.12,-0.99,3.17,4.27,0.85
19.6240,0.08,0.12,-0.99,3.23,4.33,0.79
19.6250,0.08,0.11,-1.00,3.11,4.46,0.92
19.6560,0.08,0.11,-1.00,3.23,4.33,-0.06
19.6580,0.08,0.12,-1.00,3.17,4.46,-0.37
19.6880,0.08,0.12,-0.99,3.42,4.46,0.24
19.6990,0.08,0.12,-1.00,3.17,4.52,1.16
19.7210,0.08,0.12,-1.00,3.11,4.64,0.79
19.7250,0.08,0.11,-1.00,3.23,4.27,0.85
19.7410,0.07,0.12,-1.00,3.23,4.58,0.43
19.7680,0.08,0.11,-0.99,3.30,4.21,0.49
19.7750,0.08,0.12,-1.00,3.36,4.39,-0.24
19.7910,0.08,0.12,-1.00,3.11,3.85,0.12
19.8140,0.08,0.12,-0.99,3.36,4.39,0.24
19.8290,0.08,0.12,-1.00,3.36,4.39,0.12
19.8330,0.08,0.12,-0.99,3.23,4.39,0.61
19.8590,0.08,0.12,-0.99,3.05,4.27,0.73
19.8660,0.08,0.12,-1.00,2.99,4.27,0.61
19.8900,0.07,0.11,-1.00,3.05,4.58,0.67
19.9000,0.08,0.12,-0.99,3.05,4.27,1.22
19.9160,0.08,0.12,-1.00,3.42,4.15,0.98
19.9320,0.08,0.12,-1.00,3.23,4.27,0.55
19.9510,0.08,0.12,-0.99,2.99,4.27,0.43
19.9570,0.08,0.12,-1.00,3.17,4.58,0.61
19.9720,0.08,0.12,-1.00,3.30,4.15,0.67
19.9880,0.08,0.12,-1.00,3.30,3.97,1.10
20.0070,0.08,0.12,-1.00,2.93,4.21,1.22
20.0230,0.08,0.12,-0.99,3.17,4.15,1.22
20.0420,0.08,0.12,-1.00,3.17,4.15,1.59
20.0570,0.08,0.11,-1.00,3.11,4.15,1.10
20.0730,0.08,0.11,-1.00,3.17,4.39,0.67
20.0900,0.08,0.11,-1.00,3.05,4.27,0.67
20.1000,0.07,0.11,-0.99,3.11,4.21,0.55
20.1210,0.08,0.11,-1.00,3.17,4.33,0.49
20.1380,0.08,0.11,-1.00,3.30,4.21,0.12
20.1540,0.08,0.12,-0.99,3.23,4.27,0.18
20.1580,0.08,0.12,-0.99,3.17,4.46,0.49
20.1860,0.08,0.11,-1.00,3.11,4.21,0.49
20.2020,0.07,0.11,-1.00,3.11,4.39,0.61
20.2180,0.07,0.11,-1.00,2.99,4.03,0.85
20.2240,0.08,0.11,-1.00,3.05,4.15,1.04
20.2480,0.08,0.11,-0.99,2.87,4.27,1.16
20.2570,0.08,0.11,-1.00,3.05,4.15,0.79
20.2740,0.08,0.11,-1.00,3.23,4.21,0.85
20.2920,0.08,0.12,-0.99,3.30,4.46,0.37
20.3080,0.08,0.12,-0.99,3.30,4.52,0.49
20.3080,0.08,0.12,-0.99,3.23,4.21,1.22
20.3370,0.07,0.12,-1.00,3.11,4.33,1.28
20.3410,0.08,0.11,-0.99,2.99,4.03,1.46
20.3680,0.08,0.11,-1.00,3.11,4.27,0.85
20.3740,0.08,0.11,-1.00,3.17,4.39,0.92
20.3910,0.08,0.11,-1.00,3.30,4.09,0.85
20.4070,0.08,0.11,-1.00,3.30,4.39,0.31
20.4250,0.08,0.11,-1.00,3.23,4.27,0.06
20.4410,0.08,0.11,-1.00,3.36,4.52,-0.43
20.4580,0.08,0.12,-0.99,3.23,4.70,-0.37
20.4730,0.08,0.11,-1.00,3.36,4.64,0.12
20.4900,0.08,0.12,-1.00,3.17,4.09,0.12
20.5010,0.08,0.12,-0.99,3.36,4.39,0.24
20.5220,0.08,0.12,-0.99,3.30,4.27,0.24
20.5380,0.07,0.12,-1.00,3.05,4.52,0.18
20.5540,0.08,0.11,-0.99,3.11,4.39,0.67
20.5690,0.08,0.12,-0.99,3.23,4.58,0.49
20.5730,0.08,0.12,-0.99,3.23,4.52,0.31
20.5890,0.08,0.12,-0.98,3.42,4.52,0.31
20.6110,0.07,0.12,-0.99,3.05,4.39,0.37
20.6280,0.07,0.11,-1.00,3.17,4.52,0.06
20.6440,0.07,0.12,-1.00,3.17,4.39,-0.12
20.6610,0.08,0.12,-1.00,3.17,4.46,-0.12
20.6760,0.08,0.12,-0.99,3.11,4.52,0.18
20.6910,0.08,0.11,-0.99,3.42,4.21,0.67
20.7080,0.07,0.11,-1.00,3.30,4.27,0.49
20.7240,0.07,0.11,-1.00,3.36,4.15,0.43
20.7280,0.07,0.11,-1.00,3.17,4.52,-0.24
20.7440,0.08,0.12,-0.99,3.23,4.46,-0.49
20.7660,0.08,0.12,-1.00,3.30,4.64,0.24
20.7840,0.08,0.12,-0.99,3.17,4.33,-0.06
20.8000,0.08,0.12,-1.00,3.23,4.58,0.06
20.8160,0.08,0.12,-0.99,3.36,4.52,0.12
20.8330,0.08,0.12,-0.99,3.23,4.33,0.00
20.8480,0.08,0.11,-1.00,3.30,4.46,-0.18
20.8640,0.08,0.12,-0.99,3.23,4.52,0.43
20.8800,0.08,0.12,-1.00,3.48,3.91,0.61
20.8950,0.08,0.12,-1.00,3.23,4.39,0.55
20.9020,0.07,0.11,-0.99,3.11,4.39,0.67
20.9160,0.08,0.11,-1.00,3.30,4.33,0.55
20.9400,0.08,0.11,-1.00,3.17,4.46,0.37
20.9560,0.08,0.12,-0.99,3.48,4.33,-0.24
20.9720,0.08,0.12,-0.99,3.23,4.39,0.31
20.9870,0.08,0.12,-1.00,3.17,4.03,0.43
21.0030,0.08,0.12,-1.00,3.42,3.78,0.67
21.0200,0.08,0.12,-0.99,2.99,4.21,0.92
21.0230,0.08,0.11,-0.99,3.23,4.21,0.79
21.0380,0.08,0.11,-1.00,2.99,4.33,-0.37
21.0620,0.08,0.12,-1.00,3.17,4.46,-0.06
21.0770,0.08,0.12,-0.99,3.23,4.21,1.40
21.0930,0.08,0.12,-0.99,3.23,4.03,2.01
21.1130,0.08,0.11,-1.00,2.93,3.91,2.20
21.1280,0.08,0.11,-1.00,2.87,4.03,2.62
21.1430,0.08,0.11,-1.00,3.05,3.85,1.65
21.1580,0.07,0.13,-0.99,2.99,4.27,1.16
21.1740,0.08,0.13,-0.99,3.23,4.21,2.08
21.1890,0.08,0.12,-1.00,3.11,4.03,2.20
21.2020,0.08,0.12,-1.00,2.87,3.85,2.44
21.2170,0.08,0.12,-0.99,3.05,4.03,2.69
21.2330,0.08,0.11,-1.00,3.11,4.09,1.10
21.2500,0.08,0.11,-1.00,3.11,3.97,0.98
21.2660,0.08,0.12,-0.99,3.30,4.21,0.61
21.2810,0.08,0.12,-0.99,3.05,4.46,0.61
21.2970,0.07,0.12,-1.00,3.11,4.58,0.67
21.3120,0.07,0.11,-1.00,2.93,4.27,0.79
21.3280,0.08,0.11,-1.00,3.17,4.27,0.79
21.3330,0.08,0.11,-1.00,3.05,4.64,0.67
21.3490,0.08,0.12,-0.99,3.17,4.33,0.43
21.3730,0.08,0.12,-0.99,3.36,4.39,0.12
21.3890,0.08,0.12,-1.00,3.42,4.27,-0.12
21.4040,0.08,0.12,-0.99,3.05,4.33,0.55
21.4200,0.08,0.12,-1.00,2.99,4.09,1.59
21.4230,0.08,0.11,-1.00,3.11,4.33,1.46
21.4390,0.08,0.11,-1.00,3.17,4.52,0.31
21.4620,0.08,0.12,-1.00,3.30,4.39,-0.06
21.4790,0.07,0.12,-0.99,3.30,4.21,0.31
21.4950,0.07,0.12,-1.00,3.17,4.27,0.55
21.5110,0.08,0.11,-1.00,3.23,4.21,0.24
21.5260,0.08,0.11,-0.99,3.30,4.64,0.73
21.5410,0.08,0.11,-0.99,2.93,4.52,0.55
21.5580,0.08,0.11,-1.00,3.17,4.58,-0.18
21.5740,0.08,0.12,-1.00,3.23,4.52,-0.43
21.5900,0.08,0.11,-0.99,3.30,4.58,-0.49
21.6050,0.08,0.11,-1.00,3.30,4.58,-0.73
21.6200,0.07,0.11,-1.00,3.48,4.64,-1.28
21.6350,0.07,0.10,-1.00,3.17,4.39,-1.28
21.6500,0.07,0.11,-1.00,3.36,4.70,-1.71
21.6620,0.08,0.11,-1.00,3.23,4.64,-0.67
21.6780,0.08,0.12,-0.99,3.11,4.21,-0.61
21.6950,0.08,0.09,-1.00,3.05,4.46,-0.43
21.7100,0.08,0.12,-1.00,3.17,4.33,-0.18
21.7260,0.08,0.12,-1.00,2.99,4.27,0.61
21.7430,0.07,0.11,-0.99,3.17,4.46,0.73
21.7580,0.08,0.12,-0.99,3.11,4.15,0.73
21.7740,0.08,0.12,-0.99,3.30,3.78,0.55
21.7900,0.08,0.12,-1.00,3.17,4.03,0.67
21.8060,0.08,0.12,-0.99,3.17,4.21,0.85
21.8120,0.08,0.11,-1.00,3.05,4.03,1.04
21.8280,0.08,0.11,-0.99,3.05,3.85,0.85
21.8510,0.08,0.11,-1.00,3.05,4.58,0.85
21.8670,0.08,0.12,-0.99,3.11,4.46,0.43
21.8820,0.08,0.12,-0.99,3.48,4.33,0.73
21.8970,0.08,0.12,-1.00,3.05,4.64,0.98
21.9120,0.08,0.11,-1.00,3.05,4.15,0.98
21.9170,0.08,0.11,-1.00,3.11,4.21,1.34
21.9420,0.08,0.11,-1.00,2.87,4.09,0.73
21.9510,0.08,0.11,-1.00,3.30,3.97,0.00
21.9670,0.07,0.11,-1.00,3.36,4.15,0.55
21.9900,0.08,0.12,-0.99,3.48,4.27,1.28
22.0050,0.08,0.11,-1.00,3.05,4.15,1.34
22.0200,0.08,0.11,-1.00,3.23,4.15,0.37
22.0350,0.08,0.11,-1.00,3.30,4.27,-0.12
22.0410,0.08,0.11,-1.00,3.17,4.46,-0.49
22.0570,0.08,0.11,-1.00,3.42,4.52,-0.67
22.0800,0.08,0.12,-0.99,3.60,4.27,-0.61
22.0960,0.08,0.12,-0.99,3.42,4.39,-0.12
22.1100,0.08,0.12,-0.99,3.17,4.15,0.73
22.1260,0.08,0.11,-1.00,3.11,4.09,0.67
22.1410,0.08,0.11,-1.00,3.05,4.39,0.00
22.1490,0.08,0.11,-1.00,3.23,4.52,-0.37
22.1650,0.07,0.11,-1.00,3.05,4.39,-1.04
22.1820,0.07,0.12,-1.00,3.23,4.46,-0.49
22.1990,0.08,0.11,-1.00,3.23,4.27,-0.24
22.2150,0.08,0.11,-0.99,3.17,4.52,0.55
22.2320,0.08,0.11,-1.00,2.99,3.97,0.55
22.2490,0.08,0.11,-0.99,2.93,4.15,0.12
22.2660,0.08,0.11,-1.00,2.69,4.52,-0.37
22.2820,0.08,0.10,-1.00,3.11,4.46,-0.67
22.2970,0.08,0.11,-1.00,3.11,4.52,-1.46
22.3120,0.08,0.12,-0.99,3.11,4.64,-0.85
22.3270,0.08,0.12,-0.99,3.23,4.64,-0.92
22.3320,0.08,0.11,-1.00,2.87,4.82,-0.43
22.3470,0.07,0.12,-0.99,2.75,4.70,-0.43
22.3690,0.07,0.11,-1.00,3.05,4.46,-0.92
22.3860,0.07,0.11,-1.00,3.30,4.82,-1.95
22.4030,0.08,0.11,-0.99,3.17,4.70,-2.32
22.4190,0.07,0.12,-0.99,3.54,4.70,-2.81
22.4350,0.07,0.12,-0.99,3.54,4.46,-2.75
22.4520,0.08,0.13,-0.99,3.48,4.70,-1.46
22.4680,0.08,0.13,-0.99,3.36,4.70,-1.04
22.4840,0.08,0.12,-0.99,3.17,4.39,-0.06
22.5000,0.08,0.11,-1.00,3.23,4.09,0.24
22.5160,0.08,0.10,-1.00,3.23,4.39,-0.12
22.5320,0.07,0.11,-1.00,3.36,4.52,-1.59
22.5470,0.07,0.12,-0.99,3.36,4.33,-1.04
22.5620,0.08,0.12,-1.00,3.42,4.39,-0.12
22.5700,0.08,0.11,-1.00,3.30,4.15,0.24
22.5850,0.07,0.11,-1.00,3.17,4.15,0.18
22.6080,0.07,0.11,-1.00,3.23,3.97,0.73
22.6230,0.07,0.11,-1.00,2.99,4.15,1.46
22.6390,0.08,0.12,-1.00,2.93,4.09,1.77
22.6440,0.08,0.11,-1.00,3.17,3.85,1.40
22.6600,0.08,0.11,-1.00,3.17,4.15,1.46
22.6810,0.08,0.11,-1.00,2.87,4.15,2.08
22.6970,0.07,0.11,-1.00,2.93,3.91,2.81
22.7140,0.08,0.11,-1.00,2.81,3.85,2.93
22.7300,0.08,0.11,-0.99,2.99,3.91,2.69
22.7450,0.08,0.12,-0.99,2.99,3.85,2.50
22.7600,0.08,0.12,-0.99,3.30,4.21,2.26
22.7760,0.07,0.12,-1.00,3.42,3.97,2.08
22.7910,0.07,0.11,-1.00,2.93,4.33,2.26
22.8060,0.07,0.11,-1.00,2.75,3.91,3.23
22.8210,0.07,0.11,-1.00,2.81,3.72,3.36
22.8360,0.08,0.12,-0.99,2.93,3.54,3.17
22.8480,0.08,0.12,-1.00,3.36,4.03,2.26
22.8640,0.07,0.12,-1.00,3.11,3.72,2.01
22.8810,0.08,0.12,-1.00,3.30,3.91,2.08
22.8970,0.08,0.11,-0.99,3.36,3.78,2.01
22.9120,0.08,0.11,-1.00,2.93,3.97,2.01
22.9140,0.07,0.11,-1.00,2.81,4.03,2.32
22.9300,0.07,0.11,-1.00,2.87,3.91,2.08
22.9540,0.07,0.11,-0.99,2.69,4.33,2.38
22.9700,0.07,0.11,-0.99,2.38,4.27,2.50
22.9870,0.08,0.11,-0.99,2.75,4.15,2.69
23.0020,0.08,0.11,-1.00,3.30,4.21,2.26
23.0050,0.07,0.11,-1.00,3.17,3.97,1.95
23.0340,0.07,0.11,-1.00,3.17,4.09,2.26
23.0490,0.07,0.11,-1.00,3.17,4.27,2.26
23.0650,0.07,0.11,-1.00,3.11,3.97,2.32
23.0710,0.05,0.12,-1.00,3.30,4.39,2.62
23.0950,0.08,0.12,-0.99,3.11,4.21,2.62
23.1050,0.08,0.12,-0.99,3.11,4.03,1.83
23.1210,0.07,0.11,-1.00,3.05,4.09,1.40
23.1420,0.09,0.11,-1.01,4.03,4.46,1.22
23.1570,0.09,0.11,-1.01,3.72,4.46,1.46
23.1610,0.07,0.11,-0.95,2.75,4.03,2.14
23.1870,0.06,0.12,-1.00,2.87,4.09,2.32
23.1930,0.06,0.12,-1.00,2.87,3.91,2.14
23.2090,0.08,0.12,-1.01,3.11,4.15,1.71
23.2270,0.08,0.11,-0.99,3.36,4.15,1.46
23.2430,0.08,0.11,-1.00,3.54,4.09,1.28
23.2580,0.07,0.11,-1.02,3.17,4.33,1.71
23.2780,0.06,0.11,-0.99,2.93,3.72,2.20
23.2930,0.06,0.11,-0.97,2.93,3.54,2.50
23.3040,0.08,0.11,-1.00,2.99,4.15,3.30
23.3110,0.08,0.11,-1.00,2.75,3.91,2.99
23.3320,0.08,0.11,-0.99,2.99,3.91,2.93
23.3500,0.08,0.11,-0.99,2.93,3.97,2.93
23.3680,0.07,0.11,-0.99,2.99,3.85,2.81
23.3830,0.08,0.11,-1.00,2.87,4.27,2.62
23.3990,0.07,0.11,-0.99,2.87,4.21,2.87
23.4160,0.07,0.11,-0.99,2.75,3.78,3.60
23.4320,0.08,0.11,-1.00,2.62,3.66,3.66
23.4480,0.08,0.11,-0.99,2.99,3.85,2.93
23.4640,0.08,0.12,-0.99,2.93,4.03,2.38
23.4660,0.07,0.11,-0.99,3.11,3.97,2.20
23.4820,0.07,0.11,-1.00,2.87,4.09,2.50
23.5060,0.07,0.11,-1.00,2.93,3.97,2.75
23.5230,0.07,0.11,-1.00,2.62,4.15,3.48
23.5410,0.08,0.12,-0.99,2.69,3.91,3.72
23.5580,0.08,0.12,-0.99,2.81,3.72,3.23
23.5730,0.08,0.12,-1.00,2.93,3.91,2.81
23.5740,0.08,0.11,-1.00,3.05,4.03,2.50
23.5910,0.08,0.11,-1.00,2.99,3.97,2.56
23.6210,0.08,0.11,-1.00,2.87,4.09,2.75
23.6240,0.08,0.11,-1.00,3.17,3.91,2.93
23.6400,0.08,0.11,-1.00,2.93,4.03,2.81
23.6550,0.08,0.12,-0.99,3.05,4.21,2.50
23.6820,0.07,0.11,-1.00,2.99,3.78,2.56
23.6920,0.07,0.11,-1.00,2.81,3.97,2.69
23.7090,0.07,0.11,-1.00,3.05,4.03,2.62
23.7260,0.08,0.11,-1.00,3.11,3.78,3.05
23.7420,0.08,0.12,-1.00,2.87,3.78,3.36
23.7580,0.08,0.11,-0.99,2.32,4.03,3.66
23.7740,0.08,0.11,-0.99,2.69,4.09,3.60
23.7890,0.07,0.11,-1.00,2.56,4.03,3.17
23.8040,0.08,0.12,-1.00,2.32,3.91,2.99
23.8100,0.07,0.11,-1.00,2.20,3.91,2.81
23.8260,0.07,0.11,-1.00,2.81,4.09,2.75
23.8500,0.08,0.11,-1.00,3.05,3.78,2.62
23.8660,0.08,0.11,-1.00,3.30,3.91,2.26
23.8820,0.07,0.11,-1.00,2.44,4.03,2.62
23.8980,0.07,0.12,-1.00,2.26,4.33,2.75
23.9130,0.08,0.12,-1.00,1.83,4.52,2.62
23.9280,0.07,0.11,-0.99,1.65,4.09,2.56
23.9450,0.07,0.11,-0.99,3.17,4.39,2.08
23.9600,0.08,0.12,-1.00,4.21,3.72,1.83
23.9740,0.08,0.11,-1.00,3.60,4.27,1.83
23.9890,0.08,0.11,-1.00,3.36,3.91,1.83
24.0050,0.08,0.12,-1.00,2.26,4.15,2.01
24.0160,0.06,0.11,-0.99,1.65,4.21,2.14
24.0350,0.07,0.11,-0.99,2.38,4.03,2.20
24.0500,0.07,0.11,-0.99,2.99,3.85,2.26
24.0580,0.08,0.11,-1.00,4.33,3.91,2.50
24.0740,0.07,0.11,-1.00,3.78,3.97,2.44
24.0890,0.08,0.11,-1.00,2.81,4.21,2.38
24.1110,0.08,0.11,-0.99,2.69,4.09,2.26
24.1260,0.08,0.11,-1.00,3.05,3.72,2.14
24.1300,0.08,0.11,-0.99,3.17,3.78,2.08
24.1450,0.08,0.12,-1.00,3.42,4.03,1.89
24.1680,0.07,0.11,-0.99,2.81,4.03,1.59
24.1850,0.07,0.11,-0.99,3.60,3.97,1.40
24.2010,0.07,0.11,-1.00,4.39,4.15,1.28
24.2180,0.08,0.11,-1.00,4.33,3.85,1.28
24.2350,0.08,0.11,-1.00,4.27,3.97,1.40
24.2520,0.08,0.11,-1.00,2.87,4.15,1.59
24.2680,0.08,0.11,-1.00,3.30,4.09,1.53
24.2840,0.08,0.11,-0.99,4.15,3.91,1.46
24.3000,0.07,0.11,-1.00,3.72,4.33,1.65
24.3150,0.08,0.11,-1.00,3.30,4.15,1.46
24.3300,0.08,0.11,-1.00,3.05,4.33,1.40
24.3450,0.07,0.12,-1.00,2.56,4.27,1.53
24.3510,0.07,0.12,-1.00,2.69,4.15,1.77
24.3670,0.07,0.11,-0.99,2.50,4.27,2.08
24.3900,0.08,0.11,-1.00,3.48,3.72,2.20
24.4060,0.08,0.11,-1.00,3.11,4.27,1.59
24.4210,0.08,0.11,-1.00,2.75,4.15,1.83
24.4370,0.08,0.11,-1.00,2.93,4.03,1.83
24.4520,0.08,0.11,-1.00,2.81,4.27,1.83
24.4670,0.07,0.11,-1.00,2.93,3.91,1.95
24.4730,0.07,0.11,-0.99,3.23,4.21,1.95
24.4890,0.08,0.11,-1.00,3.23,4.09,1.53
24.5120,0.08,0.11,-1.00,3.11,3.91,1.53
24.5280,0.08,0.11,-1.00,3.17,3.97,1.46
24.5320,0.08,0.11,-1.00,3.11,3.85,1.77
24.5580,0.08,0.11,-1.00,3.05,4.09,2.01
24.5730,0.08,0.11,-1.00,2.81,3.91,2.14
24.5880,0.08,0.11,-1.00,2.81,4.09,2.20
24.6030,0.07,0.11,-1.00,2.93,4.33,2.01
24.6140,0.08,0.11,-1.00,2.93,4.09,1.95
24.6310,0.07,0.11,-1.00,3.17,4.15,1.95
24.6460,0.08,0.11,-1.00,3.11,4.03,2.01
24.6630,0.07,0.11,-1.00,3.11,4.21,2.08
24.6780,0.07,0.11,-1.00,2.99,4.09,2.14
24.6860,0.07,0.11,-1.00,2.93,4.33,1.95
24.7050,0.07,0.11,-1.00,2.99,3.97,2.08
24.7230,0.08,0.11,-1.00,2.99,4.09,2.01
24.7390,0.07,0.11,-1.00,2.93,4.03,2.14
24.7400,0.08,0.11,-1.00,3.17,4.09,2.14
24.7700,0.07,0.11,-1.00,3.30,4.15,1.95
24.7860,0.07,0.11,-1.00,3.05,4.39,1.89
24.7900,0.08,0.11,-1.00,3.23,4.03,1.89
24.8070,0.08,0.12,-1.00,2.99,4.46,2.14
24.8340,0.07,0.11,-0.99,2.75,4.09,2.32
24.8400,0.07,0.11,-1.00,3.05,4.21,2.44
24.8550,0.07,0.11,-1.00,3.23,4.39,2.14
24.8780,0.08,0.11,-1.00,3.05,4.15,2.14
24.8930,0.07,0.11,-1.00,3.11,3.78,2.14
24.9090,0.07,0.11,-1.00,2.75,4.03,2.20
24.9240,0.08,0.12,-1.00,2.69,4.09,2.26
24.9400,0.08,0.11,-0.99,2.93,3.97,2.69
24.9560,0.08,0.11,-1.00,3.23,4.21,2.50
24.9720,0.07,0.11,-1.00,3.11,4.03,2.26
24.9890,0.07,0.11,-1.00,2.87,3.97,1.95
25.0040,0.07,0.12,-1.00,2.81,4.21,2.26
25.0200,0.07,0.12,-1.00,2.56,4.03,2.26
25.0280,0.07,0.11,-1.00,2.87,4.21,2.50
25.0440,0.08,0.11,-0.99,2.99,4.09,2.56
25.0610,0.08,0.11,-0.99,2.99,4.33,2.38
25.0780,0.08,0.11,-1.00,3.17,4.15,2.38
25.0940,0.08,0.11,-1.00,3.05,3.97,2.14
25.1100,0.08,0.11,-1.00,2.99,4.09,2.20
25.1240,0.08,0.11,-1.00,2.99,3.97,2.38
25.1410,0.07,0.11,-1.00,3.17,3.72,2.44
25.1550,0.08,0.11,-1.00,3.11,4.03,2.38
25.1710,0.08,0.11,-0.99,2.93,4.09,2.32
25.1780,0.07,0.11,-1.00,2.87,4.39,2.26
25.2020,0.08,0.11,-1.00,2.87,3.97,2.08
25.2120,0.08,0.11,-1.00,3.11,4.15,2.20
25.2280,0.08,0.11,-1.00,2.93,3.97,2.32
25.2440,0.07,0.11,-1.00,2.93,3.91,2.32
25.2610,0.07,0.11,-0.99,2.81,4.33,2.56
25.2770,0.07,0.11,-1.00,3.23,4.09,2.44
25.2920,0.08,0.11,-1.00,3.05,4.15,2.50
25.3080,0.07,0.11,-1.00,3.36,3.91,2.50
25.3110,0.07,0.11,-1.00,3.23,4.03,2.69
25.3400,0.08,0.11,-1.00,2.93,4.15,2.99
25.3550,0.08,0.11,-1.00,3.11,3.66,2.75
25.3710,0.08,0.11,-0.99,3.05,3.91,2.69
25.3860,0.07,0.11,-0.99,2.99,4.21,2.69
25.4010,0.07,0.11,-1.00,3.05,4.03,2.26
25.4110,0.08,0.11,-1.00,2.93,3.91,2.20
25.4280,0.08,0.11,-1.00,2.93,3.85,2.26
25.4440,0.07,0.11,-1.00,2.87,3.78,2.32
25.4610,0.07,0.11,-1.00,2.93,3.72,2.38
25.4770,0.08,0.11,-1.00,3.05,4.03,2.44
25.4940,0.07,0.11,-1.00,2.93,3.91,2.56
25.5090,0.07,0.11,-1.00,2.99,3.78,2.38
25.5260,0.08,0.11,-1.00,2.93,3.66,2.32
25.5420,0.08,0.11,-1.00,3.05,4.03,2.56
25.5580,0.08,0.11,-1.00,3.05,4.03,2.44
25.5730,0.07,0.11,-1.00,2.93,3.97,2.32
25.5890,0.07,0.11,-1.00,3.05,3.91,2.32
25.6040,0.07,0.11,-1.00,2.99,4.15,2.32
25.6110,0.07,0.11,-1.00,2.99,4.15,2.50
25.6270,0.08,0.11,-1.00,3.05,4.27,2.81
25.6500,0.07,0.11,-1.00,2.81,3.91,2.87
25.6670,0.07,0.11,-1.00,3.05,4.03,2.62
25.6840,0.08,0.11,-1.00,3.05,3.78,2.81
25.7000,0.08,0.11,-0.99,3.05,4.15,2.81
25.7160,0.08,0.11,-1.00,2.87,3.54,2.87
25.7320,0.08,0.11,-0.99,3.05,3.78,3.05
25.7480,0.08,0.11,-1.00,3.17,3.97,3.05
25.7510,0.07,0.11,-1.00,3.05,3.78,2.69
25.7780,0.07,0.11,-1.00,3.05,4.09,2.56
25.7840,0.08,0.11,-1.00,3.17,3.91,2.44
25.8100,0.08,0.11,-0.99,3.11,3.66,2.69
25.8170,0.07,0.11,-1.00,3.17,3.85,2.50
25.8320,0.07,0.11,-1.00,2.99,3.78,2.69
25.8550,0.07,0.11,-1.00,3.05,3.97,2.62
25.8710,0.07,0.11,-1.00,2.99,3.91,2.32
25.8860,0.07,0.11,-1.00,3.05,4.15,2.14
25.8890,0.08,0.11,-0.99,3.05,4.33,2.20
25.9160,0.08,0.11,-1.00,3.17,4.03,2.20
25.9320,0.08,0.11,-1.00,3.11,4.21,1.95
25.9390,0.07,0.11,-0.99,3.05,3.78,2.08
25.9620,0.07,0.11,-1.00,3.11,3.91,2.01
25.9720,0.07,0.11,-1.00,3.05,3.97,2.01
25.9890,0.08,0.11,-1.00,2.87,4.03,1.95
26.0070,0.07,0.11,-1.00,2.93,4.21,2.38
26.0220,0.07,0.11,-1.00,2.99,4.03,2.44
26.0390,0.08,0.11,-1.00,3.17,4.09,2.32
26.0550,0.08,0.11,-1.00,2.93,4.03,2.62
26.0720,0.08,0.11,-1.00,2.75,3.97,2.69
26.0880,0.07,0.12,-1.00,2.93,3.97,2.56
26.1040,0.07,0.11,-1.00,3.05,3.78,2.50
26.1210,0.07,0.11,-1.00,3.05,3.85,2.69
26.1370,0.08,0.11,-1.00,3.23,3.97,2.50
26.1390,0.08,0.11,-1.00,3.05,4.09,2.14
26.1540,0.07,0.11,-0.99,2.81,3.97,2.08
26.1780,0.08,0.11,-0.99,2.75,3.78,2.20
26.1940,0.08,0.11,-1.00,2.93,3.85,2.26
26.2110,0.07,0.11,-1.00,3.23,3.85,2.62
26.2280,0.07,0.11,-1.00,3.17,3.91,2.56
26.2430,0.07,0.11,-1.00,3.30,3.60,2.56
26.2590,0.07,0.11,-1.00,3.11,3.97,2.50
26.2740,0.07,0.11,-1.00,2.87,3.97,2.32
26.2900,0.08,0.11,-1.00,2.93,3.91,2.38
26.3060,0.07,0.11,-1.00,3.17,3.72,2.38
26.3200,0.07,0.11,-1.00,3.23,4.09,2.32
26.3280,0.07,0.11,-1.00,3.05,4.03,2.50
26.3510,0.08,0.11,-1.00,3.11,4.03,2.50
26.3660,0.07,0.11,-1.00,3.05,3.72,2.20
26.3770,0.07,0.11,-1.00,3.17,3.97,2.32
26.3940,0.07,0.11,-1.00,3.11,4.21,2.26
26.4100,0.07,0.11,-1.00,3.36,4.15,2.20
26.4260,0.07,0.11,-1.00,2.93,3.78,2.20
26.4430,0.07,0.11,-1.00,3.23,4.15,2.14
26.4580,0.07,0.11,-1.00,2.99,3.91,2.01
26.4610,0.07,0.11,-1.00,3.17,3.97,2.14
26.4760,0.08,0.11,-1.00,3.23,3.97,2.01
26.5050,0.07,0.11,-1.00,3.11,3.78,2.20
26.5160,0.07,0.11,-1.00,3.36,4.09,1.89
26.5330,0.08,0.11,-1.00,2.99,3.85,2.01
26.5490,0.07,0.11,-1.00,3.05,4.21,2.14
26.5650,0.07,0.11,-1.00,3.05,3.66,2.50
26.5820,0.07,0.11,-1.00,2.81,3.97,2.44
26.5990,0.08,0.11,-1.00,3.23,3.97,2.62
26.6150,0.08,0.11,-1.00,3.17,3.91,2.26
26.6300,0.07,0.11,-1.00,2.99,4.33,2.56
26.6450,0.08,0.11,-1.00,2.99,3.97,2.38
26.6610,0.07,0.11,-1.00,3.05,4.15,2.26
26.6760,0.07,0.11,-1.00,3.11,4.15,2.32
26.6910,0.07,0.11,-0.99,2.99,3.85,2.38
26.7060,0.08,0.11,-1.00,2.99,4.09,2.56
26.7160,0.07,0.11,-1.00,3.11,4.03,2.56
26.7330,0.08,0.11,-1.00,2.99,4.27,2.50
26.7490,0.08,0.11,-1.00,2.87,3.97,2.50
26.7660,0.07,0.11,-1.00,3.05,3.97,2.32
26.7820,0.07,0.11,-1.00,2.99,4.03,2.62
26.7990,0.07,0.11,-1.00,3.23,3.91,2.32
26.8140,0.08,0.11,-1.00,3.23,4.15,2.32
26.8300,0.07,0.11,-0.99,3.17,3.97,2.26
26.8460,0.07,0.11,-1.00,2.99,3.91,2.44
26.8630,0.08,0.11,-0.99,3.05,4.03,2.75
26.8660,0.07,0.11,-1.00,2.99,4.03,2.50
26.8810,0.08,0.11,-1.00,3.11,4.03,2.69
26.9080,0.07,0.11,-1.00,2.93,3.78,2.75
26.9220,0.08,0.11,-0.99,2.87,4.15,2.62
26.9370,0.07,0.11,-1.00,2.93,3.72,2.26
26.9550,0.07,0.11,-1.00,3.05,4.15,2.50
26.9710,0.07,0.11,-1.00,2.93,3.97,2.44
26.9880,0.08,0.11,-1.00,3.11,3.78,2.44
27.0040,0.07,0.11,-0.99,2.99,4.09,2.44
27.0200,0.07,0.11,-1.00,2.99,3.85,2.81
27.0210,0.07,0.11,-0.99,3.11,4.15,2.75
27.0380,0.08,0.11,-1.00,3.05,3.91,2.93
27.0680,0.07,0.11,-1.00,3.11,3.78,2.87
27.0710,0.07,0.11,-1.00,2.99,3.85,2.69
27.0870,0.08,0.11,-1.00,3.30,3.85,2.32
27.1080,0.07,0.11,-1.00,3.05,3.91,2.32
27.1210,0.08,0.11,-1.00,2.75,4.15,2.56
27.1380,0.07,0.11,-1.00,3.30,3.85,2.56
27.1540,0.08,0.11,-1.00,2.87,4.03,2.75
27.1710,0.09,0.11,-0.99,3.11,3.72,2.81
27.1880,0.08,0.11,-1.00,2.93,4.03,2.56
27.2080,0.08,0.11,-1.00,2.93,4.46,2.50
27.2210,0.07,0.11,-1.00,2.87,3.78,2.38
27.2380,0.08,0.11,-1.00,3.05,3.85,2.56
27.2530,0.08,0.11,-1.00,2.99,3.91,2.62
27.2720,0.08,0.11,-1.00,3.05,3.85,2.56
27.2750,0.09,0.11,-1.00,2.87,4.09,2.62
27.2900,0.08,0.11,-1.00,2.87,4.15,2.38
27.3200,0.08,0.11,-1.00,3.23,4.09,2.26
27.3350,0.07,0.11,-1.00,3.30,4.09,2.50
27.3470,0.07,0.11,-1.00,3.42,4.15,2.44
27.3630,0.08,0.11,-1.00,3.54,4.03,2.32
27.3790,0.08,0.11,-1.00,3.30,4.09,2.32
27.3950,0.08,0.11,-1.00,3.30,3.91,2.08
27.4110,0.08,0.11,-1.00,3.11,4.03,2.08
27.4140,0.08,0.11,-0.99,3.23,3.78,2.14
27.4290,0.08,0.11,-1.00,3.42,3.97,2.14
27.4520,0.08,0.11,-1.00,3.23,3.85,2.32
27.4690,0.07,0.11,-1.00,3.05,3.78,2.08
27.4850,0.08,0.11,-0.99,3.05,4.15,2.14
27.5020,0.08,0.11,-1.00,3.05,4.09,2.20
27.5190,0.07,0.11,-1.00,2.56,4.46,2.32
27.5340,0.07,0.11,-1.00,2.99,4.46,2.20
27.5510,0.07,0.11,-1.00,2.87,4.15,2.08
27.5680,0.08,0.11,-0.99,3.05,4.15,2.14
27.5830,0.07,0.11,-1.00,3.05,4.09,2.01
27.5990,0.07,0.11,-1.00,2.99,4.15,2.20
27.6090,0.07,0.11,-1.00,3.11,3.91,2.14
27.6180,0.07,0.11,-1.00,3.11,4.03,2.20
27.6410,0.07,0.11,-1.00,2.99,4.21,2.01
27.6570,0.08,0.11,-0.99,3.30,3.91,2.08
27.6740,0.08,0.11,-1.00,3.30,4.27,2.08
27.6920,0.08,0.11,-1.00,3.23,3.97,2.32
27.7070,0.07,0.11,-1.00,3.30,4.21,2.20
27.7230,0.07,0.11,-1.00,2.99,4.03,2.20
27.7390,0.07,0.11,-1.00,3.11,4.03,2.08
27.7410,0.08,0.11,-1.00,3.11,4.27,2.20
27.7710,0.07,0.11,-1.00,3.11,4.15,2.20
27.7860,0.08,0.11,-1.00,3.30,4.15,2.26
27.8020,0.07,0.11,-1.00,3.11,3.97,2.14
27.8090,0.07,0.11,-1.00,2.99,4.09,2.26
27.8220,0.07,0.11,-1.00,3.05,4.09,2.08
27.8470,0.08,0.11,-1.00,2.99,4.52,2.20
27.8620,0.08,0.11,-1.00,3.11,4.21,2.20
27.8770,0.07,0.11,-1.00,3.11,3.91,2.14
27.8800,0.07,0.11,-1.00,2.99,3.91,2.14
27.8960,0.07,0.11,-1.00,2.99,4.15,2.20
27.9200,0.07,0.11,-1.00,3.17,3.97,2.01
27.9360,0.07,0.11,-1.00,3.23,4.15,2.26
27.9530,0.07,0.11,-1.00,3.17,3.85,2.08
27.9690,0.08,0.11,-1.00,2.99,4.33,2.01
27.9870,0.07,0.11,-1.00,3.17,3.97,2.20
28.0020,0.07,0.11,-0.99,2.99,4.09,2.14
28.0180,0.07,0.12,-1.00,3.30,4.09,2.14
28.0340,0.07,0.11,-1.00,2.99,4.09,2.20
28.0510,0.08,0.11,-1.00,2.99,4.03,2.32
28.0660,0.08,0.11,-1.00,3.17,4.21,2.26
28.0710,0.07,0.11,-1.00,2.81,4.09,2.20
28.0870,0.07,0.11,-1.00,2.87,4.09,2.26
28.1100,0.07,0.11,-1.00,2.93,4.15,2.26
28.1110,0.07,0.11,-1.00,3.11,4.03,2.26
28.1430,0.07,0.11,-1.00,3.05,4.15,2.26
28.1590,0.07,0.11,-1.00,3.17,4.15,2.26
28.1750,0.07,0.11,-1.00,2.93,4.21,2.32
28.1780,0.07,0.11,-0.99,3.11,4.03,2.20
28.1930,0.07,0.11,-1.00,3.05,4.27,2.20
28.2220,0.07,0.11,-1.00,2.87,4.27,2.14
28.2330,0.07,0.11,-1.00,3.17,4.46,2.08
28.2490,0.07,0.11,-1.00,3.05,4.64,2.14
28.2660,0.07,0.11,-1.00,3.23,4.21,2.26
28.2830,0.07,0.11,-1.00,2.99,4.03,2.20
28.2990,0.07,0.11,-1.00,3.17,4.21,2.01
28.3160,0.08,0.11,-1.00,3.05,4.03,2.08
28.3320,0.07,0.11,-1.00,2.93,4.09,2.26
28.3480,0.07,0.11,-1.00,2.99,4.15,2.14
28.3640,0.07,0.11,-1.00,3.05,4.03,2.32
28.3790,0.07,0.11,-1.00,3.36,4.15,2.26
28.3820,0.07,0.11,-1.00,3.05,4.09,2.26
28.4090,0.07,0.11,-1.00,3.11,3.97,2.26
28.4200,0.07,0.11,-1.00,3.05,4.27,2.20
28.4370,0.07,0.11,-1.00,3.23,4.03,2.14
28.4550,0.07,0.11,-1.00,2.99,3.97,2.14
28.4720,0.08,0.11,-1.00,3.11,4.15,2.32
28.4870,0.07,0.11,-1.00,3.11,4.09,2.26
28.4890,0.07,0.11,-1.00,3.11,4.15,2.26
28.5190,0.07,0.11,-1.00,2.87,4.15,2.32
28.5340,0.07,0.11,-1.00,3.05,4.15,2.32
28.5510,0.07,0.11,-1.00,3.30,4.39,2.26
28.5550,0.07,0.11,-1.00,3.23,4.09,2.20
28.5710,0.07,0.11,-1.00,3.17,4.21,2.14
28.5960,0.07,0.11,-1.00,3.17,4.09,2.20
28.6120,0.07,0.11,-1.00,3.11,4.15,2.20
28.6280,0.07,0.11,-1.00,2.99,4.09,2.32
28.6430,0.07,0.11,-1.00,3.30,4.33,2.20
28.6450,0.07,0.11,-1.00,3.17,4.03,2.14
28.6610,0.07,0.11,-1.00,3.30,3.97,2.20
28.6840,0.08,0.11,-1.00,3.11,4.15,2.38
28.7010,0.07,0.11,-1.00,3.23,4.21,2.38
28.7170,0.07,0.11,-1.00,3.36,3.97,2.20
28.7340,0.07,0.11,-1.00,3.23,4.09,2.20
28.7510,0.07,0.11,-1.00,3.36,3.78,2.26
28.7670,0.07,0.11,-1.00,3.17,4.03,2.14
28.7830,0.08,0.11,-1.00,3.17,3.85,2.01
28.7980,0.07,0.11,-1.00,3.23,4.15,2.32
28.8110,0.08,0.11,-1.00,3.17,4.27,2.32
28.8160,0.07,0.11,-1.00,3.11,4.15,2.14
28.8390,0.08,0.11,-1.00,3.11,4.15,2.08
28.8560,0.09,0.11,-1.00,3.30,4.09,1.10
28.8740,0.07,0.11,-1.00,3.17,4.46,0.73
28.8890,0.07,0.11,-1.00,3.11,4.15,1.16
28.9060,0.08,0.11,-0.99,2.99,4.03,1.22
28.9230,0.08,0.11,-1.00,3.23,4.15,1.04
28.9380,0.08,0.11,-1.00,3.11,4.09,0.79
28.9540,0.07,0.11,-1.00,3.30,4.15,0.73
28.9560,0.08,0.11,-1.00,3.23,4.09,0.92
28.9860,0.08,0.12,-1.00,3.23,4.52,0.67
29.0020,0.07,0.12,-1.00,3.11,4.15,0.61
29.0170,0.07,0.12,-1.00,3.05,4.58,0.67
29.0220,0.07,0.11,-0.99,3.36,4.52,0.67
29.0380,0.08,0.11,-1.00,3.17,4.46,0.61
29.0540,0.08,0.11,-1.00,3.30,4.52,0.55
29.0790,0.07,0.11,-1.00,3.30,4.33,0.55
29.0940,0.07,0.11,-1.00,3.17,4.33,0.73
29.1100,0.07,0.11,-1.00,2.99,4.21,0.92
29.1260,0.07,0.11,-1.00,3.05,4.27,1.28
29.1430,0.08,0.11,-1.00,3.11,4.52,1.28
29.1450,0.07,0.11,-1.00,3.17,4.09,1.40
29.1610,0.07,0.11,-1.00,3.11,4.39,1.40
29.1840,0.07,0.11,-1.00,3.36,4.03,1.71
29.2010,0.07,0.11,-1.00,3.11,4.33,1.95
29.2170,0.07,0.11,-1.00,3.05,4.09,2.08
29.2330,0.08,0.11,-1.00,3.11,4.27,2.08
29.2500,0.08,0.11,-1.00,3.30,4.27,2.08
29.2660,0.07,0.11,-1.00,2.99,4.58,1.95
29.2820,0.07,0.11,-1.00,2.99,4.27,1.89
29.2970,0.07,0.11,-1.00,3.05,4.21,2.20
29.3120,0.07,0.11,-1.00,3.11,4.27,2.32
29.3270,0.07,0.11,-1.00,3.05,3.97,2.14
29.3330,0.07,0.11,-1.00,3.17,4.21,2.20
29.3490,0.08,0.11,-0.99,2.99,4.15,2.32
29.3730,0.07,0.11,-1.00,2.93,3.72,2.20
29.3880,0.07,0.11,-1.00,3.17,3.91,2.20
29.4050,0.07,0.11,-1.00,2.99,4.21,2.26
29.4200,0.07,0.11,-1.00,2.99,4.09,2.08
29.4230,0.07,0.11,-1.00,2.87,4.33,2.08
29.4510,0.08,0.11,-1.00,3.11,4.39,2.20
29.4560,0.07,0.11,-1.00,3.05,4.15,2.14
29.4720,0.07,0.11,-1.00,2.99,3.66,2.14
29.4980,0.07,0.11,-1.00,3.11,4.27,2.20
29.5120,0.07,0.11,-1.00,3.05,4.52,2.20
29.5250,0.07,0.11,-1.00,3.17,4.15,2.26
29.5420,0.07,0.11,-1.00,3.11,4.15,2.20
29.5580,0.07,0.11,-1.00,2.87,4.03,2.38
29.5730,0.07,0.11,-1.00,3.05,4.27,2.14
29.5750,0.07,0.11,-1.00,3.17,4.33,2.26
29.6050,0.07,0.11,-1.00,3.23,4.27,2.14
29.6120,0.07,0.11,-1.00,3.17,4.46,2.14
29.6250,0.07,0.11,-1.00,3.05,3.85,2.08
29.6470,0.07,0.11,-1.00,3.17,4.15,2.20
29.6640,0.07,0.11,-1.00,2.93,4.21,2.20
29.6810,0.08,0.11,-1.00,2.99,4.09,2.20
29.6970,0.07,0.11,-1.00,3.11,3.97,2.08
29.7130,0.07,0.11,-1.00,3.11,4.09,2.26
29.7280,0.07,0.11,-1.00,3.11,3.91,2.14
29.7430,0.07,0.11,-0.99,3.05,4.03,2.26
29.7480,0.07,0.11,-1.00,3.11,4.09,2.38
29.7640,0.07,0.12,-1.00,3.23,4.09,2.20
29.7890,0.07,0.12,-1.00,2.99,4.09,1.95
29.8050,0.07,0.12,-1.00,3.23,4.33,2.14
29.8210,0.07,0.11,-1.00,3.05,4.39,2.14
29.8230,0.08,0.11,-1.00,3.11,4.21,2.26
29.8380,0.08,0.11,-1.00,3.11,4.21,2.38
29.8680,0.08,0.11,-1.00,3.23,3.78,2.38
29.8730,0.07,0.11,-1.00,3.17,4.15,2.26
29.8880,0.07,0.11,-1.00,3.11,4.21,2.26
29.9150,0.07,0.11,-0.99,2.99,4.21,2.20
29.9310,0.07,0.11,-1.00,2.99,4.27,2.32
29.9390,0.07,0.11,-1.00,3.17,4.27,2.14
29.9550,0.08,0.11,-1.00,3.17,3.97,2.26
29.9770,0.07,0.11,-1.00,3.17,4.27,2.26
29.9930,0.08,0.11,-1.00,3.11,4.09,2.14
30.0090,0.07,0.11,-1.00,3.05,3.91,2.14
30.0250,0.07,0.11,-0.99,3.11,4.27,2.32
30.0400,0.07,0.11,-1.00,3.11,3.97,2.20
30.0560,0.07,0.11,-1.00,3.05,4.33,2.20
30.0620,0.07,0.11,-1.00,3.11,3.85,2.14
30.0770,0.07,0.11,-1.00,2.93,3.97,2.20
30.0990,0.07,0.11,-0.99,3.23,4.03,2.14
30.1150,0.07,0.11,-1.00,3.17,4.27,2.20
30.1320,0.07,0.11,-1.00,3.17,4.15,2.32
30.1480,0.07,0.11,-1.00,3.23,4.09,2.08
30.1630,0.08,0.11,-1.00,3.11,3.97,2.26
30.1650,0.07,0.11,-1.00,2.99,4.15,2.08
30.1810,0.07,0.11,-1.00,3.11,4.09,2.08
30.2040,0.07,0.11,-1.00,3.23,4.15,2.14
30.2200,0.07,0.11,-1.00,3.05,4.03,2.14
30.2380,0.07,0.11,-1.00,2.99,4.03,2.20
30.2540,0.08,0.11,-1.00,3.17,4.21,2.26
30.2700,0.07,0.11,-1.00,3.05,3.97,2.14
30.2870,0.08,0.11,-0.99,3.36,3.85,2.20
30.2880,0.08,0.11,-1.00,2.99,3.97,2.08
30.3130,0.07,0.11,-1.00,2.99,3.97,2.14
30.3330,0.07,0.11,-0.99,2.75,4.03,2.14
30.3370,0.07,0.11,-1.00,2.93,4.03,2.14
30.3530,0.08,0.11,-1.00,2.93,4.15,2.14
30.3690,0.07,0.11,-1.00,3.05,3.97,2.14
30.3910,0.07,0.11,-1.00,3.11,4.33,2.08
30.4070,0.07,0.11,-1.00,3.17,4.03,2.14
30.4240,0.07,0.11,-1.00,3.05,4.15,2.14
30.4410,0.07,0.11,-1.00,2.93,3.97,2.08
30.4570,0.08,0.11,-1.00,2.93,4.15,2.08
30.4590,0.07,0.11,-1.00,3.17,3.97,2.08
30.4880,0.07,0.11,-1.00,3.17,4.03,2.26
30.5030,0.07,0.11,-1.00,3.30,4.21,2.08
30.5180,0.07,0.11,-1.00,3.11,4.27,2.08
30.5270,0.07,0.11,-1.00,3.23,3.78,2.20
30.5420,0.07,0.11,-1.00,3.17,4.27,2.14
30.5620,0.08,0.11,-1.00,3.11,4.09,2.14
30.5790,0.07,0.11,-0.99,2.93,4.21,2.14
30.5950,0.07,0.11,-1.00,2.93,3.85,2.14
30.6110,0.07,0.11,-1.00,3.11,3.91,2.26
30.6260,0.07,0.11,-1.00,2.93,4.15,2.20
30.6430,0.07,0.11,-1.00,3.23,4.21,2.20
30.6580,0.07,0.11,-1.00,3.05,3.91,2.26
30.6740,0.07,0.11,-0.99,2.99,4.09,2.08
30.6900,0.08,0.11,-1.00,3.05,4.33,2.20
30.7060,0.07,0.11,-1.00,3.05,4.03,2.26
30.7220,0.07,0.11,-1.00,3.11,4.21,2.14
30.7290,0.07,0.11,-1.00,3.30,4.03,2.38
30.7450,0.07,0.11,-1.00,2.93,4.09,2.26
30.7690,0.07,0.11,-1.00,3.17,3.97,2.32
30.7850,0.07,0.11,-1.00,2.99,4.27,2.32
30.8010,0.08,0.11,-1.00,3.11,3.85,2.32
30.8160,0.08,0.11,-1.00,3.17,4.27,2.32
30.8190,0.07,0.11,-1.00,3.23,4.15,2.20
30.8360,0.07,0.11,-1.00,2.99,3.97,2.26
30.8570,0.07,0.11,-1.00,2.99,4.15,2.20
30.8730,0.07,0.11,-1.00,2.99,4.15,2.38
30.8910,0.08,0.11,-1.00,3.17,4.27,2.56
30.9080,0.08,0.11,-0.99,3.23,3.91,2.38
30.9240,0.08,0.11,-1.00,3.05,4.27,2.44
30.9400,0.08,0.11,-1.00,3.05,4.27,2.38
30.9560,0.08,0.11,-1.00,3.23,3.85,2.26
30.9730,0.07,0.11,-1.00,3.17,4.03,2.20
30.9890,0.07,0.11,-1.00,3.11,4.21,2.32
31.0040,0.07,0.11,-1.00,3.23,3.97,2.20
31.0210,0.08,0.11,-1.00,3.11,4.15,2.20
31.0240,0.07,0.11,-1.00,3.05,3.91,2.14
31.0400,0.07,0.11,-1.00,3.05,4.33,2.14
31.0630,0.07,0.11,-1.00,3.30,4.15,2.26
31.0800,0.07,0.11,-1.00,2.87,4.21,2.20
31.0960,0.08,0.11,-1.00,3.23,3.85,2.26
31.1120,0.08,0.11,-1.00,3.05,3.97,2.08
31.1280,0.07,0.11,-1.00,3.05,4.03,2.20
31.1430,0.07,0.11,-1.00,2.99,4.03,2.20
31.1470,0.07,0.11,-0.99,2.99,4.15,2.20
31.1620,0.07,0.11,-1.00,2.99,3.85,2.20
31.1780,0.07,0.11,-1.00,3.23,4.15,2.20
31.2040,0.08,0.11,-1.00,3.05,4.03,2.14
31.2200,0.07,0.11,-1.00,3.17,4.21,2.26
31.2360,0.07,0.11,-1.00,3.05,4.15,2.14
31.2380,0.07,0.11,-1.00,3.05,3.91,2.20
31.2670,0.07,0.11,-1.00,3.11,4.09,2.14
31.2700,0.07,0.11,-1.00,2.93,4.27,2.32
31.2870,0.07,0.11,-1.00,2.93,3.97,2.14
31.3030,0.07,0.11,-0.99,3.05,3.97,2.26
31.3260,0.07,0.11,-1.00,2.99,4.03,2.26
31.3420,0.07,0.11,-1.00,3.17,4.27,2.20
31.3590,0.07,0.11,-1.00,2.99,4.03,2.38
31.3600,0.08,0.11,-1.00,3.05,4.27,2.93
31.3900,0.08,0.11,-1.00,3.17,4.27,2.69
31.3930,0.08,0.11,-1.00,2.93,4.21,2.50
31.4230,0.07,0.11,-1.00,2.99,4.15,2.50
31.4270,0.07,0.11,-1.00,3.05,4.21,2.50
31.4530,0.07,0.11,-1.00,3.17,4.09,2.62
31.4690,0.08,0.11,-1.00,3.11,3.97,2.62
31.4760,0.07,0.11,-1.00,3.11,3.85,2.56
31.4920,0.07,0.11,-1.00,3.11,4.21,2.32
31.5140,0.07,0.11,-1.00,2.93,4.09,2.44
31.5300,0.07,0.11,-1.00,2.87,3.91,2.38
31.5450,0.07,0.11,-0.99,2.87,3.66,2.26
31.5600,0.08,0.11,-1.00,3.05,3.91,2.32
31.5770,0.07,0.11,-1.00,2.87,3.91,2.32
31.5920,0.08,0.11,-1.00,3.23,3.85,2.32
31.6080,0.08,0.11,-1.00,3.23,4.09,2.20
31.6230,0.08,0.11,-1.00,3.30,4.15,2.20
31.6380,0.07,0.11,-0.99,3.17,3.97,2.14
31.6480,0.07,0.11,-1.00,3.05,4.03,2.14
31.6650,0.07,0.11,-1.00,3.11,4.03,2.38
31.6810,0.07,0.11,-1.00,3.23,3.97,2.14
31.6970,0.07,0.11,-1.00,3.17,4.03,2.26
31.7130,0.07,0.11,-1.00,3.11,4.03,2.20
31.7280,0.07,0.11,-1.00,2.93,4.09,2.26
31.7430,0.07,0.11,-1.00,2.99,4.03,2.32
31.7580,0.07,0.11,-1.00,3.36,4.09,2.32
31.7740,0.07,0.11,-1.00,3.17,4.21,2.26
31.7900,0.07,0.11,-1.00,3.05,4.33,2.20
31.8050,0.07,0.11,-1.00,3.17,4.09,2.20
31.8200,0.07,0.11,-1.00,3.17,3.85,2.08
31.8310,0.07,0.11,-1.00,3.11,4.27,2.26
31.8480,0.07,0.11,-1.00,2.99,4.09,2.32
31.8650,0.07,0.11,-1.00,3.17,4.09,2.38
31.8810,0.07,0.12,-1.00,2.99,4.15,2.50
31.8980,0.08,0.12,-0.99,2.87,4.03,2.56
31.9140,0.08,0.11,-1.00,2.93,4.09,2.38
31.9300,0.08,0.11,-1.00,3.11,4.09,2.32
31.9460,0.07,0.11,-1.00,2.93,4.33,2.32
31.9610,0.07,0.11,-1.00,3.05,3.97,2.20
31.9760,0.07,0.11,-1.00,2.93,3.91,2.26
31.9910,0.07,0.11,-1.00,2.93,4.21,2.26
32.0060,0.07,0.11,-1.00,2.99,4.21,2.14
32.0210,0.07,0.11,-1.00,3.11,4.09,2.14
32.0310,0.07,0.11,-1.00,2.93,3.97,2.20
32.0480,0.07,0.11,-1.00,2.99,3.85,2.26
32.0640,0.07,0.11,-1.00,3.05,4.09,2.26
32.0810,0.08,0.11,-1.00,3.05,4.03,2.20
32.0970,0.07,0.12,-1.00,3.11,3.91,2.14
32.1130,0.07,0.11,-1.00,3.11,3.91,2.20
32.1280,0.07,0.11,-1.00,3.30,3.91,2.20
32.1430,0.07,0.11,-1.00,3.11,3.97,2.20
32.1480,0.08,0.11,-1.00,3.05,4.33,2.26
32.1630,0.07,0.11,-1.00,3.23,3.97,2.08
32.1880,0.07,0.11,-1.00,3.23,3.85,2.26
32.2040,0.07,0.11,-1.00,3.11,4.03,2.20
32.2200,0.07,0.11,-1.00,3.17,4.09,2.38
32.2210,0.07,0.11,-1.00,3.05,3.97,2.50
32.2380,0.07,0.11,-1.00,3.11,4.03,2.44
32.2690,0.07,0.11,-1.00,3.23,3.78,2.56
32.2720,0.07,0.11,-1.00,3.17,3.97,2.75
32.2880,0.07,0.11,-1.00,3.17,4.21,2.44
32.3030,0.08,0.12,-1.00,3.11,3.91,2.44
32.3260,0.07,0.11,-1.00,3.11,3.97,2.20
32.3430,0.07,0.11,-1.00,3.17,4.15,2.14
32.3590,0.07,0.11,-1.00,3.17,4.03,2.14
32.3760,0.07,0.11,-1.00,3.23,4.15,2.26
32.3920,0.07,0.11,-1.00,3.11,4.09,2.32
32.4080,0.07,0.11,-0.99,3.05,4.03,2.20
32.4230,0.06,0.07,-0.94,3.42,3.97,2.20
32.4260,0.07,0.11,-1.00,2.87,4.21,2.08
32.4420,0.07,0.11,-0.99,3.72,3.23,1.95
32.4650,0.08,0.11,-1.00,3.17,3.97,2.14
32.4810,0.08,0.12,-1.00,3.23,4.09,2.38
32.4980,0.08,0.12,-1.00,3.05,4.03,2.20
32.5150,0.08,0.11,-1.00,3.05,4.21,2.26
32.5320,0.08,0.11,-1.00,2.81,4.82,2.20
32.5480,0.07,0.11,-0.99,2.75,4.64,2.32
32.5630,0.07,0.10,-1.00,2.81,4.52,2.56
32.5780,0.07,0.12,-1.00,2.75,3.97,2.93
32.5930,0.07,0.11,-0.99,2.93,3.97,2.20
32.6080,0.07,0.11,-1.00,2.93,4.03,2.20
32.6230,0.07,0.11,-1.00,2.87,4.27,2.14
32.6370,0.07,0.11,-1.00,3.05,3.97,2.20
32.6480,0.07,0.12,-1.00,3.05,4.03,2.20
32.6650,0.07,0.11,-1.00,3.11,3.91,2.01
32.6810,0.07,0.11,-1.00,3.11,3.91,2.14
32.6980,0.08,0.11,-1.00,2.99,4.21,2.20
32.7140,0.07,0.11,-1.00,3.05,4.39,2.14
32.7300,0.07,0.11,-1.00,2.99,4.27,2.14
32.7470,0.07,0.11,-1.00,2.93,4.21,2.20
32.7620,0.07,0.11,-1.00,3.17,3.97,2.20
32.7770,0.07,0.11,-1.00,2.87,3.91,2.20
32.7920,0.07,0.11,-1.00,2.93,3.78,2.14
32.8070,0.07,0.11,-1.00,2.93,3.97,2.14
32.8230,0.07,0.11,-1.00,3.05,4.09,2.26
32.8320,0.07,0.11,-1.00,2.93,3.97,2.08
32.8480,0.07,0.11,-1.00,3.05,3.85,2.14
32.8680,0.07,0.11,-1.00,2.87,4.39,2.20
32.8850,0.08,0.11,-0.99,2.99,4.21,2.20
32.9000,0.08,0.11,-1.00,2.81,4.09,2.20
32.9050,0.07,0.11,-1.00,3.11,4.15,2.14
32.9300,0.07,0.11,-1.00,3.11,3.97,2.14
32.9380,0.07,0.11,-1.00,3.05,3.91,2.26
32.9540,0.07,0.11,-1.00,3.11,3.97,2.26
32.9710,0.07,0.11,-1.00,2.87,4.15,2.14
32.9880,0.07,0.11,-1.00,3.11,4.27,2.14
33.0040,0.07,0.11,-0.99,2.93,4.33,2.08
33.0210,0.07,0.11,-1.00,2.99,4.21,2.14
33.0380,0.07,0.11,-1.00,3.05,4.09,2.20
33.0540,0.07,0.11,-1.00,3.05,4.46,2.14
33.0540,0.07,0.11,-1.00,3.05,4.46,2.14
33.0780,0.07,0.11,-1.00,2.99,4.15,2.20
33.0950,0.08,0.11,-1.00,2.87,3.91,2.14
33.1120,0.07,0.11,-1.00,3.05,4.27,2.26
33.1290,0.08,0.11,-1.00,3.17,4.03,2.26
33.1450,0.07,0.11,-1.00,3.05,4.09,2.26
33.1600,0.07,0.11,-1.00,2.93,3.91,2.26
33.1760,0.08,0.11,-1.00,3.05,4.03,2.26
33.1910,0.07,0.11,-1.00,3.11,4.27,2.32
33.2070,0.07,0.11,-1.00,3.05,4.03,2.26
33.2170,0.07,0.11,-1.00,3.23,4.15,2.08
33.2270,0.07,0.11,-1.00,3.30,3.97,2.26
33.2500,0.07,0.11,-1.00,3.23,4.21,2.20
33.2660,0.07,0.11,-1.00,2.81,4.27,2.20
33.2830,0.07,0.11,-1.00,3.11,4.09,2.14
33.2990,0.08,0.11,-1.00,3.11,4.09,2.26
33.3150,0.07,0.11,-1.00,3.11,3.97,2.20
33.3310,0.07,0.11,-1.00,3.05,4.46,2.32
33.3480,0.07,0.11,-1.00,3.17,4.15,2.20
33.3630,0.07,0.11,-1.00,3.17,4.27,2.26
33.3770,0.07,0.11,-1.00,2.87,4.15,2.26
33.3930,0.07,0.11,-1.00,3.05,4.09,2.08
33.4090,0.07,0.11,-1.00,2.81,4.33,2.14
33.4180,0.07,0.11,-1.00,3.05,3.97,2.26
33.4310,0.07,0.11,-1.00,3.11,3.78,2.01
33.4540,0.07,0.11,-1.00,3.11,4.09,2.20
33.4700,0.08,0.11,-1.00,2.99,4.09,2.08
33.4860,0.07,0.11,-0.99,2.99,4.33,2.26
33.5010,0.08,0.11,-1.00,2.99,3.91,2.20
33.5090,0.07,0.11,-1.00,3.17,4.15,2.08
33.5240,0.07,0.11,-0.99,3.11,3.72,2.08
33.5450,0.07,0.11,-1.00,3.11,4.09,2.20
33.5610,0.07,0.11,-1.00,2.81,4.15,2.01
33.5770,0.07,0.11,-1.00,3.05,4.15,2.26
33.5920,0.07,0.11,-1.00,3.11,4.09,2.26
33.6060,0.07,0.11,-1.00,3.05,4.21,2.20
33.6220,0.07,0.11,-0.99,3.05,4.03,2.20
33.6380,0.07,0.11,-1.00,3.05,4.33,2.38
33.6540,0.07,0.11,-1.00,2.81,4.09,2.26
33.6690,0.07,0.11,-1.00,3.30,4.39,2.20
33.6840,0.07,0.11,-1.00,3.11,4.15,2.14
33.6950,0.07,0.11,-1.00,2.99,4.15,2.14
33.7110,0.07,0.11,-1.00,2.99,3.85,2.08
33.7280,0.07,0.11,-1.00,3.05,4.09,2.20
33.7440,0.07,0.11,-1.00,3.05,4.27,2.26
33.7600,0.07,0.11,-1.00,2.93,3.91,2.20
33.7750,0.07,0.11,-1.00,2.75,3.97,2.14
33.7910,0.07,0.11,-0.99,2.93,4.03,2.26
33.8070,0.07,0.11,-1.00,3.11,4.33,2.14
33.8230,0.07,0.11,-1.00,3.11,4.03,2.14
33.8380,0.08,0.11,-0.99,3.05,4.03,2.14
33.8540,0.08,0.11,-0.99,2.93,3.91,2.26
33.8690,0.07,0.11,-1.00,2.93,4.15,2.26
33.8790,0.07,0.11,-1.00,2.99,4.27,2.20
33.8950,0.07,0.11,-1.00,3.17,3.60,2.14
33.9120,0.08,0.11,-1.00,2.99,4.15,2.08
33.9280,0.07,0.11,-1.00,3.11,3.97,2.08
33.9450,0.07,0.11,-1.00,3.05,4.15,2.08
33.9610,0.07,0.11,-1.00,2.87,4.09,2.20
33.9770,0.07,0.11,-1.00,3.11,4.09,2.20
33.9790,0.07,0.11,-1.00,2.93,3.85,2.20
34.0090,0.07,0.11,-1.00,3.17,4.21,2.20
34.0190,0.07,0.11,-1.00,3.05,4.15,2.14
34.0280,0.07,0.11,-1.00,2.99,4.03,2.20
34.0510,0.07,0.11,-1.00,3.05,3.97,2.14
34.0670,0.07,0.11,-1.00,3.23,3.91,2.14
34.0840,0.07,0.11,-1.00,3.05,3.91,2.20
34.1000,0.08,0.11,-1.00,2.93,3.97,2.20
34.1170,0.07,0.11,-1.00,2.87,3.97,2.08
34.1330,0.08,0.11,-1.00,3.17,4.21,2.26
34.1490,0.07,0.11,-1.00,2.99,4.33,2.14
34.1650,0.07,0.11,-1.00,3.23,4.09,2.32
34.1800,0.07,0.11,-1.00,3.05,4.09,2.38
34.1840,0.08,0.11,-1.00,3.17,4.03,2.20
34.2000,0.07,0.11,-1.00,3.30,3.72,2.26
34.2210,0.07,0.11,-1.00,3.11,4.15,2.14
34.2370,0.07,0.11,-1.00,3.23,3.91,2.01
34.2540,0.07,0.11,-1.00,2.99,4.03,2.26
34.2720,0.07,0.11,-1.00,2.87,3.72,2.20
34.2880,0.07,0.11,-1.00,2.93,3.97,2.08
34.3030,0.07,0.11,-1.00,2.87,4.09,2.32
34.3190,0.07,0.11,-1.00,3.23,3.97,2.26
34.3350,0.07,0.11,-1.00,3.11,4.52,2.14
34.3380,0.07,0.11,-1.00,2.99,3.72,2.32
34.3530,0.08,0.11,-0.99,3.11,4.15,2.20
34.3760,0.08,0.11,-0.99,3.11,4.27,2.08
34.3930,0.07,0.11,-1.00,3.11,4.15,2.14
34.4090,0.07,0.11,-1.00,2.93,4.21,2.20
34.4260,0.07,0.11,-1.00,2.99,4.09,2.26
34.4430,0.07,0.11,-1.00,2.99,3.78,2.01
34.4590,0.07,0.11,-1.00,3.11,3.97,2.20
34.4750,0.07,0.11,-1.00,3.23,3.97,2.08
34.4910,0.07,0.11,-1.00,3.05,4.09,2.14
34.5060,0.07,0.11,-1.00,3.11,4.03,2.26
34.5210,0.08,0.11,-1.00,3.05,4.03,2.14
34.5270,0.08,0.11,-1.00,3.11,3.91,2.14
34.5430,0.07,0.11,-1.00,3.17,4.03,2.26
34.5670,0.07,0.11,-1.00,3.23,4.15,2.08
34.5830,0.08,0.11,-1.00,2.87,4.09,2.26
34.6000,0.07,0.11,-1.00,2.99,4.21,2.20
34.6150,0.07,0.11,-1.00,2.99,4.09,2.08
34.6320,0.07,0.11,-1.00,3.23,4.03,2.14
34.6470,0.07,0.11,-1.00,3.11,4.03,2.26
34.6620,0.07,0.11,-1.00,3.17,3.97,2.32
34.6660,0.07,0.11,-1.00,3.30,3.91,2.20
34.6820,0.07,0.11,-1.00,3.11,4.03,2.14
34.7040,0.08,0.11,-1.00,2.99,4.03,2.08
34.7210,0.07,0.12,-1.00,3.11,3.97,2.14
34.7380,0.07,0.12,-1.00,3.11,3.78,1.95
34.7540,0.07,0.11,-1.00,3.30,3.91,2.20
34.7710,0.07,0.11,-1.00,2.99,4.03,2.32
34.7860,0.07,0.11,-0.99,2.93,4.03,2.32
34.8020,0.07,0.11,-1.00,3.11,4.03,2.32
34.8180,0.07,0.11,-1.00,3.05,3.85,2.32
34.8340,0.07,0.11,-1.00,3.23,4.39,2.26
34.8390,0.07,0.11,-1.00,3.17,3.97,2.08
34.8550,0.07,0.11,-1.00,2.93,3.78,2.14
34.8700,0.08,0.11,-1.00,3.11,4.21,2.20
34.8920,0.07,0.11,-1.00,2.87,3.72,2.08
34.9090,0.07,0.11,-1.00,2.99,4.03,2.14
34.9250,0.07,0.11,-1.00,2.99,4.27,2.08
34.9410,0.07,0.11,-1.00,3.11,4.09,2.20
34.9560,0.07,0.11,-0.99,3.17,4.09,2.26
34.9730,0.07,0.11,-1.00,2.93,4.03,2.20
34.9890,0.07,0.11,-1.00,3.11,4.39,2.20
35.0050,0.07,0.11,-1.00,3.17,4.03,2.26
35.0210,0.07,0.11,-1.00,3.42,3.78,2.26
35.0370,0.07,0.11,-1.00,3.05,3.78,2.08
35.0440,0.07,0.11,-1.00,2.99,4.09,2.26
35.0670,0.07,0.11,-1.00,3.17,3.97,2.20
35.0820,0.07,0.11,-1.00,3.05,3.91,2.20
35.0930,0.07,0.11,-1.00,3.05,3.97,2.38
35.1080,0.07,0.11,-0.99,3.17,4.09,2.20
35.1280,0.08,0.11,-1.00,2.99,3.91,2.32
35.1430,0.07,0.11,-0.99,2.99,4.33,2.32
35.1590,0.07,0.11,-1.00,2.93,3.91,2.20
35.1640,0.07,0.11,-1.00,3.17,4.09,2.08
35.1800,0.07,0.11,-1.00,3.11,3.91,2.20
35.2040,0.08,0.11,-1.00,3.11,4.03,2.14
35.2200,0.08,0.12,-0.99,3.05,4.09,2.14
35.2360,0.07,0.11,-1.00,3.11,3.97,2.20
35.2380,0.07,0.11,-1.00,3.30,4.15,2.20
35.2680,0.07,0.11,-1.00,3.23,3.97,2.32
35.2700,0.07,0.11,-1.00,3.23,3.91,2.08
35.2990,0.07,0.11,-1.00,3.05,4.21,2.08
35.3080,0.07,0.11,-1.00,2.99,3.78,2.26
35.3240,0.07,0.11,-1.00,2.99,4.03,2.32
35.3400,0.07,0.11,-1.00,2.99,3.91,2.20
35.3590,0.08,0.11,-1.00,3.17,4.03,2.26
35.3730,0.08,0.11,-1.00,2.87,4.03,2.14
35.3900,0.08,0.12,-0.99,3.30,3.97,2.14
35.4070,0.07,0.11,-1.00,3.17,3.78,2.20
35.4230,0.07,0.11,-0.99,3.17,3.91,2.08
35.4380,0.07,0.11,-1.00,3.11,3.97,2.14
35.4530,0.07,0.11,-1.00,3.23,3.91,2.08
35.4570,0.07,0.11,-1.00,2.93,4.70,2.14
35.4730,0.07,0.11,-1.00,3.05,4.27,2.14
35.4980,0.07,0.11,-1.00,3.11,4.09,2.14
35.5140,0.07,0.11,-1.00,2.93,3.97,2.14
35.5300,0.08,0.11,-1.00,3.30,4.15,2.14
35.5460,0.07,0.11,-1.00,3.05,4.15,2.08
35.5620,0.07,0.11,-0.99,3.17,4.15,2.14
35.5770,0.07,0.11,-0.99,3.23,3.97,2.14
35.5920,0.08,0.11,-1.00,3.17,4.03,2.20
35.6080,0.07,0.11,-1.00,3.05,4.03,2.32
35.6230,0.07,0.11,-1.00,3.17,4.21,2.32
35.6390,0.07,0.11,-1.00,3.05,3.97,2.32
35.6490,0.07,0.11,-1.00,3.17,4.03,2.08
35.6660,0.07,0.11,-1.00,2.93,3.97,2.14
35.6820,0.07,0.11,-1.00,3.05,4.33,2.26
35.6990,0.07,0.11,-1.00,3.11,3.85,2.14
35.7160,0.07,0.11,-1.00,3.42,3.97,2.20
35.7320,0.07,0.11,-1.00,3.23,4.33,2.20
35.7480,0.07,0.11,-1.00,3.11,4.03,2.26
35.7640,0.07,0.11,-1.00,3.17,3.85,2.14
35.7790,0.07,0.12,-0.99,3.05,4.03,2.14
35.7820,0.08,0.12,-0.99,2.99,4.03,2.20
35.7980,0.08,0.11,-1.00,3.23,3.91,2.14
35.8230,0.08,0.11,-1.00,3.05,3.85,1.89
35.8400,0.08,0.11,-1.00,3.30,4.09,1.95
35.8560,0.07,0.11,-0.99,3.05,4.09,2.08
35.8720,0.07,0.11,-0.99,2.87,4.09,2.08
35.8880,0.08,0.11,-1.00,3.05,4.03,2.01
35.9050,0.07,0.11,-1.00,3.05,4.15,1.95
35.9190,0.08,0.11,-1.00,2.99,3.91,1.89
35.9350,0.07,0.11,-1.00,3.05,3.78,1.95
35.9510,0.07,0.11,-1.00,3.17,3.66,2.08
35.9670,0.07,0.11,-1.00,3.17,3.78,2.01
35.9840,0.08,0.11,-1.00,3.42,4.21,1.89
36.0000,0.08,0.11,-1.00,2.93,4.03,2.01
36.0070,0.07,0.11,-1.00,2.93,3.78,2.14
36.0240,0.07,0.11,-0.99,3.05,3.91,2.14
36.0400,0.08,0.11,-1.00,3.17,3.97,2.08
36.0570,0.07,0.11,-1.00,3.36,3.97,2.08
36.0740,0.07,0.11,-1.00,3.17,4.03,2.32
36.0900,0.07,0.11,-0.99,3.17,3.78,2.08
36.1060,0.07,0.11,-1.00,3.17,4.03,2.26
36.1220,0.07,0.11,-1.00,3.05,3.66,2.08
36.1390,0.07,0.11,-1.00,2.93,4.15,2.14
36.1540,0.07,0.11,-1.00,3.11,4.09,2.14
36.1570,0.07,0.12,-0.99,2.99,3.97,2.14
36.1720,0.07,0.11,-1.00,3.11,4.27,2.14
36.1960,0.07,0.11,-1.00,2.93,3.97,2.08
36.2130,0.07,0.11,-0.99,3.17,3.85,2.08
36.2290,0.07,0.11,-1.00,3.05,4.21,2.20
36.2470,0.08,0.11,-1.00,2.93,4.27,2.01
36.2620,0.07,0.11,-1.00,2.93,4.15,2.20
36.2770,0.07,0.11,-1.00,2.99,4.33,2.26
36.2930,0.07,0.11,-1.00,3.05,4.09,2.14
36.2970,0.07,0.11,-1.00,3.23,3.78,2.08
36.3210,0.07,0.11,-1.00,3.05,3.60,2.14
36.3350,0.07,0.11,-0.99,3.23,4.09,2.08
36.3510,0.07,0.11,-1.00,3.05,4.15,2.08
36.3680,0.08,0.12,-1.00,2.99,4.21,2.14
36.3840,0.07,0.11,-1.00,3.11,4.21,2.08
36.4000,0.08,0.12,-0.99,3.05,4.15,1.77
36.4170,0.07,0.12,-1.00,3.17,4.39,1.59
36.4320,0.07,0.11,-1.00,3.17,3.78,2.26
36.4350,0.07,0.11,-1.00,3.05,3.85,2.56
36.4500,0.07,0.11,-1.00,3.23,3.60,2.44
36.4740,0.08,0.11,-1.00,3.11,3.97,2.44
36.4920,0.07,0.12,-1.00,2.99,3.78,1.83
36.5070,0.07,0.12,-1.00,3.11,4.15,1.95
36.5230,0.07,0.11,-1.00,3.23,3.72,2.26
36.5380,0.08,0.11,-1.00,3.05,4.21,2.56
36.5410,0.07,0.11,-1.00,2.99,4.27,2.62
36.5580,0.07,0.11,-1.00,2.81,4.21,2.56
36.5830,0.07,0.12,-0.99,2.99,4.03,2.26
36.5980,0.07,0.12,-1.00,3.36,3.97,2.26
36.6080,0.07,0.11,-1.00,2.99,3.85,2.26
36.6260,0.07,0.11,-1.00,3.17,4.03,2.56
36.6400,0.08,0.12,-1.00,3.17,3.91,2.75
36.6580,0.07,0.11,-1.00,2.87,4.21,2.69
36.6740,0.07,0.11,-1.00,3.05,4.09,2.56
36.6890,0.07,0.11,-1.00,3.05,3.91,2.69
36.6910,0.07,0.11,-0.99,2.93,4.15,2.69
36.7190,0.07,0.11,-1.00,2.93,4.03,2.93
36.7250,0.07,0.12,-1.00,3.05,3.91,2.93
36.7400,0.07,0.11,-1.00,2.99,3.97,2.87
36.7560,0.07,0.11,-1.00,2.99,3.85,2.87
36.7790,0.07,0.11,-1.00,3.11,3.78,2.62
36.7930,0.08,0.11,-1.00,3.23,3.91,2.32
36.8090,0.07,0.12,-0.99,3.17,3.72,2.44
36.8220,0.07,0.12,-1.00,3.17,3.78,2.62
36.8310,0.07,0.11,-1.00,2.93,3.78,2.81
36.8560,0.07,0.11,-1.00,3.05,3.97,2.62
36.8570,0.07,0.11,-1.00,3.17,4.03,2.62
36.8880,0.07,0.11,-1.00,3.23,4.09,2.62
36.8900,0.07,0.11,-1.00,2.87,4.03,2.69
36.9190,0.07,0.12,-1.00,2.93,4.03,2.62
36.9350,0.07,0.12,-0.99,2.99,3.91,2.93
36.9400,0.08,0.11,-1.00,3.05,3.97,3.17
36.9670,0.08,0.11,-1.00,3.17,3.66,3.11
36.9730,0.07,0.11,-1.00,3.05,3.60,3.05
36.9990,0.08,0.11,-1.00,3.30,3.91,2.44
37.0070,0.08,0.11,-1.00,3.23,3.85,2.26
37.0240,0.07,0.11,-0.99,3.05,3.97,2.14
37.0400,0.07,0.11,-1.00,3.11,4.09,2.50
37.0570,0.07,0.11,-1.00,3.17,4.09,2.56
37.0720,0.08,0.11,-1.00,2.99,3.78,2.81
37.0900,0.07,0.11,-1.00,3.11,3.85,2.69
37.1060,0.07,0.11,-1.00,2.93,4.15,2.44
37.1230,0.07,0.12,-1.00,2.99,4.03,2.44
37.1240,0.07,0.11,-1.00,3.05,4.03,2.56
37.1530,0.07,0.11,-1.00,2.93,3.85,2.75
37.1690,0.07,0.11,-1.00,2.81,4.15,2.69
37.1850,0.07,0.12,-0.99,2.93,4.03,2.62
37.1890,0.07,0.12,-1.00,2.87,3.72,2.99
37.2050,0.07,0.11,-1.00,3.05,3.85,3.36
37.2230,0.07,0.12,-1.00,3.05,3.78,3.17
37.2460,0.07,0.11,-1.00,2.87,3.48,3.11
37.2630,0.07,0.11,-1.00,3.05,4.21,2.99
37.2800,0.07,0.12,-1.00,3.17,4.15,3.11
37.2960,0.07,0.12,-1.00,3.11,4.03,3.48
37.3120,0.08,0.10,-1.00,3.05,3.85,3.85
37.3280,0.07,0.11,-1.00,3.05,3.91,3.54
37.3430,0.08,0.11,-1.00,3.05,3.85,3.42
37.3460,0.08,0.11,-1.00,2.99,3.54,3.30
37.3620,0.08,0.11,-1.00,2.93,3.48,2.99
37.3850,0.08,0.12,-1.00,2.93,4.03,3.05
37.4010,0.07,0.11,-1.00,3.11,3.66,3.17
37.4170,0.07,0.11,-1.00,3.05,3.72,3.05
37.4340,0.07,0.11,-1.00,3.11,3.60,3.11
37.4510,0.07,0.12,-0.99,3.17,4.03,3.42
37.4670,0.08,0.11,-0.99,2.99,3.66,3.60
37.4830,0.07,0.11,-1.00,2.87,3.85,3.17
37.4980,0.07,0.11,-1.00,2.87,3.97,2.87
37.5000,0.07,0.11,-1.00,3.17,3.72,2.81
37.5230,0.07,0.12,-0.99,3.23,3.66,2.99
37.5390,0.08,0.12,-0.99,3.05,4.03,2.93
37.5560,0.07,0.12,-1.00,2.87,3.85,3.23
37.5730,0.08,0.12,-0.99,2.93,3.78,3.42
37.5880,0.07,0.12,-0.99,2.99,3.91,3.66
37.6040,0.08,0.12,-0.99,2.87,3.72,3.85
37.6060,0.08,0.11,-1.00,3.11,3.85,3.66
37.6350,0.07,0.11,-1.00,2.81,4.33,3.36
37.6500,0.07,0.11,-1.00,2.93,3.66,3.17
37.6660,0.08,0.11,-1.00,2.87,3.97,3.23
37.6810,0.08,0.11,-1.00,2.99,3.54,3.48
37.6960,0.08,0.12,-0.99,2.93,3.85,3.48
37.7060,0.07,0.11,-1.00,3.17,3.97,3.30
37.7230,0.07,0.12,-1.00,2.93,4.15,3.05
37.7400,0.08,0.12,-1.00,3.30,3.97,2.93
37.7550,0.08,0.12,-0.99,3.11,3.97,3.11
37.7620,0.08,0.11,-0.99,3.17,3.97,3.48
37.7780,0.07,0.11,-1.00,2.93,4.21,2.93
37.8000,0.07,0.11,-1.00,3.17,3.72,2.44
37.8160,0.07,0.11,-1.00,3.11,3.66,2.50
37.8240,0.07,0.11,-1.00,3.17,3.97,2.32
37.8340,0.07,0.11,-1.00,3.11,3.72,2.26
37.8630,0.08,0.11,-1.00,3.05,3.91,2.14
37.8660,0.07,0.11,-1.00,3.30,4.03,2.14
37.8960,0.07,0.11,-1.00,3.17,4.03,1.95
37.9030,0.07,0.11,-1.00,3.17,4.03,2.14
37.9230,0.07,0.11,-1.00,3.17,4.15,2.32
37.9360,0.08,0.11,-1.00,3.17,4.21,2.14
37.9530,0.08,0.11,-1.00,3.23,4.27,2.01
37.9690,0.07,0.11,-1.00,2.93,4.15,2.14
37.9860,0.07,0.11,-1.00,3.05,4.03,1.89
38.0030,0.07,0.11,-1.00,3.11,4.15,2.08
38.0040,0.08,0.11,-1.00,3.17,3.91,2.14
38.0240,0.08,0.11,-1.00,2.93,3.85,2.26
38.0360,0.08,0.11,-1.00,2.93,3.97,2.20
38.0660,0.08,0.12,-1.00,2.93,4.27,2.08
38.0690,0.08,0.11,-1.00,3.11,3.97,1.65
38.0980,0.07,0.12,-1.00,3.17,4.27,0.79
38.1030,0.08,0.11,-1.00,3.48,4.21,0.18
38.1240,0.08,0.11,-1.00,3.36,4.33,0.00
38.1370,0.08,0.11,-0.99,2.87,4.39,-0.67
38.1540,0.07,0.11,-1.00,3.17,4.52,-1.53
38.1710,0.07,0.10,-1.00,3.17,4.76,-1.16
38.1860,0.07,0.11,-1.00,3.11,4.52,-0.37
38.2030,0.08,0.11,-1.00,3.17,4.52,-0.37
38.2210,0.07,0.11,-1.00,3.30,4.33,-0.73
38.2370,0.08,0.10,-1.00,3.30,4.58,-0.73
38.2520,0.07,0.09,-1.00,3.17,4.58,-1.89
38.2690,0.07,0.11,-1.00,3.17,4.94,-2.08
38.2700,0.08,0.11,-1.00,3.36,4.64,-1.95
38.3010,0.08,0.11,-0.99,3.05,4.52,-2.32
38.3170,0.07,0.12,-1.00,3.23,4.70,-2.32
38.3320,0.07,0.13,-0.99,3.11,4.46,-0.67
38.3370,0.08,0.12,-1.00,3.11,4.46,0.67
38.3650,0.07,0.11,-1.00,3.11,4.39,0.31
38.3690,0.07,0.10,-1.00,3.11,4.33,-0.18
38.3850,0.08,0.10,-1.00,3.17,4.27,-0.67
38.4080,0.07,0.10,-1.00,3.11,4.46,-1.53
38.4250,0.08,0.11,-0.99,3.17,4.46,-2.01
38.4410,0.07,0.11,-1.00,3.11,4.58,-2.20
38.4430,0.07,0.13,-0.99,3.60,4.52,-1.95
38.4720,0.07,0.14,-0.99,3.17,4.15,0.49
38.4870,0.07,0.13,-0.99,2.93,4.15,1.04
38.5020,0.07,0.11,-1.00,2.99,4.03,1.22
38.5160,0.07,0.11,-1.00,3.11,4.15,1.04
38.5270,0.07,0.11,-1.00,3.23,4.09,1.22
38.5420,0.07,0.12,-1.00,3.05,4.09,1.65
38.5620,0.07,0.12,-0.99,2.99,4.21,1.83
38.5660,0.07,0.12,-1.00,2.93,4.39,2.50
38.5830,0.07,0.11,-1.00,3.05,3.91,2.81
38.6060,0.07,0.11,-1.00,2.75,3.91,2.99
38.6170,0.07,0.11,-1.00,2.62,4.03,2.99
38.6320,0.07,0.11,-1.00,3.11,3.97,3.30
38.6530,0.07,0.11,-0.99,2.56,3.97,3.78
38.6550,0.08,0.12,-1.00,2.69,3.60,3.30
38.6700,0.08,0.11,-1.00,2.87,3.85,3.23
38.6940,0.08,0.11,-1.00,2.99,4.09,3.17
38.7100,0.07,0.12,-1.00,2.87,3.66,3.05
38.7270,0.07,0.11,-0.99,2.44,3.91,3.60
38.7430,0.07,0.11,-1.00,2.50,3.66,4.27
38.7590,0.08,0.11,-1.00,3.48,3.48,4.09
38.7750,0.08,0.11,-1.00,3.36,3.85,2.93
38.7910,0.07,0.11,-1.00,3.36,4.03,2.69
38.7940,0.07,0.11,-1.00,3.11,4.27,2.69
38.8100,0.07,0.11,-1.00,3.17,3.97,2.56
38.8330,0.07,0.11,-1.00,2.50,4.15,2.38
38.8510,0.07,0.11,-0.99,2.44,3.91,3.36
38.8670,0.07,0.11,-0.99,2.75,3.54,3.48
38.8820,0.08,0.11,-0.99,3.42,3.97,3.23
38.8990,0.08,0.12,-1.00,4.03,3.54,2.81
38.9150,0.08,0.11,-0.99,3.17,3.91,2.62
38.9310,0.07,0.11,-1.00,3.72,4.09,2.38
38.9450,0.07,0.11,-1.00,3.23,4.03,2.20
38.9610,0.07,0.11,-1.00,2.99,3.97,2.26
38.9660,0.08,0.11,-1.00,2.93,3.85,2.20
38.9820,0.08,0.11,-1.00,3.36,4.09,2.26
39.0050,0.07,0.11,-1.00,3.11,3.72,2.32
39.0210,0.07,0.11,-1.00,3.11,4.03,2.08
39.0370,0.07,0.11,-1.00,3.48,4.09,2.08
39.0530,0.07,0.11,-1.00,3.17,4.27,1.95
39.0690,0.07,0.11,-1.00,3.36,3.85,2.14
39.0860,0.08,0.11,-1.00,3.42,4.21,2.20
39.1010,0.07,0.11,-0.99,3.36,3.85,1.89
39.1040,0.07,0.11,-1.00,3.11,3.85,2.20
39.1320,0.07,0.11,-0.98,2.62,4.09,2.20
39.1480,0.07,0.11,-0.99,2.87,3.85,2.20
39.1650,0.08,0.11,-1.00,3.05,3.97,2.26
39.1710,0.07,0.11,-0.97,3.30,3.60,2.14
39.1950,0.07,0.11,-1.00,3.17,3.66,2.62
39.2040,0.08,0.11,-1.00,2.81,4.27,2.62
39.2210,0.07,0.11,-1.01,3.23,4.03,2.44
39.2370,0.07,0.11,-0.99,3.30,3.85,2.44
39.2540,0.08,0.11,-1.00,3.17,4.27,2.93
39.2710,0.08,0.11,-0.99,3.05,3.97,2.32
39.2870,0.07,0.12,-1.00,3.36,3.60,2.14
39.3040,0.07,0.11,-0.99,3.30,3.42,2.08
39.3190,0.08,0.12,-0.99,3.97,3.72,2.38
39.3350,0.08,0.12,-1.00,3.48,3.72,2.08
39.3510,0.08,0.11,-1.00,3.23,3.97,2.01
39.3670,0.07,0.11,-0.99,3.42,4.09,2.20
39.3830,0.07,0.11,-1.00,3.05,3.97,2.26
39.3980,0.07,0.11,-1.00,2.75,4.15,2.20
39.4140,0.07,0.11,-1.00,2.62,4.52,2.14
39.4260,0.07,0.11,-0.99,2.93,4.21,2.08
39.4360,0.07,0.11,-1.00,2.56,4.46,2.08
39.4540,0.07,0.11,-0.99,2.81,3.97,2.08
39.4700,0.07,0.11,-1.00,3.23,4.15,2.20
39.4870,0.07,0.11,-1.00,2.93,4.09,2.14
39.5030,0.07,0.11,-0.99,3.05,4.03,2.26
39.5190,0.08,0.11,-1.00,2.81,4.09,2.08
39.5340,0.07,0.11,-0.99,3.05,4.09,2.32
39.5490,0.07,0.11,-1.00,2.93,3.97,2.26
39.5640,0.07,0.11,-1.00,2.62,4.15,2.20
39.5710,0.07,0.11,-1.00,3.05,4.27,2.20
39.5870,0.07,0.11,-0.99,2.93,4.03,2.14
39.6040,0.07,0.11,-1.00,3.23,3.97,2.14
39.6200,0.07,0.11,-1.00,2.93,4.03,2.20
39.6370,0.07,0.11,-1.00,3.05,3.78,2.20
39.6540,0.07,0.11,-1.00,2.99,4.27,2.14
39.6690,0.07,0.11,-1.00,2.93,3.66,2.14
39.6840,0.07,0.11,-1.00,2.93,4.15,2.14
39.6990,0.07,0.11,-1.00,2.93,4.03,2.26
39.7140,0.07,0.11,-1.00,2.93,4.03,2.26
39.7290,0.08,0.11,-1.00,3.05,4.27,2.26
39.7370,0.07,0.11,-1.00,2.87,3.91,2.26
39.7540,0.07,0.11,-1.00,3.11,4.03,2.14
39.7700,0.07,0.11,-1.00,3.05,4.03,2.26
39.7890,0.07,0.11,-1.00,2.99,4.21,2.26
39.8050,0.07,0.11,-1.00,2.99,4.21,2.26
39.8050,0.07,0.11,-1.00,3.11,3.91,2.14
39.8340,0.07,0.11,-1.00,3.17,3.91,2.26
39.8510,0.07,0.11,-1.00,3.17,3.85,2.20
39.8540,0.07,0.11,-1.00,3.05,3.91,2.08
39.8700,0.07,0.11,-1.00,3.23,3.85,2.14
39.8950,0.07,0.11,-0.99,3.17,4.15,2.08
39.9120,0.07,0.11,-1.00,2.99,3.91,2.20
39.9280,0.07,0.11,-0.99,3.05,4.27,2.08
39.9280,0.07,0.11,-0.99,2.93,3.97,2.14
39.9590,0.07,0.11,-1.00,3.17,4.09,2.08
39.9750,0.07,0.11,-1.00,2.93,4.03,2.14
39.9780,0.08,0.11,-1.00,2.93,4.39,1.95
39.9930,0.08,0.11,-0.99,3.23,4.21,1.77
40.0170,0.08,0.11,-1.00,3.30,3.78,1.40
40.0340,0.07,0.11,-1.00,3.23,4.03,1.40
40.0500,0.07,0.11,-1.00,3.30,3.97,0.92
40.0670,0.07,0.11,-1.00,3.36,4.09,1.04
40.0830,0.07,0.11,-1.00,3.17,3.85,1.83
40.0840,0.08,0.11,-1.00,3.48,3.97,1.77
40.1140,0.08,0.11,-1.00,3.42,4.03,1.71
40.1300,0.08,0.12,-1.00,3.36,4.03,1.71
40.1460,0.08,0.12,-1.00,3.17,4.09,1.77
40.1610,0.08,0.11,-1.00,3.11,4.09,1.83
40.1680,0.07,0.11,-1.00,3.11,3.97,1.71
40.1850,0.07,0.11,-1.00,3.23,4.15,1.95
40.2010,0.07,0.11,-1.00,3.05,3.97,1.95
40.2170,0.08,0.11,-0.99,2.99,4.03,2.01
40.2340,0.07,0.11,-1.00,2.81,3.97,1.89
40.2510,0.07,0.11,-1.00,2.99,3.72,2.01
40.2670,0.08,0.11,-1.00,2.93,4.03,2.14
40.2840,0.07,0.11,-1.00,3.11,3.91,2.26
40.2990,0.08,0.11,-1.00,2.87,4.46,2.32
40.3160,0.08,0.11,-1.00,2.99,4.03,2.14
40.3270,0.08,0.11,-1.00,2.99,3.78,2.32
40.3470,0.08,0.11,-1.00,3.05,4.33,2.38
40.3620,0.08,0.11,-1.00,3.05,3.85,2.32
40.3790,0.07,0.11,-1.00,3.23,3.78,2.14
40.3840,0.07,0.11,-1.00,3.05,3.85,2.32
40.4000,0.07,0.11,-1.00,3.11,4.09,2.08
40.4170,0.07,0.11,-1.00,2.99,4.03,1.95
40.4340,0.07,0.11,-1.00,2.93,3.85,2.08
40.4510,0.07,0.11,-1.00,3.05,3.91,2.08
40.4660,0.07,0.11,-1.00,3.17,3.72,1.95
40.4850,0.07,0.11,-0.99,3.11,4.09,2.38
40.5000,0.08,0.12,-0.99,3.17,4.33,2.50
40.5060,0.07,0.11,-1.00,3.11,4.09,2.56
40.5270,0.08,0.11,-1.00,2.93,3.91,2.81
40.5390,0.07,0.11,-0.99,2.99,4.03,2.81
40.5560,0.08,0.11,-1.00,3.23,3.91,2.38
40.5720,0.07,0.11,-1.00,3.23,4.03,2.20
40.5920,0.07,0.11,-1.00,3.11,4.33,2.14
40.5940,0.07,0.11,-0.99,3.05,3.91,2.14
40.6240,0.07,0.12,-1.00,2.93,4.09,2.50
40.6390,0.07,0.12,-0.99,3.11,3.78,3.11
40.6550,0.08,0.11,-0.99,2.93,3.78,3.36
40.6720,0.07,0.11,-1.00,3.05,4.39,3.05
40.6760,0.07,0.12,-1.00,3.23,3.85,2.69
40.7020,0.07,0.11,-0.99,3.05,3.91,2.32
40.7120,0.07,0.11,-0.99,3.11,4.15,2.50
40.7290,0.07,0.11,-1.00,2.81,3.97,2.81
40.7460,0.07,0.11,-1.00,2.93,3.85,3.30
40.7630,0.07,0.11,-1.00,2.93,3.85,2.99
40.7780,0.07,0.10,-1.00,2.99,3.72,2.69
40.7940,0.07,0.10,-1.00,3.11,3.78,2.32
40.7960,0.07,0.11,-1.00,3.17,3.66,2.14
40.8120,0.08,0.11,-1.00,3.05,3.85,2.14
40.8270,0.08,0.11,-1.00,3.11,3.85,2.14
40.8510,0.07,0.12,-1.00,3.11,4.09,2.14
40.8680,0.07,0.12,-1.00,2.87,4.15,2.38
40.8840,0.07,0.11,-1.00,3.05,4.09,2.69
40.9010,0.07,0.11,-1.00,2.99,3.97,2.75
40.9170,0.07,0.11,-1.00,3.17,3.97,2.56
40.9330,0.08,0.11,-1.00,3.36,4.09,2.26
40.9490,0.07,0.11,-1.00,3.30,4.15,2.20
40.9520,0.07,0.11,-1.00,3.23,4.21,2.14
40.9670,0.07,0.12,-1.00,3.11,3.78,2.08
40.9910,0.08,0.12,-0.99,3.17,4.03,1.83
41.0070,0.07,0.12,-0.99,3.36,4.09,2.08
41.0220,0.08,0.11,-1.00,3.23,4.15,2.81
41.0390,0.08,0.11,-1.00,3.17,3.78,2.56
41.0540,0.08,0.11,-1.00,3.36,3.91,2.38
41.0680,0.08,0.11,-1.00,3.11,3.91,2.32
41.0800,0.08,0.12,-1.00,2.99,4.21,2.08
41.0970,0.07,0.12,-1.00,3.23,4.21,1.95
41.1130,0.07,0.10,-1.00,3.23,3.97,2.62
41.1300,0.08,0.11,-1.00,3.23,4.21,2.26
41.1460,0.07,0.11,-1.00,3.05,3.72,2.08
41.1620,0.07,0.11,-1.00,2.87,3.97,2.14
41.1780,0.07,0.11,-1.00,3.17,4.21,2.14
41.1940,0.07,0.11,-1.00,2.87,4.39,2.26
41.2090,0.07,0.11,-0.99,2.99,3.85,2.08
41.2130,0.07,0.11,-1.00,2.93,4.27,2.14
41.2280,0.07,0.11,-1.00,3.05,3.97,2.26
41.2530,0.07,0.11,-1.00,2.93,4.03,2.08
41.2710,0.07,0.11,-1.00,3.05,4.03,2.08
41.2860,0.07,0.11,-1.00,3.23,3.85,2.14
41.3020,0.07,0.11,-1.00,2.93,4.03,2.08
41.3180,0.08,0.11,-0.99,2.99,4.09,2.14
41.3350,0.07,0.11,-1.00,3.17,4.39,2.14
41.3510,0.07,0.11,-1.00,3.17,3.85,2.20
41.3530,0.08,0.11,-0.99,2.93,3.91,2.32
41.3700,0.08,0.11,-1.00,3.05,4.03,2.26
41.3870,0.08,0.11,-1.00,2.99,4.52,2.20
41.4030,0.08,0.11,-0.99,3.11,4.03,2.08
41.4290,0.07,0.11,-1.00,3.11,4.03,2.20
41.4420,0.07,0.11,-1.00,2.99,4.03,2.14
41.4580,0.08,0.12,-1.00,3.11,3.78,2.20
41.4750,0.07,0.11,-1.00,3.17,4.03,2.20
41.4900,0.08,0.11,-1.00,3.30,3.91,2.14
41.5070,0.07,0.11,-1.00,3.17,4.52,2.14
41.5220,0.08,0.12,-0.99,3.11,4.15,1.89
41.5380,0.07,0.12,-1.00,3.23,3.72,1.53
41.5540,0.08,0.12,-0.99,3.05,4.33,1.46
41.5700,0.08,0.12,-0.99,3.23,4.15,1.59
41.5750,0.07,0.11,-1.00,3.11,4.21,1.40
41.5910,0.08,0.11,-1.00,2.99,3.78,1.65
41.6150,0.07,0.11,-1.00,3.23,3.91,1.89
41.6310,0.08,0.12,-1.00,3.11,3.78,2.08
41.6470,0.07,0.11,-1.00,3.05,3.97,2.26
41.6630,0.08,0.11,-1.00,2.99,4.15,2.81
41.6790,0.07,0.11,-1.00,2.99,4.03,2.69
41.6940,0.07,0.11,-1.00,3.23,3.97,2.50
41.7090,0.07,0.11,-1.00,3.30,4.09,2.38
41.7250,0.08,0.11,-1.00,2.99,4.15,2.44
41.7400,0.08,0.12,-0.99,3.36,4.09,2.26
41.7550,0.07,0.11,-1.00,3.23,3.66,2.75
41.7640,0.07,0.11,-1.00,3.11,3.91,2.87
41.7800,0.07,0.12,-1.00,2.99,3.97,3.11
41.8010,0.08,0.12,-0.99,2.87,3.54,3.97
41.8170,0.08,0.11,-1.00,3.23,3.91,3.91
41.8290,0.07,0.11,-1.00,3.30,3.97,3.11
41.8380,0.07,0.11,-1.00,3.17,4.15,2.93
41.8580,0.08,0.11,-1.00,3.17,3.60,2.93
41.8760,0.08,0.11,-1.00,3.11,3.60,2.87
41.8920,0.07,0.11,-1.00,2.99,3.66,2.99
41.9070,0.07,0.11,-1.00,3.05,4.33,3.11
41.9230,0.07,0.11,-1.00,2.93,4.03,3.30
41.9390,0.08,0.11,-1.00,3.17,3.85,2.87
41.9550,0.07,0.11,-1.00,3.05,3.91,2.99
41.9710,0.08,0.12,-0.99,2.75,3.66,2.87
41.9870,0.07,0.12,-1.00,2.99,3.91,2.87
41.9930,0.07,0.12,-0.99,3.11,4.03,3.48
42.0190,0.07,0.12,-1.00,2.87,3.78,4.03
42.0290,0.08,0.11,-1.00,2.87,3.72,4.09
42.0410,0.07,0.10,-1.00,2.99,3.66,3.60
42.0660,0.07,0.10,-1.00,3.23,4.15,2.87
42.0670,0.07,0.11,-1.00,2.99,3.78,2.62
42.0970,0.07,0.11,-1.00,3.05,3.60,2.87
42.1120,0.07,0.11,-1.00,3.11,4.15,2.75
42.1280,0.08,0.12,-0.99,2.99,3.78,2.99
42.1440,0.08,0.12,-1.00,3.11,3.48,3.05
42.1600,0.07,0.11,-1.00,3.11,3.72,3.05
42.1750,0.07,0.11,-1.00,3.11,4.03,2.99
42.1900,0.07,0.11,-1.00,3.11,3.66,2.75
42.2050,0.08,0.12,-1.00,2.87,4.03,2.75
42.2160,0.08,0.12,-1.00,3.30,4.15,2.81
42.2330,0.08,0.11,-0.99,2.99,3.66,2.99
42.2480,0.08,0.11,-1.00,3.05,3.78,3.42
42.2660,0.08,0.12,-1.00,3.11,3.78,3.72
42.2820,0.07,0.11,-1.00,3.17,3.91,4.03
42.2970,0.07,0.11,-1.00,3.11,3.48,3.66
42.3130,0.07,0.11,-1.00,3.17,4.03,2.99
42.3290,0.07,0.11,-1.00,3.05,3.72,2.99
42.3430,0.08,0.12,-0.99,3.23,4.09,2.87
42.3490,0.07,0.12,-1.00,3.17,3.97,3.36
42.3650,0.07,0.12,-0.99,3.05,3.66,3.72
42.3880,0.08,0.12,-0.99,2.87,3.78,4.33
42.4050,0.07,0.11,-1.00,2.81,3.60,4.27
42.4060,0.07,0.10,-1.00,3.23,3.60,3.48
42.4370,0.07,0.11,-1.00,3.23,3.78,2.99
42.4390,0.07,0.11,-1.00,2.93,3.91,2.99
42.4560,0.08,0.11,-1.00,2.99,3.97,3.48
42.4720,0.07,0.11,-1.00,2.87,3.85,3.91
42.4890,0.07,0.11,-1.00,2.99,3.78,4.15
42.5050,0.08,0.11,-1.00,3.17,3.42,4.76
42.5300,0.07,0.11,-1.00,3.17,3.60,4.15
42.5430,0.08,0.11,-0.99,3.17,3.72,3.42
42.5610,0.07,0.11,-1.00,3.05,3.72,2.93
42.5770,0.07,0.11,-1.00,3.17,4.03,2.81
42.5770,0.07,0.11,-1.00,3.05,3.91,2.56
42.6070,0.07,0.12,-1.00,2.99,4.33,2.62
42.6230,0.08,0.12,-1.00,3.23,3.54,2.93
42.6380,0.07,0.12,-1.00,3.17,3.72,3.23
42.6440,0.07,0.11,-1.00,2.99,3.78,3.48
42.6710,0.07,0.11,-1.00,3.05,4.15,3.05
42.6870,0.07,0.11,-1.00,3.11,4.21,2.87
42.6940,0.08,0.12,-1.00,3.23,3.85,2.93
42.7170,0.07,0.11,-1.00,3.17,3.78,3.23
42.7310,0.08,0.11,-0.99,2.93,3.78,3.23
42.7430,0.08,0.11,-1.00,3.05,3.72,3.36
42.7610,0.08,0.11,-1.00,2.99,3.72,3.48
42.7760,0.08,0.12,-1.00,3.05,3.72,3.48
42.7920,0.08,0.12,-1.00,2.87,3.72,3.60
42.8010,0.07,0.11,-1.00,2.93,3.78,3.72
42.8170,0.07,0.11,-1.00,3.17,4.03,3.91
42.8340,0.08,0.11,-1.00,3.05,3.97,3.97
42.8500,0.08,0.11,-0.99,2.81,3.72,3.78
42.8670,0.08,0.11,-1.00,2.93,3.78,3.72
42.8840,0.07,0.11,-1.00,2.93,3.85,3.72
42.9000,0.07,0.11,-1.00,2.99,3.66,3.85
42.9160,0.07,0.11,-1.00,2.93,3.72,4.03
42.9330,0.08,0.11,-1.00,2.93,3.91,3.66
42.9490,0.07,0.11,-1.00,3.11,3.72,3.30
42.9650,0.08,0.11,-1.00,2.99,3.91,2.81
42.9810,0.07,0.11,-1.00,2.99,3.85,2.56
42.9830,0.07,0.11,-1.00,2.99,4.03,2.62
43.0120,0.08,0.12,-1.00,2.93,3.97,2.75
43.0220,0.08,0.12,-0.99,3.05,3.91,2.99
43.0400,0.08,0.11,-1.00,3.36,3.97,2.99
43.0550,0.08,0.11,-1.00,3.48,3.91,2.50
43.0730,0.08,0.11,-1.00,3.11,3.78,2.38
43.0890,0.07,0.11,-1.00,3.23,3.78,2.26
43.1040,0.07,0.11,-1.00,2.99,4.21,2.32
43.1060,0.07,0.11,-1.00,3.36,4.21,2.50
43.1370,0.07,0.11,-1.00,3.11,3.60,2.75
43.1530,0.08,0.11,-1.00,2.99,3.78,2.99
43.1560,0.08,0.12,-1.00,2.99,3.97,2.87
43.1730,0.08,0.11,-1.00,2.93,3.72,2.81
43.1880,0.07,0.11,-1.00,2.81,4.03,2.62
43.2120,0.07,0.11,-1.00,2.69,3.91,2.50
43.2310,0.07,0.11,-1.00,3.23,4.09,2.69
43.2450,0.08,0.11,-1.00,3.05,3.72,2.87
43.2610,0.07,0.11,-1.00,3.30,4.03,3.23
43.2750,0.07,0.11,-1.00,2.99,3.91,3.66
43.2910,0.07,0.11,-1.00,3.05,3.60,3.23
43.3070,0.08,0.12,-0.99,3.17,3.85,3.23
43.3230,0.08,0.12,-0.99,2.69,3.78,3.30
43.3310,0.08,0.12,-0.99,2.87,3.48,3.42
43.3450,0.08,0.11,-1.00,3.05,4.03,3.72
43.3700,0.08,0.12,-0.99,3.05,3.85,4.15
43.3850,0.08,0.12,-1.00,2.75,3.30,4.58
43.4020,0.07,0.11,-1.00,2.75,3.85,3.54
43.4180,0.07,0.11,-1.00,3.05,4.09,3.54
43.4310,0.07,0.11,-1.00,3.48,3.72,2.99
43.4360,0.07,0.12,-1.00,3.11,3.78,3.05
43.4610,0.08,0.12,-1.00,3.23,3.85,3.85
43.4770,0.08,0.12,-1.00,2.93,3.78,4.46
43.4940,0.08,0.11,-1.00,2.93,3.54,4.70
43.5100,0.08,0.11,-1.00,3.11,3.48,4.27
43.5250,0.08,0.11,-1.00,2.99,3.78,3.60
43.5410,0.08,0.11,-0.99,3.23,3.54,3.23
43.5440,0.07,0.11,-1.00,3.36,3.97,2.87
43.5730,0.07,0.11,-1.00,3.23,3.91,3.23
43.5890,0.08,0.12,-0.99,3.17,4.03,3.42
43.5940,0.07,0.12,-1.00,2.93,3.97,4.03
43.6090,0.07,0.10,-1.00,3.23,4.09,3.66
43.6330,0.07,0.11,-1.00,3.05,3.85,3.30
43.6490,0.07,0.11,-1.00,3.11,3.91,2.93
43.6660,0.07,0.11,-1.00,3.11,4.09,2.62
43.6820,0.08,0.12,-1.00,3.11,3.66,2.93
43.6990,0.08,0.12,-0.99,3.05,3.66,3.30
43.7150,0.08,0.12,-1.00,3.11,3.66,3.60
43.7310,0.08,0.12,-0.99,3.23,3.66,3.72
43.7470,0.07,0.12,-1.00,3.11,3.60,3.91
43.7630,0.07,0.11,-1.00,2.93,3.60,4.21
43.7780,0.07,0.11,-1.00,2.81,3.60,4.76
43.7930,0.07,0.11,-1.00,2.93,3.66,4.33
43.8080,0.08,0.11,-1.00,2.93,3.54,3.48
43.8230,0.08,0.11,-0.99,3.23,3.85,3.48
43.8380,0.08,0.12,-1.00,3.30,3.78,3.42
43.8490,0.07,0.12,-0.99,2.87,4.03,4.03
43.8660,0.07,0.12,-0.99,2.81,3.54,4.52
43.8820,0.08,0.11,-0.99,2.75,3.72,4.70
43.9000,0.07,0.10,-1.00,2.93,3.85,3.48
43.9160,0.07,0.11,-1.00,2.99,3.78,2.87
43.9310,0.08,0.11,-1.00,3.11,4.03,2.56
43.9470,0.08,0.11,-0.99,3.05,4.09,2.44
43.9620,0.08,0.12,-1.00,2.99,3.72,2.44
43.9650,0.08,0.12,-0.99,3.05,3.91,2.75
43.9810,0.08,0.12,-1.00,3.17,4.09,3.30
44.0030,0.07,0.11,-1.00,3.17,3.72,3.54
44.0200,0.07,0.10,-1.00,3.17,4.27,3.36
44.0360,0.07,0.11,-1.00,3.05,3.91,2.81
44.0540,0.08,0.12,-1.00,3.36,4.15,2.44
44.0710,0.08,0.12,-0.99,3.30,4.03,2.50
44.0860,0.07,0.12,-1.00,2.99,3.97,2.69
44.1030,0.08,0.12,-0.99,3.11,3.60,2.56
44.1190,0.07,0.11,-1.00,3.23,3.72,3.30
44.1350,0.08,0.11,-1.00,3.36,3.91,3.17
44.1510,0.08,0.11,-1.00,3.30,3.97,3.11
44.1540,0.08,0.12,-1.00,3.11,3.91,2.87
44.1700,0.07,0.11,-1.00,2.93,3.97,2.44
44.1930,0.07,0.12,-1.00,2.99,4.03,2.69
44.2100,0.07,0.11,-0.99,3.17,3.97,2.93
44.2280,0.07,0.11,-1.00,3.11,3.97,3.48
44.2430,0.07,0.11,-1.00,3.36,3.97,3.17
44.2590,0.07,0.11,-1.00,3.30,4.03,2.62
44.2670,0.08,0.12,-1.00,2.93,3.91,2.69
44.2890,0.08,0.12,-0.99,3.23,3.85,2.87
44.3000,0.08,0.12,-0.99,3.05,3.54,2.99
44.3170,0.08,0.12,-0.99,2.99,3.72,3.42
44.3330,0.07,0.12,-1.00,2.75,4.09,3.78
44.3490,0.07,0.11,-1.00,2.75,4.03,3.97
44.3650,0.08,0.11,-1.00,3.30,3.78,3.11
44.3740,0.08,0.11,-0.99,3.05,4.15,2.93
44.3910,0.08,0.12,-0.99,3.23,4.03,3.05
44.4080,0.08,0.12,-0.99,3.17,3.91,3.23
44.4250,0.08,0.12,-0.99,3.05,3.91,3.97
44.4310,0.08,0.12,-1.00,2.87,3.54,4.27
44.4570,0.08,0.11,-1.00,3.05,3.91,4.64
44.4580,0.08,0.11,-1.00,3.23,3.85,4.46
44.4890,0.08,0.11,-1.00,3.17,4.09,3.85
44.4910,0.08,0.11,-1.00,3.17,3.66,3.17
44.5080,0.07,0.12,-1.00,2.99,3.78,2.99
44.5320,0.07,0.12,-1.00,3.17,3.48,3.11
44.5410,0.07,0.11,-1.00,3.05,3.66,3.54
44.5580,0.07,0.11,-1.00,3.05,3.91,3.72
44.5730,0.07,0.11,-1.00,2.93,3.97,3.60
44.5890,0.08,0.12,-1.00,3.11,3.78,3.42
44.6100,0.08,0.12,-0.99,3.17,3.97,3.36
44.6270,0.08,0.12,-1.00,3.17,3.72,3.72
44.6430,0.08,0.12,-0.99,2.99,3.85,4.09
44.6580,0.08,0.12,-0.99,3.23,3.66,3.72
44.6610,0.07,0.11,-1.00,3.36,4.03,4.15
44.6760,0.07,0.11,-1.00,2.99,3.66,3.91
44.7000,0.07,0.11,-1.00,3.11,3.42,3.66
44.7170,0.08,0.12,-1.00,3.30,3.78,3.05
44.7330,0.08,0.12,-0.99,2.99,3.54,3.60
44.7500,0.07,0.11,-1.00,2.93,3.54,4.58
44.7660,0.08,0.11,-1.00,2.93,3.66,4.46
44.7830,0.08,0.11,-1.00,2.93,3.54,3.91
44.7990,0.08,0.11,-1.00,3.17,3.78,3.48
44.8150,0.08,0.12,-1.00,3.30,3.78,3.42
44.8310,0.07,0.12,-1.00,2.99,3.85,3.30
44.8340,0.07,0.11,-1.00,3.05,3.78,3.36
44.8500,0.08,0.11,-1.00,3.11,4.09,3.36
44.8740,0.08,0.11,-0.99,3.05,3.85,3.30
44.8910,0.08,0.11,-0.99,3.11,4.09,3.05
44.9060,0.08,0.12,-0.99,2.99,3.85,2.87
44.9220,0.08,0.11,-0.99,3.05,3.91,2.81
44.9380,0.08,0.12,-1.00,3.11,4.03,2.93
44.9550,0.07,0.11,-1.00,3.30,4.15,3.05
44.9570,0.08,0.11,-1.00,3.11,4.27,3.17
44.9740,0.07,0.11,-1.00,3.17,3.78,3.23
44.9920,0.08,0.11,-1.00,3.36,4.15,2.99
45.0070,0.08,0.11,-1.00,3.17,3.66,2.69
45.0320,0.08,0.12,-1.00,2.99,4.03,2.20
45.0400,0.07,0.11,-1.00,2.93,3.97,2.14
45.0560,0.07,0.12,-1.00,3.11,3.78,2.20
45.0810,0.07,0.11,-1.00,3.36,3.78,2.14
45.0930,0.08,0.12,-0.99,2.99,3.85,2.38
45.1100,0.07,0.11,-1.00,3.17,3.78,2.81
45.1260,0.07,0.12,-1.00,3.11,3.66,2.75
45.1410,0.07,0.11,-1.00,3.05,3.78,2.75
45.1430,0.08,0.11,-0.99,2.81,3.78,2.75
45.1590,0.08,0.11,-1.00,3.17,3.72,2.50
45.1880,0.08,0.12,-1.00,3.11,3.78,2.81
45.2030,0.08,0.12,-1.00,3.05,3.91,3.48
45.2140,0.08,0.12,-1.00,3.05,3.72,3.78
45.2320,0.07,0.12,-1.00,2.93,3.91,4.21
45.2460,0.07,0.11,-1.00,2.93,3.91,3.36
45.2640,0.07,0.11,-1.00,2.99,3.97,2.87
45.2800,0.08,0.11,-1.00,3.11,4.03,3.05
45.2960,0.08,0.12,-1.00,2.93,3.72,3.17
45.3130,0.08,0.12,-1.00,2.99,3.42,3.97
45.3280,0.08,0.12,-1.00,2.99,3.78,3.78
45.3430,0.08,0.11,-1.00,2.87,3.85,3.78
45.3580,0.07,0.11,-1.00,2.87,3.91,3.78
45.3740,0.07,0.11,-1.00,3.05,3.97,3.30
45.3810,0.07,0.11,-1.00,3.23,3.91,3.05
45.4030,0.07,0.11,-1.00,2.87,3.78,2.99
45.4140,0.07,0.11,-1.00,3.05,3.78,2.50
45.4330,0.08,0.11,-0.99,2.99,3.72,2.50
45.4480,0.08,0.11,-1.00,3.30,4.33,2.75
45.4640,0.08,0.11,-1.00,3.30,4.15,2.50
45.4800,0.08,0.11,-1.00,2.93,4.03,2.75
45.4960,0.07,0.12,-1.00,2.99,3.72,2.69
45.5120,0.07,0.12,-1.00,3.11,3.48,2.62
45.5280,0.07,0.11,-0.99,3.05,3.78,2.99
45.5430,0.08,0.11,-1.00,2.93,3.66,3.11
45.5480,0.08,0.11,-1.00,3.05,3.78,2.75
45.5740,0.08,0.12,-0.99,3.17,3.78,2.81
45.5890,0.08,0.12,-0.99,2.93,3.72,3.23
45.6040,0.07,0.11,-0.99,2.87,3.97,3.17
45.6140,0.08,0.11,-1.00,3.05,3.78,3.17
45.6330,0.08,0.12,-1.00,3.11,3.48,3.48
45.6470,0.08,0.11,-1.00,3.23,3.66,3.66
45.6640,0.08,0.11,-1.00,3.17,3.60,3.54
45.6800,0.08,0.11,-1.00,3.23,3.60,3.23
45.6970,0.08,0.12,-1.00,2.99,3.85,3.11
45.7130,0.08,0.12,-1.00,3.05,4.09,2.99
45.7280,0.08,0.11,-1.00,3.17,3.85,2.99
45.7330,0.08,0.11,-1.00,2.87,3.78,3.17
45.7460,0.07,0.11,-1.00,2.93,3.85,3.17
45.7700,0.07,0.11,-1.00,3.23,3.78,3.30
45.7880,0.07,0.11,-1.00,3.11,3.54,3.30
45.8040,0.08,0.12,-0.99,2.93,3.78,3.05
45.8200,0.08,0.12,-0.99,2.93,3.97,2.99
45.8370,0.08,0.12,-0.99,2.93,3.85,3.36
45.8520,0.08,0.12,-1.00,3.42,4.27,3.48
45.8690,0.07,0.11,-1.00,3.17,3.72,4.15
45.8860,0.08,0.11,-1.00,3.17,3.72,3.91
45.8870,0.08,0.12,-1.00,3.17,3.66,3.78
45.9160,0.08,0.11,-1.00,3.11,3.54,3.85
45.9320,0.07,0.11,-1.00,3.05,3.72,3.60
45.9370,0.08,0.12,-1.00,3.11,3.97,3.97
45.9530,0.08,0.12,-0.99,2.87,3.72,4.46
45.9760,0.08,0.11,-1.00,2.99,3.48,4.03
45.9930,0.08,0.11,-1.00,3.05,3.78,3.72
46.0090,0.08,0.11,-1.00,2.99,3.85,3.54
46.0250,0.07,0.11,-1.00,2.99,4.15,3.30
46.0410,0.07,0.12,-1.00,2.93,3.78,3.11
46.0570,0.08,0.11,-1.00,3.11,3.97,3.17
46.0730,0.08,0.12,-1.00,3.11,4.15,3.17
46.0880,0.08,0.12,-1.00,3.11,3.91,2.87
46.1040,0.07,0.11,-1.00,3.11,4.09,2.99
46.1200,0.08,0.11,-1.00,3.05,3.85,2.75
46.1350,0.08,0.11,-1.00,3.05,4.03,2.81
46.1500,0.08,0.12,-0.99,3.23,3.91,2.69
46.1600,0.08,0.11,-0.99,3.17,4.09,2.93
46.1760,0.08,0.12,-1.00,3.05,4.58,2.93
46.1930,0.08,0.12,-1.00,2.99,3.91,3.23
46.2100,0.08,0.12,-1.00,2.99,3.78,3.17
46.2100,0.07,0.12,-0.99,3.11,3.60,3.30
46.2400,0.07,0.11,-1.00,3.17,3.85,2.99
46.2550,0.08,0.11,-0.99,3.48,4.09,2.81
46.2700,0.08,0.11,-1.00,3.48,4.27,2.50
46.2770,0.08,0.11,-0.99,3.11,3.97,2.32
46.2940,0.08,0.12,-1.00,3.23,3.78,2.32
46.3100,0.08,0.12,-1.00,2.81,3.78,2.38
46.3270,0.08,0.12,-1.00,2.93,4.03,2.62
46.3430,0.08,0.12,-1.00,3.11,4.15,2.69
46.3600,0.08,0.11,-1.00,3.30,3.91,2.69
46.3760,0.07,0.11,-1.00,3.17,3.78,2.75
46.3780,0.08,0.12,-1.00,3.05,3.97,2.69
46.4070,0.08,0.12,-1.00,3.23,4.09,2.38
46.4220,0.07,0.11,-1.00,2.87,4.03,2.32
46.4380,0.08,0.12,-1.00,2.99,3.85,2.56
46.4540,0.08,0.12,-0.99,2.99,3.91,2.50
46.4700,0.08,0.11,-1.00,3.17,3.85,2.56
46.4850,0.08,0.12,-1.00,3.11,4.27,2.69
46.5000,0.08,0.11,-1.00,3.05,4.33,2.75
46.5100,0.08,0.12,-1.00,2.93,3.91,2.62
46.5270,0.07,0.12,-0.99,2.87,3.72,2.50
46.5430,0.08,0.12,-0.99,2.99,4.21,2.56
46.5600,0.08,0.12,-1.00,3.05,3.85,2.69
46.5750,0.07,0.11,-1.00,3.17,4.09,2.93
46.5900,0.08,0.11,-1.00,3.23,3.85,2.87
46.6050,0.08,0.11,-1.00,3.23,4.03,2.62
46.6210,0.08,0.12,-1.00,3.11,4.03,2.81
46.6370,0.08,0.12,-0.99,2.99,4.03,2.81
46.6530,0.07,0.11,-1.00,2.93,3.85,2.56
46.6690,0.07,0.12,-1.00,3.11,3.97,2.62
46.6770,0.07,0.11,-1.00,3.05,3.66,2.93
46.6930,0.07,0.11,-1.00,2.93,3.85,2.69
46.7150,0.08,0.12,-0.99,3.11,3.60,2.75
46.7300,0.08,0.12,-0.99,3.23,4.03,2.44
46.7470,0.08,0.11,-1.00,3.30,3.97,2.62
46.7630,0.08,0.12,-1.00,3.05,3.85,2.62
46.7790,0.07,0.12,-1.00,3.11,3.97,2.56
46.7950,0.08,0.12,-1.00,3.05,3.97,2.69
46.8100,0.08,0.11,-1.00,3.17,3.54,2.75
46.8250,0.07,0.11,-1.00,3.17,3.85,2.62
46.8340,0.07,0.11,-1.00,3.17,3.91,2.56
46.8550,0.08,0.12,-0.99,2.81,3.72,2.62
46.8700,0.08,0.12,-1.00,2.99,3.78,2.75
46.8820,0.08,0.12,-1.00,3.42,4.15,2.93
46.8980,0.08,0.12,-1.00,3.11,4.15,3.05
46.9150,0.08,0.11,-1.00,3.23,4.03,3.11
46.9320,0.08,0.12,-1.00,2.99,3.91,3.17
46.9480,0.07,0.11,-1.00,2.87,3.78,3.30
46.9630,0.08,0.12,-1.00,2.93,3.66,3.36
46.9660,0.08,0.11,-1.00,3.05,3.78,3.05
46.9940,0.08,0.11,-1.00,2.93,3.91,2.62
47.0090,0.08,0.11,-1.00,3.23,4.03,2.62
47.0250,0.08,0.12,-1.00,3.11,4.15,2.50
47.0390,0.08,0.12,-0.99,3.17,4.09,2.62
47.0540,0.08,0.12,-0.99,3.36,3.78,2.81
47.0650,0.08,0.11,-1.00,3.11,3.72,3.05
47.0810,0.08,0.11,-1.00,3.42,3.97,2.87
47.0980,0.08,0.12,-1.00,2.99,3.97,3.17
47.1140,0.07,0.11,-1.00,2.99,3.85,3.17
47.1300,0.08,0.12,-1.00,2.87,4.09,3.11
47.1450,0.08,0.11,-0.99,3.11,4.03,3.23
47.1490,0.08,0.12,-1.00,3.11,3.60,3.23
47.1640,0.08,0.12,-1.00,2.93,3.48,3.30
47.1800,0.08,0.12,-0.99,2.87,3.97,3.54
47.2040,0.08,0.12,-1.00,3.11,3.60,3.60
47.2220,0.07,0.11,-1.00,3.11,3.48,3.60
47.2370,0.07,0.11,-0.99,2.99,3.66,3.17
47.2540,0.08,0.11,-0.99,3.11,3.72,3.30
47.2700,0.08,0.12,-1.00,3.05,3.97,3.17
47.2870,0.08,0.12,-1.00,3.17,3.72,3.48
47.3020,0.08,0.12,-0.99,2.93,3.85,3.85
47.3180,0.07,0.11,-1.00,2.99,3.66,4.15
47.3200,0.07,0.10,-1.00,3.11,3.72,3.42
47.3360,0.08,0.11,-1.00,3.23,4.46,2.87
47.3520,0.08,0.12,-1.00,2.93,4.03,2.75
47.3760,0.08,0.12,-0.99,2.93,3.78,2.75
47.3930,0.08,0.12,-0.99,3.17,4.33,2.62
47.4100,0.07,0.12,-0.99,2.99,3.97,3.11
47.4260,0.07,0.11,-1.00,3.11,4.03,3.30
47.4410,0.08,0.11,-1.00,2.93,3.91,3.23
47.4430,0.08,0.11,-1.00,3.23,3.60,3.17
47.4600,0.08,0.11,-1.00,3.17,4.21,2.99
47.4860,0.08,0.12,-1.00,3.11,3.72,2.93
47.5020,0.08,0.12,-0.99,3.05,3.97,2.99
47.5170,0.08,0.12,-0.99,2.99,3.97,3.36
47.5270,0.07,0.12,-0.99,3.17,3.91,3.42
47.5430,0.07,0.11,-1.00,2.93,3.42,3.54
47.5590,0.08,0.12,-1.00,3.17,4.03,2.93
47.5760,0.07,0.11,-1.00,3.17,3.85,3.11
47.5920,0.08,0.11,-1.00,3.11,4.09,3.36
47.6080,0.07,0.11,-1.00,3.36,4.09,3.23
47.6240,0.08,0.12,-0.99,3.11,4.09,3.11
47.6400,0.08,0.12,-0.99,2.93,3.72,3.17
47.6430,0.08,0.12,-0.99,2.93,3.72,3.36
47.6590,0.08,0.12,-1.00,2.93,3.60,3.72
47.6820,0.08,0.12,-1.00,2.99,3.97,3.42
47.6980,0.08,0.11,-1.00,3.05,4.03,3.42
47.7150,0.08,0.11,-1.00,3.42,4.09,3.36
47.7320,0.08,0.12,-1.00,2.93,3.97,3.17
