Timestamp, AccX, AccY, AccZ, GyroX, GyroY, GyroZ
0.0070,0.07,0.13,-0.99,1.40,3.11,1.65
0.0220,0.08,0.13,-0.99,2.87,1.89,1.83
0.0370,0.07,0.13,-0.99,3.78,2.32,2.14
0.0520,0.07,0.13,-0.99,4.39,1.89,2.14
0.0670,0.07,0.13,-0.99,4.58,1.53,1.83
0.0810,0.08,0.13,-0.99,3.66,1.40,1.77
0.0960,0.08,0.13,-0.99,3.60,1.46,1.65
0.1110,0.08,0.13,-0.99,2.99,2.20,1.83
0.1260,0.08,0.13,-0.99,2.75,2.08,1.71
0.1410,0.06,0.13,-0.96,2.38,1.65,1.65
0.1560,0.07,0.13,-0.99,2.50,2.56,1.83
0.1710,0.08,0.13,-0.98,2.81,1.77,1.71
0.1860,0.08,0.13,-0.99,3.05,2.01,1.83
0.2020,0.08,0.13,-0.99,3.23,1.95,1.89
0.2170,0.08,0.13,-0.99,3.23,1.65,2.14
0.2320,0.08,0.13,-0.99,3.17,1.59,1.65
0.2460,0.08,0.13,-0.99,2.81,2.01,1.71
0.2610,0.08,0.13,-0.99,2.38,2.26,1.71
0.2760,0.08,0.13,-0.99,2.62,2.32,1.77
0.2910,0.08,0.13,-0.99,2.87,2.38,1.77
0.3060,0.08,0.13,-0.99,3.23,2.14,1.77
0.3220,0.08,0.13,-0.99,3.48,2.32,1.95
0.3370,0.08,0.13,-0.99,3.30,2.14,1.71
0.3520,0.08,0.13,-0.99,2.62,2.38,1.77
0.3670,0.08,0.12,-0.99,2.81,2.20,1.71
0.3810,0.08,0.12,-0.99,3.11,2.20,1.59
0.3970,0.07,0.12,-0.99,3.17,1.95,1.89
0.4110,0.07,0.12,-0.99,3.30,1.77,1.95
0.4270,0.08,0.13,-0.99,3.72,1.89,1.89
0.4410,0.08,0.13,-0.99,3.66,2.01,1.83
0.4580,0.08,0.14,-0.99,3.66,1.71,1.65
0.4720,0.08,0.13,-0.99,3.17,1.71,1.83
0.4890,0.08,0.12,-0.99,3.30,2.01,1.89
0.5050,0.08,0.12,-0.99,3.72,2.32,1.95
0.5200,0.07,0.13,-0.99,4.03,2.32,2.14
0.5360,0.08,0.13,-0.99,4.27,1.95,2.14
0.5530,0.08,0.13,-0.99,3.54,1.22,3.60
0.5680,0.08,0.13,-0.99,2.93,1.71,2.20
0.5830,0.07,0.15,-0.99,1.95,2.38,4.21
0.5990,0.07,0.11,-0.99,-1.65,1.28,7.63
0.6150,0.08,0.11,-0.99,1.95,1.16,7.14
0.6300,0.08,0.12,-0.99,3.42,1.59,3.36
0.6450,0.08,0.13,-0.99,4.39,1.95,1.71
0.6600,0.08,0.14,-1.00,3.11,1.77,1.53
0.6760,0.08,0.13,-0.99,1.04,1.77,1.53
0.6910,0.08,0.12,-0.99,0.55,1.59,1.59
0.7060,0.08,0.11,-0.99,2.44,1.71,1.77
0.7200,0.08,0.12,-0.99,5.19,2.44,1.89
0.7370,0.08,0.14,-0.99,4.82,2.26,1.83
0.7520,0.08,0.13,-0.99,2.69,2.32,1.59
0.7690,0.08,0.12,-0.99,2.14,2.01,1.59
0.7830,0.08,0.12,-0.99,2.38,2.38,1.71
0.7990,0.07,0.12,-0.98,2.62,2.38,1.95
0.8140,0.07,0.13,-0.99,3.91,1.59,4.21
0.8290,0.07,0.13,-0.99,2.01,1.46,3.91
0.8450,0.08,0.13,-0.99,1.59,1.71,4.76
0.8610,0.08,0.12,-0.99,1.89,1.34,4.15
0.8760,0.07,0.12,-0.99,2.44,1.77,3.30
0.8920,0.07,0.13,-0.99,2.87,1.40,4.09
0.9070,0.07,0.13,-0.99,2.44,1.40,4.21
0.9220,0.08,0.12,-0.99,3.17,1.59,3.54
0.9370,0.08,0.12,-0.99,3.30,1.65,2.56
0.9530,0.07,0.14,-0.99,2.62,2.20,2.50
0.9690,0.07,0.14,-0.99,2.32,1.89,4.21
0.9840,0.08,0.13,-0.99,2.38,1.95,4.52
1.0010,0.09,0.10,-0.99,2.56,1.83,4.09
1.0160,0.08,0.11,-0.99,3.30,1.89,3.05
1.0320,0.07,0.15,-0.98,4.33,2.08,3.54
1.0470,0.07,0.15,-0.99,3.30,1.34,5.86
1.0620,0.07,0.13,-0.98,2.75,1.40,5.37
1.0780,0.07,0.11,-1.00,3.97,1.83,3.72
1.0930,0.09,0.09,-0.99,3.54,1.77,2.87
1.1080,0.08,0.11,-0.99,3.30,2.08,1.16
1.1230,0.07,0.13,-0.99,3.17,2.26,2.01
1.1380,0.08,0.15,-0.99,4.15,1.83,4.94
1.1540,0.07,0.14,-0.99,2.69,0.85,7.63
1.1700,0.07,0.13,-0.99,2.99,0.37,6.96
1.1860,0.08,0.09,-0.99,3.60,0.55,6.04
1.2010,0.07,0.10,-0.99,3.11,1.40,1.46
1.2170,0.08,0.13,-0.99,4.33,1.89,1.65
1.2330,0.07,0.12,-0.99,3.05,2.08,1.77
1.2510,0.08,0.12,-0.99,3.78,1.89,1.89
1.2660,0.08,0.13,-0.99,3.30,1.83,1.65
1.2830,0.08,0.13,-0.99,2.93,1.83,1.59
1.2990,0.07,0.14,-0.99,3.97,2.14,1.77
1.3150,0.07,0.12,-0.99,3.36,1.40,4.33
1.3300,0.07,0.11,-0.99,3.11,1.04,4.27
1.3440,0.07,0.11,-0.99,3.05,1.22,3.54
1.3590,0.08,0.12,-0.99,2.93,1.65,1.83
1.3750,0.09,0.14,-0.99,3.11,1.83,1.16
1.3910,0.08,0.12,-0.99,2.93,2.44,0.49
1.4070,0.07,0.13,-0.99,4.03,1.77,2.99
1.4220,0.07,0.13,-0.99,3.85,1.59,5.25
1.4360,0.07,0.13,-0.99,3.17,1.28,5.80
1.4520,0.08,0.12,-0.99,2.38,1.53,5.74
1.4670,0.07,0.10,-1.00,3.11,1.95,3.36
1.4830,0.08,0.12,-0.99,3.30,2.38,2.20
1.4980,0.08,0.13,-0.99,4.15,1.22,4.03
1.5130,0.07,0.15,-1.00,3.91,1.04,6.23
1.5290,0.07,0.14,-0.99,1.40,1.40,8.73
1.5430,0.07,0.11,-0.99,2.38,0.67,8.61
1.5580,0.07,0.09,-1.00,2.99,1.65,4.52
1.5740,0.07,0.10,-0.99,3.30,1.83,2.08
1.5890,0.07,0.11,-0.99,3.66,2.20,1.95
1.6040,0.07,0.12,-0.99,2.75,2.26,1.53
1.6210,0.07,0.14,-0.99,1.83,1.71,1.95
1.6350,0.07,0.12,-0.99,2.99,1.71,4.94
1.6510,0.08,0.10,-0.99,2.93,1.77,4.33
1.6670,0.08,0.10,-0.99,3.05,2.01,1.95
1.6830,0.08,0.12,-0.99,3.42,2.08,2.32
1.6990,0.08,0.14,-0.99,4.15,2.01,2.87
1.7140,0.07,0.14,-0.99,3.36,1.46,4.21
1.7300,0.08,0.12,-0.99,3.60,0.79,6.65
1.7450,0.07,0.09,-1.00,3.36,0.85,4.46
1.7600,0.07,0.10,-0.99,3.36,1.65,1.65
1.7760,0.07,0.12,-0.99,4.27,2.14,2.75
1.7920,0.07,0.15,-0.99,4.33,1.65,4.03
1.8070,0.08,0.13,-0.98,3.54,0.98,6.77
1.8230,0.08,0.09,-1.00,3.48,1.04,4.76
1.8390,0.08,0.10,-0.99,3.36,1.83,1.65
1.8540,0.08,0.13,-0.99,4.76,2.50,1.65
1.8700,0.08,0.14,-0.99,4.15,2.69,1.53
1.8850,0.08,0.16,-0.98,3.30,1.04,6.84
1.9000,0.07,0.14,-1.00,3.23,0.49,10.80
1.9160,0.06,0.11,-0.99,1.40,1.10,8.42
1.9310,0.07,0.08,-0.99,2.14,1.46,3.60
1.9460,0.06,0.08,-0.99,3.97,2.01,1.46
1.9620,0.08,0.13,-1.00,6.77,2.01,2.01
1.9770,0.08,0.14,-0.99,4.82,2.50,2.01
1.9940,0.07,0.14,-0.99,3.23,2.38,2.01
2.0100,0.08,0.16,-0.98,2.75,1.22,4.82
2.0250,0.06,0.12,-1.00,2.50,0.18,7.75
2.0410,0.07,0.10,-0.99,1.95,1.22,5.62
2.0580,0.08,0.09,-0.99,2.69,1.95,3.05
2.0730,0.08,0.12,-0.99,3.60,1.89,1.77
2.0880,0.07,0.13,-0.99,3.85,2.38,1.83
2.1030,0.07,0.12,-0.99,2.81,2.50,1.95
2.1190,0.07,0.13,-0.99,2.81,2.20,4.52
2.1350,0.08,0.12,-0.99,1.65,1.59,4.94
2.1490,0.08,0.10,-0.99,1.83,2.01,3.23
2.1650,0.08,0.12,-0.99,3.97,1.77,1.28
2.1800,0.07,0.12,-0.99,3.60,1.83,1.04
2.1950,0.07,0.13,-0.99,2.81,1.89,0.24
2.2110,0.05,0.14,-0.99,1.59,2.08,0.61
2.2270,0.08,0.13,-1.00,3.72,1.71,6.29
2.2430,0.08,0.10,-0.99,2.50,1.89,6.96
2.2590,0.08,0.10,-0.99,2.93,2.01,4.70
2.2750,0.07,0.12,-0.99,3.78,1.77,1.89
2.2900,0.08,0.12,-0.99,3.91,2.14,1.34
2.3050,0.08,0.13,-0.99,3.48,2.14,0.92
2.3210,0.07,0.12,-0.99,3.17,2.62,1.34
2.3370,0.07,0.16,-0.99,4.03,2.14,3.97
2.3520,0.08,0.11,-1.00,4.33,0.37,8.30
2.3690,0.07,0.09,-0.99,2.26,1.16,2.81
2.3830,0.08,0.12,-0.99,4.46,1.65,1.22
2.3980,0.07,0.12,-0.99,3.17,2.08,1.40
2.4140,0.07,0.12,-0.99,2.56,1.95,1.77
2.4290,0.07,0.14,-0.99,3.54,1.77,3.05
2.4450,0.08,0.14,-0.98,2.81,1.40,6.90
2.4600,0.08,0.09,-0.99,2.44,0.98,5.55
2.4750,0.07,0.10,-0.99,3.54,1.59,0.79
2.4920,0.08,0.12,-0.99,5.86,2.38,0.73
2.5080,0.06,0.14,-1.00,2.38,2.38,1.71
2.5220,0.06,0.15,-0.97,1.46,2.69,3.23
2.5370,0.07,0.17,-1.00,4.09,-0.49,13.18
2.5520,0.08,0.11,-0.99,1.77,0.06,12.27
2.5680,0.09,0.06,-1.00,2.08,0.67,5.43
2.5830,0.07,0.11,-0.99,3.72,1.53,0.49
2.5980,0.08,0.12,-1.00,5.92,1.77,0.67
2.6140,0.07,0.14,-0.99,3.85,2.93,-1.71
2.6300,0.07,0.12,-0.99,0.67,2.75,1.10
2.6450,0.07,0.12,-0.99,0.98,2.69,1.65
2.6620,0.07,0.12,-0.98,2.56,1.46,3.05
2.6760,0.08,0.12,-0.99,3.85,0.92,2.50
2.6910,0.08,0.12,-0.99,3.23,1.28,1.83
2.7070,0.07,0.12,-0.99,3.17,2.26,1.53
2.7220,0.07,0.12,-0.99,3.17,2.69,1.77
2.7380,0.07,0.13,-0.99,4.03,2.14,1.83
2.7530,0.07,0.14,-0.98,2.93,2.26,3.78
2.7700,0.07,0.12,-1.00,2.93,1.40,5.74
2.7850,0.07,0.09,-0.99,2.08,2.01,3.30
2.8000,0.07,0.10,-0.99,3.30,1.16,1.65
2.8150,0.08,0.13,-1.00,5.68,1.28,1.53
2.8300,0.07,0.12,-0.99,3.17,1.95,1.65
2.8470,0.07,0.12,-0.99,2.62,2.50,2.14
2.8630,0.07,0.12,-0.99,3.66,2.20,2.62
2.8780,0.07,0.12,-1.00,2.50,2.20,3.17
2.8940,0.07,0.13,-0.99,2.01,2.26,3.85
2.9090,0.07,0.10,-0.99,2.26,2.01,4.27
2.9240,0.08,0.12,-0.99,3.97,1.53,1.95
2.9400,0.07,0.13,-0.99,3.78,2.01,2.14
2.9540,0.07,0.14,-0.99,3.05,2.32,5.49
2.9700,0.08,0.12,-1.00,2.75,2.44,6.16
2.9860,0.07,0.11,-0.99,1.89,1.95,5.62
3.0010,0.07,0.11,-0.99,2.08,2.01,4.15
3.0150,0.07,0.11,-0.99,2.69,1.71,2.81
3.0310,0.07,0.12,-0.99,3.42,1.89,1.65
3.0470,0.07,0.14,-0.98,3.23,2.32,2.50
3.0620,0.07,0.14,-0.99,4.03,2.26,6.59
3.0770,0.07,0.13,-1.00,4.88,1.16,8.61
3.0930,0.05,0.09,-1.00,1.71,2.26,6.65
3.1080,0.07,0.08,-1.00,2.38,1.65,4.27
3.1230,0.07,0.10,-1.00,3.72,1.04,1.71
3.1390,0.08,0.12,-0.99,5.43,1.16,1.22
3.1550,0.08,0.13,-1.00,4.94,1.40,1.53
3.1700,0.08,0.12,-0.99,3.11,2.81,1.89
3.1860,0.07,0.12,-1.00,2.87,2.81,1.59
3.2020,0.07,0.11,-0.98,2.08,2.99,1.28
3.2190,0.07,0.10,-0.99,4.70,2.14,0.31
3.2350,0.07,0.13,-0.99,5.43,1.46,1.71
3.2500,0.07,0.13,-0.99,4.88,1.65,2.01
3.2670,0.07,0.12,-0.99,4.64,1.28,1.83
3.2820,0.07,0.12,-0.99,4.15,0.98,1.65
3.2980,0.08,0.11,-0.99,4.27,1.34,1.77
3.3140,0.06,0.11,-1.00,6.04,1.71,0.49
3.3280,0.06,0.17,-0.96,6.35,0.24,1.59
3.3440,0.07,0.12,-1.01,10.68,-2.08,5.80
3.3600,0.08,0.16,-0.98,6.23,-0.55,4.03
3.3750,0.08,0.14,-1.00,5.37,0.49,4.27
3.3910,0.08,0.12,-1.00,4.15,1.22,2.99
3.4080,0.07,0.10,-0.99,2.99,1.83,2.44
3.4230,0.06,0.08,-1.00,3.05,2.01,2.44
3.4390,0.07,0.13,-0.99,4.94,1.95,2.08
3.4540,0.08,0.14,-0.99,4.88,1.59,1.71
3.4700,0.08,0.14,-1.00,2.32,1.77,1.34
3.4860,0.07,0.12,-0.99,0.24,2.38,1.46
3.5000,0.07,0.11,-0.99,2.32,1.59,1.71
3.5150,0.07,0.12,-0.99,2.69,1.95,1.89
3.5300,0.08,0.12,-0.99,3.54,1.83,1.71
3.5450,0.08,0.14,-0.99,3.91,2.14,1.46
3.5600,0.08,0.13,-0.99,3.30,2.26,0.55
3.5750,0.08,0.14,-0.99,2.75,2.56,0.49
3.5910,0.07,0.12,-0.98,2.38,2.01,1.46
3.6050,0.07,0.11,-0.99,2.44,2.08,2.87
3.6200,0.08,0.12,-0.99,3.11,1.71,1.77
3.6360,0.08,0.12,-0.99,3.23,2.01,1.40
3.6520,0.08,0.13,-0.99,3.36,2.62,1.46
3.6670,0.07,0.12,-0.99,3.17,2.69,1.53
3.6840,0.07,0.12,-0.99,3.48,2.08,1.77
3.6980,0.08,0.13,-0.99,3.17,1.95,1.40
3.7140,0.07,0.12,-0.99,3.23,2.26,-0.12
3.7300,0.07,0.12,-1.00,4.52,1.89,3.05
3.7450,0.07,0.09,-0.99,3.48,1.89,4.46
3.7610,0.07,0.12,-0.99,3.17,1.95,4.64
3.7760,0.07,0.11,-0.99,2.69,2.20,3.54
3.7910,0.08,0.13,-0.99,2.75,2.20,1.53
3.8060,0.07,0.13,-0.99,2.69,2.01,0.43
3.8220,0.07,0.11,-0.99,3.85,1.77,1.71
3.8380,0.07,0.11,-0.99,3.72,2.08,2.08
3.8530,0.08,0.13,-0.99,3.91,2.01,1.89
3.8690,0.08,0.13,-0.99,3.48,2.14,1.65
3.8840,0.07,0.13,-0.99,2.08,2.44,1.89
3.8990,0.08,0.15,-0.99,4.52,2.14,2.20
3.9160,0.08,0.15,-0.99,4.46,0.79,7.51
3.9320,0.07,0.10,-0.99,1.71,1.04,6.59
3.9470,0.07,0.08,-0.99,1.77,1.95,2.01
3.9630,0.08,0.11,-0.99,2.32,1.34,1.04
3.9790,0.08,0.12,-0.99,4.21,1.46,1.28
3.9950,0.07,0.12,-0.99,2.93,2.26,1.65
4.0100,0.07,0.12,-0.99,3.11,2.44,2.08
4.0260,0.07,0.13,-0.99,2.69,2.62,2.32
4.0420,0.08,0.12,-0.99,2.32,1.95,2.81
4.0570,0.08,0.12,-0.99,1.89,2.32,1.77
4.0720,0.08,0.12,-0.99,2.62,2.50,1.65
4.0900,0.07,0.12,-0.99,3.36,2.26,2.32
4.1050,0.07,0.13,-0.99,3.97,2.20,2.56
4.1210,0.07,0.14,-0.99,3.91,1.83,4.21
4.1370,0.08,0.13,-0.99,2.56,1.65,4.88
4.1520,0.07,0.11,-0.99,1.71,1.77,2.32
4.1680,0.07,0.11,-0.99,2.99,1.83,1.65
4.1830,0.07,0.12,-0.99,4.52,2.08,2.50
4.1980,0.07,0.13,-0.99,4.94,2.20,4.03
4.2130,0.07,0.13,-0.99,3.91,2.44,4.39
4.2280,0.08,0.12,-1.00,2.01,2.20,4.33
4.2430,0.08,0.12,-0.98,1.04,2.56,1.83
4.2590,0.07,0.09,-0.99,3.42,2.75,2.14
4.2750,0.07,0.11,-1.00,4.76,2.32,1.71
4.2910,0.07,0.12,-0.99,4.46,2.32,2.26
4.3060,0.08,0.15,-0.99,4.15,1.95,3.48
4.3210,0.08,0.16,-0.97,1.65,1.95,8.00
4.3360,0.07,0.10,-1.01,2.69,0.79,9.03
4.3510,0.08,0.08,-0.99,1.59,1.89,4.21
4.3670,0.07,0.10,-0.98,4.64,1.83,1.71
4.3820,0.07,0.13,-1.00,4.88,1.59,1.83
4.3990,0.06,0.13,-0.99,3.30,2.62,2.44
4.4150,0.07,0.13,-0.99,3.60,2.01,5.92
4.4310,0.08,0.12,-0.99,2.62,1.65,6.96
4.4470,0.08,0.10,-0.99,2.01,1.77,3.05
4.4630,0.08,0.11,-0.99,4.76,0.49,0.79
4.4790,0.07,0.13,-1.00,5.92,1.40,0.61
4.4930,0.06,0.12,-0.99,5.07,1.95,1.34
4.5080,0.06,0.17,-0.98,4.52,2.08,2.14
4.5240,0.07,0.14,-1.00,5.80,0.67,7.39
4.5400,0.08,0.10,-1.00,4.15,0.24,6.35
4.5560,0.07,0.10,-0.99,3.36,1.16,1.95
4.5710,0.07,0.12,-0.99,5.62,1.65,1.53
4.5870,0.07,0.12,-0.99,4.58,1.59,1.40
4.6020,0.07,0.12,-0.99,4.21,1.53,1.59
4.6170,0.08,0.13,-0.99,4.64,0.92,1.40
4.6310,0.08,0.13,-0.99,4.21,0.98,1.40
4.6460,0.08,0.13,-0.99,3.78,1.53,1.34
4.6620,0.07,0.12,-0.99,3.11,2.62,1.71
4.6780,0.07,0.12,-0.99,3.05,2.56,1.95
4.6940,0.07,0.12,-0.99,3.17,2.14,2.08
4.7100,0.07,0.12,-0.99,3.42,1.89,3.23
4.7260,0.08,0.13,-0.99,3.05,1.65,1.77
4.7420,0.08,0.13,-0.99,2.87,1.77,1.22
4.7570,0.08,0.13,-0.99,3.17,2.44,0.92
4.7710,0.07,0.12,-0.99,4.27,1.95,2.75
4.7860,0.07,0.12,-0.99,4.27,2.14,3.72
4.8020,0.07,0.14,-0.99,2.81,1.59,4.52
4.8180,0.07,0.12,-0.99,1.77,1.83,3.60
4.8330,0.07,0.11,-0.99,2.62,1.46,1.59
4.8480,0.08,0.13,-0.99,4.27,1.59,1.53
4.8640,0.08,0.13,-0.99,2.93,2.44,1.59
4.8800,0.07,0.12,-0.99,2.75,2.75,1.53
4.8950,0.07,0.13,-0.99,3.66,2.14,3.42
4.9120,0.08,0.13,-0.99,2.26,2.32,4.27
4.9270,0.08,0.12,-0.99,2.14,1.83,3.17
4.9430,0.07,0.12,-0.99,2.75,1.95,1.28
4.9590,0.07,0.12,-0.99,3.48,1.89,1.65
4.9740,0.07,0.12,-0.99,3.60,1.95,2.69
4.9890,0.07,0.12,-0.99,3.23,2.26,3.48
5.0050,0.08,0.13,-0.99,2.99,2.38,3.36
5.0210,0.07,0.13,-0.99,2.56,2.01,2.32
5.0360,0.07,0.13,-0.99,2.99,1.40,2.93
5.0530,0.06,0.16,-0.99,3.11,1.10,6.23
5.0680,0.07,0.10,-1.00,3.30,1.04,8.67
5.0830,0.08,0.08,-0.99,1.83,1.89,4.39
5.0980,0.08,0.10,-0.99,2.87,2.14,1.89
5.1140,0.07,0.13,-0.99,3.66,2.44,1.89
5.1300,0.07,0.14,-0.99,3.17,2.32,3.48
5.1440,0.07,0.13,-1.00,2.14,3.05,5.00
5.1600,0.08,0.12,-0.98,1.65,2.44,5.19
5.1770,0.07,0.09,-0.99,2.56,2.44,3.17
5.1930,0.07,0.12,-0.99,3.54,2.44,1.22
5.2080,0.07,0.13,-0.99,4.33,2.01,1.95
5.2230,0.07,0.13,-0.99,3.97,1.95,2.38
5.2380,0.07,0.14,-1.00,3.72,1.77,4.52
5.2530,0.08,0.14,-0.98,2.32,1.40,6.96
5.2680,0.07,0.09,-1.00,2.56,1.53,5.25
5.2820,0.08,0.09,-0.99,2.14,2.20,3.91
5.2980,0.07,0.12,-0.99,4.52,2.38,1.77
5.3140,0.08,0.13,-0.99,4.82,2.01,1.16
5.3300,0.07,0.13,-0.99,4.33,1.65,-1.28
5.3460,0.06,0.11,-0.99,5.43,1.65,-0.18
5.3610,0.07,0.12,-0.99,6.59,0.79,1.46
5.3760,0.07,0.12,-0.99,6.53,0.61,1.77
5.3910,0.06,0.17,-0.99,6.47,0.49,1.83
5.4080,0.08,0.14,-1.00,5.00,0.85,1.83
5.4230,0.07,0.16,-0.99,3.30,1.53,2.99
5.4390,0.09,0.13,-0.99,2.87,1.34,5.55
5.4550,0.08,0.11,-0.99,3.48,1.77,4.15
5.4700,0.07,0.10,-0.99,3.05,2.14,2.14
5.4850,0.07,0.13,-0.99,5.25,1.71,1.65
5.5010,0.08,0.14,-0.99,4.39,1.53,1.65
5.5150,0.08,0.12,-0.99,2.26,1.71,1.77
5.5320,0.08,0.12,-0.99,3.60,1.89,1.89
5.5480,0.08,0.13,-0.99,4.03,2.56,1.89
5.5640,0.07,0.13,-0.99,2.56,3.42,2.01
5.5800,0.07,0.14,-0.98,2.20,2.75,2.50
5.5970,0.08,0.12,-1.00,3.72,1.59,4.76
5.6130,0.08,0.12,-0.99,2.20,1.95,2.08
5.6280,0.08,0.13,-0.99,2.56,1.71,1.46
5.6420,0.08,0.13,-0.99,4.39,1.95,-0.06
5.6580,0.08,0.12,-0.99,3.91,2.01,0.12
5.6730,0.07,0.13,-0.99,3.17,2.87,1.34
5.6880,0.07,0.13,-0.99,2.75,2.14,2.38
5.7030,0.07,0.13,-0.99,2.38,1.53,2.75
5.7200,0.07,0.11,-0.99,2.44,1.40,1.77
5.7340,0.08,0.12,-0.99,2.75,1.53,0.85
5.7490,0.08,0.13,-0.98,3.11,1.89,1.22
5.7650,0.08,0.14,-0.99,4.15,2.20,1.16
5.7810,0.08,0.11,-1.00,4.03,2.14,2.20
5.7970,0.07,0.13,-0.99,2.81,1.89,1.65
5.8130,0.07,0.11,-0.99,2.93,2.20,1.46
5.8300,0.07,0.11,-0.99,2.99,2.44,2.14
5.8450,0.07,0.12,-0.99,3.36,1.71,1.89
5.8600,0.08,0.13,-0.99,3.48,1.95,1.77
5.8760,0.07,0.13,-0.99,2.56,2.14,1.89
5.8930,0.08,0.13,-0.99,2.69,2.56,2.81
5.9090,0.07,0.14,-0.99,2.62,2.08,3.48
5.9250,0.08,0.12,-0.99,3.05,1.95,4.39
5.9410,0.08,0.12,-0.99,3.17,1.95,4.09
5.9570,0.08,0.12,-0.99,2.93,2.50,2.87
5.9720,0.07,0.13,-0.99,2.20,2.44,2.32
5.9870,0.07,0.12,-0.99,2.62,1.95,2.99
6.0030,0.07,0.13,-0.99,3.60,1.59,3.54
6.0190,0.08,0.14,-0.99,3.60,1.53,5.80
6.0340,0.09,0.12,-0.99,2.93,1.22,7.51
6.0500,0.07,0.11,-0.99,2.87,1.71,4.58
6.0660,0.07,0.10,-1.00,2.56,1.83,1.53
6.0810,0.07,0.12,-0.99,2.26,2.01,1.53
6.0980,0.07,0.13,-0.99,2.75,1.95,1.83
6.1130,0.07,0.13,-0.99,3.11,1.89,2.44
6.1280,0.07,0.12,-0.99,3.72,1.83,3.54
6.1440,0.08,0.12,-0.99,3.30,1.95,3.78
6.1590,0.08,0.12,-0.99,2.99,1.95,2.87
6.1750,0.07,0.12,-0.99,2.99,2.14,2.20
6.1910,0.07,0.12,-0.99,3.11,2.32,1.53
6.2060,0.07,0.13,-0.98,2.75,2.69,1.95
6.2220,0.07,0.17,-0.99,4.46,1.59,4.52
6.2360,0.08,0.12,-1.00,4.82,0.43,8.79
6.2530,0.08,0.09,-0.99,2.93,1.53,4.27
6.2680,0.07,0.09,-0.99,4.03,1.95,1.04
6.2830,0.08,0.12,-0.99,7.02,1.34,-0.06
6.2990,0.06,0.14,-0.99,5.98,1.04,-0.98
6.3130,0.07,0.12,-0.99,3.17,1.10,1.22
6.3300,0.08,0.13,-0.99,5.07,0.73,1.77
6.3450,0.08,0.13,-1.00,3.78,1.40,1.83
6.3610,0.08,0.13,-0.99,2.38,2.14,1.89
6.3760,0.08,0.12,-0.99,2.26,2.20,1.77
6.3930,0.07,0.13,-0.99,1.89,2.44,2.08
6.4090,0.07,0.14,-0.99,2.50,2.01,3.60
6.4240,0.08,0.13,-0.99,2.75,1.28,6.65
6.4400,0.08,0.11,-0.99,4.46,0.85,5.19
6.4540,0.07,0.12,-0.99,4.82,1.53,2.44
6.4690,0.07,0.12,-0.99,4.03,2.14,2.56
6.4840,0.08,0.13,-0.99,3.97,2.20,2.69
6.4990,0.08,0.14,-0.99,4.27,1.34,2.38
6.5140,0.07,0.11,-1.00,3.36,1.40,2.62
6.5290,0.08,0.13,-0.99,2.99,1.46,2.32
6.5440,0.08,0.14,-0.99,3.36,2.14,2.75
6.5610,0.08,0.13,-0.99,3.91,1.77,4.15
6.5780,0.08,0.15,-0.99,3.05,1.95,3.85
6.5930,0.06,0.13,-0.99,2.14,1.77,4.76
6.6070,0.06,0.10,-1.00,1.65,1.59,5.68
6.6230,0.07,0.10,-0.99,2.75,1.71,2.56
6.6380,0.08,0.13,-0.99,3.54,1.71,1.77
6.6530,0.08,0.13,-0.99,2.62,2.26,1.65
6.6700,0.08,0.13,-0.99,2.08,2.26,1.71
6.6860,0.08,0.12,-0.99,2.93,2.26,1.40
6.7020,0.08,0.13,-0.99,3.23,2.87,2.08
6.7180,0.07,0.12,-0.99,2.75,2.50,3.30
6.7340,0.07,0.13,-0.99,2.32,2.01,3.11
6.7500,0.07,0.13,-0.99,2.81,1.34,3.17
6.7650,0.08,0.11,-0.99,3.36,1.53,4.03
6.7800,0.08,0.11,-0.99,3.48,1.59,3.97
6.7950,0.08,0.14,-0.99,3.48,1.83,4.46
6.8110,0.08,0.11,-1.00,2.75,2.08,4.70
6.8260,0.08,0.11,-0.99,2.20,1.77,2.14
6.8400,0.08,0.15,-0.99,3.97,1.53,0.85
6.8560,0.08,0.13,-0.99,4.27,1.65,0.55
6.8710,0.07,0.12,-0.99,2.93,2.20,1.53
6.8860,0.07,0.12,-0.99,3.66,2.44,2.01
6.9020,0.07,0.13,-0.99,3.48,2.01,2.75
6.9170,0.08,0.13,-0.99,2.87,1.71,2.87
6.9330,0.07,0.12,-0.99,2.99,1.53,2.32
6.9480,0.08,0.12,-0.99,2.50,1.65,1.83
6.9640,0.07,0.12,-0.99,3.30,1.89,2.32
6.9810,0.07,0.13,-0.99,4.03,2.01,3.36
6.9960,0.08,0.16,-0.98,3.91,1.77,5.74
7.0110,0.08,0.12,-0.99,2.75,1.59,7.51
7.0260,0.07,0.09,-1.00,2.38,1.95,3.48
7.0420,0.07,0.10,-0.99,2.75,1.89,1.40
7.0570,0.07,0.12,-0.99,4.52,2.69,1.83
7.0720,0.07,0.12,-0.99,4.39,2.26,1.89
7.0870,0.07,0.13,-0.99,3.85,2.38,1.95
7.1020,0.07,0.12,-0.99,3.36,2.38,2.32
7.1180,0.07,0.12,-0.99,3.17,2.01,1.65
7.1350,0.08,0.13,-0.99,2.99,1.71,1.59
7.1500,0.07,0.12,-0.99,3.11,2.08,2.14
7.1650,0.07,0.13,-0.99,3.91,1.40,2.14
7.1820,0.08,0.12,-0.99,3.78,2.20,3.42
7.1970,0.07,0.13,-0.99,3.78,2.08,3.78
7.2130,0.08,0.15,-0.98,2.50,2.08,5.43
7.2270,0.07,0.12,-1.00,2.20,1.28,5.43
7.2430,0.07,0.11,-0.99,2.08,1.65,4.03
7.2600,0.08,0.11,-0.99,3.48,1.28,2.75
7.2770,0.07,0.13,-0.99,3.91,1.34,2.01
7.2920,0.07,0.14,-0.99,3.72,2.20,3.66
7.3080,0.07,0.16,-0.98,2.20,2.32,6.90
7.3240,0.08,0.10,-0.99,1.77,1.71,7.93
7.3390,0.08,0.10,-0.99,2.14,1.83,2.50
7.3550,0.07,0.11,-0.99,3.60,1.83,2.20
7.3720,0.07,0.15,-1.00,5.07,2.26,1.77
7.3870,0.07,0.12,-0.99,3.54,3.05,1.83
7.4030,0.07,0.12,-0.99,3.11,2.62,1.77
7.4170,0.07,0.12,-0.99,3.11,2.38,1.53
7.4330,0.08,0.13,-0.99,3.66,2.01,1.53
7.4490,0.07,0.12,-0.99,3.78,2.14,1.16
7.4630,0.07,0.12,-0.99,4.27,1.77,1.04
7.4800,0.08,0.12,-0.99,5.13,1.95,1.04
7.4960,0.07,0.13,-0.99,5.43,1.28,0.98
7.5110,0.07,0.13,-0.99,5.80,1.22,1.28
7.5270,0.11,0.15,-0.97,4.64,0.49,1.83
7.5430,0.07,0.12,-0.99,4.82,1.34,1.95
7.5570,0.08,0.13,-0.99,2.56,2.32,0.98
7.5740,0.07,0.15,-0.99,1.46,2.38,2.62
7.5890,0.07,0.10,-0.99,0.12,1.77,2.32
7.6040,0.10,0.12,-0.94,0.37,1.10,-0.49
7.6210,0.07,0.14,-0.99,4.03,2.20,-1.40
7.6370,0.11,0.07,-1.00,2.08,2.20,2.62
7.6520,0.07,0.13,-0.99,3.48,2.01,1.95
7.6670,0.07,0.13,-0.98,4.58,1.10,1.77
7.6830,0.08,0.13,-0.99,4.03,1.59,1.89
7.6990,0.08,0.13,-0.99,4.03,2.14,1.71
7.7150,0.08,0.13,-0.99,3.97,2.26,1.83
7.7300,0.07,0.12,-0.98,2.75,2.75,1.83
7.7460,0.08,0.12,-0.99,4.21,2.69,1.77
7.7610,0.08,0.13,-0.99,5.13,2.20,1.22
7.7750,0.07,0.15,-0.99,5.37,2.38,1.65
7.7900,0.07,0.13,-0.99,4.94,2.26,1.71
7.8050,0.08,0.13,-0.99,2.99,2.38,1.83
7.8200,0.08,0.13,-0.99,3.97,2.20,1.77
7.8360,0.08,0.13,-0.99,3.42,2.20,1.71
7.8520,0.08,0.13,-0.98,2.81,2.75,1.65
7.8680,0.07,0.12,-0.99,3.30,2.44,1.10
7.8850,0.07,0.13,-0.99,3.17,2.69,1.89
7.9000,0.07,0.13,-0.99,2.87,2.08,1.89
7.9150,0.08,0.13,-0.99,2.62,1.71,1.59
7.9310,0.07,0.12,-0.99,3.30,1.89,1.22
7.9460,0.08,0.14,-0.99,3.23,2.01,1.10
7.9620,0.08,0.12,-0.99,3.11,2.01,-0.24
7.9770,0.08,0.15,-0.98,3.48,1.89,0.12
7.9930,0.08,0.14,-0.99,4.21,2.14,1.16
8.0080,0.07,0.14,-0.98,3.05,2.14,1.59
8.0240,0.07,0.10,-0.99,2.93,1.71,1.59
8.0390,0.07,0.12,-0.99,3.42,1.46,0.67
8.0550,0.07,0.12,-0.99,3.91,1.40,1.04
8.0690,0.07,0.13,-0.99,3.78,1.83,1.65
8.0860,0.08,0.13,-0.99,2.50,2.32,1.77
8.1020,0.08,0.13,-0.99,2.26,2.20,2.26
8.1180,0.07,0.14,-0.99,3.23,2.14,2.99
8.1340,0.07,0.12,-0.99,1.95,1.89,3.17
8.1500,0.07,0.12,-0.99,2.32,1.53,2.08
8.1650,0.09,0.12,-0.99,3.42,1.77,1.53
8.1810,0.08,0.13,-1.00,3.05,2.01,1.89
8.1960,0.07,0.14,-0.99,2.99,2.50,2.32
8.2100,0.08,0.14,-0.99,2.99,2.69,2.38
8.2250,0.08,0.10,-0.99,2.44,1.65,3.66
8.2410,0.06,0.11,-0.99,2.44,2.01,2.62
8.2570,0.07,0.13,-0.99,3.11,1.77,1.71
8.2720,0.07,0.15,-0.99,3.85,1.65,3.42
8.2880,0.07,0.16,-0.98,2.99,1.83,6.59
8.3040,0.08,0.14,-0.99,2.75,1.71,7.63
8.3190,0.08,0.10,-0.99,2.14,1.59,6.53
8.3360,0.09,0.08,-0.99,2.44,2.01,3.42
8.3510,0.07,0.13,-0.99,3.54,1.77,1.40
8.3670,0.07,0.13,-0.99,3.42,2.44,1.46
8.3830,0.08,0.12,-0.99,2.93,2.20,0.85
8.3980,0.07,0.12,-0.99,3.48,2.32,2.38
8.4150,0.07,0.12,-0.99,2.93,2.38,2.26
8.4310,0.07,0.13,-0.99,2.50,2.26,2.38
8.4470,0.08,0.11,-0.99,3.23,1.89,2.20
8.4620,0.07,0.12,-0.99,3.54,1.77,1.83
8.4780,0.07,0.12,-0.99,3.72,1.65,1.89
8.4930,0.08,0.14,-0.99,3.42,2.26,2.81
8.5080,0.08,0.14,-0.99,2.69,2.38,5.55
8.5230,0.07,0.14,-0.98,2.81,2.01,5.92
8.5380,0.07,0.10,-1.00,2.69,1.59,4.21
8.5540,0.07,0.10,-0.99,2.81,1.59,2.62
8.5690,0.07,0.12,-0.99,4.03,1.16,2.01
8.5850,0.07,0.13,-0.99,4.09,1.53,2.93
8.6010,0.07,0.13,-0.99,3.60,2.44,4.46
8.6160,0.08,0.14,-0.99,2.69,2.26,5.98
8.6330,0.07,0.12,-0.99,2.44,1.71,5.00
8.6480,0.08,0.10,-0.99,2.08,1.71,1.28
8.6630,0.08,0.12,-0.99,3.17,1.83,1.34
8.6790,0.07,0.12,-0.99,3.05,2.26,1.83
8.6940,0.07,0.13,-0.99,4.21,2.56,3.17
8.7100,0.07,0.12,-0.99,3.60,2.14,3.30
8.7260,0.07,0.12,-0.99,3.66,1.71,1.95
8.7420,0.07,0.12,-0.99,3.78,2.01,1.46
8.7590,0.07,0.12,-0.99,4.03,1.95,1.65
8.7750,0.07,0.12,-0.99,4.27,2.14,1.77
8.7910,0.08,0.12,-0.99,4.03,1.95,1.77
8.8080,0.07,0.12,-0.99,4.52,1.71,1.65
8.8230,0.08,0.14,-0.98,5.80,1.16,1.46
8.8380,0.07,0.12,-1.00,6.23,0.55,0.79
8.8540,0.08,0.14,-0.99,5.62,1.16,2.56
8.8690,0.07,0.13,-1.00,4.70,1.28,2.93
8.8840,0.07,0.12,-0.99,2.01,2.32,2.69
8.9010,0.08,0.12,-0.99,2.93,2.08,3.05
8.9200,0.07,0.12,-0.99,4.21,1.71,2.20
8.9320,0.07,0.13,-0.99,4.03,1.59,1.89
8.9480,0.08,0.13,-0.99,3.36,1.89,2.01
8.9640,0.08,0.13,-0.99,2.75,2.01,1.83
8.9800,0.08,0.13,-0.99,2.69,2.56,1.65
8.9960,0.08,0.12,-0.99,2.20,2.08,2.14
9.0130,0.08,0.12,-0.99,3.72,2.50,2.01
9.0280,0.08,0.13,-0.99,3.36,2.44,2.14
9.0430,0.07,0.13,-0.99,3.11,2.38,2.08
9.0570,0.07,0.12,-0.99,2.99,2.38,3.05
9.0730,0.08,0.13,-0.99,2.81,2.01,1.71
9.0890,0.07,0.13,-0.99,2.44,2.01,1.59
9.1040,0.07,0.13,-0.99,3.42,1.59,2.20
9.1200,0.08,0.13,-0.99,4.09,1.83,3.91
9.1360,0.08,0.13,-0.99,2.93,2.08,4.09
9.1520,0.08,0.15,-0.98,2.81,2.38,4.33
9.1670,0.08,0.14,-0.99,3.23,1.59,7.39
9.1830,0.07,0.09,-1.00,2.62,1.34,5.80
9.1980,0.07,0.10,-0.99,2.38,1.59,1.83
9.2160,0.07,0.13,-0.99,3.72,2.14,1.77
9.2310,0.07,0.13,-0.99,2.62,2.32,2.32
9.2460,0.07,0.14,-0.99,2.99,1.95,3.72
9.2620,0.07,0.14,-0.99,2.93,1.46,4.70
9.2790,0.08,0.13,-0.99,2.69,1.53,3.85
9.2940,0.07,0.13,-0.99,2.81,1.71,2.50
9.3110,0.08,0.10,-1.00,3.30,2.26,3.05
9.3270,0.07,0.12,-0.99,3.48,2.56,2.32
9.3420,0.07,0.12,-0.99,3.78,2.50,3.05
9.3580,0.07,0.13,-0.99,3.05,2.14,2.69
9.3740,0.08,0.13,-0.99,2.81,1.89,2.26
9.3900,0.07,0.13,-0.99,3.42,1.95,1.95
9.4060,0.07,0.13,-0.99,4.27,1.77,2.99
9.4210,0.07,0.14,-0.99,4.46,1.46,4.15
9.4370,0.08,0.15,-1.00,4.27,0.98,7.45
9.4530,0.08,0.11,-0.99,2.99,1.10,6.16
9.4690,0.07,0.10,-0.99,3.05,1.83,2.62
9.4850,0.07,0.13,-0.99,4.27,1.95,1.59
9.5010,0.07,0.12,-0.99,4.03,2.01,1.77
9.5160,0.07,0.13,-0.99,3.85,2.08,1.53
9.5320,0.07,0.13,-0.99,3.30,1.83,1.59
9.5460,0.07,0.13,-0.98,2.93,1.83,1.59
9.5610,0.07,0.13,-0.99,3.66,1.65,1.83
9.5760,0.08,0.13,-0.99,3.17,1.59,1.53
9.5920,0.08,0.13,-0.99,3.54,1.65,1.16
9.6080,0.07,0.13,-0.99,3.17,2.01,1.59
9.6240,0.07,0.13,-0.99,3.05,1.95,2.01
9.6420,0.07,0.13,-0.99,3.54,2.20,2.81
9.6560,0.08,0.13,-0.99,3.23,1.46,2.26
9.6710,0.08,0.12,-0.99,3.60,1.40,1.53
9.6870,0.08,0.13,-0.99,3.05,2.14,1.28
9.7030,0.07,0.13,-0.99,3.42,2.26,1.65
9.7180,0.08,0.18,-0.97,4.52,0.67,5.25
9.7340,0.08,0.15,-0.99,3.42,0.92,6.71
9.7480,0.08,0.09,-1.00,1.71,1.59,4.76
9.7640,0.07,0.09,-0.99,1.83,1.89,0.92
9.7790,0.08,0.13,-0.99,3.78,1.83,1.53
9.7940,0.07,0.12,-0.99,2.75,1.95,1.77
9.8100,0.07,0.12,-0.99,2.44,2.14,1.89
9.8260,0.08,0.13,-0.99,2.93,2.01,2.01
9.8410,0.08,0.13,-0.99,2.81,1.95,1.65
9.8570,0.08,0.13,-0.99,2.32,2.14,1.53
9.8720,0.07,0.13,-0.99,2.50,2.99,2.08
9.8870,0.07,0.12,-0.99,3.11,1.83,2.62
9.9030,0.08,0.11,-0.99,3.72,2.14,3.17
9.9180,0.07,0.12,-0.99,3.54,1.77,2.26
9.9330,0.07,0.16,-0.99,2.93,1.40,5.25
9.9510,0.08,0.13,-0.99,2.56,2.01,6.84
9.9660,0.08,0.12,-0.99,2.20,1.46,6.41
9.9820,0.07,0.10,-0.99,3.23,2.44,3.97
9.9970,0.08,0.10,-0.99,2.69,2.26,1.46
10.0120,0.06,0.12,-0.99,4.03,2.75,2.08
10.0270,0.07,0.14,-0.99,4.64,2.38,2.14
10.0430,0.08,0.14,-0.99,3.78,1.89,2.81
10.0590,0.07,0.14,-0.99,2.69,2.01,4.15
10.0740,0.08,0.12,-1.00,2.20,1.83,3.91
10.0890,0.06,0.09,-0.99,2.01,2.26,2.01
10.1040,0.07,0.10,-0.99,3.66,2.20,1.65
10.1190,0.08,0.13,-0.99,3.91,2.32,2.01
10.1350,0.07,0.15,-0.99,3.97,1.40,3.85
10.1500,0.09,0.16,-0.99,2.62,1.65,5.98
10.1660,0.08,0.13,-0.98,1.71,0.98,9.34
10.1810,0.07,0.11,-0.99,2.38,1.46,7.93
10.1960,0.07,0.09,-0.99,2.81,0.98,5.74
10.2130,0.07,0.08,-0.99,3.54,1.10,3.54
10.2300,0.08,0.14,-0.99,5.68,1.46,1.77
10.2450,0.07,0.13,-0.99,2.50,2.62,2.01
10.2610,0.07,0.13,-0.99,2.38,2.32,4.27
10.2780,0.08,0.11,-0.99,2.81,1.71,4.82
10.2940,0.07,0.10,-0.99,3.42,1.53,3.78
10.3100,0.07,0.13,-0.99,4.09,2.38,1.95
10.3250,0.08,0.13,-0.99,3.78,1.59,2.32
10.3410,0.07,0.13,-0.99,3.36,2.20,2.62
10.3570,0.07,0.13,-0.99,3.23,2.56,2.99
10.3720,0.07,0.12,-0.99,2.69,2.38,3.17
10.3880,0.07,0.13,-0.99,3.54,1.77,2.93
10.4040,0.07,0.15,-0.99,4.09,0.12,6.84
10.4200,0.06,0.11,-0.99,2.69,1.04,7.51
10.4350,0.07,0.14,-0.99,2.62,1.46,5.37
10.4500,0.08,0.09,-1.00,3.30,1.53,5.98
10.4650,0.07,0.10,-0.99,2.38,1.77,1.65
10.4800,0.07,0.12,-0.99,3.91,2.32,1.53
10.4960,0.07,0.12,-0.99,4.15,1.59,1.59
10.5120,0.07,0.14,-0.99,4.82,1.46,1.89
10.5290,0.07,0.13,-0.99,3.60,2.01,2.38
10.5440,0.07,0.12,-0.99,3.17,1.95,2.56
10.5590,0.07,0.12,-0.99,2.81,1.65,1.71
10.5750,0.08,0.12,-0.99,3.11,1.71,1.53
10.5910,0.07,0.12,-0.99,3.48,1.83,1.77
10.6060,0.08,0.13,-0.99,4.46,1.65,1.77
10.6210,0.08,0.13,-0.99,4.15,1.65,2.32
10.6370,0.07,0.14,-0.99,4.15,1.77,2.75
10.6520,0.07,0.11,-1.01,4.82,0.06,4.03
10.6680,0.06,0.11,-0.99,3.78,1.16,1.04
10.6820,0.08,0.14,-0.98,5.19,0.37,1.04
10.6980,0.07,0.15,-0.99,6.41,0.00,2.50
10.7150,0.08,0.15,-0.99,4.46,0.61,3.85
10.7310,0.08,0.13,-0.99,4.09,0.61,5.68
10.7460,0.07,0.10,-0.99,3.17,1.16,3.97
10.7620,0.08,0.12,-0.99,3.30,1.95,2.87
10.7770,0.08,0.13,-0.99,3.97,1.65,3.11
10.7930,0.07,0.13,-0.99,4.58,1.28,3.85
10.8090,0.07,0.11,-0.99,3.05,1.83,2.26
10.8240,0.07,0.13,-0.99,3.05,1.71,1.46
10.8400,0.08,0.14,-0.99,2.93,1.77,1.34
10.8560,0.08,0.14,-0.98,1.83,2.50,1.71
10.8720,0.07,0.16,-1.00,4.21,1.77,4.58
10.8870,0.08,0.13,-1.00,3.78,1.16,6.53
10.9020,0.06,0.09,-0.99,2.69,1.59,4.94
10.9170,0.07,0.12,-0.99,1.95,2.87,1.89
10.9330,0.07,0.12,-0.99,3.11,2.56,2.08
10.9490,0.07,0.12,-0.99,3.30,1.71,1.53
10.9640,0.08,0.13,-0.99,3.36,1.89,1.22
10.9800,0.08,0.13,-0.99,2.69,2.01,1.10
10.9950,0.07,0.14,-0.99,2.62,2.08,2.26
11.0110,0.08,0.18,-0.98,2.81,1.89,3.97
11.0260,0.08,0.13,-0.99,2.99,1.40,7.57
11.0410,0.08,0.08,-1.00,2.81,1.77,4.94
11.0570,0.08,0.11,-0.99,2.56,2.14,1.59
11.0710,0.08,0.11,-0.99,2.75,2.38,2.20
11.0870,0.07,0.13,-0.99,3.66,2.20,1.95
11.1020,0.07,0.13,-0.99,3.36,2.01,2.50
11.1180,0.08,0.13,-0.99,3.30,1.83,2.56
11.1340,0.08,0.12,-0.99,2.81,2.81,1.95
11.1510,0.07,0.13,-0.99,2.69,2.50,2.14
11.1660,0.08,0.12,-0.99,3.17,2.01,2.50
11.1830,0.08,0.12,-0.99,3.42,2.08,2.44
11.1980,0.08,0.14,-0.99,3.48,2.01,2.32
11.2150,0.07,0.14,-0.99,3.72,2.01,3.36
11.2310,0.08,0.16,-0.98,2.93,1.65,4.94
11.2470,0.08,0.12,-0.99,2.38,1.83,5.98
11.2620,0.08,0.11,-0.99,2.87,2.26,4.58
11.2780,0.07,0.11,-0.99,3.42,1.83,4.52
11.2920,0.07,0.12,-0.99,3.23,2.32,2.75
11.3080,0.07,0.13,-0.99,3.36,2.50,3.17
11.3230,0.07,0.15,-0.99,3.23,2.26,4.03
11.3390,0.08,0.15,-0.99,3.30,1.10,8.85
11.3540,0.07,0.09,-1.00,2.08,1.40,7.02
11.3680,0.07,0.10,-0.99,2.50,1.71,2.38
11.3850,0.08,0.12,-0.99,3.60,2.01,1.83
11.3990,0.07,0.13,-0.99,3.23,1.95,2.69
11.4150,0.07,0.14,-0.99,3.72,2.32,3.78
11.4310,0.08,0.16,-0.97,2.93,1.40,7.08
11.4460,0.07,0.10,-0.99,1.71,1.53,8.00
11.4610,0.08,0.10,-1.00,2.20,1.77,3.48
11.4770,0.07,0.12,-0.99,3.23,2.08,2.99
11.4920,0.07,0.12,-0.99,3.60,2.01,3.36
11.5070,0.08,0.12,-0.99,3.54,1.71,3.11
11.5240,0.08,0.16,-0.98,3.60,1.71,3.78
11.5380,0.08,0.15,-0.99,3.23,1.53,7.81
11.5540,0.07,0.12,-0.99,2.20,1.89,7.57
11.5680,0.07,0.12,-0.99,2.32,1.46,7.14
11.5850,0.06,0.11,-0.99,2.62,1.22,6.71
11.6000,0.07,0.10,-0.99,2.69,1.22,5.68
11.6150,0.08,0.11,-0.99,3.85,1.28,1.71
11.6310,0.08,0.13,-0.99,3.91,2.01,1.77
11.6470,0.07,0.14,-0.98,3.23,2.38,2.20
11.6620,0.07,0.15,-0.99,3.05,2.20,5.80
11.6780,0.08,0.15,-0.98,2.81,0.92,7.32
11.6930,0.08,0.08,-0.99,2.44,1.16,6.10
11.7090,0.08,0.10,-0.98,3.11,1.83,1.89
11.7230,0.07,0.13,-0.99,5.31,2.20,1.95
11.7390,0.07,0.13,-0.99,4.33,2.01,1.77
11.7540,0.07,0.13,-0.99,3.05,2.56,1.95
11.7690,0.07,0.13,-0.99,3.30,2.26,1.95
11.7840,0.07,0.13,-0.99,3.05,1.71,2.08
11.8000,0.08,0.12,-0.99,3.05,1.77,1.89
11.8160,0.08,0.13,-0.99,3.60,2.14,1.71
11.8300,0.07,0.13,-0.99,3.11,2.01,1.89
11.8460,0.07,0.14,-0.99,3.42,2.08,4.21
11.8610,0.07,0.13,-0.99,3.05,2.20,5.37
11.8760,0.08,0.12,-0.98,2.93,1.53,3.85
11.8910,0.07,0.12,-0.99,3.17,1.71,2.56
11.9060,0.07,0.12,-0.99,3.85,2.14,2.32
11.9210,0.07,0.12,-0.99,3.54,2.14,2.08
11.9360,0.07,0.12,-0.99,3.85,2.01,1.83
11.9520,0.07,0.13,-0.99,3.60,2.38,1.95
11.9680,0.07,0.13,-0.98,3.72,2.38,3.60
11.9840,0.07,0.17,-0.97,2.32,1.59,5.92
12.0000,0.07,0.13,-0.98,2.81,0.98,9.95
12.0150,0.08,0.07,-1.00,3.54,0.73,7.26
12.0310,0.07,0.12,-0.99,4.27,1.65,1.53
12.0460,0.08,0.13,-0.99,5.55,1.65,1.10
12.0610,0.07,0.13,-0.99,3.48,1.95,1.10
12.0760,0.07,0.13,-0.99,3.17,2.32,1.65
12.0920,0.07,0.13,-0.99,3.30,1.89,1.83
12.1070,0.07,0.13,-0.99,3.36,2.01,1.89
12.1220,0.07,0.13,-0.99,3.11,2.20,1.77
12.1380,0.07,0.13,-0.99,3.36,1.65,1.65
12.1530,0.07,0.13,-0.99,3.11,2.14,1.83
12.1690,0.07,0.13,-0.99,3.54,2.20,2.26
12.1840,0.07,0.16,-1.00,4.33,2.20,4.64
12.2010,0.07,0.13,-1.00,3.97,0.31,9.70
12.2170,0.07,0.08,-0.99,1.89,1.59,2.50
12.2330,0.07,0.09,-0.99,2.93,1.83,1.28
12.2490,0.07,0.14,-1.00,4.82,1.89,1.89
12.2640,0.07,0.13,-0.99,3.23,1.89,2.38
12.2790,0.07,0.13,-0.99,3.23,2.08,3.36
12.2940,0.08,0.12,-0.99,2.87,1.71,2.50
12.3110,0.08,0.13,-0.99,3.54,2.08,1.46
12.3260,0.07,0.13,-0.99,2.69,2.14,1.28
12.3420,0.08,0.13,-0.99,3.30,1.95,1.28
12.3580,0.07,0.12,-0.99,3.60,2.20,1.83
12.3730,0.08,0.13,-0.99,3.60,2.44,2.20
12.3880,0.07,0.13,-0.99,3.85,2.14,2.38
12.4030,0.07,0.12,-0.99,2.81,2.26,1.46
12.4190,0.08,0.13,-0.99,3.05,2.01,1.71
12.4340,0.07,0.13,-0.98,3.72,2.50,2.32
12.4510,0.08,0.18,-0.98,4.27,1.04,4.64
12.4650,0.06,0.11,-1.00,3.23,1.28,7.93
12.4800,0.07,0.11,-0.99,2.20,2.20,3.48
12.4950,0.07,0.11,-0.99,3.78,2.20,3.66
12.5100,0.07,0.11,-0.99,3.36,1.95,1.77
12.5250,0.08,0.13,-0.99,3.66,2.26,1.53
12.5400,0.07,0.13,-0.99,2.87,2.75,1.59
12.5550,0.07,0.13,-0.99,3.72,2.26,2.69
12.5700,0.07,0.13,-0.99,3.60,2.20,3.30
12.5860,0.08,0.13,-0.99,3.05,1.95,3.48
12.6020,0.07,0.13,-0.99,3.23,2.44,1.83
12.6170,0.07,0.13,-0.99,3.72,1.65,2.20
12.6320,0.07,0.14,-0.99,3.42,2.14,2.93
12.6470,0.08,0.16,-0.99,2.50,1.04,6.77
12.6640,0.07,0.12,-0.98,2.62,0.67,7.93
12.6800,0.07,0.10,-1.00,2.99,1.40,5.31
12.6960,0.07,0.09,-0.99,4.21,1.83,2.32
12.7100,0.08,0.13,-0.99,4.33,2.01,1.53
12.7270,0.07,0.14,-0.99,3.23,2.99,1.71
12.7430,0.07,0.15,-0.99,3.11,2.26,3.72
12.7580,0.07,0.17,-0.99,3.05,-0.24,9.77
12.7740,0.07,0.11,-0.99,1.95,0.31,10.13
12.7890,0.07,0.06,-1.00,3.36,1.53,5.98
12.8030,0.07,0.07,-0.99,2.87,1.71,2.87
12.8180,0.08,0.12,-0.99,4.94,2.14,0.37
12.8340,0.07,0.15,-0.99,3.91,2.44,-0.61
12.8500,0.07,0.12,-0.99,2.26,2.75,1.89
12.8670,0.07,0.13,-0.99,3.30,2.38,2.69
12.8820,0.08,0.12,-0.99,2.93,2.32,2.62
12.8980,0.07,0.12,-0.99,3.48,2.01,1.59
12.9140,0.07,0.13,-0.99,3.54,1.89,1.04
12.9290,0.07,0.12,-0.99,2.87,2.08,1.28
12.9450,0.07,0.13,-0.99,3.23,2.14,1.83
12.9600,0.07,0.13,-0.99,2.69,2.62,2.38
12.9750,0.07,0.13,-0.99,2.26,2.50,2.08
12.9900,0.07,0.13,-0.99,2.44,2.14,1.71
13.0070,0.07,0.13,-0.99,2.08,2.44,2.20
13.0220,0.07,0.12,-0.99,2.87,1.95,2.26
13.0370,0.07,0.13,-1.00,4.21,1.77,1.71
13.0530,0.08,0.13,-0.99,1.71,3.05,1.77
13.0690,0.07,0.12,-0.98,1.34,3.30,2.75
13.0840,0.07,0.12,-0.99,3.17,2.26,1.77
13.1010,0.07,0.12,-0.98,3.85,1.40,0.92
13.1160,0.07,0.13,-0.98,2.56,2.62,1.65
13.1310,0.07,0.12,-1.00,3.23,2.14,2.32
13.1470,0.07,0.11,-0.99,3.30,2.32,1.95
13.1620,0.07,0.13,-0.99,3.54,2.50,1.40
13.1780,0.07,0.13,-0.99,3.17,2.62,1.59
13.1940,0.07,0.12,-1.00,4.15,2.62,2.32
13.2080,0.07,0.12,-0.99,4.09,2.81,1.46
13.2240,0.08,0.14,-0.99,3.97,1.83,1.34
13.2400,0.07,0.11,-0.99,3.60,2.26,2.01
13.2550,0.07,0.11,-0.99,3.48,1.83,1.83
13.2700,0.07,0.13,-0.99,3.78,1.95,1.83
13.2880,0.07,0.13,-0.99,3.05,2.08,1.59
13.3040,0.07,0.13,-0.99,3.91,2.56,1.77
13.3210,0.07,0.13,-1.00,3.60,1.95,2.50
13.3370,0.07,0.11,-0.99,3.23,2.08,2.56
13.3520,0.07,0.12,-0.99,3.60,2.08,1.77
13.3680,0.07,0.12,-0.99,3.54,2.08,1.46
13.3830,0.08,0.13,-0.99,2.62,2.56,1.22
13.3980,0.07,0.13,-0.99,3.60,2.26,1.04
13.4130,0.06,0.14,-0.99,4.21,1.65,1.89
13.4290,0.06,0.13,-1.00,4.76,1.34,2.93
13.4440,0.07,0.13,-0.99,3.72,2.26,2.69
13.4590,0.08,0.11,-0.98,3.66,2.08,2.38
13.4760,0.07,0.11,-0.99,3.42,2.56,1.34
13.4920,0.06,0.12,-0.99,3.97,2.62,1.95
13.5080,0.07,0.13,-0.99,3.85,1.77,2.87
13.5240,0.07,0.13,-0.99,3.05,1.59,3.05
13.5390,0.07,0.12,-0.99,3.30,1.83,2.93
13.5550,0.07,0.12,-0.99,2.99,1.83,1.46
13.5690,0.08,0.13,-0.99,2.99,1.59,1.10
13.5850,0.07,0.13,-0.99,3.30,2.44,1.46
13.6000,0.07,0.13,-0.99,3.42,2.08,2.32
13.6160,0.06,0.13,-0.99,3.11,2.01,3.85
13.6330,0.06,0.14,-0.98,2.87,2.50,4.82
13.6480,0.09,0.10,-0.99,4.03,-0.18,6.65
13.6650,0.08,0.12,-0.98,2.38,2.01,-0.18
13.6790,0.07,0.12,-0.99,4.70,2.14,0.73
13.6940,0.07,0.13,-1.00,3.97,2.44,1.40
13.7100,0.07,0.12,-0.99,2.69,1.71,1.71
13.7260,0.07,0.11,-0.99,3.30,1.71,1.83
13.7420,0.07,0.13,-0.99,4.76,0.79,1.10
13.7580,0.07,0.13,-0.99,4.15,1.16,1.28
13.7740,0.07,0.13,-0.99,4.33,1.10,1.59
13.7890,0.07,0.13,-0.99,4.09,1.16,1.83
13.8040,0.08,0.13,-0.99,4.09,1.04,1.83
13.8190,0.07,0.12,-0.99,4.21,1.71,1.65
13.8340,0.07,0.13,-0.99,4.39,1.53,1.53
13.8490,0.07,0.13,-0.99,3.85,1.59,1.77
13.8660,0.07,0.12,-0.98,3.97,0.79,1.95
13.8800,0.07,0.12,-0.98,6.71,-0.24,1.83
13.8960,0.09,0.13,-0.99,8.42,-1.65,1.77
13.9120,0.08,0.14,-1.00,8.18,-1.53,1.59
13.9270,0.08,0.14,-0.99,5.31,1.04,1.71
13.9430,0.08,0.14,-0.99,2.62,2.93,1.59
13.9580,0.08,0.15,-0.99,1.22,3.91,1.89
13.9740,0.07,0.14,-0.98,1.89,3.85,1.95
13.9900,0.09,0.15,-1.01,1.46,3.66,1.77
14.0050,0.08,0.14,-1.00,1.40,3.23,1.89
14.0200,0.07,0.13,-0.98,1.04,4.27,2.14
14.0350,0.08,0.13,-0.99,1.89,3.17,1.89
14.0500,0.06,0.15,-1.00,3.91,2.32,1.77
14.0640,0.07,0.11,-0.97,1.71,2.44,1.89
14.0810,0.07,0.12,-1.00,3.30,2.87,1.95
14.0970,0.07,0.13,-0.99,3.85,2.08,1.89
14.1130,0.08,0.14,-1.00,3.85,1.71,1.40
14.1290,0.05,0.12,-0.96,4.70,0.98,1.46
14.1450,0.08,0.13,-0.97,4.33,0.37,1.46
14.1610,0.08,0.13,-0.99,3.48,1.28,1.77
14.1760,0.08,0.13,-0.99,3.78,1.53,1.71
14.1910,0.08,0.14,-0.99,3.91,1.40,1.59
14.2060,0.07,0.13,-0.99,2.62,2.01,1.65
14.2230,0.07,0.13,-0.98,2.69,2.08,1.59
14.2370,0.07,0.13,-0.99,2.56,1.89,1.77
14.2530,0.08,0.13,-0.99,2.87,2.01,1.77
14.2680,0.07,0.13,-0.99,2.62,2.01,1.77
14.2820,0.07,0.13,-0.99,2.62,2.50,2.01
14.2980,0.07,0.12,-0.99,2.93,2.01,2.14
14.3140,0.07,0.13,-0.99,3.30,2.08,1.71
14.3290,0.08,0.13,-0.99,3.11,2.26,1.77
14.3440,0.08,0.13,-0.99,2.99,2.08,1.77
14.3610,0.07,0.13,-0.99,2.87,1.89,2.20
14.3750,0.07,0.12,-1.00,3.30,1.77,3.36
14.3920,0.07,0.13,-0.99,3.48,2.32,2.14
14.4070,0.08,0.13,-0.99,2.87,2.01,1.65
14.4230,0.07,0.13,-0.99,3.42,2.14,1.71
14.4380,0.07,0.13,-0.99,3.48,1.95,1.71
14.4530,0.07,0.13,-0.99,3.17,1.89,1.46
14.4700,0.08,0.13,-0.99,3.11,1.71,1.65
14.4850,0.07,0.13,-0.99,3.11,2.38,1.77
14.5010,0.07,0.13,-0.99,2.81,2.44,1.71
14.5180,0.07,0.13,-0.99,3.60,1.95,1.89
14.5330,0.07,0.13,-0.99,3.30,1.89,1.65
14.5490,0.08,0.13,-0.99,3.48,2.01,1.83
14.5640,0.07,0.12,-0.99,3.72,1.77,1.53
14.5790,0.08,0.13,-0.99,4.15,1.71,1.65
14.5950,0.04,0.26,-0.95,2.87,1.16,2.08
14.6110,0.08,0.17,-0.99,3.11,-1.10,14.22
14.6260,0.08,0.12,-0.98,2.99,-0.43,14.22
14.6410,0.07,0.05,-1.00,2.20,0.49,10.50
14.6570,0.08,0.12,-0.99,3.23,1.95,2.44
14.6730,0.08,0.13,-0.99,3.85,2.38,1.83
14.6880,0.08,0.13,-0.99,4.03,2.08,1.77
14.7030,0.08,0.13,-0.99,3.30,2.14,1.65
14.7190,0.07,0.13,-0.99,3.23,1.83,1.59
14.7340,0.07,0.13,-0.99,2.69,2.26,1.40
14.7490,0.08,0.12,-0.99,2.93,1.71,1.40
14.7640,0.08,0.13,-0.99,3.60,1.34,1.65
14.7810,0.07,0.13,-0.99,3.36,2.69,1.89
14.7960,0.08,0.13,-0.99,4.09,2.38,1.77
14.8120,0.07,0.13,-0.99,3.97,2.44,1.59
14.8280,0.08,0.12,-0.99,3.91,2.32,1.16
14.8440,0.08,0.12,-0.99,4.82,2.08,-0.37
14.8590,0.07,0.14,-0.99,5.00,2.08,-1.28
14.8750,0.07,0.13,-0.99,3.23,2.26,1.46
14.8910,0.07,0.13,-0.99,2.99,1.59,1.77
14.9070,0.08,0.13,-0.99,3.48,1.53,1.71
14.9220,0.09,0.11,-0.98,4.09,2.08,0.73
14.9360,0.08,0.12,-0.99,4.03,2.81,-2.44
14.9510,0.07,0.13,-0.99,4.03,2.75,-2.44
14.9660,0.07,0.14,-0.99,3.54,2.75,-1.22
14.9820,0.07,0.13,-0.99,2.20,2.69,-0.98
14.9980,0.07,0.13,-0.99,2.26,2.32,0.00
15.0130,0.07,0.13,-0.99,3.23,2.14,0.12
15.0290,0.08,0.13,-0.99,4.09,1.95,0.79
15.0440,0.08,0.13,-0.99,3.66,1.95,1.46
15.0610,0.08,0.13,-0.99,3.60,1.95,1.22
15.0760,0.08,0.13,-0.99,3.05,2.14,1.59
15.0910,0.07,0.13,-0.99,3.05,2.44,1.71
15.1060,0.07,0.13,-0.99,3.48,2.62,1.89
15.1220,0.08,0.13,-0.99,3.05,2.01,1.89
15.1370,0.07,0.13,-0.99,3.30,1.59,1.89
15.1530,0.08,0.13,-0.99,3.60,1.28,1.65
15.1690,0.08,0.13,-0.99,3.48,1.53,1.71
15.1840,0.08,0.12,-0.99,2.50,2.01,1.83
15.1990,0.08,0.12,-0.99,3.72,2.44,1.95
15.2140,0.07,0.14,-0.99,4.33,2.01,1.83
15.2300,0.08,0.13,-0.99,2.99,1.53,1.65
15.2460,0.08,0.13,-0.99,3.30,1.95,2.08
15.2610,0.07,0.13,-0.99,2.69,1.59,1.89
15.2760,0.08,0.12,-0.99,2.87,1.59,1.89
15.2920,0.06,0.12,-1.00,4.94,0.92,2.20
15.3070,0.07,0.13,-0.99,4.64,0.92,4.21
15.3240,0.10,0.14,-0.99,3.42,1.40,3.42
15.3400,0.08,0.13,-0.99,2.08,2.20,1.83
15.3550,0.08,0.11,-1.00,1.77,2.56,1.71
15.3710,0.08,0.13,-0.98,1.89,2.81,1.89
15.3860,0.07,0.14,-1.00,1.83,3.11,2.01
15.4010,0.07,0.15,-1.00,1.34,2.81,3.54
15.4180,0.07,0.06,-1.00,0.98,2.75,4.70
15.4330,0.07,0.11,-1.00,0.85,1.34,1.28
15.4480,0.09,0.21,-1.08,1.22,0.92,0.73
15.4640,0.06,0.11,-0.90,2.81,3.78,-2.87
15.4800,0.06,0.15,-1.00,10.13,4.21,-4.64
15.4950,0.08,0.08,-0.98,6.47,2.08,-1.83
15.5110,0.08,0.13,-0.98,4.27,2.14,1.77
15.5270,0.08,0.13,-0.99,3.54,2.56,1.95
15.5420,0.07,0.12,-0.99,4.64,2.50,1.04
15.5580,0.08,0.12,-0.98,7.51,1.77,2.14
15.5730,0.08,0.12,-0.99,3.72,2.32,2.14
15.5880,0.07,0.12,-0.98,3.05,2.38,1.95
15.6030,0.07,0.13,-0.99,4.09,2.38,1.89
15.6190,0.07,0.13,-0.99,4.82,2.50,2.08
15.6340,0.07,0.10,-1.00,1.34,2.26,1.59
15.6500,0.08,0.16,-1.01,7.08,2.14,2.14
15.6660,0.07,0.12,-0.99,2.26,2.62,1.59
15.6810,0.08,0.14,-0.99,4.39,2.26,1.71
15.6970,0.07,0.13,-0.99,2.81,2.26,1.65
15.7120,0.08,0.12,-0.99,3.30,2.08,1.89
15.7270,0.08,0.13,-0.99,3.60,1.95,1.77
15.7410,0.07,0.13,-0.99,3.48,1.95,1.83
15.7570,0.08,0.13,-0.99,3.60,1.95,1.83
15.7720,0.08,0.13,-0.99,3.30,2.50,1.83
15.7870,0.09,0.13,-0.99,3.54,2.38,1.89
15.8020,0.08,0.13,-0.99,3.97,2.26,2.01
15.8180,0.07,0.12,-0.99,3.11,2.38,1.77
15.8340,0.07,0.13,-0.99,3.30,2.38,1.77
15.8500,0.08,0.13,-0.99,3.54,2.08,1.95
15.8650,0.08,0.10,-0.96,3.78,2.08,1.89
15.8820,0.09,0.16,-1.01,8.24,2.38,2.20
15.8970,0.06,0.16,-0.99,2.50,2.26,0.18
15.9120,0.07,0.12,-0.99,1.95,1.65,1.65
15.9270,0.07,0.12,-0.99,3.85,1.77,1.95
15.9420,0.08,0.12,-0.98,3.72,1.89,1.95
15.9580,0.08,0.14,-1.00,4.33,1.71,1.95
15.9730,0.07,0.13,-0.99,2.08,2.20,1.95
15.9890,0.08,0.13,-0.99,2.14,1.83,1.77
16.0050,0.08,0.13,-0.99,2.38,2.14,1.83
16.0200,0.08,0.12,-0.98,4.52,2.50,1.95
16.0350,0.08,0.12,-0.99,5.37,2.38,2.14
16.0500,0.08,0.14,-0.99,4.46,2.44,2.01
16.0660,0.07,0.13,-0.99,2.32,1.83,1.77
16.0810,0.08,0.12,-0.98,1.77,2.50,1.77
16.0960,0.09,0.17,-1.00,6.90,2.14,1.89
16.1120,0.08,0.09,-0.98,-0.12,2.44,1.59
16.1290,0.07,0.15,-0.99,3.23,2.14,1.71
16.1450,0.07,0.11,-0.98,1.83,2.01,1.89
16.1590,0.07,0.13,-0.99,3.54,1.95,1.83
16.1750,0.07,0.14,-0.99,4.15,1.95,1.77
16.1910,0.08,0.13,-0.99,2.81,1.95,1.77
16.2060,0.08,0.13,-0.99,2.99,2.20,1.71
16.2210,0.07,0.13,-0.99,3.42,2.20,1.77
16.2360,0.07,0.12,-0.99,3.11,2.14,1.89
16.2510,0.08,0.12,-0.98,4.09,2.20,2.14
16.2660,0.08,0.15,-1.00,5.07,2.50,2.20
16.2830,0.08,0.14,-0.99,3.60,1.83,1.83
16.2990,0.08,0.13,-0.98,2.20,2.62,1.95
16.3170,0.07,0.12,-0.99,1.28,2.87,1.95
16.3320,0.08,0.12,-0.99,2.14,2.32,1.83
16.3480,0.07,0.14,-0.99,2.08,2.14,0.92
16.3640,0.07,0.13,-0.99,0.49,2.32,1.46
16.3790,0.07,0.13,-0.99,1.65,2.20,1.53
16.3950,0.08,0.12,-0.99,1.71,2.32,1.22
16.4110,0.09,0.14,-1.03,4.46,0.79,-0.49
16.4270,0.08,0.06,-0.95,2.08,2.69,-3.91
16.4420,0.05,0.16,-0.97,3.54,4.15,-5.31
16.4570,0.07,0.12,-0.98,2.75,2.08,1.65
16.4730,0.08,0.12,-0.99,2.56,1.65,1.83
16.4900,0.08,0.12,-0.99,3.23,1.59,1.65
16.5060,0.08,0.12,-0.99,4.70,1.46,1.65
16.5220,0.08,0.13,-0.99,5.19,2.14,1.77
16.5380,0.08,0.13,-0.99,3.97,2.08,1.71
16.5530,0.07,0.13,-0.99,3.05,2.14,1.65
16.5680,0.07,0.13,-0.99,2.87,1.34,1.59
16.5840,0.08,0.13,-0.99,2.99,1.95,1.65
16.5990,0.07,0.12,-0.98,4.21,1.59,1.65
16.6150,0.08,0.13,-0.99,5.19,1.28,1.65
16.6310,0.08,0.12,-0.99,4.21,1.46,0.12
16.6460,0.07,0.13,-0.99,3.42,2.20,-0.31
16.6630,0.08,0.13,-0.99,3.60,2.14,0.61
16.6780,0.08,0.13,-0.99,3.91,2.14,0.31
16.6940,0.08,0.13,-1.00,4.03,2.14,-0.18
16.7110,0.09,0.13,-0.99,3.60,2.81,0.49
16.7260,0.10,0.12,-0.99,3.72,2.20,0.12
16.7420,0.08,0.13,-0.98,3.72,2.14,-0.24
16.7580,0.07,0.13,-1.00,4.03,2.44,0.73
16.7730,0.06,0.13,-1.00,4.03,2.32,0.73
16.7890,0.07,0.14,-1.00,3.42,2.62,0.79
16.8050,0.07,0.13,-0.99,2.26,2.75,1.65
16.8200,0.08,0.13,-0.99,2.75,2.62,2.08
16.8360,0.08,0.13,-0.99,3.05,1.89,1.77
16.8520,0.08,0.13,-0.99,3.54,1.95,1.89
16.8680,0.08,0.13,-0.99,3.91,2.14,1.83
16.8840,0.08,0.13,-0.99,2.75,2.14,1.65
16.8990,0.08,0.12,-0.99,2.87,2.62,1.83
16.9140,0.07,0.13,-0.98,3.30,2.08,1.83
16.9300,0.08,0.13,-0.99,3.17,1.83,1.83
16.9460,0.08,0.12,-0.99,2.62,1.71,1.40
16.9610,0.08,0.12,-0.99,2.99,1.83,1.34
16.9760,0.08,0.12,-0.99,3.05,1.95,1.46
16.9920,0.08,0.13,-0.99,3.66,1.95,1.28
17.0070,0.07,0.13,-0.99,3.23,1.89,0.85
17.0230,0.08,0.13,-0.99,2.69,2.08,1.04
17.0390,0.08,0.13,-0.99,3.11,2.26,0.85
17.0550,0.08,0.12,-0.98,2.38,2.44,0.55
17.0700,0.07,0.12,-0.99,3.66,2.26,1.22
17.0860,0.07,0.14,-0.99,3.91,2.26,1.89
17.1010,0.08,0.13,-0.99,3.23,2.26,1.83
17.1180,0.08,0.12,-0.99,3.78,1.77,1.59
17.1330,0.08,0.12,-0.99,3.30,1.77,1.10
17.1490,0.08,0.12,-0.98,2.75,2.26,0.55
17.1650,0.07,0.13,-1.00,3.48,2.50,0.98
17.1820,0.07,0.13,-0.99,3.48,2.01,1.83
17.1980,0.08,0.13,-0.99,3.72,1.71,1.95
17.2140,0.08,0.13,-0.99,3.23,1.89,1.71
17.2290,0.08,0.12,-0.99,3.17,1.95,1.71
17.2460,0.07,0.12,-0.99,3.60,2.14,1.89
17.2610,0.09,0.13,-0.99,3.72,2.08,2.08
17.2760,0.08,0.13,-0.99,3.11,1.89,1.65
17.2920,0.09,0.13,-0.99,3.42,1.40,1.28
17.3070,0.08,0.12,-0.99,2.93,2.01,1.34
17.3220,0.07,0.13,-0.99,3.11,1.89,1.46
17.3380,0.07,0.12,-0.99,2.93,1.83,1.65
17.3540,0.07,0.13,-0.99,3.17,1.95,1.65
17.3690,0.08,0.13,-0.99,2.93,2.01,1.34
17.3850,0.08,0.13,-0.99,3.23,1.95,1.10
17.4000,0.07,0.13,-0.99,3.36,2.20,1.28
17.4150,0.08,0.12,-0.99,3.36,1.83,1.77
17.4300,0.07,0.12,-0.99,3.91,2.20,2.14
17.4450,0.07,0.12,-0.99,2.93,1.83,1.77
17.4600,0.08,0.13,-0.99,2.81,2.08,1.53
17.4760,0.08,0.14,-0.99,2.93,2.01,1.22
17.4910,0.08,0.11,-0.99,2.87,2.08,1.16
17.5070,0.07,0.12,-0.99,3.60,1.95,1.77
17.5220,0.08,0.13,-0.99,3.60,2.14,1.83
17.5390,0.09,0.12,-0.99,2.62,2.01,1.59
17.5540,0.08,0.12,-0.99,3.05,2.01,1.65
17.5700,0.09,0.14,-0.99,3.48,2.01,1.89
17.5850,0.08,0.13,-0.99,2.75,1.83,3.30
17.6010,0.08,0.13,-0.99,3.23,1.65,4.46
17.6160,0.07,0.12,-0.99,3.23,1.83,2.62
17.6310,0.07,0.12,-0.99,3.17,1.95,1.89
17.6470,0.08,0.13,-0.99,3.05,1.77,1.16
17.6630,0.08,0.13,-0.99,3.91,2.14,0.61
17.6780,0.08,0.13,-0.99,3.60,2.32,0.85
17.6940,0.07,0.12,-0.99,3.36,2.32,1.28
17.7090,0.07,0.12,-0.99,3.60,1.71,1.40
17.7260,0.08,0.12,-0.99,3.42,1.71,1.34
17.7420,0.08,0.12,-0.99,4.03,2.01,0.92
17.7580,0.07,0.13,-0.99,3.66,2.38,1.34
17.7740,0.07,0.13,-0.99,3.54,2.20,1.59
17.7890,0.08,0.12,-0.99,3.42,1.89,1.77
17.8050,0.08,0.12,-0.99,3.17,2.14,1.77
17.8200,0.08,0.12,-0.99,3.60,2.26,2.01
17.8360,0.10,0.12,-0.98,3.91,1.89,1.28
17.8510,0.08,0.13,-0.99,4.03,1.59,0.67
17.8660,0.07,0.13,-0.99,3.72,2.32,1.16
17.8830,0.07,0.13,-0.99,3.11,2.20,1.53
17.8980,0.08,0.12,-0.99,3.30,2.20,1.71
17.9140,0.08,0.12,-0.99,4.03,2.20,1.59
17.9300,0.08,0.13,-0.99,3.60,2.20,1.28
17.9450,0.08,0.13,-0.99,3.30,2.20,1.59
17.9600,0.08,0.13,-0.99,3.11,1.95,1.71
17.9750,0.08,0.13,-0.99,2.99,2.01,1.71
17.9900,0.08,0.12,-0.99,3.05,2.08,1.59
18.0050,0.09,0.12,-0.99,3.36,2.38,1.53
18.0200,0.08,0.12,-0.99,3.23,1.89,0.67
18.0360,0.08,0.13,-0.99,4.09,1.89,0.55
18.0530,0.08,0.13,-0.99,3.17,2.14,0.55
18.0680,0.07,0.13,-0.99,2.81,2.26,1.34
18.0830,0.07,0.13,-0.99,3.17,2.20,1.65
18.1000,0.08,0.12,-0.99,2.99,2.01,1.53
18.1160,0.08,0.12,-0.99,3.36,1.95,1.53
18.1310,0.08,0.13,-0.99,3.60,2.08,1.46
18.1460,0.09,0.14,-1.00,3.30,2.14,1.16
18.1610,0.07,0.13,-0.99,2.26,2.38,1.28
18.1760,0.07,0.12,-0.99,3.11,2.14,1.65
18.1910,0.07,0.12,-0.99,3.17,2.01,1.65
18.2070,0.08,0.12,-0.99,3.66,1.95,1.46
18.2220,0.08,0.12,-0.99,4.03,1.71,0.98
18.2380,0.08,0.13,-0.99,3.72,1.95,0.67
18.2540,0.07,0.13,-0.99,2.93,2.81,1.16
18.2680,0.07,0.12,-0.99,3.36,2.08,1.59
18.2840,0.07,0.13,-0.99,3.36,1.83,1.65
18.2990,0.08,0.12,-0.99,3.05,1.53,1.53
18.3150,0.08,0.12,-0.99,3.60,1.53,1.59
18.3300,0.08,0.13,-0.99,3.78,1.71,1.71
18.3460,0.09,0.13,-0.99,3.78,1.77,1.65
18.3620,0.08,0.12,-0.99,3.48,1.77,1.16
18.3780,0.08,0.13,-0.99,3.36,2.14,1.10
18.3930,0.08,0.12,-0.99,2.56,2.26,1.10
18.4080,0.07,0.12,-0.99,3.91,1.89,1.59
18.4230,0.07,0.12,-0.98,3.91,2.32,1.77
18.4390,0.08,0.13,-0.99,3.60,2.20,1.71
18.4550,0.08,0.13,-0.99,3.48,1.83,1.46
18.4700,0.09,0.12,-0.99,3.17,2.08,1.16
18.4860,0.09,0.12,-0.99,3.66,2.14,0.79
18.5020,0.08,0.12,-0.99,3.36,2.38,1.04
18.5180,0.07,0.13,-0.99,3.36,2.26,1.40
18.5340,0.07,0.13,-0.99,3.11,2.20,1.46
18.5490,0.07,0.13,-0.99,3.17,2.08,1.40
18.5630,0.08,0.12,-0.99,2.93,2.14,1.46
18.5790,0.08,0.12,-0.99,3.42,2.08,1.53
18.5950,0.07,0.12,-0.99,3.91,1.95,1.77
18.6110,0.08,0.13,-0.99,3.54,2.08,1.65
18.6260,0.08,0.13,-0.99,3.60,1.77,1.53
18.6420,0.08,0.13,-0.99,3.42,1.59,1.46
18.6580,0.08,0.12,-0.97,3.17,2.20,1.65
18.6740,0.09,0.12,-1.00,3.72,2.26,1.53
18.6890,0.06,0.11,-0.98,2.38,2.08,0.98
18.7050,0.08,0.11,-0.99,3.42,2.01,1.46
18.7200,0.08,0.13,-0.98,4.39,2.20,1.59
18.7350,0.07,0.13,-0.99,3.97,1.71,1.65
18.7510,0.09,0.13,-0.99,3.97,2.50,1.95
18.7670,0.08,0.14,-0.99,3.66,2.14,1.77
18.7830,0.07,0.12,-0.99,2.01,2.01,1.28
18.7980,0.09,0.11,-0.98,2.44,1.77,1.10
18.8150,0.08,0.12,-0.99,3.97,1.95,0.73
18.8310,0.08,0.14,-0.99,3.85,1.83,0.92
18.8460,0.07,0.13,-0.99,2.56,1.89,1.89
18.8610,0.07,0.13,-0.99,2.56,1.77,2.20
18.8760,0.07,0.12,-0.99,2.75,1.83,2.26
18.8920,0.08,0.12,-0.99,3.66,2.38,1.83
18.9070,0.09,0.12,-0.99,3.23,2.44,1.46
18.9250,0.10,0.12,-0.99,3.54,2.38,1.34
18.9390,0.08,0.13,-0.99,3.85,2.20,0.61
18.9550,0.07,0.12,-0.99,2.99,2.14,1.53
18.9710,0.08,0.13,-0.99,3.72,2.01,1.89
18.9870,0.08,0.12,-0.99,3.30,1.89,1.77
19.0030,0.08,0.12,-0.99,3.17,2.20,1.83
19.0180,0.08,0.12,-0.99,2.44,2.01,1.46
19.0330,0.08,0.12,-0.99,3.42,2.20,1.59
19.0490,0.08,0.13,-0.99,3.91,2.01,1.71
19.0640,0.08,0.13,-0.99,3.72,1.89,1.59
19.0800,0.08,0.13,-0.99,3.48,1.95,1.28
19.0960,0.08,0.12,-0.99,3.36,1.95,1.04
19.1110,0.08,0.13,-0.99,3.48,2.26,0.55
19.1270,0.07,0.12,-0.99,2.81,2.32,1.22
19.1430,0.08,0.12,-0.99,3.42,1.83,1.83
19.1570,0.07,0.13,-0.99,3.60,1.89,1.89
19.1730,0.08,0.13,-0.99,2.81,1.95,1.83
19.1890,0.08,0.12,-0.99,2.81,2.01,1.71
19.2030,0.08,0.12,-0.99,3.23,2.32,1.71
19.2200,0.08,0.12,-0.99,3.91,2.08,1.53
19.2350,0.09,0.12,-0.99,3.36,2.26,1.53
19.2510,0.08,0.13,-0.99,3.30,2.26,1.04
19.2660,0.08,0.15,-0.99,3.05,2.56,0.18
19.2810,0.08,0.12,-0.98,2.93,2.20,-0.31
19.2970,0.07,0.12,-0.99,2.81,2.50,0.06
19.3140,0.07,0.11,-0.98,3.78,2.08,0.98
19.3290,0.08,0.12,-0.99,4.52,2.38,1.40
19.3450,0.08,0.13,-0.99,3.42,2.08,1.34
19.3610,0.08,0.11,-0.99,2.56,2.32,1.46
19.3770,0.08,0.12,-0.99,3.72,1.83,1.59
19.3930,0.08,0.13,-0.99,4.21,2.14,1.77
19.4100,0.08,0.13,-0.99,4.27,2.01,1.59
19.4250,0.10,0.13,-0.99,3.60,2.26,0.98
19.4410,0.08,0.13,-0.99,3.36,2.44,0.55
19.4570,0.07,0.12,-0.99,3.42,1.95,0.73
19.4720,0.07,0.12,-0.99,3.36,2.14,1.28
19.4870,0.08,0.13,-0.99,3.60,1.95,1.28
19.5020,0.09,0.13,-0.99,4.03,1.95,0.67
19.5180,0.09,0.13,-0.99,4.39,2.20,0.37
19.5330,0.09,0.13,-0.99,3.48,2.87,0.12
19.5480,0.07,0.11,-0.99,2.93,2.44,1.28
19.5630,0.08,0.12,-0.99,3.97,2.26,2.69
19.5780,0.07,0.13,-0.99,4.21,1.83,2.38
19.5930,0.08,0.13,-0.99,3.91,1.89,1.77
19.6090,0.08,0.13,-0.99,3.48,1.95,1.34
19.6250,0.08,0.13,-0.97,3.54,2.38,0.18
19.6400,0.10,0.13,-1.00,4.21,2.26,0.06
19.6550,0.07,0.11,-0.98,2.08,2.75,0.79
19.6700,0.06,0.13,-1.00,4.09,2.69,1.28
19.6860,0.06,0.12,-1.00,3.42,2.26,1.46
19.7010,0.10,0.11,-0.97,2.87,1.46,1.53
19.7180,0.06,0.14,-0.98,5.43,2.01,1.89
19.7340,0.09,0.14,-0.99,3.17,3.05,1.22
19.7490,0.09,0.11,-0.98,1.77,2.14,0.92
19.7650,0.07,0.12,-0.98,4.09,2.56,1.89
19.7800,0.07,0.13,-1.00,3.78,2.08,1.65
19.7950,0.06,0.13,-0.99,3.17,1.95,1.71
19.8100,0.10,0.12,-0.98,3.23,1.65,1.46
19.8250,0.07,0.14,-0.99,4.27,1.77,1.65
19.8400,0.09,0.13,-0.99,3.17,2.87,1.53
19.8560,0.09,0.11,-0.99,3.36,2.01,1.22
19.8720,0.08,0.12,-0.99,4.09,2.32,1.59
19.8870,0.08,0.12,-0.99,4.21,2.38,1.40
19.9030,0.08,0.13,-0.99,3.78,2.01,0.85
19.9200,0.09,0.13,-0.99,3.48,2.32,0.79
19.9350,0.09,0.13,-0.99,3.30,2.62,1.40
19.9510,0.08,0.12,-0.99,3.36,2.20,2.32
19.9660,0.07,0.12,-0.99,3.54,1.83,2.32
19.9820,0.08,0.13,-0.99,3.11,2.38,1.40
19.9970,0.08,0.13,-0.99,3.17,2.44,1.10
20.0130,0.07,0.13,-0.99,3.11,2.62,1.22
20.0290,0.08,0.13,-0.99,3.85,1.71,1.59
20.0450,0.08,0.13,-0.99,3.72,2.01,1.71
20.0600,0.08,0.12,-0.99,3.11,2.01,1.53
20.0760,0.09,0.12,-0.99,2.99,2.44,1.46
20.0900,0.08,0.13,-0.99,3.85,1.89,1.53
20.1060,0.09,0.13,-0.99,4.09,1.65,1.65
20.1210,0.08,0.14,-0.99,3.78,2.44,1.28
20.1370,0.08,0.13,-0.99,3.11,2.14,0.92
20.1510,0.08,0.13,-0.99,2.50,2.75,0.92
20.1670,0.07,0.12,-0.99,3.05,2.38,0.98
20.1820,0.07,0.12,-0.99,3.78,2.44,1.34
20.1990,0.08,0.13,-0.99,3.66,1.71,1.53
20.2140,0.08,0.13,-0.99,3.54,2.20,1.53
20.2300,0.08,0.13,-0.99,3.72,2.01,1.28
20.2460,0.09,0.13,-0.99,3.66,2.32,0.73
20.2610,0.09,0.12,-0.98,2.93,2.62,0.61
20.2750,0.08,0.13,-0.99,3.60,2.08,0.73
20.2910,0.07,0.12,-0.99,3.54,2.14,1.22
20.3070,0.07,0.13,-0.99,3.72,1.77,1.53
20.3230,0.08,0.13,-0.99,3.11,2.38,1.65
20.3390,0.07,0.12,-0.99,3.36,2.01,1.22
20.3540,0.07,0.13,-0.99,3.66,2.20,1.40
20.3710,0.08,0.13,-0.99,3.48,2.01,1.71
20.3860,0.08,0.12,-0.99,3.42,1.89,1.95
20.4010,0.08,0.12,-0.99,3.60,2.08,2.01
20.4160,0.08,0.13,-0.99,3.54,2.08,1.95
20.4320,0.08,0.13,-0.99,2.99,2.26,1.59
20.4480,0.09,0.12,-0.99,3.36,1.83,1.22
20.4640,0.08,0.13,-0.99,3.91,2.44,1.28
20.4800,0.08,0.13,-0.99,3.36,2.50,1.34
20.4950,0.08,0.13,-0.99,3.23,1.95,1.53
20.5100,0.08,0.13,-0.99,3.48,2.20,1.65
20.5250,0.08,0.13,-0.99,3.42,1.77,1.46
20.5400,0.09,0.13,-0.99,3.23,2.14,1.28
20.5550,0.08,0.12,-0.99,3.17,2.01,1.46
20.5710,0.09,0.12,-0.99,3.85,2.01,1.71
20.5880,0.08,0.13,-0.98,4.03,2.08,1.22
20.6040,0.09,0.14,-1.00,3.78,2.26,0.61
20.6190,0.07,0.13,-0.99,2.75,2.50,0.61
20.6350,0.08,0.12,-0.99,3.11,2.01,1.16
20.6490,0.07,0.12,-0.99,3.66,1.77,1.53
20.6650,0.07,0.12,-0.99,3.54,2.20,1.83
20.6790,0.09,0.13,-0.99,3.11,1.83,1.22
20.6950,0.09,0.13,-0.98,2.62,2.01,1.28
20.7110,0.09,0.13,-0.99,3.72,2.14,1.83
20.7270,0.08,0.13,-0.99,3.48,1.83,2.62
20.7420,0.10,0.13,-0.99,3.60,1.89,2.69
20.7570,0.09,0.11,-0.98,3.72,2.01,2.38
20.7730,0.09,0.14,-1.00,3.60,2.56,0.98
20.7890,0.05,0.12,-0.99,2.69,2.56,0.98
20.8050,0.06,0.13,-0.99,3.91,2.01,1.59
20.8210,0.06,0.13,-0.99,3.72,2.38,1.83
20.8360,0.08,0.13,-0.99,3.85,1.71,1.77
20.8520,0.08,0.13,-0.99,3.60,1.89,1.65
20.8680,0.08,0.12,-0.99,2.99,2.38,1.59
20.8840,0.09,0.12,-0.99,3.11,2.44,1.65
20.9000,0.08,0.13,-0.99,4.15,2.01,1.77
20.9150,0.08,0.13,-0.99,3.72,2.20,1.89
20.9300,0.08,0.13,-0.99,3.60,2.08,1.95
20.9450,0.09,0.12,-0.99,3.11,2.26,1.65
20.9610,0.08,0.11,-0.99,2.87,2.14,1.28
20.9770,0.08,0.12,-0.99,4.15,1.83,1.40
20.9920,0.07,0.13,-0.99,3.85,1.83,1.77
21.0060,0.08,0.14,-0.99,3.42,1.89,1.46
21.0220,0.08,0.13,-0.99,3.42,2.20,1.28
21.0360,0.09,0.13,-0.99,3.54,2.14,1.04
21.0530,0.08,0.12,-0.99,3.66,2.08,0.73
21.0680,0.08,0.12,-0.99,3.72,1.89,0.31
21.0830,0.08,0.12,-0.99,4.03,2.08,-0.12
21.0990,0.09,0.13,-0.99,3.60,2.32,-0.43
21.1150,0.07,0.13,-0.99,3.30,2.32,0.18
21.1300,0.08,0.13,-0.99,3.91,1.71,1.34
21.1450,0.07,0.13,-0.99,3.42,1.59,1.53
21.1610,0.08,0.12,-0.99,2.56,2.01,1.65
21.1760,0.08,0.13,-0.99,3.60,1.95,1.46
21.1930,0.08,0.13,-0.99,3.42,2.14,1.46
21.2080,0.08,0.13,-0.99,3.54,2.01,1.53
21.2240,0.08,0.13,-0.99,3.78,2.32,1.77
21.2420,0.08,0.12,-0.99,2.75,2.08,1.22
21.2570,0.08,0.12,-0.99,3.30,2.01,1.22
21.2720,0.07,0.13,-0.99,4.03,1.65,1.10
21.2880,0.09,0.14,-0.99,3.66,2.08,1.22
21.3040,0.07,0.12,-0.99,2.38,2.14,1.71
21.3200,0.07,0.13,-0.99,4.15,1.77,2.56
21.3350,0.07,0.13,-0.99,3.30,1.95,2.20
21.3510,0.08,0.13,-0.99,3.42,1.89,1.83
21.3670,0.08,0.12,-0.99,2.81,2.08,1.53
21.3820,0.08,0.13,-0.99,3.42,2.44,1.53
21.3960,0.08,0.13,-0.99,3.85,1.83,1.53
21.4110,0.08,0.13,-0.99,3.30,2.20,1.28
21.4280,0.08,0.13,-0.99,3.11,1.95,1.16
21.4440,0.08,0.12,-0.99,3.17,2.08,1.53
21.4590,0.07,0.12,-0.99,3.72,2.01,1.77
21.4740,0.07,0.14,-1.01,5.13,1.46,1.89
21.4890,0.08,0.13,-0.99,3.36,1.04,1.77
21.5050,0.09,0.13,-0.99,4.03,2.01,1.89
21.5200,0.08,0.14,-0.99,3.97,2.26,1.71
21.5360,0.09,0.13,-0.98,2.32,2.87,1.77
21.5520,0.08,0.13,-0.99,2.75,3.42,1.77
21.5670,0.08,0.13,-1.00,3.05,2.81,1.83
21.5840,0.08,0.13,-0.99,2.93,2.38,1.53
21.6000,0.08,0.12,-0.98,3.36,1.83,1.53
21.6150,0.08,0.13,-0.99,3.42,2.14,1.77
21.6300,0.08,0.13,-0.99,3.48,1.83,1.77
21.6460,0.08,0.12,-0.99,3.36,1.89,1.83
21.6610,0.08,0.13,-0.99,3.85,2.01,1.65
21.6770,0.08,0.13,-0.99,3.48,2.14,1.65
21.6920,0.09,0.13,-0.99,3.42,2.44,1.40
21.7090,0.08,0.13,-0.99,3.30,2.69,1.16
21.7250,0.08,0.12,-0.99,3.11,2.44,1.34
21.7410,0.08,0.12,-0.99,3.66,2.26,1.71
21.7560,0.07,0.13,-0.99,3.78,1.89,1.77
21.7720,0.07,0.13,-0.99,3.60,2.20,1.83
21.7870,0.07,0.13,-0.98,3.30,2.26,1.89
21.8020,0.08,0.13,-0.99,3.78,1.77,1.65
21.8170,0.08,0.13,-0.99,3.11,1.71,1.46
21.8330,0.08,0.12,-0.98,2.93,2.38,1.34
21.8470,0.07,0.12,-0.99,3.17,2.20,1.59
21.8630,0.08,0.13,-0.99,3.36,1.83,1.71
21.8780,0.08,0.13,-0.99,3.42,1.95,1.46
21.8940,0.09,0.13,-0.99,3.60,1.83,1.40
21.9100,0.09,0.13,-0.99,3.48,1.65,1.04
21.9250,0.08,0.13,-0.99,3.05,2.26,1.16
21.9410,0.08,0.13,-0.99,2.87,2.01,1.46
21.9560,0.07,0.12,-0.99,3.42,2.08,1.77
21.9720,0.07,0.13,-0.99,3.91,2.08,2.08
21.9870,0.07,0.13,-0.99,3.72,2.14,1.77
22.0030,0.08,0.14,-0.99,3.23,2.01,1.40
22.0180,0.08,0.12,-0.99,2.20,2.56,1.46
22.0340,0.09,0.12,-0.99,2.62,2.14,1.28
22.0490,0.07,0.12,-0.99,3.66,2.01,1.28
22.0650,0.07,0.13,-0.99,3.54,2.20,1.34
22.0800,0.08,0.13,-0.99,3.60,1.83,1.28
22.0960,0.08,0.13,-0.99,3.11,1.83,1.10
22.1120,0.08,0.12,-0.99,3.11,2.20,1.22
22.1270,0.08,0.12,-0.99,2.99,2.20,1.34
22.1430,0.08,0.12,-0.99,3.48,1.95,1.16
22.1580,0.08,0.12,-0.99,3.72,1.59,1.10
22.1720,0.08,0.14,-0.99,3.78,2.14,1.40
22.1880,0.09,0.13,-0.99,3.11,2.50,1.34
22.2050,0.08,0.13,-0.99,3.60,1.89,1.40
22.2200,0.08,0.12,-0.99,3.48,1.83,1.34
22.2360,0.08,0.12,-0.99,3.54,2.08,1.28
22.2510,0.08,0.13,-0.99,3.85,1.95,1.22
22.2660,0.08,0.14,-0.99,3.36,2.32,0.98
22.2820,0.08,0.13,-0.99,3.36,2.26,1.10
22.2970,0.07,0.12,-0.99,3.23,2.20,1.65
22.3120,0.07,0.12,-0.99,3.36,2.08,1.83
22.3280,0.08,0.12,-0.99,3.60,1.53,1.77
22.3460,0.08,0.13,-0.99,3.72,1.95,1.83
22.3610,0.08,0.14,-0.99,3.72,1.71,1.53
22.3760,0.08,0.14,-0.99,3.60,1.83,1.53
22.3910,0.08,0.13,-0.99,2.93,2.38,1.46
22.4070,0.07,0.12,-0.99,2.81,2.08,1.28
22.4250,0.07,0.12,-0.99,3.11,2.20,1.22
22.4420,0.08,0.13,-0.99,3.36,1.83,1.53
22.4570,0.08,0.13,-0.98,3.11,1.83,1.71
22.4720,0.08,0.13,-0.99,2.08,1.65,1.65
22.4870,0.08,0.12,-0.99,1.83,1.95,1.59
22.5030,0.08,0.12,-0.98,3.17,2.38,1.34
22.5190,0.07,0.12,-0.99,3.78,2.14,1.40
22.5340,0.09,0.13,-0.98,4.09,2.20,1.34
22.5510,0.08,0.13,-0.99,3.85,1.89,1.16
22.5670,0.08,0.13,-0.99,3.97,2.38,1.16
22.5820,0.08,0.13,-0.99,3.91,2.01,1.28
22.5980,0.08,0.13,-0.99,3.23,2.14,1.22
22.6150,0.08,0.12,-0.99,3.23,2.08,1.28
22.6310,0.08,0.13,-0.99,3.48,2.20,1.28
22.6470,0.08,0.13,-0.99,3.78,2.01,1.46
22.6630,0.08,0.13,-0.99,3.48,2.26,1.46
22.6790,0.08,0.13,-0.99,3.11,1.40,1.59
22.6950,0.08,0.12,-0.99,3.30,2.20,1.53
22.7100,0.08,0.13,-0.99,3.78,1.95,1.59
22.7270,0.08,0.13,-0.99,3.48,1.83,1.59
22.7430,0.08,0.13,-0.99,3.11,2.14,1.59
22.7580,0.08,0.13,-0.99,3.54,1.89,1.95
22.7730,0.08,0.13,-0.99,3.72,1.77,2.14
22.7890,0.10,0.12,-0.99,3.42,2.01,2.44
22.8040,0.14,0.11,-0.97,3.54,2.81,1.71
22.8190,0.10,0.12,-0.97,2.99,2.32,1.10
22.8340,0.07,0.13,-1.00,3.60,2.01,1.04
22.8500,0.07,0.14,-0.99,3.72,2.01,0.73
22.8660,0.08,0.13,-0.99,3.54,2.56,0.12
22.8820,0.06,0.14,-1.00,2.93,2.81,-0.12
22.8970,0.04,0.12,-0.99,2.26,2.20,0.43
22.9130,0.06,0.12,-0.98,3.11,2.14,1.65
22.9280,0.08,0.13,-0.99,4.21,1.53,1.89
22.9450,0.08,0.14,-0.99,3.91,1.53,1.83
22.9590,0.08,0.13,-0.99,3.17,1.53,1.46
22.9750,0.08,0.12,-0.99,3.42,2.01,1.71
22.9900,0.08,0.13,-0.99,3.05,2.26,1.46
23.0070,0.08,0.12,-0.99,3.30,2.50,1.77
23.0220,0.08,0.13,-0.99,3.30,1.95,1.59
23.0380,0.08,0.12,-0.99,2.99,1.89,1.65
23.0540,0.08,0.12,-0.99,3.11,2.14,1.59
23.0690,0.08,0.13,-0.99,3.11,2.38,1.77
23.0850,0.08,0.12,-0.99,4.09,1.89,1.77
23.1000,0.08,0.13,-0.99,4.21,2.08,1.95
23.1170,0.08,0.13,-0.99,3.30,1.77,1.77
23.1320,0.08,0.13,-0.99,3.17,2.08,1.71
23.1470,0.08,0.12,-0.99,2.81,2.20,1.65
23.1620,0.10,0.12,-0.99,3.48,2.26,1.53
23.1780,0.07,0.16,-0.99,4.09,1.95,1.53
23.1930,0.08,0.13,-0.99,3.91,1.71,1.40
23.2090,0.08,0.13,-0.99,3.60,1.95,1.16
23.2260,0.07,0.12,-0.99,3.48,2.08,1.28
23.2420,0.08,0.13,-0.99,3.97,2.26,1.65
23.2570,0.08,0.13,-0.99,3.36,1.83,1.65
23.2730,0.08,0.13,-0.99,3.23,2.26,1.59
23.2880,0.08,0.13,-0.99,3.23,1.77,1.40
23.3030,0.08,0.13,-0.98,3.30,1.65,1.28
23.3190,0.08,0.13,-0.99,3.48,2.01,1.10
23.3340,0.07,0.12,-0.99,3.11,2.50,1.22
23.3500,0.08,0.12,-0.99,3.11,2.01,1.53
23.3660,0.08,0.12,-0.99,3.54,2.01,1.40
23.3820,0.08,0.13,-0.99,3.97,2.20,1.34
23.3960,0.08,0.14,-0.99,3.78,2.20,1.04
23.4130,0.08,0.14,-0.99,3.11,2.01,0.98
23.4290,0.07,0.13,-0.99,3.11,1.95,1.22
23.4450,0.07,0.13,-0.99,3.36,2.20,1.40
23.4610,0.08,0.12,-0.99,3.30,1.95,1.53
23.4770,0.08,0.12,-0.99,3.60,2.38,1.59
23.4920,0.08,0.12,-0.99,3.72,1.83,1.34
23.5080,0.08,0.12,-0.99,3.66,2.01,1.04
23.5230,0.09,0.13,-0.99,3.54,2.08,0.43
23.5380,0.07,0.13,-0.98,2.99,2.26,0.61
23.5530,0.08,0.13,-0.99,3.60,2.20,1.34
23.5690,0.08,0.12,-0.99,3.42,1.83,1.59
23.5840,0.08,0.12,-0.99,3.11,1.89,1.28
23.6000,0.08,0.12,-0.98,3.54,1.77,1.22
23.6160,0.08,0.13,-0.98,3.78,1.83,0.85
23.6310,0.09,0.14,-0.99,4.21,2.08,1.04
23.6460,0.08,0.14,-0.98,3.05,2.20,1.22
23.6620,0.07,0.14,-0.99,2.81,1.89,1.77
23.6780,0.07,0.11,-0.99,2.93,2.50,2.01
23.6950,0.07,0.11,-0.99,3.11,2.32,1.77
23.7110,0.08,0.10,-0.99,2.62,2.44,1.46
23.7260,0.09,0.13,-0.99,4.15,2.26,1.83
23.7420,0.07,0.16,-0.99,4.76,1.71,1.65
23.7570,0.08,0.16,-0.99,4.39,1.83,1.83
23.7740,0.09,0.14,-0.99,3.23,1.83,1.89
23.7890,0.10,0.11,-1.00,2.08,2.75,1.40
23.8050,0.09,0.09,-0.99,2.44,2.20,0.79
23.8210,0.10,0.12,-0.98,4.58,2.01,1.53
23.8360,0.14,0.13,-0.98,4.15,2.69,1.89
23.8510,0.10,0.15,-0.99,3.11,3.11,1.34
23.8670,0.07,0.14,-1.00,2.99,2.69,0.67
23.8820,0.06,0.10,-0.99,3.11,2.14,0.37
23.8970,0.07,0.08,-1.00,2.99,2.50,-0.55
23.9130,0.08,0.12,-0.99,4.33,3.48,-0.79
23.9280,0.05,0.18,-0.96,4.64,2.69,1.77
23.9440,0.07,0.25,-0.98,5.55,0.98,4.27
23.9600,0.08,0.22,-0.98,2.44,1.04,3.23
23.9760,0.09,0.11,-0.99,0.61,1.46,1.95
23.9920,0.09,0.04,-0.99,-0.67,2.26,0.92
24.0080,0.07,0.04,-0.99,2.75,2.87,0.18
24.0220,0.07,0.11,-0.99,4.88,2.50,0.85
24.0390,0.08,0.19,-0.98,6.29,1.65,2.20
24.0550,0.09,0.20,-0.99,4.46,1.10,2.69
24.0700,0.08,0.14,-1.00,2.08,2.14,2.08
24.0850,0.08,0.11,-0.99,1.16,2.38,1.65
24.1000,0.08,0.07,-0.99,0.49,2.38,2.14
24.1160,0.06,0.08,-0.99,3.11,2.32,1.89
24.1330,0.07,0.15,-0.99,5.25,1.89,2.01
24.1480,0.09,0.19,-0.99,5.25,1.53,1.89
24.1630,0.09,0.16,-0.99,2.75,2.08,1.77
24.1790,0.09,0.14,-0.99,0.43,2.62,1.34
24.1950,0.08,0.10,-0.99,0.12,3.11,1.83
24.2100,0.07,0.08,-1.00,3.36,1.65,2.14
24.2270,0.07,0.10,-0.99,2.81,2.08,1.22
24.2420,0.08,0.16,-0.99,5.43,1.65,1.83
24.2580,0.09,0.16,-0.99,2.93,1.40,1.46
24.2730,0.10,0.14,-0.99,1.65,1.95,1.04
24.2880,0.08,0.12,-0.98,2.32,1.65,2.01
24.3040,0.07,0.09,-1.00,2.75,1.71,2.32
24.3190,0.06,0.09,-0.99,3.72,1.77,1.83
24.3350,0.08,0.15,-0.99,6.71,1.83,1.89
24.3500,0.09,0.18,-0.99,5.31,1.65,1.89
24.3650,0.08,0.13,-0.99,1.34,2.14,1.34
24.3800,0.08,0.11,-0.99,1.65,2.08,1.46
24.3960,0.07,0.10,-0.99,2.26,2.26,1.59
24.4120,0.07,0.10,-0.99,3.54,2.20,1.28
24.4280,0.08,0.13,-0.99,4.27,1.71,1.71
24.4430,0.08,0.15,-0.98,4.27,1.59,1.77
24.4590,0.08,0.14,-0.99,3.60,1.53,1.83
24.4740,0.08,0.12,-0.99,3.11,1.65,1.77
24.4890,0.08,0.11,-0.99,2.81,1.95,1.59
24.5050,0.07,0.10,-0.99,2.32,2.44,1.34
24.5210,0.08,0.12,-0.99,3.72,2.32,1.59
24.5360,0.08,0.15,-0.99,4.27,2.01,1.65
24.5520,0.08,0.14,-0.99,3.48,1.83,1.77
24.5680,0.08,0.12,-0.99,3.36,1.83,1.95
24.5830,0.08,0.11,-0.99,3.30,1.83,1.77
24.5990,0.07,0.11,-0.99,3.30,1.95,1.65
24.6130,0.08,0.12,-0.99,3.17,2.08,1.46
24.6310,0.08,0.14,-0.99,3.97,1.83,1.77
24.6460,0.08,0.14,-0.99,4.27,1.40,1.77
24.6610,0.08,0.13,-0.99,3.60,1.46,1.59
24.6770,0.08,0.11,-0.99,2.38,2.38,1.46
24.6920,0.09,0.11,-0.99,3.78,2.26,0.79
24.7070,0.08,0.11,-0.99,3.78,2.08,1.10
24.7230,0.08,0.13,-0.99,4.94,1.59,1.83
24.7370,0.09,0.15,-0.99,4.33,1.59,1.89
24.7530,0.09,0.13,-0.98,2.75,1.89,1.46
24.7680,0.09,0.12,-0.99,3.17,1.89,1.40
24.7840,0.07,0.11,-0.98,3.54,1.95,1.46
24.8000,0.07,0.12,-1.00,3.66,1.95,1.40
24.8160,0.06,0.13,-0.98,3.78,1.65,1.46
24.8310,0.08,0.15,-0.99,3.54,1.83,1.34
24.8460,0.08,0.12,-0.99,2.26,2.14,1.53
24.8620,0.08,0.12,-0.99,3.42,1.71,1.83
24.8760,0.09,0.12,-0.99,2.93,1.71,2.38
24.8940,0.08,0.12,-0.99,3.05,1.71,2.14
24.9090,0.08,0.12,-0.99,3.17,2.01,1.59
24.9250,0.08,0.13,-0.99,3.78,2.32,1.22
24.9400,0.08,0.13,-0.99,4.27,2.08,1.40
24.9550,0.08,0.13,-0.99,4.33,1.83,1.59
24.9700,0.08,0.12,-0.99,3.42,1.89,1.10
24.9860,0.08,0.12,-0.99,3.30,1.71,0.37
25.0010,0.11,0.12,-0.98,2.93,2.26,0.37
25.0170,0.07,0.12,-0.98,2.50,2.14,1.34
25.0330,0.10,0.13,-0.99,4.39,1.65,4.21
25.0470,0.12,0.11,-0.98,4.15,1.34,5.68
25.0620,0.13,0.11,-0.99,3.91,1.95,3.97
25.0780,0.08,0.13,-1.00,3.66,2.08,2.32
25.0950,0.06,0.12,-0.98,3.11,2.44,-1.34
25.1110,0.08,0.13,-0.99,3.60,2.32,-2.14
25.1260,0.06,0.12,-1.00,3.30,2.93,0.55
25.1430,0.04,0.14,-1.00,4.27,2.01,1.53
25.1580,0.05,0.14,-0.99,2.93,1.83,1.71
25.1740,0.09,0.13,-0.99,2.62,1.40,1.34
25.1880,0.08,0.12,-0.99,3.23,1.89,1.77
25.2040,0.08,0.12,-0.99,3.85,1.83,1.83
25.2190,0.08,0.12,-0.99,3.54,2.01,1.77
25.2340,0.08,0.12,-0.99,2.87,2.62,1.59
25.2490,0.08,0.13,-0.99,3.78,1.95,1.71
25.2640,0.08,0.13,-0.99,3.85,2.26,1.77
25.2800,0.10,0.14,-0.99,4.03,1.77,1.40
25.2960,0.08,0.12,-0.98,2.20,2.14,1.16
25.3120,0.07,0.12,-0.99,3.60,1.59,1.65
25.3270,0.07,0.13,-0.99,3.91,1.89,2.20
25.3430,0.08,0.13,-0.99,3.54,1.77,2.26
25.3600,0.08,0.13,-0.99,3.11,1.95,1.71
25.3750,0.09,0.13,-0.99,3.30,1.77,1.77
25.3890,0.08,0.12,-0.99,2.87,1.65,1.89
25.4050,0.08,0.12,-0.99,3.30,1.71,1.89
25.4200,0.07,0.12,-0.99,3.30,2.01,2.14
25.4370,0.06,0.13,-0.98,3.54,1.89,2.08
25.4540,0.08,0.14,-0.99,3.85,1.59,1.46
25.4710,0.09,0.14,-0.99,3.36,1.83,1.65
25.4860,0.08,0.12,-0.99,2.93,1.65,1.95
25.5010,0.08,0.13,-0.99,3.17,1.71,2.14
25.5160,0.07,0.12,-0.99,3.23,1.59,2.08
25.5320,0.07,0.13,-0.99,3.42,1.71,1.77
25.5480,0.08,0.13,-0.99,3.05,2.01,1.34
25.5630,0.09,0.13,-0.99,3.30,1.95,0.98
25.5790,0.07,0.12,-0.99,3.60,2.20,0.61
25.5940,0.07,0.12,-0.99,3.66,2.50,1.46
25.6110,0.07,0.13,-0.99,4.15,1.95,1.71
25.6260,0.07,0.13,-0.99,3.60,1.95,1.65
25.6420,0.09,0.14,-0.99,3.30,2.08,1.59
25.6580,0.08,0.13,-0.99,2.81,2.20,1.59
25.6740,0.08,0.13,-0.99,4.09,1.83,1.89
25.6890,0.09,0.13,-0.99,3.36,1.95,2.08
25.7050,0.07,0.12,-0.99,2.93,2.26,1.77
25.7200,0.08,0.13,-0.99,3.36,1.71,1.40
25.7360,0.08,0.13,-0.99,3.78,1.83,1.28
25.7510,0.08,0.13,-0.98,4.15,2.01,1.46
25.7650,0.08,0.13,-0.99,3.23,1.89,1.83
25.7800,0.09,0.13,-0.98,2.69,1.83,1.83
25.7970,0.09,0.12,-0.99,3.23,1.46,1.40
25.8110,0.09,0.13,-0.99,4.52,1.40,1.04
25.8270,0.07,0.13,-0.98,3.85,1.34,0.67
25.8420,0.09,0.15,-1.00,3.91,1.89,0.12
25.8590,0.08,0.12,-0.99,2.50,2.14,1.28
25.8750,0.06,0.12,-0.98,3.11,1.71,3.42
25.8900,0.07,0.13,-0.99,3.48,1.77,3.78
25.9060,0.07,0.13,-0.99,3.30,1.83,2.20
25.9210,0.09,0.13,-0.99,2.69,1.59,1.22
25.9360,0.10,0.12,-0.99,3.97,1.65,0.85
25.9520,0.11,0.13,-0.99,4.58,1.34,0.43
25.9670,0.08,0.13,-0.99,4.03,1.95,0.18
25.9830,0.07,0.12,-0.99,3.60,1.95,0.49
25.9980,0.10,0.12,-1.00,4.03,2.08,1.53
26.0130,0.07,0.12,-0.99,3.60,2.01,1.59
26.0290,0.07,0.14,-0.99,3.85,2.01,1.53
26.0450,0.08,0.13,-0.99,2.44,1.65,1.04
26.0610,0.07,0.12,-0.99,3.36,1.89,1.71
26.0760,0.10,0.12,-0.98,3.72,2.38,2.50
26.0920,0.08,0.13,-1.00,4.09,2.69,2.75
26.1070,0.06,0.13,-0.99,2.87,2.01,1.46
26.1220,0.07,0.13,-0.99,3.48,1.95,0.98
26.1380,0.08,0.13,-0.99,3.60,2.08,1.16
26.1530,0.07,0.13,-0.99,3.78,2.38,1.34
26.1690,0.07,0.12,-0.99,2.81,2.32,1.77
26.1840,0.08,0.12,-0.99,3.17,2.08,1.89
26.2000,0.08,0.13,-0.99,3.91,2.08,1.83
26.2160,0.08,0.13,-0.99,3.60,1.53,1.77
26.2310,0.09,0.14,-0.99,3.66,1.59,1.65
26.2460,0.08,0.13,-0.99,2.93,2.38,1.77
26.2620,0.08,0.12,-0.99,3.66,2.44,1.89
26.2770,0.08,0.13,-0.99,3.54,2.87,2.01
26.2920,0.08,0.13,-0.99,3.60,2.50,1.71
26.3080,0.09,0.13,-0.99,3.48,1.89,1.71
26.3230,0.08,0.14,-0.98,4.52,1.83,1.89
26.3390,0.08,0.13,-0.99,4.03,1.83,1.89
26.3530,0.08,0.12,-0.99,3.97,2.69,2.26
26.3680,0.08,0.13,-1.00,4.82,1.77,1.89
26.3840,0.08,0.14,-1.00,4.03,1.28,1.53
26.3990,0.08,0.13,-0.98,3.30,1.95,1.77
26.4150,0.08,0.14,-0.99,3.72,2.14,1.89
26.4310,0.12,0.16,-1.04,4.82,0.79,1.77
26.4470,0.08,0.15,-0.99,3.66,0.85,1.65
26.4620,0.08,0.12,-1.00,3.48,1.46,1.59
26.4780,0.08,0.13,-0.98,5.13,1.59,1.89
26.4930,0.08,0.14,-0.99,4.15,0.31,1.53
26.5100,0.08,0.13,-0.99,4.15,1.16,1.71
26.5250,0.10,0.14,-1.01,4.64,0.43,1.77
26.5400,0.08,0.14,-1.00,4.58,1.22,1.83
26.5550,0.08,0.13,-0.99,3.60,1.89,1.71
26.5700,0.08,0.14,-1.00,3.78,2.32,1.89
26.5850,0.08,0.14,-0.99,1.59,3.54,1.59
26.6010,0.11,0.14,-0.98,-0.43,4.70,1.77
26.6180,0.07,0.13,-0.99,0.73,3.78,1.77
26.6330,0.07,0.13,-0.99,1.34,2.08,1.65
26.6500,0.07,0.12,-0.99,2.08,1.77,1.40
26.6660,0.07,0.14,-0.99,4.70,0.92,1.46
26.6810,0.08,0.13,-0.99,2.38,1.53,1.46
26.6960,0.08,0.14,-1.00,4.39,1.71,1.77
26.7120,0.08,0.14,-1.00,5.19,1.16,2.08
26.7270,0.08,0.12,-0.99,4.58,1.16,1.71
26.7430,0.08,0.13,-0.99,4.76,1.28,1.83
26.7590,0.08,0.13,-0.99,3.60,1.46,1.46
26.7750,0.08,0.13,-0.99,3.05,1.83,1.65
26.7900,0.08,0.13,-0.99,3.36,1.77,1.71
26.8060,0.08,0.13,-0.99,2.93,1.89,1.59
26.8200,0.08,0.13,-0.99,2.75,1.83,1.71
26.8360,0.08,0.13,-0.99,2.44,1.83,1.59
26.8520,0.08,0.14,-0.99,2.93,2.32,1.83
26.8670,0.08,0.14,-1.00,3.48,2.01,1.83
26.8830,0.08,0.13,-0.99,3.36,1.59,1.77
26.8980,0.08,0.12,-0.99,2.38,1.59,1.53
26.9140,0.07,0.13,-0.98,3.48,1.34,1.65
26.9300,0.07,0.14,-0.99,4.94,1.71,2.08
26.9460,0.08,0.14,-0.99,5.00,1.53,1.95
26.9600,0.08,0.13,-0.99,3.30,1.89,2.01
26.9760,0.08,0.13,-0.99,3.36,2.26,1.83
26.9900,0.08,0.13,-1.00,3.91,2.50,1.95
27.0060,0.07,0.15,-1.00,5.74,2.01,2.14
27.0220,0.08,0.13,-0.98,6.23,1.89,2.08
27.0380,0.08,0.15,-1.00,5.86,1.77,2.08
27.0530,0.08,0.14,-1.00,3.11,1.46,1.34
27.0680,0.08,0.12,-0.98,1.59,1.83,1.46
27.0850,0.08,0.13,-0.99,2.32,2.62,1.46
27.1000,0.08,0.13,-0.99,3.11,2.32,1.46
27.1140,0.08,0.14,-0.99,2.75,2.69,1.40
27.1290,0.07,0.13,-0.99,2.50,2.56,1.34
27.1460,0.07,0.14,-0.99,3.78,1.34,2.08
27.1620,0.08,0.13,-0.99,4.88,1.34,1.95
27.1780,0.08,0.13,-0.99,4.15,1.59,1.95
27.1940,0.08,0.13,-0.99,3.11,1.77,1.83
27.2100,0.08,0.13,-0.98,3.17,1.65,1.89
27.2250,0.09,0.14,-0.99,4.03,1.77,2.01
27.2410,0.08,0.14,-0.99,3.66,2.14,1.77
27.2570,0.08,0.13,-0.99,2.93,2.08,1.65
27.2720,0.08,0.12,-0.99,3.17,2.26,1.71
27.2870,0.08,0.13,-0.99,3.78,2.44,1.95
27.3030,0.08,0.13,-0.99,3.36,2.08,1.77
27.3180,0.08,0.14,-0.99,3.23,2.56,1.83
27.3340,0.08,0.14,-0.99,2.87,2.44,1.83
27.3500,0.08,0.13,-0.99,3.17,2.32,1.77
27.3650,0.08,0.13,-0.99,3.48,2.26,1.71
27.3810,0.08,0.13,-0.99,3.48,2.38,1.22
27.3970,0.08,0.13,-0.99,2.62,2.26,1.10
27.4130,0.07,0.13,-0.99,2.99,2.32,1.04
27.4290,0.08,0.13,-0.99,3.42,1.95,1.59
27.4440,0.08,0.13,-0.99,4.03,2.26,1.89
27.4600,0.08,0.13,-0.99,3.97,1.53,1.59
27.4750,0.08,0.13,-0.99,3.42,1.22,1.59
27.4910,0.08,0.13,-0.99,3.48,2.08,1.89
27.5070,0.08,0.13,-0.99,4.03,2.44,1.89
27.5210,0.08,0.14,-0.99,3.85,2.69,1.83
27.5380,0.08,0.14,-0.99,3.91,2.08,1.83
27.5530,0.08,0.12,-0.99,3.11,1.77,1.22
27.5680,0.09,0.12,-0.99,3.36,2.50,-0.61
27.5840,0.07,0.13,-0.98,3.30,2.81,-0.85
27.6000,0.07,0.13,-0.99,3.42,2.32,0.79
27.6150,0.07,0.13,-0.99,3.11,2.26,1.34
27.6300,0.08,0.12,-0.99,3.72,2.56,1.53
27.6460,0.08,0.12,-0.99,3.85,2.32,0.43
27.6620,0.08,0.13,-0.99,3.30,2.62,-1.65
27.6770,0.07,0.14,-0.99,2.81,2.87,-0.43
27.6930,0.07,0.12,-0.99,3.23,2.20,1.40
27.7090,0.07,0.13,-0.99,4.15,2.14,1.89
27.7250,0.08,0.13,-0.99,3.85,2.01,1.10
27.7400,0.08,0.13,-0.99,3.23,2.20,0.49
27.7540,0.08,0.13,-0.99,3.60,2.32,0.92
27.7700,0.08,0.13,-0.99,3.66,2.08,1.46
27.7860,0.07,0.13,-0.99,3.97,2.14,0.92
27.8020,0.08,0.13,-0.98,3.85,1.83,1.04
27.8180,0.08,0.13,-0.99,3.42,2.01,0.24
27.8330,0.08,0.13,-0.99,3.66,2.26,-0.61
27.8500,0.07,0.14,-0.99,3.42,2.38,-0.55
27.8650,0.07,0.13,-0.99,3.66,1.65,1.22
27.8790,0.07,0.13,-0.99,3.85,1.95,1.40
27.8950,0.08,0.13,-0.99,3.85,1.89,1.40
27.9100,0.08,0.13,-0.99,3.42,2.08,1.04
27.9250,0.08,0.14,-0.99,3.42,2.32,0.92
27.9400,0.07,0.13,-0.99,3.05,2.50,1.95
27.9560,0.07,0.12,-0.99,2.81,2.08,3.05
27.9720,0.08,0.12,-0.99,2.81,1.53,3.36
27.9870,0.08,0.14,-0.99,2.99,1.77,2.99
28.0020,0.08,0.13,-0.99,2.93,2.56,1.53
28.0190,0.08,0.12,-0.99,3.30,2.08,0.67
28.0340,0.07,0.14,-0.98,3.30,2.44,0.00
28.0500,0.08,0.13,-0.99,3.85,1.71,1.65
28.0660,0.08,0.13,-0.99,3.54,1.65,1.22
28.0810,0.08,0.13,-0.98,3.72,1.71,1.04
28.0960,0.08,0.12,-0.99,3.66,2.14,1.16
28.1110,0.08,0.13,-0.99,3.23,1.71,0.73
28.1270,0.08,0.13,-0.99,3.11,1.83,-0.31
28.1420,0.07,0.14,-0.99,3.36,2.01,0.37
28.1580,0.07,0.13,-0.99,3.42,2.08,1.71
28.1740,0.08,0.13,-0.99,3.48,1.89,1.71
28.1890,0.08,0.13,-0.99,3.42,1.71,1.71
28.2040,0.08,0.13,-0.99,3.05,2.01,1.34
28.2190,0.08,0.12,-0.99,3.17,2.44,1.16
28.2340,0.08,0.13,-0.99,2.93,2.14,0.55
28.2500,0.07,0.14,-0.99,3.11,2.01,0.18
28.2660,0.08,0.13,-0.98,3.23,1.83,1.10
28.2800,0.08,0.12,-0.99,2.69,2.01,0.79
28.2960,0.09,0.11,-0.99,2.81,2.32,-0.61
28.3110,0.08,0.14,-0.99,2.87,2.14,-1.71
28.3250,0.07,0.14,-0.99,3.60,2.44,0.06
28.3410,0.07,0.14,-0.99,3.17,1.89,0.55
28.3560,0.08,0.13,-0.99,3.30,2.08,1.53
28.3710,0.08,0.13,-0.99,3.60,2.01,1.71
28.3870,0.08,0.13,-0.99,3.05,2.01,0.98
28.4030,0.08,0.13,-0.99,3.97,1.95,1.77
28.4180,0.07,0.13,-0.99,3.54,2.14,1.83
28.4340,0.08,0.13,-0.99,3.11,1.95,1.77
28.4480,0.08,0.13,-0.99,2.93,1.46,1.34
28.4630,0.08,0.13,-0.98,2.93,1.65,0.55
28.4800,0.08,0.13,-0.99,3.78,1.95,1.16
28.4950,0.08,0.13,-0.99,4.21,1.83,1.83
28.5100,0.08,0.13,-0.99,3.72,2.01,1.53
28.5260,0.08,0.13,-0.99,2.87,2.08,1.53
28.5420,0.08,0.12,-0.99,2.56,2.44,1.40
28.5580,0.08,0.12,-0.99,2.93,2.50,0.06
28.5740,0.08,0.13,-0.99,4.03,2.14,1.16
28.5900,0.08,0.13,-0.99,3.78,1.83,1.77
28.6060,0.08,0.13,-0.99,3.54,1.83,1.83
28.6220,0.08,0.12,-0.99,3.48,2.20,1.53
28.6380,0.07,0.12,-0.99,3.11,2.08,0.43
28.6520,0.08,0.13,-0.99,3.23,2.20,0.00
28.6680,0.08,0.14,-0.99,2.87,1.83,-0.06
28.6840,0.08,0.13,-0.99,3.42,2.14,1.65
28.7000,0.08,0.13,-0.99,3.66,1.89,1.77
28.7160,0.08,0.12,-1.00,3.36,2.44,1.59
28.7320,0.07,0.13,-0.98,2.69,3.05,0.24
28.7470,0.07,0.13,-0.99,2.93,2.08,1.10
28.7630,0.07,0.13,-0.99,3.36,1.53,1.46
28.7790,0.08,0.12,-0.99,3.54,1.65,1.83
28.7950,0.07,0.11,-0.99,2.56,2.38,1.04
28.8100,0.08,0.12,-0.98,2.93,2.93,-1.59
28.8260,0.09,0.13,-0.99,3.91,2.56,-1.46
28.8410,0.08,0.14,-0.99,3.60,2.50,-0.24
28.8560,0.08,0.14,-0.99,3.72,2.26,0.31
28.8720,0.07,0.14,-0.99,3.48,1.65,0.85
28.8870,0.08,0.13,-0.99,3.36,1.95,1.34
28.9020,0.08,0.13,-0.99,3.05,1.83,0.24
28.9180,0.08,0.13,-0.99,3.30,2.08,0.85
28.9330,0.08,0.13,-0.99,3.97,2.26,2.01
28.9480,0.07,0.12,-0.99,4.27,2.38,2.26
28.9640,0.07,0.13,-0.99,3.48,1.83,2.50
28.9790,0.08,0.13,-0.99,2.87,2.08,1.77
28.9940,0.08,0.13,-0.99,2.62,1.59,1.40
29.0100,0.08,0.13,-0.99,3.05,2.26,1.04
29.0250,0.08,0.12,-0.99,4.03,2.20,1.59
29.0410,0.07,0.12,-0.99,3.66,2.08,1.40
29.0560,0.07,0.12,-0.99,3.30,1.53,1.34
29.0720,0.08,0.11,-0.99,3.17,1.89,0.85
29.0880,0.08,0.10,-0.99,3.36,2.20,-1.46
29.1030,0.07,0.16,-0.99,3.05,2.20,-1.77
29.1190,0.07,0.14,-0.99,3.91,1.46,1.53
29.1340,0.08,0.14,-0.99,2.93,1.89,1.34
29.1490,0.08,0.12,-0.99,2.99,1.77,1.59
29.1640,0.08,0.12,-0.99,3.85,1.95,0.85
29.1790,0.08,0.12,-0.99,3.30,2.20,0.24
29.1950,0.08,0.13,-0.99,3.23,2.81,-0.73
29.2110,0.08,0.13,-0.99,4.33,2.26,0.79
29.2260,0.07,0.14,-0.99,3.78,2.01,2.01
29.2430,0.08,0.13,-0.99,3.48,1.83,1.95
29.2580,0.08,0.13,-0.99,2.69,1.89,1.83
29.2740,0.08,0.13,-0.99,2.81,2.08,1.16
29.2890,0.08,0.13,-0.99,3.42,2.44,0.67
29.3040,0.08,0.12,-0.99,3.97,2.01,0.79
29.3200,0.08,0.13,-0.99,3.91,2.01,0.73
29.3360,0.08,0.13,-0.99,3.30,1.95,0.73
29.3510,0.08,0.12,-0.99,3.23,1.89,0.55
29.3670,0.08,0.12,-0.99,3.48,2.38,-0.61
29.3830,0.07,0.14,-0.99,4.09,2.75,-0.67
29.3990,0.08,0.14,-0.99,3.97,2.08,0.98
29.4150,0.08,0.13,-0.99,3.17,1.89,1.40
29.4310,0.08,0.12,-0.99,2.87,2.20,1.46
29.4460,0.08,0.11,-0.99,3.60,2.44,0.67
29.4620,0.08,0.12,-0.99,3.72,2.62,-0.79
29.4780,0.07,0.13,-0.99,3.72,2.56,-0.43
29.4940,0.08,0.14,-0.99,4.03,2.26,0.61
29.5080,0.08,0.14,-0.99,3.48,1.89,1.28
29.5240,0.08,0.13,-0.99,3.11,1.83,1.34
29.5390,0.08,0.12,-0.99,2.81,2.26,0.43
29.5550,0.07,0.11,-0.99,3.48,2.14,-0.06
29.5700,0.08,0.14,-0.99,3.54,2.32,0.00
29.5850,0.08,0.13,-0.99,4.15,2.01,1.65
29.5990,0.08,0.13,-0.99,3.72,1.65,1.77
29.6150,0.08,0.13,-0.99,3.36,2.01,1.65
29.6310,0.08,0.12,-0.99,3.42,2.14,1.34
29.6470,0.08,0.12,-0.99,3.72,1.77,0.92
29.6620,0.08,0.13,-0.99,3.36,2.08,0.85
29.6770,0.07,0.13,-0.99,3.66,1.95,1.22
29.6940,0.07,0.12,-0.99,3.72,1.95,1.53
29.7090,0.08,0.12,-0.99,3.42,1.40,1.04
29.7250,0.08,0.12,-0.99,3.42,2.01,-0.12
29.7410,0.08,0.15,-0.99,3.36,2.38,-1.59
29.7560,0.08,0.14,-0.98,3.78,2.32,1.34
29.7710,0.07,0.13,-0.99,3.48,2.20,1.65
29.7870,0.08,0.13,-0.99,3.60,1.71,1.59
29.8020,0.07,0.11,-0.99,2.93,1.40,0.85
29.8170,0.08,0.12,-0.99,3.23,2.01,-0.73
29.8320,0.08,0.13,-0.98,3.85,2.75,-1.10
29.8470,0.08,0.14,-0.99,3.78,2.26,-0.06
29.8620,0.08,0.14,-0.99,3.17,2.32,1.28
29.8790,0.08,0.12,-0.99,2.44,1.89,1.71
29.8950,0.08,0.12,-0.99,3.48,2.14,1.71
29.9110,0.08,0.11,-0.99,3.11,2.14,0.79
29.9260,0.08,0.14,-0.98,3.36,2.38,-0.73
29.9410,0.07,0.15,-0.99,3.54,2.50,0.18
29.9550,0.08,0.13,-0.99,2.93,2.01,2.08
29.9710,0.08,0.13,-0.98,2.20,1.95,1.59
29.9860,0.08,0.12,-0.99,3.30,1.83,1.34
30.0010,0.07,0.12,-1.00,3.17,1.46,1.28
30.0160,0.08,0.13,-0.99,2.75,2.26,0.73
30.0310,0.08,0.13,-0.98,2.44,2.01,0.37
30.0470,0.08,0.12,-0.99,2.69,1.83,1.59
30.0620,0.08,0.12,-0.99,3.66,2.32,1.89
30.0790,0.08,0.11,-0.98,2.87,2.14,1.89
30.0960,0.07,0.12,-0.98,2.75,1.59,1.04
30.1120,0.08,0.13,-0.99,2.62,2.01,0.79
30.1270,0.07,0.12,-0.98,2.99,1.65,0.61
30.1420,0.08,0.11,-0.99,3.72,1.53,0.24
30.1570,0.08,0.11,-0.99,4.21,2.38,-0.49
30.1730,0.08,0.12,-0.99,4.15,2.75,-1.83
30.1890,0.08,0.15,-0.98,4.33,2.75,-2.08
30.2050,0.07,0.14,-0.99,4.27,1.95,1.04
30.2200,0.08,0.13,-0.99,3.97,1.34,1.71
30.2360,0.08,0.12,-0.99,4.09,1.34,1.65
30.2510,0.08,0.12,-0.99,3.97,1.83,1.34
30.2680,0.08,0.11,-0.99,3.85,2.01,-0.37
30.2830,0.07,0.13,-0.99,4.03,2.69,-1.22
30.2990,0.07,0.13,-0.99,4.64,2.08,0.98
30.3150,0.07,0.13,-0.99,3.66,1.71,0.92
30.3290,0.08,0.13,-0.99,3.17,1.40,0.79
30.3440,0.08,0.12,-0.99,3.17,1.65,0.37
30.3600,0.08,0.12,-0.99,3.48,1.83,0.12
30.3770,0.08,0.14,-0.99,3.85,2.62,0.43
30.3930,0.08,0.12,-0.99,4.15,2.01,2.08
30.4080,0.08,0.13,-0.99,3.48,2.14,2.14
30.4240,0.08,0.13,-0.99,3.11,1.77,1.34
30.4400,0.08,0.13,-0.99,3.60,1.83,1.34
30.4550,0.08,0.12,-0.99,3.72,1.89,0.92
30.4720,0.08,0.11,-0.99,3.48,1.83,-0.24
30.4870,0.08,0.11,-0.99,3.54,2.26,-2.26
30.5040,0.08,0.12,-0.99,3.91,2.62,-2.87
30.5190,0.07,0.18,-0.98,3.42,2.56,-2.44
30.5350,0.08,0.13,-0.99,3.36,2.26,1.77
30.5490,0.08,0.12,-0.99,3.11,2.32,1.77
30.5650,0.07,0.13,-0.99,3.91,2.14,1.83
30.5820,0.08,0.13,-0.99,3.42,1.16,1.59
30.5980,0.08,0.11,-0.99,3.17,1.77,1.10
30.6120,0.08,0.11,-0.99,3.66,1.95,-0.67
30.6270,0.08,0.13,-0.99,3.66,2.62,-1.53
30.6420,0.08,0.14,-0.99,3.97,1.89,-0.18
30.6570,0.07,0.14,-0.99,3.11,2.01,0.49
30.6720,0.07,0.13,-0.99,3.11,1.71,0.43
30.6880,0.08,0.13,-0.99,2.81,1.77,0.37
30.7040,0.08,0.12,-0.99,4.27,1.22,1.40
30.7200,0.08,0.13,-0.99,3.78,1.65,1.10
30.7350,0.08,0.13,-0.99,3.60,1.71,1.22
30.7500,0.08,0.12,-0.99,3.17,1.77,0.79
30.7650,0.08,0.11,-0.99,3.60,2.32,-0.92
30.7810,0.08,0.09,-0.99,3.97,3.05,-2.87
30.7970,0.07,0.14,-0.99,3.91,2.62,-1.46
30.8120,0.07,0.16,-0.98,3.48,2.14,0.31
30.8280,0.08,0.13,-0.99,3.30,1.34,1.46
30.8420,0.08,0.12,-0.99,3.36,1.40,1.59
30.8580,0.08,0.11,-1.00,4.21,1.71,1.34
30.8740,0.08,0.12,-0.99,3.42,2.81,-0.61
30.8890,0.08,0.15,-0.99,3.60,2.50,-1.04
30.9040,0.08,0.13,-0.99,2.93,2.14,1.65
30.9200,0.08,0.12,-0.99,2.20,1.77,1.59
30.9350,0.08,0.13,-0.99,3.97,1.83,1.77
30.9500,0.08,0.13,-0.99,4.39,1.83,1.71
30.9660,0.08,0.12,-0.99,2.81,1.65,1.53
30.9820,0.08,0.12,-0.99,3.48,1.40,0.43
30.9980,0.08,0.14,-0.99,3.66,2.32,0.24
31.0130,0.08,0.13,-0.99,4.21,1.95,1.53
31.0290,0.08,0.12,-0.99,3.60,2.20,1.34
31.0450,0.08,0.13,-0.99,3.23,2.01,0.55
31.0610,0.08,0.12,-0.99,3.66,2.20,0.49
31.0770,0.08,0.12,-0.99,3.60,1.95,0.12
31.0920,0.08,0.13,-0.99,3.85,2.01,0.06
31.1080,0.08,0.13,-0.99,3.48,1.65,0.61
31.1230,0.08,0.13,-1.00,3.60,2.08,-0.12
31.1390,0.08,0.11,-0.99,3.72,2.44,-0.79
31.1540,0.08,0.12,-0.99,4.15,2.26,-1.16
31.1720,0.08,0.13,-0.99,3.60,2.32,-1.22
31.1870,0.07,0.15,-0.98,3.36,2.32,-0.06
31.2030,0.08,0.14,-0.99,3.97,1.83,1.65
31.2190,0.08,0.13,-0.99,3.30,1.89,1.53
31.2340,0.08,0.12,-0.99,3.78,1.71,1.65
31.2490,0.08,0.13,-0.98,3.66,2.32,0.43
31.2650,0.08,0.14,-0.98,3.91,1.77,0.98
31.2810,0.07,0.12,-0.99,3.60,1.95,1.71
31.2960,0.07,0.13,-0.99,4.15,1.59,1.77
31.3110,0.08,0.12,-1.00,4.27,1.53,1.65
31.3260,0.08,0.13,-0.98,2.62,1.89,0.24
31.3410,0.08,0.13,-0.99,3.72,2.20,0.43
31.3560,0.08,0.13,-0.99,3.78,2.14,0.92
31.3720,0.07,0.13,-0.99,3.97,1.83,2.01
31.3900,0.08,0.12,-0.99,3.42,1.83,2.01
31.4040,0.08,0.13,-0.99,2.93,1.71,1.10
31.4200,0.08,0.13,-0.99,3.42,1.95,0.85
31.4360,0.08,0.14,-0.99,3.42,1.83,0.98
31.4500,0.08,0.13,-0.99,3.54,1.65,1.59
31.4690,0.08,0.12,-0.99,3.23,1.77,1.34
31.4850,0.07,0.11,-0.99,3.54,2.01,0.73
31.5010,0.08,0.10,-0.99,3.48,2.32,-0.79
31.5170,0.08,0.13,-0.98,3.05,2.26,-2.99
31.5330,0.07,0.17,-0.98,3.36,2.56,-1.16
31.5490,0.07,0.15,-0.99,3.11,1.77,2.26
31.5650,0.08,0.13,-0.99,3.11,1.71,1.89
31.5810,0.08,0.12,-0.99,3.48,1.65,1.83
31.5970,0.08,0.13,-0.99,3.60,1.46,1.46
31.6120,0.08,0.13,-0.99,3.05,1.53,0.73
31.6290,0.08,0.13,-0.99,3.66,1.77,1.22
31.6450,0.08,0.12,-1.00,4.03,1.77,1.59
31.6600,0.08,0.12,-0.99,3.30,1.46,1.10
31.6760,0.08,0.10,-1.00,3.05,2.14,-0.31
31.6920,0.08,0.15,-0.98,2.75,2.44,-2.20
31.7070,0.07,0.16,-0.98,3.85,2.14,-0.67
31.7210,0.07,0.13,-0.99,3.54,2.14,1.95
31.7370,0.08,0.13,-0.99,3.60,1.59,1.95
31.7530,0.08,0.13,-0.99,3.17,1.40,1.65
31.7700,0.08,0.13,-0.99,2.69,1.83,1.46
31.7850,0.08,0.12,-0.99,3.30,1.71,1.34
31.8000,0.08,0.12,-0.99,3.30,2.14,0.92
31.8150,0.08,0.11,-0.99,3.78,2.38,0.31
31.8300,0.07,0.12,-0.99,3.17,2.69,-1.22
31.8460,0.07,0.14,-0.99,3.60,2.44,-0.73
31.8600,0.08,0.14,-0.99,3.54,2.26,0.31
31.8750,0.08,0.13,-0.99,3.05,2.08,0.61
31.8900,0.08,0.12,-0.99,3.30,2.01,0.79
31.9050,0.08,0.12,-0.99,3.78,2.14,-0.24
31.9200,0.08,0.13,-0.99,3.48,2.08,0.12
31.9350,0.07,0.14,-0.99,3.05,1.89,0.61
31.9500,0.08,0.13,-0.99,3.11,1.59,0.85
31.9650,0.08,0.11,-1.00,3.91,2.01,1.10
31.9810,0.09,0.09,-1.00,3.48,2.38,-1.04
31.9960,0.07,0.14,-0.98,3.78,2.69,-3.48
32.0100,0.07,0.15,-0.98,4.21,2.38,0.67
32.0260,0.07,0.16,-0.99,4.15,2.08,1.40
32.0410,0.08,0.12,-0.99,2.62,1.53,1.53
32.0550,0.08,0.12,-0.99,3.85,1.59,1.53
32.0700,0.08,0.13,-0.99,2.93,1.83,0.12
32.0850,0.08,0.13,-0.99,2.87,1.89,-0.24
32.1000,0.08,0.13,-0.99,3.54,1.95,0.73
32.1150,0.08,0.12,-0.99,4.15,1.95,1.65
32.1300,0.08,0.12,-0.99,3.54,1.59,1.34
32.1450,0.08,0.12,-0.99,3.48,1.89,0.43
32.1600,0.08,0.13,-0.99,3.11,2.26,-0.49
32.1750,0.08,0.12,-0.99,3.78,1.77,-1.28
32.1900,0.08,0.13,-0.99,4.64,2.20,-1.10
32.2050,0.08,0.13,-0.99,4.27,2.01,0.67
32.2210,0.08,0.13,-0.99,4.09,1.59,0.55
32.2360,0.08,0.12,-0.99,2.99,1.89,0.24
32.2510,0.08,0.12,-0.99,3.48,1.77,-0.85
32.2660,0.08,0.13,-0.99,3.97,2.56,-2.08
32.2820,0.08,0.12,-0.98,3.97,3.17,-2.50
32.2980,0.08,0.14,-0.99,3.85,2.50,-1.34
32.3130,0.08,0.13,-0.99,3.30,2.44,-0.43
32.3290,0.08,0.15,-0.99,3.23,2.08,-0.37
32.3450,0.08,0.13,-0.99,3.72,1.89,1.34
32.3600,0.08,0.13,-0.99,3.30,1.65,1.16
32.3740,0.07,0.12,-0.99,3.42,1.77,1.04
32.3890,0.07,0.12,-0.99,3.17,2.08,-0.24
32.4050,0.08,0.13,-0.99,3.36,2.01,-0.37
32.4210,0.08,0.13,-0.99,3.72,2.01,0.18
32.4370,0.08,0.14,-0.99,3.66,1.95,1.28
32.4520,0.08,0.13,-0.99,3.11,1.95,1.83
32.4670,0.08,0.12,-0.99,3.54,1.77,1.95
32.4830,0.08,0.12,-0.99,2.38,2.20,1.16
32.4990,0.08,0.13,-0.99,2.32,2.81,0.18
32.5150,0.08,0.12,-0.99,3.23,2.56,-0.31
32.5290,0.08,0.14,-0.99,4.15,2.38,0.67
32.5440,0.08,0.13,-0.99,3.66,1.77,2.14
32.5600,0.08,0.13,-0.99,3.11,1.89,2.01
32.5750,0.08,0.13,-0.99,3.23,1.77,1.65
32.5900,0.08,0.12,-0.99,3.05,2.01,1.16
32.6060,0.08,0.12,-0.99,3.42,1.71,0.18
32.6200,0.08,0.13,-0.99,3.72,2.20,0.43
32.6350,0.08,0.13,-0.99,3.91,2.08,1.22
32.6510,0.08,0.13,-0.99,3.36,1.95,1.53
32.6650,0.08,0.12,-0.99,3.17,1.71,0.98
32.6820,0.07,0.11,-0.99,3.11,1.65,0.00
32.6980,0.08,0.14,-0.99,3.60,2.08,-1.77
32.7140,0.08,0.13,-0.99,4.64,1.95,1.40
32.7290,0.07,0.12,-0.99,4.33,1.89,2.14
32.7450,0.08,0.12,-0.99,3.66,1.89,1.04
32.7610,0.08,0.13,-0.99,3.05,2.20,-0.06
32.7750,0.08,0.13,-0.99,3.17,1.95,-0.31
32.7920,0.08,0.12,-0.99,4.33,2.08,-0.12
32.8060,0.07,0.11,-0.99,3.91,2.26,-1.04
32.8210,0.08,0.09,-1.00,4.15,2.44,-3.05
32.8370,0.07,0.13,-1.00,3.78,3.36,-7.02
32.8530,0.08,0.13,-0.98,4.09,3.48,-4.39
32.8670,0.08,0.14,-0.98,4.15,2.69,-4.09
32.8830,0.08,0.17,-0.98,4.03,2.26,-0.43
32.8990,0.08,0.13,-0.99,2.75,2.01,1.77
32.9140,0.08,0.12,-0.99,3.11,1.71,1.95
32.9310,0.08,0.13,-0.99,4.03,1.59,2.26
32.9450,0.08,0.13,-0.99,3.54,1.83,1.46
32.9610,0.08,0.13,-0.99,3.30,1.89,1.04
32.9760,0.08,0.13,-0.99,3.30,2.01,1.34
32.9910,0.08,0.13,-0.99,2.93,1.59,1.89
33.0070,0.07,0.11,-0.99,3.54,1.59,1.83
33.0240,0.08,0.11,-0.99,2.87,1.77,0.61
33.0400,0.08,0.10,-0.98,3.72,2.32,-0.92
33.0550,0.08,0.14,-0.98,3.30,2.44,-2.26
33.0700,0.08,0.16,-0.99,3.97,1.77,0.98
33.0860,0.08,0.14,-0.99,4.15,1.89,1.83
33.1020,0.08,0.13,-0.99,3.66,2.01,1.71
33.1180,0.08,0.13,-0.99,2.93,1.89,0.43
33.1330,0.08,0.13,-0.99,2.75,2.26,-0.12
33.1490,0.08,0.14,-0.99,3.23,2.14,-0.24
33.1650,0.07,0.12,-0.99,3.72,1.77,1.77
33.1810,0.07,0.12,-0.99,3.91,2.38,2.44
33.1950,0.08,0.12,-0.99,3.66,2.01,1.89
33.2110,0.07,0.12,-0.99,2.99,2.14,0.31
33.2250,0.08,0.12,-0.99,2.93,2.50,-1.71
33.2420,0.08,0.13,-0.99,4.27,2.44,-1.83
33.2580,0.08,0.14,-0.99,3.72,2.50,-0.61
33.2750,0.08,0.12,-0.99,3.17,2.44,-0.49
33.2920,0.08,0.11,-0.99,3.23,2.32,-1.89
33.3070,0.07,0.14,-0.99,3.54,2.81,-2.26
33.3230,0.07,0.14,-0.98,4.03,2.32,15.01
33.3390,0.08,0.13,-0.99,4.27,1.65,1.22
33.3540,0.08,0.13,-0.99,3.48,2.01,1.22
33.3690,0.08,0.12,-0.99,3.48,2.56,1.34
33.3840,0.08,0.12,-0.99,2.99,2.14,0.37
33.4010,0.08,0.08,-1.01,3.54,2.20,-1.16
33.4170,0.08,0.13,-0.99,4.09,3.66,-5.55
33.4330,0.07,0.16,-0.98,4.76,2.62,-1.16
33.4490,0.07,0.16,-0.99,4.33,2.08,0.79
33.4650,0.08,0.15,-0.98,2.56,1.71,0.24
33.4800,0.08,0.12,-0.99,2.26,1.77,1.16
33.4980,0.08,0.11,-0.99,3.85,1.89,0.37
33.5140,0.08,0.12,-0.99,4.09,2.44,-0.49
33.5290,0.07,0.14,-0.99,3.85,2.01,0.73
33.5450,0.08,0.14,-0.99,3.66,1.46,1.46
33.5600,0.08,0.12,-0.99,3.11,1.34,1.10
33.5750,0.08,0.11,-0.99,3.60,1.71,0.18
33.5910,0.08,0.11,-0.99,3.60,2.01,-0.31
33.6070,0.08,0.13,-0.99,3.97,1.95,-0.55
33.6230,0.08,0.15,-0.99,3.85,2.01,0.85
33.6380,0.08,0.13,-0.99,3.17,1.83,1.89
33.6530,0.08,0.13,-0.99,3.54,1.46,1.77
33.6710,0.08,0.12,-0.99,2.93,1.95,1.10
33.6860,0.08,0.11,-1.00,3.23,2.14,-0.49
33.7010,0.08,0.10,-0.99,3.17,2.62,-1.59
33.7180,0.07,0.14,-0.99,3.54,2.75,-1.83
33.7320,0.07,0.14,-0.98,3.97,1.89,0.00
33.7480,0.08,0.13,-0.99,3.60,1.65,1.04
33.7640,0.08,0.12,-0.99,3.11,1.71,0.37
33.7800,0.08,0.11,-0.99,3.17,2.14,-0.79
33.7960,0.08,0.12,-0.99,3.66,3.05,-3.42
33.8120,0.07,0.16,-0.98,4.03,2.14,-0.61
33.8290,0.08,0.13,-0.99,4.82,1.77,1.95
33.8450,0.08,0.12,-0.99,3.60,1.83,0.49
33.8590,0.08,0.11,-0.99,3.17,2.14,-0.67
33.8750,0.08,0.12,-0.99,3.17,2.50,-2.38
33.8920,0.08,0.13,-0.99,4.03,2.93,-2.08
33.9080,0.08,0.15,-0.99,3.60,2.26,-1.46
33.9240,0.08,0.12,-0.99,3.85,2.26,0.61
33.9390,0.07,0.11,-0.99,3.23,2.32,-1.34
33.9540,0.08,0.12,-0.99,3.60,2.32,-2.44
33.9720,0.08,0.14,-0.98,3.54,2.62,-0.55
33.9870,0.08,0.15,-0.99,3.97,1.83,0.18
34.0040,0.08,0.13,-0.99,3.54,1.95,1.10
34.0200,0.08,0.13,-0.99,3.17,2.08,1.34
34.0340,0.08,0.12,-0.99,3.36,1.77,1.10
34.0490,0.08,0.12,-0.99,2.99,1.83,0.67
34.0650,0.07,0.11,-0.99,3.54,2.26,-0.55
34.0810,0.08,0.12,-0.99,3.91,2.26,-1.59
34.0970,0.08,0.13,-0.99,4.33,2.08,-0.79
34.1140,0.08,0.14,-0.99,3.17,2.20,0.37
34.1280,0.08,0.13,-0.99,2.38,1.95,0.55
34.1440,0.08,0.12,-0.99,3.42,1.65,0.98
34.1590,0.08,0.13,-0.99,3.85,1.89,0.37
34.1750,0.08,0.13,-0.99,3.78,2.01,0.37
34.1910,0.08,0.13,-0.99,2.99,2.26,0.24
34.2070,0.08,0.12,-0.99,3.48,2.08,-0.31
34.2230,0.07,0.12,-0.99,3.54,1.89,-0.43
34.2380,0.07,0.12,-0.99,4.09,1.95,-0.49
34.2540,0.08,0.12,-0.99,3.85,1.95,-0.37
34.2700,0.08,0.13,-0.97,3.30,2.44,-1.71
34.2850,0.08,0.15,-0.98,3.23,1.95,-0.18
34.3010,0.08,0.13,-0.97,3.36,1.34,1.53
34.3160,0.08,0.12,-1.00,4.03,1.65,1.65
34.3310,0.07,0.12,-0.99,4.33,1.77,1.40
34.3470,0.08,0.13,-0.99,3.85,2.50,-0.79
34.3630,0.08,0.13,-0.99,4.33,2.56,0.49
34.3800,0.08,0.12,-0.99,3.72,2.08,1.46
34.3980,0.08,0.12,-0.99,3.36,1.95,0.98
34.4120,0.08,0.13,-0.99,3.17,1.71,0.85
34.4280,0.08,0.13,-0.99,3.05,1.95,1.10
34.4430,0.07,0.12,-0.99,3.42,2.08,1.16
34.4590,0.08,0.12,-0.99,3.36,1.59,0.24
34.4740,0.08,0.13,-0.99,3.05,2.01,-0.06
34.4900,0.08,0.14,-0.98,2.69,2.08,0.06
34.5060,0.08,0.12,-0.99,3.11,2.32,1.65
34.5210,0.08,0.13,-0.99,4.39,2.44,1.83
34.5360,0.07,0.13,-0.99,3.48,1.77,1.04
34.5530,0.07,0.12,-0.99,2.81,2.14,0.55
34.5690,0.07,0.12,-0.99,3.23,2.08,-0.37
34.5850,0.07,0.11,-0.99,4.03,2.32,-1.53
34.6000,0.08,0.12,-1.00,4.76,2.62,-1.40
34.6170,0.08,0.14,-0.99,4.15,2.50,-2.01
34.6320,0.08,0.13,-0.99,3.54,2.62,-1.22
34.6480,0.08,0.14,-0.99,3.17,2.26,-0.06
34.6640,0.08,0.13,-0.99,3.85,1.65,0.98
34.6790,0.08,0.13,-0.99,3.36,1.77,0.73
34.6940,0.08,0.12,-0.99,3.66,2.08,-0.18
34.7110,0.08,0.12,-0.99,3.54,2.32,-0.73
34.7270,0.08,0.13,-0.99,3.85,2.75,-1.10
34.7430,0.08,0.14,-0.99,4.39,1.83,1.10
34.7590,0.08,0.13,-0.99,3.11,1.77,2.01
34.7740,0.08,0.13,-0.99,3.11,1.34,2.01
34.7890,0.08,0.11,-0.99,2.62,2.01,1.28
34.8040,0.08,0.11,-0.99,3.48,3.11,-0.85
34.8200,0.08,0.12,-0.99,4.46,2.75,-0.98
34.8350,0.07,0.15,-0.99,4.33,2.20,0.06
34.8520,0.08,0.14,-0.99,4.70,1.34,1.77
34.8670,0.08,0.13,-0.99,3.85,1.65,1.65
34.8830,0.08,0.13,-0.99,4.15,2.01,1.59
34.8990,0.08,0.13,-0.99,4.15,1.89,1.40
34.9130,0.08,0.13,-0.99,4.33,1.59,1.89
34.9300,0.07,0.12,-0.99,4.15,1.83,2.26
34.9460,0.08,0.12,-0.99,4.15,1.40,2.32
34.9610,0.08,0.12,-0.99,4.03,1.77,2.01
34.9760,0.08,0.12,-0.99,2.69,2.44,0.12
34.9920,0.08,0.13,-0.99,2.87,2.56,-1.10
35.0080,0.07,0.14,-0.99,3.72,2.08,0.79
35.0240,0.07,0.13,-0.99,3.42,2.32,1.40
35.0400,0.07,0.12,-0.99,2.93,1.65,0.31
35.0550,0.08,0.11,-0.99,3.23,1.83,-0.24
35.0710,0.09,0.09,-1.00,3.97,2.69,-2.44
35.0870,0.08,0.14,-0.98,3.91,3.66,-5.80
35.1030,0.07,0.16,-0.99,4.70,2.62,-0.06
35.1180,0.07,0.14,-0.99,2.99,1.71,0.98
35.1340,0.08,0.12,-0.99,2.87,1.46,1.59
35.1490,0.08,0.10,-0.99,3.54,1.95,-0.55
35.1650,0.08,0.10,-1.00,2.87,2.69,-2.26
35.1810,0.07,0.17,-0.98,3.54,2.93,-3.54
35.1970,0.07,0.13,-0.99,5.98,2.14,2.81
35.2130,0.08,0.14,-1.00,3.97,1.34,2.38
35.2290,0.07,0.13,-0.99,2.75,1.04,1.59
35.2430,0.09,0.14,-0.99,2.56,2.14,-0.18
35.2590,0.09,0.13,-0.98,3.17,1.95,1.04
35.2750,0.08,0.12,-0.99,3.42,1.77,1.83
35.2910,0.07,0.13,-0.99,4.33,2.08,2.08
35.3070,0.07,0.13,-0.99,4.46,2.08,1.95
35.3230,0.08,0.13,-0.99,2.62,2.20,0.73
35.3380,0.08,0.14,-0.99,1.83,2.38,-0.31
35.3540,0.08,0.13,-0.99,3.05,1.77,1.34
35.3700,0.08,0.12,-0.99,4.33,2.01,1.95
35.3850,0.08,0.11,-1.00,5.31,1.77,2.50
35.4020,0.08,0.12,-0.99,2.56,2.81,-0.98
35.4180,0.08,0.14,-1.00,2.87,2.44,-2.50
35.4330,0.08,0.14,-0.99,3.36,2.32,-1.71
35.4490,0.08,0.14,-0.99,3.78,1.83,0.00
35.4650,0.08,0.12,-0.99,3.91,1.34,1.59
35.4810,0.07,0.13,-0.99,4.03,1.83,1.77
35.4970,0.08,0.12,-0.99,2.99,1.77,1.40
35.5120,0.08,0.13,-0.98,2.99,1.65,0.92
35.5280,0.08,0.13,-0.99,4.27,1.65,1.89
35.5440,0.08,0.13,-0.99,4.58,1.40,2.20
35.5600,0.08,0.13,-0.99,3.78,1.59,2.62
35.5740,0.08,0.13,-0.99,3.05,1.83,1.34
35.5900,0.08,0.13,-0.99,2.87,2.01,-0.24
35.6050,0.08,0.12,-0.99,3.60,2.08,-0.49
35.6210,0.08,0.13,-0.99,3.66,2.26,-0.24
35.6370,0.08,0.13,-0.99,3.60,2.26,0.24
35.6520,0.08,0.14,-0.99,3.30,2.20,0.31
35.6680,0.08,0.13,-0.99,3.48,2.14,1.28
35.6830,0.08,0.13,-0.99,3.17,1.34,1.10
35.6980,0.08,0.13,-0.99,3.54,1.65,1.34
35.7140,0.08,0.13,-0.99,3.48,1.83,1.77
35.7290,0.07,0.13,-0.99,2.62,1.34,1.10
35.7440,0.08,0.13,-0.99,2.93,2.01,1.10
35.7600,0.08,0.12,-0.99,3.78,2.08,0.79
35.7760,0.08,0.12,-0.99,3.78,2.20,1.28
35.7910,0.07,0.13,-0.99,3.48,1.95,1.40
35.8070,0.08,0.13,-0.99,3.23,1.89,1.28
35.8230,0.08,0.12,-0.99,3.36,1.89,0.12
35.8390,0.08,0.10,-0.99,4.15,1.95,-1.83
35.8540,0.07,0.09,-1.00,4.33,2.87,-4.15
35.8710,0.07,0.16,-0.99,3.42,2.62,-5.55
35.8860,0.07,0.16,-0.98,4.52,1.77,0.18
35.9010,0.08,0.13,-0.99,2.38,1.34,1.28
35.9160,0.08,0.12,-0.99,3.11,1.53,1.40
35.9310,0.08,0.12,-0.99,3.60,2.20,0.79
35.9470,0.08,0.13,-0.99,3.66,1.95,1.22
35.9630,0.08,0.12,-0.99,3.42,2.14,0.73
35.9790,0.08,0.13,-0.99,3.91,2.08,0.12
35.9940,0.08,0.13,-0.99,3.72,1.59,0.43
36.0090,0.08,0.14,-0.99,2.50,1.83,0.55
36.0260,0.08,0.13,-0.99,2.81,1.77,1.46
36.0410,0.08,0.12,-0.99,4.09,2.01,1.83
36.0560,0.08,0.12,-0.99,4.46,2.14,2.08
36.0710,0.08,0.13,-0.99,3.91,2.01,2.44
36.0860,0.08,0.14,-0.99,2.87,2.08,1.59
36.1020,0.08,0.12,-0.99,2.62,1.95,1.16
36.1180,0.08,0.12,-1.00,3.85,2.26,1.28
36.1320,0.07,0.12,-0.99,4.03,1.89,1.22
36.1480,0.07,0.13,-0.99,3.97,1.53,1.46
36.1640,0.08,0.13,-0.99,2.87,1.65,0.92
36.1810,0.08,0.12,-0.99,2.14,2.01,0.55
36.1970,0.09,0.09,-1.00,3.23,2.69,-1.53
36.2130,0.08,0.12,-1.00,4.27,3.30,-3.66
36.2280,0.07,0.15,-0.98,4.03,2.93,-1.89
36.2450,0.07,0.16,-0.99,3.42,1.77,-0.06
36.2600,0.08,0.15,-0.99,0.43,1.28,0.79
36.2760,0.08,0.11,-0.99,0.18,1.71,-15.38
36.2910,0.08,0.12,-0.99,4.27,2.32,-1.16
36.3070,0.07,0.11,-1.00,4.88,2.81,-1.53
36.3230,0.08,0.13,-0.99,3.85,3.17,-2.69
36.3390,0.08,0.16,-0.98,4.03,2.32,-0.18
36.3550,0.08,0.13,-0.99,2.99,2.14,2.01
36.3700,0.08,0.12,-0.99,2.99,1.77,1.89
36.3860,0.08,0.13,-0.99,3.23,1.83,1.89
36.4010,0.08,0.13,-0.99,3.36,1.59,1.71
36.4170,0.08,0.12,-0.99,2.81,2.38,0.85
36.4330,0.08,0.13,-0.99,4.09,2.20,0.37
36.4480,0.07,0.12,-0.99,3.85,1.77,1.53
36.4630,0.08,0.13,-0.99,3.36,1.83,1.77
36.4780,0.08,0.13,-0.99,3.05,1.65,0.79
36.4960,0.07,0.12,-0.99,3.23,1.71,0.73
36.5110,0.07,0.12,-0.99,3.48,2.01,0.61
36.5250,0.07,0.13,-0.99,4.46,2.26,0.43
36.5410,0.07,0.12,-0.99,3.97,1.95,0.73
36.5560,0.08,0.10,-1.00,4.76,2.01,0.49
36.5730,0.09,0.13,-0.99,4.15,2.81,-0.79
36.5890,0.10,0.17,-0.99,3.05,2.62,-2.44
36.6030,0.10,0.18,-0.98,2.56,2.01,-1.71
36.6180,0.08,0.12,-0.98,-0.18,1.71,1.04
36.6340,0.07,0.11,-0.99,3.17,1.53,1.59
36.6490,0.08,0.13,-0.99,4.82,2.26,1.83
36.6640,0.08,0.12,-0.99,1.77,1.89,1.65
36.6800,0.07,0.11,-0.99,2.50,2.01,2.08
36.6940,0.07,0.11,-0.99,5.25,1.71,2.56
36.7110,0.08,0.13,-0.99,5.43,1.71,2.44
36.7270,0.09,0.14,-0.99,3.78,1.34,1.04
36.7430,0.08,0.13,-0.99,3.11,2.14,0.06
36.7590,0.08,0.13,-0.98,3.60,2.44,-0.67
36.7750,0.07,0.12,-0.99,4.58,2.14,1.34
36.7900,0.08,0.13,-0.99,4.21,1.59,1.65
36.8050,0.08,0.13,-0.99,3.91,1.40,1.65
36.8210,0.08,0.13,-0.99,3.23,1.40,1.77
36.8370,0.08,0.12,-0.99,3.30,2.01,1.89
36.8520,0.08,0.12,-1.00,4.09,2.01,1.83
36.8680,0.08,0.13,-0.98,3.11,2.01,1.04
36.8840,0.08,0.14,-0.99,3.42,1.59,1.65
36.9000,0.07,0.12,-0.99,3.17,1.40,1.46
36.9150,0.08,0.12,-0.99,3.48,1.59,1.53
36.9310,0.08,0.12,-0.99,3.72,2.44,0.00
36.9470,0.08,0.12,-0.99,3.72,2.26,-1.71
36.9620,0.07,0.13,-0.99,3.78,2.75,-1.53
36.9780,0.07,0.13,-0.99,3.60,2.32,1.22
36.9940,0.07,0.14,-0.99,3.60,1.71,1.22
37.0100,0.08,0.13,-0.99,3.36,1.59,1.28
37.0260,0.08,0.11,-0.99,4.09,1.65,0.67
37.0420,0.08,0.10,-0.99,3.30,2.44,-2.38
37.0580,0.08,0.12,-0.99,2.93,2.99,-4.09
37.0740,0.07,0.16,-0.98,3.72,2.75,-1.10
37.0890,0.08,0.14,-0.99,4.15,2.01,1.89
37.1050,0.08,0.12,-0.99,3.42,2.14,1.89
37.1210,0.08,0.13,-0.99,3.97,2.32,1.89
37.1370,0.08,0.12,-0.99,3.05,2.08,0.31
37.1530,0.07,0.12,-0.99,4.27,2.08,0.31
37.1690,0.08,0.15,-0.99,4.21,1.89,0.92
37.1840,0.07,0.13,-0.99,3.54,1.65,2.32
37.1990,0.08,0.13,-0.99,2.99,1.22,2.20
37.2140,0.08,0.14,-0.99,3.72,1.95,1.83
37.2300,0.08,0.13,-0.99,3.05,1.89,1.34
37.2470,0.08,0.13,-0.99,2.69,2.14,0.37
37.2620,0.08,0.12,-0.99,3.66,2.44,0.98
37.2770,0.08,0.12,-0.99,3.72,2.38,0.67
37.2920,0.08,0.12,-0.99,3.48,2.26,0.37
37.3090,0.09,0.09,-1.00,3.85,2.08,-1.04
37.3250,0.08,0.11,-0.99,2.75,2.99,-5.43
37.3410,0.06,0.18,-0.98,3.85,3.30,-4.03
37.3560,0.07,0.15,-0.99,4.21,2.01,1.22
37.3730,0.08,0.12,-0.98,2.81,1.34,1.16
37.3890,0.08,0.11,-0.99,3.36,2.14,-0.12
37.4050,0.09,0.13,-1.00,3.36,2.32,-1.65
37.4200,0.08,0.14,-0.98,3.23,2.87,-0.85
37.4360,0.07,0.14,-0.99,3.36,2.69,0.24
37.4530,0.07,0.11,-1.00,3.54,1.83,1.71
37.4680,0.08,0.10,-0.99,3.05,2.32,0.00
37.4820,0.09,0.09,-1.00,3.05,2.87,-2.81
37.4980,0.08,0.15,-0.99,2.62,3.23,-6.35
37.5150,0.08,0.16,-0.98,4.52,2.26,-0.79
37.5310,0.08,0.15,-0.99,3.66,1.95,1.28
37.5470,0.08,0.13,-0.99,3.17,1.53,1.16
37.5630,0.08,0.11,-0.99,3.17,1.89,1.16
37.5790,0.08,0.10,-0.99,3.85,2.62,-1.16
37.5960,0.08,0.12,-0.99,3.36,3.05,-3.05
37.6120,0.07,0.16,-0.98,4.09,2.81,-1.77
37.6270,0.07,0.14,-0.99,3.91,2.20,2.26
37.6410,0.08,0.12,-0.99,2.62,1.77,1.83
37.6570,0.08,0.12,-0.99,3.78,1.77,1.77
37.6730,0.08,0.13,-0.99,2.99,2.01,0.85
37.6880,0.08,0.12,-0.99,2.62,2.08,-0.37
37.7050,0.08,0.13,-0.99,3.72,2.81,0.24
37.7200,0.08,0.13,-0.99,3.72,2.32,1.53
37.7350,0.07,0.12,-0.99,3.11,2.01,1.83
37.7510,0.08,0.12,-0.99,3.97,1.71,1.83
37.7660,0.08,0.11,-0.99,2.87,2.26,0.37
37.7820,0.08,0.09,-0.98,2.75,2.26,-3.17
37.7980,0.08,0.09,-0.99,2.69,2.93,-5.07
37.8140,0.08,0.15,-0.99,4.03,3.97,-6.16
37.8290,0.07,0.16,-0.98,5.19,2.44,-1.28
37.8440,0.08,0.14,-1.00,4.70,2.14,1.40
37.8600,0.07,0.14,-0.99,3.54,2.14,-0.31
37.8750,0.07,0.15,-0.98,3.48,2.26,0.55
37.8900,0.08,0.13,-0.99,3.85,1.71,1.46
37.9050,0.08,0.12,-0.99,3.91,1.71,1.53
37.9210,0.08,0.11,-0.99,3.42,2.08,0.61
37.9380,0.08,0.12,-0.99,3.42,2.50,-0.73
37.9540,0.07,0.15,-0.98,2.75,3.05,-1.65
37.9690,0.07,0.14,-0.99,4.15,2.14,2.56
37.9850,0.08,0.13,-0.99,2.62,1.65,1.95
38.0010,0.08,0.12,-0.99,2.93,1.65,0.98
38.0160,0.08,0.12,-0.99,3.23,2.01,0.73
38.0310,0.08,0.13,-0.99,3.54,2.08,0.37
38.0460,0.08,0.12,-0.99,4.15,2.08,0.85
38.0610,0.08,0.13,-0.99,3.48,2.62,0.12
38.0760,0.08,0.12,-0.99,3.85,2.62,-0.24
38.0910,0.09,0.07,-0.99,3.66,2.81,-1.65
38.1080,0.07,0.10,-0.99,3.05,3.36,-5.49
38.1240,0.07,0.15,-0.99,4.58,2.81,-5.07
38.1380,0.07,0.18,-0.98,4.39,2.32,-2.08
38.1540,0.08,0.14,-1.00,5.19,1.65,1.04
38.1690,0.08,0.13,-0.99,2.81,2.38,0.12
38.1850,0.08,0.12,-0.99,3.17,2.20,0.12
38.2000,0.08,0.12,-0.99,2.69,2.50,-0.37
38.2160,0.07,0.13,-0.99,3.48,2.14,0.92
38.2320,0.07,0.13,-1.00,4.58,2.14,1.89
38.2480,0.07,0.12,-0.99,3.23,1.89,0.92
38.2640,0.07,0.11,-0.98,3.11,2.14,0.24
38.2790,0.08,0.12,-0.98,3.17,2.44,-1.53
38.2940,0.09,0.12,-1.00,4.21,2.08,-0.92
38.3100,0.08,0.14,-0.98,4.21,2.87,0.18
38.3260,0.08,0.14,-0.99,4.39,2.20,1.34
38.3420,0.08,0.14,-0.99,2.69,1.77,1.40
38.3580,0.08,0.12,-0.99,1.53,1.95,1.28
38.3740,0.08,0.12,-0.99,3.78,1.89,1.65
38.3900,0.07,0.10,-1.00,3.60,2.20,-0.18
38.4040,0.08,0.11,-0.99,3.72,2.87,-2.69
38.4200,0.08,0.15,-0.98,3.78,2.62,-1.77
38.4340,0.08,0.14,-0.99,4.39,2.20,2.26
38.4490,0.08,0.12,-0.99,3.54,1.89,1.95
38.4650,0.08,0.12,-0.99,3.97,1.83,1.77
38.4820,0.08,0.12,-0.99,2.08,2.32,-0.18
38.4970,0.08,0.13,-0.99,3.17,2.20,0.37
38.5150,0.08,0.12,-0.98,3.97,1.95,1.71
38.5290,0.08,0.11,-1.00,4.76,1.83,2.01
38.5440,0.08,0.11,-0.99,3.72,2.14,1.04
38.5600,0.09,0.10,-1.01,3.30,2.69,-2.20
38.5750,0.08,0.12,-0.99,2.38,3.36,-5.00
38.5900,0.08,0.12,-0.99,3.36,3.60,-5.37
38.6050,0.07,0.17,-0.99,4.15,3.17,-3.78
38.6210,0.08,0.16,-0.99,4.88,2.14,1.46
38.6380,0.08,0.13,-0.99,1.95,1.65,1.59
38.6530,0.08,0.12,-0.98,2.44,1.77,1.40
38.6680,0.08,0.13,-0.99,4.03,2.14,1.71
38.6830,0.08,0.12,-0.99,4.03,2.38,1.65
38.6990,0.08,0.12,-0.99,3.97,2.50,1.46
38.7140,0.07,0.13,-0.99,3.17,2.14,1.46
38.7300,0.08,0.12,-0.99,3.17,1.95,1.40
38.7450,0.08,0.06,-1.01,3.66,2.81,-1.22
38.7610,0.09,0.03,-1.00,3.17,4.27,-9.40
38.7780,0.07,0.13,-0.97,4.33,4.64,-12.02
38.7930,0.05,0.17,-0.97,5.49,3.60,-5.62
38.8090,0.07,0.21,-0.98,6.59,2.75,-1.22
38.8250,0.07,0.20,-0.98,5.49,2.14,0.67
38.8390,0.08,0.13,-0.99,2.08,1.34,1.40
38.8540,0.08,0.12,-0.98,2.08,2.14,1.46
38.8690,0.08,0.13,-0.99,4.27,2.14,2.01
38.8840,0.08,0.12,-0.99,4.09,2.56,2.32
38.9000,0.07,0.12,-0.99,4.33,2.32,2.56
38.9150,0.07,0.13,-0.99,4.15,1.65,3.23
38.9320,0.08,0.14,-0.99,3.30,1.59,1.83
38.9470,0.08,0.12,-0.99,1.95,1.83,1.28
38.9630,0.08,0.12,-0.99,3.23,2.26,1.46
38.9780,0.07,0.13,-0.99,4.82,2.01,2.01
38.9950,0.07,0.13,-0.99,3.60,2.14,1.77
39.0090,0.08,0.13,-0.99,3.42,1.77,1.77
39.0240,0.08,0.13,-0.99,2.62,2.01,1.22
39.0400,0.08,0.12,-0.99,2.50,1.89,0.24
39.0550,0.08,0.14,-0.99,3.11,1.83,0.55
39.0700,0.07,0.12,-0.99,2.81,2.14,1.89
39.0850,0.08,0.12,-0.99,2.99,1.89,1.77
39.1000,0.08,0.13,-1.00,3.72,1.95,1.83
39.1160,0.08,0.11,-0.99,2.08,3.05,-1.04
39.1330,0.07,0.11,-0.99,2.87,2.62,-3.30
39.1480,0.07,0.16,-0.99,4.46,2.56,-2.32
39.1650,0.08,0.14,-0.99,4.15,2.01,2.01
39.1810,0.08,0.13,-1.00,4.27,1.83,1.71
39.1970,0.07,0.14,-0.99,2.69,1.65,0.55
39.2120,0.08,0.13,-0.99,2.32,1.95,1.46
39.2280,0.08,0.13,-0.99,2.38,1.40,1.46
39.2430,0.08,0.12,-0.99,3.23,1.34,1.59
39.2580,0.08,0.11,-0.99,4.58,2.01,1.10
39.2740,0.08,0.12,-0.99,4.27,3.05,-1.46
39.2910,0.08,0.13,-0.99,3.78,2.81,-1.40
39.3050,0.07,0.17,-0.98,3.30,1.89,-0.98
39.3200,0.08,0.13,-0.98,3.05,1.53,1.16
39.3360,0.08,0.12,-0.99,1.65,1.53,1.53
39.3510,0.08,0.12,-0.99,3.42,1.59,1.65
39.3660,0.06,0.14,-1.00,3.30,1.77,1.34
39.3830,0.08,0.12,-0.99,2.38,2.75,-1.53
39.3970,0.08,0.12,-0.99,4.82,2.44,-1.40
39.4120,0.08,0.14,-0.99,5.80,2.26,0.43
39.4270,0.08,0.13,-0.99,5.25,1.71,1.89
39.4430,0.08,0.13,-0.99,2.99,1.40,1.40
39.4580,0.08,0.11,-0.99,3.11,1.77,0.73
39.4730,0.08,0.11,-0.99,3.36,2.44,-1.34
39.4890,0.08,0.11,-0.99,4.09,2.32,-1.59
39.5040,0.08,0.14,-0.99,4.52,2.93,-1.40
39.5190,0.08,0.15,-0.99,4.88,1.89,1.46
39.5340,0.08,0.12,-0.99,3.85,2.75,2.01
39.5500,0.08,0.11,-0.99,2.99,2.44,0.92
39.5650,0.08,0.12,-0.99,3.17,2.26,-0.98
39.5820,0.08,0.09,-1.00,3.48,2.62,-2.56
39.5970,0.07,0.12,-0.99,3.36,2.99,-4.82
39.6140,0.08,0.11,-1.00,3.97,3.42,-4.82
39.6290,0.06,0.11,-0.99,4.21,4.21,-6.77
39.6450,0.07,0.19,-0.99,5.37,4.15,-5.98
39.6600,0.09,0.17,-0.99,5.55,2.01,0.12
39.6760,0.08,0.13,-0.98,1.95,1.53,1.40
39.6910,0.08,0.12,-0.99,1.95,1.77,1.10
39.7060,0.08,0.11,-0.99,5.13,2.75,0.55
39.7210,0.07,0.13,-1.00,4.39,3.42,-1.89
39.7360,0.07,0.12,-1.00,3.97,2.69,-1.40
39.7520,0.07,0.14,-0.99,3.85,2.38,-0.49
39.7670,0.08,0.14,-0.99,3.36,1.46,0.98
39.7830,0.08,0.14,-0.99,3.17,1.34,1.22
39.7980,0.08,0.13,-0.99,2.62,1.77,1.10
39.8140,0.08,0.12,-0.99,2.93,1.77,1.04
39.8290,0.08,0.14,-0.99,3.78,2.38,0.85
39.8440,0.07,0.12,-0.98,2.93,2.75,2.14
39.8590,0.07,0.13,-0.99,3.42,2.44,3.30
39.8740,0.07,0.13,-0.99,3.36,1.46,4.46
39.8910,0.08,0.13,-1.00,2.62,1.53,2.01
39.9070,0.08,0.12,-0.98,1.83,1.71,1.04
39.9220,0.08,0.13,-0.99,3.54,2.14,1.40
39.9380,0.07,0.13,-0.99,4.21,2.14,1.59
39.9540,0.07,0.13,-0.99,3.97,2.20,1.34
39.9700,0.08,0.13,-0.99,2.75,2.14,0.98
39.9850,0.07,0.11,-0.99,2.56,2.38,0.37
40.0000,0.07,0.09,-0.98,2.99,3.72,-3.78
40.0160,0.08,0.15,-0.97,5.68,4.52,-8.00
40.0310,0.08,0.14,-0.99,5.13,2.32,-0.31
40.0460,0.07,0.14,-0.99,1.59,1.40,1.83
40.0620,0.07,0.13,-0.99,0.98,1.22,4.27
40.0770,0.08,0.11,-0.99,2.69,2.08,5.00
40.0920,0.08,0.12,-0.98,3.78,2.26,1.83
40.1070,0.07,0.12,-0.98,3.23,1.77,1.34
40.1240,0.08,0.13,-0.99,3.72,1.46,0.85
40.1400,0.07,0.12,-0.98,1.40,2.14,0.98
40.1560,0.08,0.10,-1.00,2.69,2.08,1.10
40.1710,0.08,0.11,-0.99,5.31,1.71,1.71
40.1860,0.08,0.14,-1.00,5.62,2.08,1.65
40.2010,0.08,0.12,-0.99,2.87,2.38,1.04
40.2160,0.07,0.13,-0.99,4.03,2.56,0.43
40.2310,0.07,0.13,-0.99,4.15,2.14,1.46
40.2460,0.08,0.12,-1.00,4.03,1.95,0.00
40.2620,0.08,0.13,-0.99,3.23,2.75,-2.08
40.2780,0.08,0.13,-0.99,1.95,2.56,-0.31
40.2940,0.07,0.12,-0.99,2.81,1.71,1.59
40.3090,0.08,0.12,-0.99,3.97,2.38,2.01
40.3260,0.08,0.13,-0.99,4.52,2.14,2.01
40.3410,0.07,0.13,-0.99,3.85,2.26,1.65
40.3560,0.08,0.13,-0.99,3.54,1.89,1.59
40.3720,0.07,0.13,-0.99,3.23,1.65,1.53
40.3890,0.08,0.12,-0.99,3.11,2.20,1.65
40.4060,0.08,0.12,-0.99,4.88,1.83,1.83
40.4220,0.07,0.10,-0.99,5.00,2.81,-0.79
40.4380,0.08,0.16,-0.99,2.32,4.03,-7.02
40.4530,0.08,0.14,-0.99,2.99,2.26,-1.34
40.4700,0.07,0.13,-0.99,3.36,2.20,1.65
40.4850,0.08,0.13,-0.99,4.46,1.59,1.83
40.5000,0.07,0.13,-0.99,3.72,2.26,1.83
40.5160,0.09,0.13,-0.99,3.30,2.32,1.77
40.5310,0.07,0.13,-0.99,3.05,2.26,1.65
40.5460,0.08,0.13,-0.99,3.17,1.95,1.71
40.5620,0.08,0.12,-0.99,4.46,2.32,1.83
40.5790,0.07,0.13,-0.99,5.62,2.44,1.89
40.5940,0.07,0.13,-0.99,2.69,1.89,0.49
40.6110,0.08,0.14,-0.99,2.20,2.44,-0.24
40.6260,0.08,0.12,-0.99,3.48,1.83,1.95
40.6420,0.08,0.13,-0.99,4.52,1.83,2.14
40.6570,0.08,0.12,-0.99,3.54,1.77,2.81
40.6720,0.08,0.14,-0.99,5.37,1.89,1.89
40.6870,0.08,0.14,-0.99,4.64,1.59,1.22
40.7030,0.08,0.12,-0.99,3.78,2.14,-0.06
40.7180,0.07,0.13,-0.99,3.97,2.50,-1.71
40.7330,0.07,0.13,-0.99,4.46,2.01,-0.79
40.7500,0.08,0.13,-0.99,4.76,2.50,0.12
40.7660,0.08,0.13,-1.00,4.09,2.69,-0.85
40.7820,0.08,0.13,-1.00,2.01,3.23,-2.20
40.7990,0.08,0.14,-0.98,2.38,3.23,-3.11
40.8140,0.07,0.11,-0.98,2.93,2.08,1.22
40.8300,0.07,0.13,-0.99,5.62,2.20,2.20
40.8460,0.07,0.13,-0.99,3.97,1.22,2.20
40.8630,0.08,0.13,-0.99,3.60,1.04,1.65
40.8770,0.08,0.14,-1.00,3.54,1.28,1.53
40.8930,0.08,0.13,-0.99,3.66,1.65,1.65
40.9090,0.07,0.13,-0.99,4.09,2.38,1.89
40.9240,0.08,0.14,-0.99,4.15,2.01,1.83
40.9410,0.07,0.12,-0.98,3.97,2.14,1.89
40.9560,0.07,0.13,-0.99,6.29,-0.55,1.46
40.9710,0.09,0.13,-0.99,4.21,-1.53,0.92
40.9860,0.08,0.14,-1.00,3.30,-1.77,1.10
41.0020,0.08,0.13,-0.98,3.05,0.06,1.40
41.0190,0.08,0.13,-0.99,4.09,1.53,1.83
41.0340,0.08,0.13,-0.99,2.87,3.60,1.89
41.0500,0.08,0.13,-0.99,1.83,4.52,2.14
41.0660,0.06,0.13,-0.98,1.22,4.09,1.89
41.0810,0.07,0.12,-0.99,0.73,3.30,1.83
41.0970,0.07,0.13,-0.99,1.59,2.14,1.10
41.1140,0.07,0.12,-0.99,1.40,3.42,0.67
41.1300,0.09,0.12,-0.99,3.05,3.30,1.04
41.1450,0.07,0.11,-0.97,5.07,2.93,2.08
41.1600,0.07,0.13,-0.98,5.62,2.50,2.20
41.1760,0.08,0.13,-0.99,3.72,2.01,1.65
41.1920,0.07,0.13,-0.99,2.50,1.46,1.53
41.2070,0.08,0.13,-0.98,3.05,1.71,1.53
41.2220,0.06,0.11,-0.96,2.69,2.20,1.71
41.2390,0.07,0.11,-0.96,4.03,2.56,1.71
41.2540,0.08,0.13,-0.99,2.62,1.95,1.28
41.2690,0.08,0.12,-0.99,2.32,1.89,1.40
41.2840,0.07,0.11,-0.97,3.05,2.69,1.89
41.2990,0.08,0.13,-0.97,6.04,1.59,2.44
41.3140,0.07,0.17,-1.01,6.90,1.28,2.50
41.3300,0.08,0.12,-0.99,2.75,1.22,3.17
41.3450,0.08,0.13,-1.00,2.38,1.46,1.40
41.3610,0.07,0.15,-1.00,2.50,1.65,1.40
41.3770,0.08,0.12,-0.98,2.01,2.50,1.83
41.3930,0.07,0.12,-0.98,3.48,2.69,1.83
41.4090,0.07,0.15,-1.00,4.21,1.83,1.89
41.4240,0.07,0.13,-0.99,4.58,1.59,1.40
41.4400,0.08,0.13,-1.00,4.39,0.98,1.16
41.4560,0.07,0.14,-0.99,2.38,2.01,1.04
41.4730,0.07,0.12,-0.98,2.26,1.53,1.22
41.4880,0.07,0.12,-0.99,5.00,1.46,2.08
41.5050,0.07,0.13,-0.99,5.43,0.73,1.89
41.5210,0.08,0.14,-0.99,3.05,1.04,1.53
41.5370,0.08,0.13,-0.99,2.56,1.10,1.34
41.5520,0.08,0.13,-0.99,3.60,1.40,1.71
41.5670,0.08,0.14,-0.99,3.42,1.46,1.77
41.5820,0.08,0.12,-0.98,2.75,1.83,1.89
41.5970,0.08,0.12,-0.99,2.99,2.08,2.08
41.6120,0.08,0.11,-1.00,5.31,2.01,2.81
41.6290,0.09,0.12,-0.99,4.15,0.61,4.33
41.6440,0.08,0.13,-0.98,2.75,0.37,4.46
41.6600,0.08,0.15,-0.99,2.69,0.73,4.09
41.6760,0.08,0.14,-0.99,3.11,1.04,5.07
41.6900,0.07,0.15,-0.98,2.50,0.79,5.80
41.7070,0.05,0.14,-1.03,0.00,3.60,3.60
41.7220,0.08,0.14,-0.99,2.20,1.04,2.75
41.7370,0.08,0.12,-0.99,3.42,1.83,2.50
41.7520,0.09,0.13,-0.99,4.46,1.83,2.20
41.7670,0.08,0.14,-0.99,3.36,2.20,1.77
41.7840,0.08,0.13,-0.99,3.05,1.22,1.59
41.7990,0.08,0.13,-0.99,3.11,1.34,1.53
41.8160,0.08,0.13,-1.00,2.81,1.71,1.40
41.8310,0.09,0.13,-0.98,2.99,1.83,1.59
41.8460,0.07,0.13,-0.99,3.91,2.62,2.01
41.8620,0.08,0.13,-0.99,4.82,1.77,2.14
41.8780,0.07,0.14,-0.99,4.27,1.53,2.08
41.8930,0.05,0.14,-0.99,0.98,2.08,1.71
41.9080,0.10,0.13,-0.98,-0.43,1.40,1.28
41.9250,0.09,0.12,-0.99,1.10,2.26,0.85
41.9400,0.08,0.12,-0.99,3.54,2.32,1.40
41.9550,0.08,0.12,-0.99,3.97,1.40,1.77
41.9710,0.08,0.13,-0.99,4.94,1.16,2.01
41.9860,0.08,0.12,-0.99,4.39,2.08,1.83
42.0020,0.07,0.13,-0.99,4.58,2.32,1.77
42.0180,0.08,0.13,-0.99,3.23,2.26,2.01
42.0330,0.08,0.14,-0.99,2.62,2.20,1.83
42.0480,0.08,0.13,-0.98,0.85,2.62,1.77
42.0630,0.08,0.12,-0.99,0.85,2.50,1.65
42.0790,0.08,0.13,-0.99,2.08,2.56,1.59
42.0940,0.08,0.13,-1.00,2.44,2.56,1.46
42.1090,0.08,0.12,-0.98,1.95,3.30,1.65
42.1240,0.08,0.12,-0.98,3.48,3.60,2.01
42.1390,0.08,0.13,-0.99,4.76,3.30,2.08
42.1550,0.09,0.12,-0.98,4.82,3.23,1.40
42.1710,0.07,0.13,-1.00,5.92,2.93,0.49
42.1860,0.07,0.13,-0.99,4.64,2.20,1.16
42.2010,0.07,0.14,-0.99,2.93,1.53,1.46
42.2170,0.08,0.12,-0.99,1.34,1.28,1.77
42.2330,0.08,0.12,-0.99,2.50,1.28,1.71
42.2480,0.08,0.12,-0.99,3.91,1.34,1.83
42.2640,0.08,0.13,-0.99,4.64,1.95,1.89
42.2800,0.08,0.14,-0.99,3.85,1.46,1.46
42.2950,0.09,0.13,-0.98,2.26,2.38,-2.08
42.3100,0.08,0.14,-0.98,2.38,2.62,-3.05
42.3270,0.07,0.10,-0.99,4.52,3.72,-4.09
42.3420,0.09,0.07,-1.00,7.26,5.31,-12.08
42.3570,0.07,0.14,-0.99,6.77,6.59,-16.42
42.3720,0.09,0.17,-0.99,4.15,3.05,-3.91
42.3890,0.07,0.13,-0.99,0.85,1.04,1.46
42.4050,0.05,0.12,-0.98,0.55,0.98,1.77
42.4200,0.09,0.12,-0.99,2.87,1.89,2.62
42.4350,0.09,0.12,-0.99,3.17,2.32,1.40
42.4520,0.09,0.13,-0.99,2.69,2.32,0.49
42.4670,0.08,0.13,-0.99,2.44,2.44,0.55
42.4820,0.07,0.12,-0.99,1.46,2.20,1.22
42.4980,0.08,0.13,-0.99,3.11,1.65,1.28
42.5140,0.08,0.12,-0.99,3.54,1.89,1.28
42.5290,0.07,0.13,-0.99,3.60,2.50,0.31
42.5440,0.08,0.12,-0.98,3.11,2.56,-2.08
42.5600,0.08,0.13,-0.99,3.91,2.62,-2.56
42.5750,0.08,0.12,-0.99,4.03,2.44,-2.56
42.5910,0.08,0.10,-0.99,4.52,3.23,-2.14
42.6060,0.08,0.11,-1.00,5.31,5.00,-6.53
42.6210,0.09,0.15,-0.99,2.81,3.91,-4.27
42.6370,0.08,0.12,-0.98,0.43,2.26,1.53
42.6520,0.07,0.11,-0.98,1.22,2.26,1.65
42.6670,0.06,0.13,-0.98,3.48,1.40,1.71
42.6840,0.08,0.12,-0.99,4.09,2.14,1.59
42.6990,0.08,0.12,-1.00,4.52,2.01,1.22
42.7140,0.08,0.13,-1.00,3.17,2.69,1.40
42.7300,0.07,0.12,-0.99,2.01,2.32,2.26
42.7450,0.08,0.13,-0.99,2.87,1.95,2.01
42.7600,0.08,0.12,-0.99,3.05,1.95,1.77
42.7760,0.08,0.12,-0.99,4.03,1.83,1.22
42.7920,0.06,0.11,-0.99,4.15,3.30,-0.85
42.8070,0.07,0.13,-0.98,3.97,2.93,-2.93
42.8230,0.07,0.12,-0.98,2.62,1.71,-0.24
42.8390,0.07,0.12,-0.99,3.91,1.46,0.61
42.8530,0.08,0.13,-1.00,4.52,1.83,0.18
42.8700,0.08,0.12,-0.99,2.93,2.69,0.43
42.8850,0.08,0.12,-0.98,2.38,2.56,1.40
42.9000,0.07,0.12,-0.99,3.30,1.83,3.11
42.9170,0.08,0.12,-0.99,3.78,1.22,3.54
42.9320,0.08,0.12,-0.99,3.72,0.92,2.62
42.9480,0.08,0.13,-0.99,2.99,1.83,1.40
42.9640,0.09,0.13,-0.99,2.93,2.01,0.79
42.9800,0.08,0.12,-0.99,2.75,2.26,0.79
42.9950,0.07,0.12,-0.99,3.85,2.08,1.16
43.0110,0.07,0.12,-0.99,2.99,1.95,1.34
43.0270,0.07,0.12,-0.99,3.91,1.83,0.73
43.0420,0.07,0.13,-1.00,4.09,2.08,-0.06
43.0570,0.07,0.12,-0.99,3.42,2.26,1.10
43.0730,0.07,0.11,-0.99,3.97,2.26,0.67
43.0880,0.09,0.14,-0.99,4.52,2.44,-0.12
43.1030,0.09,0.13,-0.99,2.56,2.01,1.22
43.1190,0.08,0.13,-0.98,2.32,1.71,1.40
43.1360,0.08,0.11,-0.98,2.50,1.53,2.20
43.1500,0.09,0.12,-0.99,4.76,1.53,2.01
43.1650,0.09,0.12,-0.99,4.52,1.95,1.65
43.1820,0.08,0.13,-0.99,4.09,2.01,1.28
43.1960,0.08,0.13,-0.99,2.75,2.44,0.12
43.2120,0.07,0.12,-0.99,2.62,2.44,-0.49
43.2270,0.08,0.12,-0.99,3.66,2.75,-1.53
43.2430,0.08,0.12,-0.99,3.78,2.62,-0.37
43.2590,0.08,0.11,-0.98,4.09,2.14,1.95
43.2740,0.08,0.12,-1.00,4.70,1.95,2.50
43.2900,0.07,0.13,-0.99,2.62,2.14,1.83
43.3060,0.06,0.12,-0.99,2.08,2.38,1.34
43.3220,0.08,0.11,-0.99,2.93,1.77,1.53
43.3370,0.09,0.12,-1.00,4.39,1.83,2.08
43.3530,0.07,0.13,-0.99,3.97,2.26,2.32
43.3680,0.07,0.13,-0.99,2.20,1.71,2.08
43.3830,0.07,0.13,-0.99,1.28,2.01,2.01
43.3970,0.09,0.11,-0.99,2.56,1.83,2.81
43.4150,0.08,0.12,-0.99,4.76,1.71,2.44
43.4320,0.07,0.11,-0.99,5.00,1.77,1.83
43.4470,0.08,0.12,-0.99,4.03,2.26,0.85
43.4620,0.07,0.13,-0.99,2.81,2.38,-0.43
43.4780,0.08,0.13,-0.99,1.83,2.08,-0.37
43.4940,0.08,0.12,-0.99,2.14,1.65,0.79
43.5110,0.09,0.11,-0.99,4.39,1.71,3.36
43.5270,0.08,0.13,-0.99,5.25,1.59,2.87
43.5420,0.08,0.13,-1.00,3.05,1.71,2.50
43.5580,0.06,0.13,-0.99,2.01,1.77,2.08
43.5740,0.08,0.12,-0.99,2.20,2.20,1.89
43.5890,0.09,0.12,-0.99,4.21,2.14,0.92
43.6040,0.07,0.12,-0.99,4.21,2.32,0.73
43.6210,0.07,0.12,-0.99,3.66,2.14,1.16
43.6360,0.08,0.12,-0.99,4.03,2.26,1.77
43.6520,0.07,0.13,-0.99,3.36,1.95,0.92
43.6670,0.08,0.12,-0.99,3.78,2.38,-0.24
43.6820,0.08,0.11,-0.99,4.03,2.50,-1.04
43.6970,0.08,0.12,-0.99,5.55,2.50,-0.79
43.7130,0.08,0.13,-1.00,3.66,1.65,0.24
43.7280,0.06,0.12,-0.99,2.99,2.26,1.53
43.7440,0.09,0.13,-0.99,3.72,2.08,2.93
43.7600,0.08,0.12,-0.98,3.17,2.14,2.99
43.7760,0.09,0.12,-0.99,4.03,1.28,2.62
43.7920,0.08,0.12,-0.99,4.46,1.46,1.83
43.8070,0.08,0.12,-0.99,3.91,1.95,1.10
43.8220,0.09,0.13,-0.99,3.30,1.89,1.10
43.8380,0.08,0.13,-0.99,3.60,1.77,1.10
43.8540,0.07,0.14,-0.99,2.93,2.14,0.92
43.8710,0.05,0.13,-0.99,2.50,2.69,2.26
43.8870,0.09,0.12,-0.99,4.15,1.71,2.62
43.9010,0.10,0.12,-0.99,4.70,1.95,1.40
43.9170,0.09,0.12,-0.99,3.97,2.26,0.73
43.9320,0.08,0.14,-0.99,3.36,2.44,0.24
43.9470,0.09,0.13,-0.99,2.81,2.44,0.12
43.9640,0.07,0.12,-0.99,0.92,1.83,1.28
43.9790,0.08,0.12,-0.99,3.78,2.14,2.26
43.9950,0.05,0.13,-0.99,4.58,2.14,2.26
44.0100,0.06,0.13,-0.99,4.03,1.65,2.93
44.0240,0.08,0.12,-0.99,3.05,1.65,3.30
44.0390,0.09,0.12,-0.99,3.42,1.65,3.23
44.0540,0.08,0.13,-0.99,3.23,2.08,1.71
44.0700,0.09,0.11,-0.99,3.66,1.95,1.28
44.0840,0.08,0.11,-0.98,4.94,1.59,2.14
44.1000,0.08,0.13,-0.99,6.65,1.22,2.08
44.1150,0.07,0.13,-0.99,4.88,1.10,1.95
44.1310,0.08,0.13,-0.99,3.97,0.79,1.71
44.1460,0.08,0.12,-0.99,5.31,1.46,1.46
44.1620,0.08,0.13,-0.99,6.77,1.40,1.59
44.1780,0.08,0.14,-0.99,5.49,2.14,1.65
44.1930,0.07,0.13,-0.99,3.72,1.59,1.28
44.2090,0.08,0.14,-0.99,1.83,0.92,1.22
44.2240,0.08,0.12,-0.99,2.69,1.22,1.34
44.2390,0.08,0.12,-0.99,5.74,1.04,1.95
44.2540,0.08,0.14,-0.99,5.98,1.34,2.14
44.2700,0.08,0.13,-0.99,4.21,1.34,2.32
44.2860,0.08,0.12,-0.99,3.91,1.59,2.93
44.3020,0.08,0.11,-0.99,3.91,1.40,3.91
44.3180,0.08,0.13,-0.99,4.33,0.67,5.74
44.3330,0.08,0.15,-0.98,3.78,1.83,4.76
44.3490,0.08,0.13,-0.99,2.99,2.08,3.30
44.3650,0.07,0.15,-0.99,2.62,1.95,2.99
44.3800,0.08,0.14,-0.99,2.20,1.28,1.71
44.3960,0.06,0.13,-0.99,0.49,1.65,1.04
44.4120,0.08,0.13,-0.98,2.38,1.04,0.49
44.4270,0.07,0.12,-0.98,1.59,1.16,-1.22
44.4430,0.07,0.13,-0.99,2.08,2.26,-4.58
44.4580,0.08,0.13,-0.99,2.38,1.77,-3.17
44.4730,0.08,0.13,-0.99,2.56,2.38,-2.69
44.4880,0.09,0.12,-0.99,3.48,2.32,-2.87
44.5050,0.09,0.16,-0.99,2.87,2.14,0.49
44.5200,0.08,0.13,-0.99,2.56,2.69,1.89
44.5360,0.07,0.12,-0.98,2.50,2.75,2.14
44.5520,0.08,0.12,-0.99,5.25,2.20,2.20
44.5690,0.08,0.14,-1.00,5.25,2.20,2.08
44.5840,0.08,0.15,-0.99,3.05,2.14,0.18
44.5990,0.09,0.13,-0.99,-0.12,1.77,0.98
44.6150,0.08,0.12,-0.99,1.22,3.17,1.83
44.6310,0.08,0.11,-0.98,2.93,3.17,2.32
44.6470,0.07,0.11,-0.99,3.97,3.05,2.50
44.6620,0.08,0.14,-1.00,5.19,2.20,2.38
44.6770,0.08,0.14,-1.00,2.32,1.83,1.53
44.6930,0.08,0.13,-0.99,-0.73,1.83,1.16
44.7090,0.08,0.13,-0.98,-0.55,2.01,0.85
44.7250,0.08,0.09,-0.99,1.59,2.50,-0.12
44.7400,0.08,0.12,-0.99,4.76,2.44,1.53
44.7560,0.08,0.13,-1.00,4.21,2.08,1.89
44.7710,0.08,0.13,-1.00,3.23,1.71,1.83
44.7860,0.07,0.14,-0.99,1.71,2.08,0.61
44.8020,0.09,0.12,-0.99,1.71,2.81,-1.28
44.8170,0.08,0.10,-0.99,3.60,2.69,-0.43
44.8330,0.07,0.11,-0.99,5.43,2.56,0.49
44.8480,0.06,0.12,-0.99,5.68,2.38,-0.98
44.8650,0.08,0.13,-1.00,3.48,3.42,-2.69
44.8810,0.09,0.13,-0.99,0.37,3.17,-1.71
44.8960,0.10,0.10,-0.98,2.14,1.89,0.98
44.9110,0.08,0.13,-0.99,4.82,1.89,1.95
44.9270,0.07,0.13,-1.00,3.42,2.01,1.59
44.9430,0.06,0.12,-0.98,2.69,1.89,1.46
44.9580,0.07,0.13,-0.99,3.60,2.44,0.67
44.9740,0.07,0.14,-0.99,3.11,2.75,0.24
44.9900,0.08,0.13,-0.99,1.65,2.81,0.43
45.0050,0.09,0.10,-0.99,2.93,2.20,2.14
45.0200,0.09,0.11,-0.99,4.52,1.71,2.01
45.0370,0.07,0.13,-0.99,4.21,1.89,1.10
45.0520,0.08,0.13,-0.99,3.11,2.99,-0.73
45.0690,0.09,0.13,-0.99,2.08,2.69,-1.59
45.0850,0.09,0.11,-0.99,2.26,2.26,0.73
45.1010,0.08,0.11,-0.99,3.91,1.83,1.77
45.1160,0.08,0.12,-1.00,4.88,2.01,2.20
45.1320,0.07,0.12,-0.99,3.72,2.26,1.59
45.1470,0.08,0.12,-0.99,2.87,2.08,0.73
45.1610,0.07,0.13,-0.99,3.42,2.62,-0.67
45.1770,0.09,0.09,-0.99,2.99,2.20,-0.06
45.1930,0.08,0.11,-0.99,3.36,2.14,0.61
45.2070,0.07,0.11,-0.99,4.21,2.62,0.37
45.2230,0.08,0.13,-0.99,4.64,2.87,-1.89
45.2390,0.09,0.14,-0.99,3.11,2.38,-2.26
45.2550,0.07,0.12,-0.99,1.71,2.20,0.12
45.2700,0.08,0.12,-0.99,2.50,2.08,2.08
45.2870,0.07,0.12,-0.99,4.09,2.08,2.44
45.3020,0.08,0.12,-0.99,4.27,1.95,2.26
45.3170,0.08,0.12,-0.99,4.27,2.32,1.53
45.3330,0.08,0.12,-0.99,3.48,2.01,0.49
45.3480,0.09,0.13,-0.99,3.42,1.83,0.00
45.3640,0.08,0.12,-0.99,2.93,2.14,0.98
45.3810,0.08,0.11,-0.99,4.03,2.01,1.95
45.3960,0.08,0.12,-0.99,5.62,2.08,1.71
45.4120,0.07,0.12,-0.99,4.33,2.44,0.98
45.4280,0.08,0.13,-0.99,3.23,1.95,0.67
45.4430,0.07,0.12,-0.98,2.26,1.71,1.16
45.4600,0.07,0.12,-0.99,2.50,2.20,1.16
45.4750,0.08,0.12,-0.99,3.60,2.08,1.34
45.4910,0.08,0.12,-0.99,4.39,1.77,1.10
45.5060,0.08,0.12,-0.99,4.52,2.69,0.06
45.5220,0.07,0.13,-0.99,4.39,2.44,-0.98
45.5370,0.07,0.12,-0.98,2.93,2.01,0.06
45.5530,0.08,0.12,-0.99,3.23,1.46,1.77
45.5680,0.07,0.12,-0.99,3.36,1.71,1.95
45.5840,0.08,0.11,-0.99,3.05,1.53,1.65
45.5990,0.07,0.12,-0.99,3.54,2.20,0.73
45.6140,0.08,0.13,-0.99,3.48,1.89,0.06
45.6300,0.09,0.13,-0.99,2.87,1.89,0.37
45.6460,0.07,0.12,-0.99,2.32,1.46,1.28
45.6620,0.08,0.12,-0.99,3.60,1.53,1.95
45.6780,0.07,0.12,-0.99,3.54,1.77,1.71
45.6940,0.08,0.12,-0.99,3.42,1.28,1.16
45.7100,0.09,0.13,-0.99,3.66,1.16,1.22
45.7250,0.09,0.12,-0.99,2.75,1.16,1.71
45.7400,0.08,0.12,-0.98,2.69,1.04,2.14
45.7560,0.08,0.12,-0.99,4.21,1.10,1.89
45.7710,0.08,0.11,-0.99,6.10,1.89,2.01
45.7860,0.08,0.13,-1.00,7.75,1.95,2.08
45.8020,0.08,0.14,-0.99,5.19,1.89,1.77
45.8170,0.08,0.14,-0.99,2.99,1.10,1.59
45.8320,0.08,0.13,-1.01,2.32,0.37,1.46
45.8480,0.07,0.12,-0.99,2.75,-0.06,1.59
45.8640,0.09,0.12,-0.99,2.99,1.16,3.05
45.8800,0.10,0.12,-0.99,3.85,1.04,2.81
45.8970,0.08,0.13,-0.99,6.96,1.10,2.32
45.9120,0.05,0.15,-1.01,6.29,0.12,2.38
45.9280,0.06,0.13,-0.98,1.16,0.43,4.39
45.9430,0.10,0.11,-0.97,1.77,0.61,5.00
45.9580,0.10,0.11,-0.98,3.17,1.46,4.15
45.9730,0.08,0.12,-0.98,5.49,2.50,2.56
45.9890,0.08,0.12,-0.98,4.76,2.93,0.67
46.0040,0.10,0.14,-0.99,3.60,3.23,-0.92
46.0190,0.10,0.13,-0.99,1.83,2.56,0.61
46.0350,0.08,0.13,-0.99,1.53,2.44,1.77
46.0500,0.08,0.12,-0.99,1.28,2.32,2.01
46.0660,0.08,0.11,-0.98,3.11,2.69,1.89
46.0810,0.08,0.13,-0.99,4.27,2.50,1.71
46.0970,0.08,0.13,-0.99,2.69,2.56,1.71
46.1120,0.08,0.12,-0.99,1.95,2.50,1.71
46.1290,0.07,0.12,-0.99,3.48,1.59,1.89
46.1450,0.08,0.12,-0.99,3.91,1.10,2.01
46.1600,0.08,0.13,-0.99,3.42,0.85,2.01
46.1760,0.08,0.14,-0.99,2.93,1.59,1.65
46.1910,0.08,0.14,-0.98,0.79,2.32,0.85
46.2060,0.08,0.12,-0.99,1.83,2.87,0.24
46.2210,0.08,0.12,-0.99,2.62,2.32,0.55
46.2370,0.08,0.12,-0.99,3.36,2.32,0.18
46.2520,0.08,0.11,-0.99,4.46,1.95,0.00
46.2690,0.08,0.13,-1.00,4.70,2.08,0.43
46.2840,0.09,0.15,-1.00,2.32,2.69,0.92
46.2990,0.06,0.13,-0.98,-0.31,3.30,2.08
46.3140,0.09,0.09,-0.99,3.36,1.77,4.21
46.3300,0.07,0.12,-1.00,5.74,0.73,2.87
46.3470,0.07,0.13,-1.00,4.27,1.46,1.83
46.3620,0.09,0.15,-0.99,1.95,2.20,0.98
46.3780,0.09,0.13,-0.98,0.73,2.87,-0.67
46.3940,0.08,0.10,-0.98,1.40,2.93,0.00
46.4100,0.09,0.11,-0.99,4.03,2.26,1.83
46.4260,0.07,0.12,-0.99,5.43,2.14,2.08
46.4430,0.08,0.13,-0.99,3.78,1.77,1.65
46.4580,0.08,0.12,-0.99,2.69,2.20,0.67
46.4750,0.07,0.11,-0.99,2.26,2.14,1.16
46.4910,0.10,0.10,-0.99,6.16,1.95,3.11
46.5060,0.09,0.10,-0.99,8.91,1.71,3.54
46.5210,0.08,0.12,-1.00,8.24,1.83,4.09
46.5370,0.08,0.15,-0.99,4.94,1.89,2.99
46.5530,0.08,0.13,-0.99,1.65,1.53,1.04
46.5670,0.08,0.12,-0.99,1.28,1.59,1.10
46.5820,0.07,0.11,-0.99,4.88,2.44,0.85
46.5970,0.06,0.09,-1.00,5.92,3.17,-0.37
46.6110,0.07,0.15,-0.99,4.52,3.48,-4.27
46.6270,0.08,0.13,-0.99,2.08,2.08,-1.77
46.6440,0.08,0.13,-0.99,2.32,2.20,-1.16
46.6580,0.09,0.13,-0.99,2.99,2.38,-0.43
46.6740,0.10,0.13,-0.99,3.48,2.01,0.49
46.6900,0.09,0.12,-0.99,3.60,2.38,0.85
46.7060,0.08,0.13,-0.99,3.78,2.81,1.34
46.7220,0.07,0.13,-0.99,2.56,2.38,1.77
46.7390,0.07,0.12,-0.99,2.44,1.71,1.53
46.7550,0.07,0.13,-0.99,3.30,1.65,1.34
46.7710,0.08,0.12,-0.99,3.60,1.95,1.71
46.7860,0.08,0.12,-0.99,3.66,2.32,1.59
46.8020,0.08,0.12,-0.99,3.42,2.26,1.46
46.8170,0.08,0.13,-0.99,2.44,2.26,1.40
46.8330,0.08,0.12,-0.99,2.32,2.26,1.40
46.8480,0.07,0.13,-0.99,3.36,2.01,1.53
46.8640,0.08,0.12,-0.99,3.72,1.89,1.53
46.8800,0.07,0.12,-0.99,3.36,2.20,1.16
46.8960,0.07,0.13,-0.99,3.05,2.56,0.24
46.9110,0.06,0.13,-0.99,2.62,2.50,0.12
46.9270,0.06,0.12,-1.00,3.72,2.08,1.59
46.9410,0.07,0.12,-0.98,3.66,1.83,2.50
46.9570,0.08,0.12,-1.00,4.82,1.34,2.75
46.9730,0.09,0.13,-0.98,3.36,2.01,0.85
46.9890,0.08,0.13,-0.99,2.38,2.50,-0.12
47.0040,0.08,0.12,-0.99,2.26,2.32,1.34
47.0190,0.05,0.12,-0.99,4.33,1.95,3.97
47.0340,0.10,0.11,-0.99,4.76,1.71,4.94
47.0490,0.10,0.13,-0.99,4.88,1.46,3.23
47.0650,0.08,0.13,-0.99,3.23,2.08,2.01
47.0800,0.07,0.13,-0.99,2.08,2.50,1.28
47.0950,0.07,0.12,-0.99,2.87,1.89,1.04
47.1110,0.08,0.12,-0.99,2.69,2.26,1.22
47.1260,0.08,0.13,-0.99,4.58,2.14,1.65
47.1420,0.08,0.12,-0.99,3.54,2.14,2.01
47.1580,0.08,0.12,-0.99,3.72,2.08,1.71
47.1740,0.08,0.13,-0.99,3.78,2.81,0.73
47.1900,0.07,0.13,-0.99,3.23,2.20,0.37
47.2050,0.06,0.13,-0.99,3.11,2.20,1.65
47.2210,0.07,0.12,-0.99,2.50,1.83,2.81
47.2360,0.10,0.12,-0.99,2.81,1.77,3.48
47.2510,0.08,0.12,-0.98,2.81,1.71,2.14
47.2660,0.08,0.12,-0.99,4.82,2.32,1.40
47.2820,0.08,0.12,-0.99,5.07,1.83,0.85
47.2970,0.09,0.13,-0.99,3.72,2.32,0.98
47.3130,0.08,0.13,-0.99,2.99,1.65,0.73
47.3280,0.06,0.13,-0.99,2.81,2.50,0.24
47.3430,0.08,0.13,-0.99,3.11,1.89,-1.46
47.3590,0.09,0.11,-0.98,3.42,1.89,0.00
47.3750,0.09,0.12,-0.99,5.86,1.34,1.46
47.3900,0.08,0.13,-1.00,4.82,1.59,1.77
47.4070,0.08,0.13,-0.99,2.56,1.46,1.53
47.4220,0.08,0.12,-0.99,1.95,1.22,1.22
47.4370,0.08,0.12,-0.99,3.60,1.59,1.10
47.4530,0.08,0.11,-0.98,4.76,1.65,2.01
47.4680,0.08,0.13,-1.00,6.84,1.59,2.20
47.4840,0.08,0.14,-0.99,5.86,1.28,2.08
47.5000,0.08,0.14,-0.99,3.48,0.73,1.46
47.5160,0.08,0.13,-0.99,2.44,0.43,1.16
47.5310,0.07,0.13,-0.99,1.95,1.04,0.92
47.5460,0.10,0.11,-0.99,1.53,1.95,0.12
47.5620,0.08,0.12,-0.98,3.66,2.26,1.77
47.5770,0.08,0.12,-0.99,5.25,1.89,2.01
47.5930,0.08,0.12,-1.00,5.31,1.77,2.14
47.6080,0.08,0.13,-1.00,5.49,1.59,2.08
47.6230,0.07,0.12,-1.00,4.27,2.01,2.44
47.6390,0.10,0.15,-0.98,1.89,2.20,1.53
47.6540,0.09,0.12,-0.98,0.79,2.32,1.46
47.6710,0.08,0.12,-0.99,2.14,2.56,1.77
47.6870,0.08,0.13,-1.00,4.03,2.44,1.77
47.7010,0.08,0.14,-0.99,2.56,2.20,1.53
47.7170,0.07,0.13,-0.98,1.65,2.93,-0.06
47.7330,0.08,0.12,-1.00,1.71,2.38,0.06
47.7480,0.08,0.12,-0.99,3.54,2.26,0.67
47.7630,0.07,0.13,-0.99,4.09,1.46,1.16
47.7790,0.07,0.13,-0.99,3.23,2.20,1.16
47.7940,0.07,0.13,-0.99,2.81,2.32,0.98
47.8090,0.08,0.13,-0.99,3.23,2.56,0.49
47.8240,0.08,0.12,-0.99,3.54,2.20,0.73
47.8390,0.08,0.11,-0.99,3.30,2.01,2.93
47.8560,0.09,0.12,-0.99,4.76,1.46,4.03
47.8710,0.09,0.14,-0.99,3.91,1.34,3.17
47.8870,0.09,0.13,-0.99,2.08,1.46,2.32
47.9010,0.09,0.13,-0.99,1.71,1.53,1.59
47.9170,0.09,0.12,-0.99,1.89,1.89,1.22
47.9320,0.08,0.12,-0.99,3.91,1.89,1.34
47.9480,0.08,0.12,-0.99,4.39,1.83,1.53
47.9630,0.08,0.12,-0.99,3.91,2.08,1.89
