Timestamp, AccX, AccY, AccZ, GyroX, GyroY, GyroZ
0.0110,0.08,0.11,-0.99,2.99,3.17,1.83
0.0260,0.08,0.11,-0.99,2.93,2.99,1.89
0.0410,0.08,0.11,-0.99,3.36,3.23,2.01
0.0560,0.08,0.11,-0.99,3.30,2.81,2.01
0.0660,0.08,0.11,-0.99,3.23,2.99,2.08
0.0830,0.08,0.11,-0.99,3.17,2.75,1.95
0.1000,0.11,0.13,-0.99,3.48,3.36,0.37
0.1160,0.08,0.11,-0.99,3.60,3.42,-1.04
0.1310,0.06,0.11,-0.99,3.48,3.36,-0.37
0.1460,0.08,0.11,-0.99,3.30,2.93,1.34
0.1610,0.08,0.11,-0.99,3.30,3.42,1.46
0.1750,0.08,0.11,-0.99,3.42,2.99,1.40
0.1900,0.08,0.11,-0.99,3.11,3.42,1.71
0.2060,0.08,0.11,-0.99,3.30,3.05,2.08
0.2170,0.08,0.11,-0.99,3.36,3.05,2.01
0.2330,0.08,0.11,-0.99,3.11,3.42,2.20
0.2490,0.08,0.11,-0.99,3.30,2.75,1.89
0.2660,0.08,0.11,-0.99,3.17,3.11,2.14
0.2810,0.08,0.11,-0.99,3.17,3.30,2.14
0.2950,0.08,0.11,-0.99,3.05,3.48,2.14
0.3110,0.08,0.11,-0.99,3.17,2.87,2.08
0.3250,0.08,0.11,-0.99,3.17,2.99,1.95
0.3410,0.08,0.11,-0.99,3.54,2.99,2.14
0.3560,0.08,0.11,-0.99,3.23,2.81,1.95
0.3670,0.08,0.11,-0.99,3.30,3.11,2.01
0.3830,0.08,0.11,-0.99,3.30,2.93,1.95
0.4000,0.08,0.11,-0.99,3.36,2.81,1.95
0.4160,0.08,0.11,-0.99,3.36,2.75,2.01
0.4320,0.08,0.11,-0.99,3.23,3.17,1.83
0.4470,0.08,0.11,-0.99,3.36,3.30,1.95
0.4630,0.08,0.11,-0.99,3.11,2.87,1.95
0.4800,0.08,0.11,-0.99,3.17,2.81,1.95
0.4950,0.08,0.11,-0.99,3.36,2.75,2.01
0.5100,0.08,0.11,-0.99,3.30,2.69,2.01
0.5250,0.08,0.11,-0.99,3.17,2.87,1.95
0.5360,0.08,0.11,-0.99,3.36,2.87,2.08
0.5550,0.08,0.11,-0.99,3.23,3.17,2.08
0.5680,0.08,0.11,-0.99,3.17,3.36,2.01
0.5850,0.08,0.11,-0.99,3.17,3.17,2.08
0.6010,0.08,0.11,-0.99,3.30,2.87,1.89
0.6160,0.08,0.11,-0.99,3.30,3.05,1.83
0.6320,0.08,0.11,-0.99,2.93,3.11,2.01
0.6470,0.08,0.11,-0.99,3.23,2.93,2.08
0.6630,0.08,0.11,-0.99,3.11,2.56,1.95
0.6780,0.08,0.11,-0.99,3.23,3.23,2.08
0.6850,0.08,0.11,-0.99,3.11,3.17,1.95
0.7010,0.08,0.11,-0.99,3.17,2.62,1.95
0.7230,0.08,0.11,-0.99,3.30,2.75,2.08
0.7390,0.08,0.11,-0.99,3.23,2.93,2.01
0.7560,0.08,0.11,-0.99,3.30,2.93,1.95
0.7730,0.08,0.11,-0.99,3.42,2.81,2.01
0.7890,0.08,0.11,-0.99,3.11,3.05,2.01
0.8050,0.08,0.11,-0.99,3.23,3.17,2.08
0.8200,0.08,0.11,-0.99,3.23,2.93,2.08
0.8360,0.08,0.11,-0.99,3.05,2.99,2.08
0.8510,0.08,0.11,-0.99,2.93,2.75,2.14
0.8670,0.08,0.11,-0.99,3.30,3.11,2.01
0.8830,0.08,0.11,-0.99,3.36,2.81,2.08
0.8970,0.08,0.11,-0.99,3.30,3.17,2.01
0.9130,0.08,0.11,-0.99,3.11,3.17,2.01
0.9230,0.08,0.11,-0.99,3.23,2.99,2.01
0.9390,0.08,0.11,-0.99,3.36,3.11,2.08
0.9600,0.08,0.11,-0.99,3.36,2.75,1.89
0.9770,0.08,0.11,-0.99,3.23,2.69,1.95
0.9930,0.08,0.11,-0.99,3.23,2.99,1.95
1.0090,0.08,0.11,-0.99,3.30,3.05,1.89
1.0110,0.08,0.11,-0.99,3.11,3.05,2.08
1.0400,0.08,0.11,-0.99,3.17,3.36,2.01
1.0550,0.08,0.11,-0.99,3.11,3.11,2.01
1.0660,0.08,0.11,-0.99,3.17,3.11,1.89
1.0850,0.08,0.11,-0.99,3.23,2.81,2.14
1.1010,0.08,0.11,-0.99,3.11,2.99,2.01
1.1160,0.08,0.11,-0.99,3.30,3.23,2.01
1.1300,0.08,0.11,-0.99,3.17,2.93,2.08
1.1350,0.08,0.11,-0.99,3.30,2.87,2.01
1.1620,0.08,0.11,-0.99,3.30,2.99,1.89
1.1730,0.08,0.11,-0.99,3.17,3.30,1.89
1.1900,0.08,0.11,-0.99,3.23,3.11,1.89
1.2070,0.08,0.11,-0.99,3.23,2.87,2.01
1.2220,0.08,0.11,-0.99,3.17,2.93,2.14
1.2390,0.08,0.11,-0.99,3.30,2.75,1.95
1.2560,0.08,0.11,-0.99,3.36,2.75,2.08
1.2730,0.08,0.11,-0.99,3.23,3.05,2.01
1.2880,0.08,0.11,-0.99,3.23,2.99,1.95
1.3030,0.08,0.11,-0.99,3.36,3.05,1.95
1.3190,0.08,0.11,-0.99,3.23,2.93,2.01
1.3340,0.08,0.11,-0.99,3.05,3.23,1.95
1.3400,0.08,0.11,-0.99,3.23,2.99,1.89
1.3640,0.08,0.11,-0.99,3.17,3.23,2.08
1.3790,0.08,0.11,-0.99,3.17,3.23,2.08
1.3890,0.08,0.11,-0.99,3.17,2.81,1.95
1.4070,0.08,0.11,-0.99,3.11,3.48,2.08
1.4230,0.08,0.11,-0.99,3.17,3.30,1.95
1.4400,0.08,0.11,-0.99,3.23,2.81,1.89
1.4560,0.08,0.11,-0.99,3.05,2.99,2.01
1.4730,0.08,0.11,-0.99,3.11,3.30,2.14
1.4890,0.08,0.11,-0.99,3.11,2.99,1.89
1.5050,0.08,0.11,-0.99,3.17,2.93,2.14
1.5200,0.08,0.11,-0.99,3.17,3.11,2.01
1.5350,0.08,0.11,-0.99,3.17,2.87,2.01
1.5500,0.08,0.11,-0.99,3.05,3.36,1.95
1.5570,0.08,0.11,-0.99,3.17,2.69,1.95
1.5720,0.08,0.11,-0.99,3.05,2.93,1.83
1.5920,0.08,0.11,-0.99,3.17,3.42,1.95
1.6090,0.08,0.11,-0.99,3.23,2.81,1.89
1.6250,0.08,0.11,-0.99,3.17,2.93,1.89
1.6430,0.08,0.11,-0.99,3.11,2.93,1.95
1.6590,0.08,0.11,-0.99,3.11,2.93,1.89
1.6750,0.08,0.11,-0.99,3.05,3.23,1.95
1.6910,0.08,0.11,-0.99,3.05,3.30,2.01
1.7070,0.08,0.11,-0.99,3.17,3.05,2.01
1.7240,0.08,0.11,-0.99,3.11,2.87,1.95
1.7400,0.08,0.11,-0.99,3.30,2.87,1.89
1.7550,0.08,0.11,-0.99,3.05,3.11,2.01
1.7590,0.08,0.11,-0.99,3.11,2.75,1.95
1.7750,0.08,0.11,-0.99,3.17,2.87,1.89
1.7970,0.08,0.11,-0.99,3.17,2.99,2.01
1.8130,0.08,0.11,-0.99,3.36,3.36,2.01
1.8290,0.08,0.11,-0.99,3.23,3.11,2.01
1.8460,0.08,0.11,-0.99,3.30,2.93,1.89
1.8620,0.08,0.11,-0.99,3.23,2.99,1.83
1.8780,0.08,0.11,-0.99,3.05,2.93,1.83
1.8950,0.08,0.11,-0.99,3.17,2.93,1.89
1.9100,0.08,0.11,-0.99,3.23,3.17,2.08
1.9130,0.08,0.11,-0.99,3.30,2.87,1.95
1.9410,0.08,0.11,-0.99,3.23,2.81,1.95
1.9550,0.08,0.11,-0.99,3.30,2.93,1.95
1.9680,0.08,0.11,-0.99,3.17,2.87,2.01
1.9850,0.08,0.11,-0.99,3.17,3.42,1.95
2.0020,0.08,0.11,-0.99,3.36,3.11,1.95
2.0170,0.08,0.11,-0.99,3.42,2.99,2.01
2.0330,0.08,0.11,-0.99,3.05,2.93,1.95
2.0490,0.08,0.11,-0.99,3.17,3.05,1.95
2.0550,0.08,0.11,-0.99,3.23,3.23,2.01
2.0670,0.08,0.11,-0.99,3.17,2.81,1.89
2.0900,0.08,0.11,-0.99,3.30,3.05,2.01
2.1080,0.08,0.11,-0.99,3.42,2.62,1.95
2.1240,0.08,0.11,-0.99,3.05,2.99,2.01
2.1400,0.08,0.11,-0.99,3.23,3.11,2.01
2.1570,0.08,0.11,-0.99,3.23,2.93,2.08
2.1740,0.08,0.11,-0.99,3.17,2.87,2.01
2.1900,0.08,0.11,-0.99,3.30,2.81,2.08
2.2060,0.08,0.11,-0.99,3.11,2.99,2.01
2.2220,0.08,0.11,-0.99,3.30,3.30,1.95
2.2380,0.08,0.11,-0.99,3.36,2.93,1.89
2.2540,0.08,0.11,-0.99,3.17,3.30,1.95
2.2700,0.08,0.11,-0.99,3.11,2.93,1.83
2.2850,0.08,0.11,-0.99,3.17,3.17,2.01
2.2910,0.08,0.11,-0.99,3.05,3.05,1.89
2.3060,0.08,0.11,-0.99,3.17,3.42,2.08
2.3270,0.08,0.11,-0.99,3.17,3.42,2.08
2.3440,0.08,0.11,-0.99,3.23,3.05,2.01
2.3610,0.08,0.11,-0.99,3.30,2.99,1.83
2.3770,0.08,0.11,-0.99,3.05,3.36,2.08
2.3780,0.08,0.11,-0.99,3.30,2.99,2.20
2.3940,0.08,0.11,-0.99,3.11,3.30,2.01
2.4240,0.08,0.11,-0.99,3.11,2.87,1.95
2.4400,0.08,0.11,-0.99,3.17,3.17,1.89
2.4550,0.08,0.11,-0.99,3.30,3.11,1.95
2.4690,0.08,0.11,-0.99,3.36,3.23,1.89
2.4770,0.08,0.11,-0.99,3.17,3.17,1.95
2.5010,0.08,0.11,-0.99,3.30,3.05,2.14
2.5110,0.08,0.11,-0.99,3.11,3.05,2.08
2.5280,0.08,0.11,-0.99,3.05,3.23,2.08
2.5440,0.08,0.11,-0.99,3.05,3.05,1.95
2.5630,0.08,0.11,-0.99,3.23,3.36,2.14
2.5790,0.08,0.11,-0.99,3.36,2.99,1.95
2.5950,0.08,0.11,-0.99,3.36,3.05,1.95
2.5990,0.08,0.11,-0.99,3.11,2.99,1.83
2.6150,0.08,0.11,-0.99,3.23,3.30,1.89
2.6370,0.08,0.11,-0.99,3.17,2.93,1.89
2.6560,0.08,0.11,-0.99,3.11,3.42,2.08
2.6710,0.08,0.11,-0.99,3.42,2.93,1.83
2.6880,0.08,0.11,-0.99,3.36,2.69,2.01
2.7040,0.08,0.11,-0.99,3.17,2.99,1.95
2.7200,0.08,0.11,-0.99,3.36,2.93,2.08
2.7360,0.08,0.11,-0.99,3.11,2.81,1.95
2.7500,0.08,0.11,-0.99,3.17,3.36,2.08
2.7660,0.08,0.11,-0.99,3.42,3.05,2.01
2.7820,0.08,0.11,-0.99,3.17,3.48,2.01
2.7970,0.08,0.11,-0.99,3.23,3.05,2.08
2.8120,0.08,0.11,-0.99,2.99,3.05,2.01
2.8270,0.08,0.11,-0.99,3.11,3.05,1.95
2.8380,0.08,0.11,-0.99,3.11,3.36,2.01
2.8560,0.08,0.11,-0.99,3.30,2.99,2.32
2.8710,0.08,0.11,-0.99,3.36,3.36,2.81
2.8880,0.07,0.12,-0.99,3.54,2.93,2.81
2.9040,0.09,0.11,-0.99,3.36,3.11,2.99
2.9200,0.08,0.11,-0.99,3.36,3.23,2.08
2.9350,0.08,0.11,-0.99,3.17,3.23,2.26
2.9500,0.07,0.11,-0.99,3.11,2.81,2.26
2.9560,0.08,0.11,-0.99,2.93,3.05,2.69
2.9720,0.08,0.11,-0.99,3.17,3.05,2.62
2.9890,0.08,0.11,-0.99,3.17,3.23,2.20
3.0100,0.08,0.11,-0.99,3.17,3.17,2.14
3.0220,0.08,0.11,-0.99,3.42,2.87,2.08
3.0380,0.08,0.11,-0.99,3.11,3.30,2.32
3.0540,0.08,0.11,-0.99,2.99,3.42,2.38
3.0710,0.08,0.11,-0.99,2.99,3.11,2.32
3.0870,0.07,0.12,-0.99,3.11,2.93,2.81
3.1030,0.07,0.13,-0.99,2.87,2.81,4.94
3.1180,0.08,0.12,-0.99,2.87,2.44,6.65
3.1340,0.11,0.07,-0.99,2.87,2.50,7.81
3.1490,0.08,0.11,-0.99,3.36,3.05,2.20
3.1560,0.08,0.11,-0.99,3.23,3.11,1.89
3.1700,0.08,0.11,-0.99,3.11,3.11,1.95
3.1940,0.08,0.11,-0.99,3.05,3.05,2.01
3.2100,0.08,0.11,-0.99,2.99,2.93,2.08
3.2270,0.08,0.11,-0.99,3.17,3.11,2.56
3.2430,0.07,0.13,-0.99,3.54,2.75,4.94
3.2560,0.08,0.11,-0.99,3.48,2.81,8.48
3.2610,0.08,0.11,-0.99,3.05,2.08,7.02
3.2760,0.09,0.11,-0.99,2.87,2.50,6.59
3.2940,0.09,0.09,-0.99,3.23,2.99,4.39
3.3100,0.08,0.10,-0.99,3.30,3.05,1.95
3.3270,0.08,0.11,-0.99,3.48,3.36,1.95
3.3430,0.08,0.11,-0.99,3.30,3.23,2.20
3.3670,0.08,0.11,-0.99,3.42,3.23,2.81
3.3760,0.08,0.12,-0.99,3.11,2.99,2.75
3.3930,0.08,0.13,-0.99,3.36,2.93,5.86
3.4090,0.08,0.12,-0.99,2.81,2.26,6.65
3.4290,0.08,0.12,-0.99,2.81,2.08,7.26
3.4310,0.09,0.09,-0.99,2.87,2.20,7.20
3.4600,0.07,0.09,-0.99,2.93,2.99,3.54
3.4750,0.08,0.11,-0.99,3.11,2.81,1.95
3.4910,0.09,0.11,-0.99,3.23,3.30,1.71
3.5000,0.09,0.13,-0.99,3.23,2.99,1.77
3.5150,0.08,0.12,-0.99,3.17,2.87,3.85
3.5350,0.08,0.11,-1.00,3.23,2.69,4.82
3.5520,0.08,0.11,-0.99,3.11,2.62,4.39
3.5680,0.08,0.11,-0.99,2.75,2.93,3.91
3.5690,0.08,0.10,-0.99,3.05,2.81,3.72
3.5990,0.08,0.10,-0.99,2.99,3.23,3.11
3.6010,0.08,0.11,-0.99,3.17,3.23,2.56
3.6300,0.08,0.11,-0.99,3.11,2.87,1.89
3.6460,0.08,0.11,-0.99,3.11,3.30,2.01
3.6610,0.08,0.11,-0.99,3.30,2.99,1.89
3.6760,0.08,0.11,-0.99,3.48,3.11,1.95
3.6910,0.08,0.11,-0.99,3.36,3.11,2.08
3.7020,0.08,0.11,-0.99,3.23,2.99,1.89
3.7180,0.08,0.11,-0.99,2.99,3.17,2.01
3.7360,0.08,0.11,-0.99,2.99,3.42,1.95
3.7510,0.08,0.11,-0.99,3.42,2.87,2.01
3.7670,0.08,0.11,-0.99,3.05,3.30,2.01
3.7820,0.08,0.11,-0.99,2.87,3.48,2.08
3.7960,0.08,0.11,-0.99,3.05,3.05,1.95
3.8120,0.08,0.12,-0.99,2.87,2.93,2.08
3.8270,0.08,0.12,-0.99,3.17,2.87,2.20
3.8380,0.08,0.12,-0.99,3.17,2.93,2.32
3.8560,0.08,0.13,-0.98,2.87,2.93,2.93
3.8720,0.08,0.13,-0.99,2.81,2.93,5.31
3.8860,0.08,0.12,-0.99,2.93,2.38,7.08
3.8890,0.08,0.11,-0.99,2.87,2.50,6.59
3.9170,0.08,0.10,-0.99,2.87,2.26,5.80
3.9320,0.08,0.09,-0.99,3.11,2.81,3.78
3.9460,0.08,0.10,-0.99,3.36,3.23,2.50
3.9630,0.08,0.11,-0.99,3.30,3.23,2.08
3.9780,0.08,0.11,-0.99,3.30,3.11,2.14
3.9930,0.08,0.11,-0.99,3.30,2.69,1.83
4.0050,0.08,0.11,-0.99,3.36,3.36,2.08
4.0210,0.08,0.11,-0.99,3.36,3.30,2.14
4.0380,0.08,0.11,-0.99,2.93,3.11,2.14
4.0550,0.08,0.11,-0.99,2.75,3.42,2.08
4.0710,0.08,0.11,-0.99,2.93,3.11,1.89
4.0870,0.08,0.12,-0.99,3.11,3.54,2.20
4.1030,0.09,0.13,-0.99,3.23,3.05,2.38
4.1180,0.09,0.14,-0.99,2.93,3.11,4.82
4.1330,0.09,0.13,-0.99,2.81,2.56,7.26
4.1390,0.08,0.12,-0.99,2.56,2.32,6.96
4.1580,0.08,0.11,-0.99,2.69,2.62,6.96
4.1780,0.07,0.09,-1.00,2.81,2.75,6.53
4.1950,0.07,0.09,-0.99,2.81,2.50,5.19
4.2100,0.08,0.09,-0.99,2.99,2.99,4.52
4.2260,0.08,0.10,-0.99,2.87,3.30,2.87
4.2410,0.08,0.11,-0.99,2.93,2.87,2.50
4.2560,0.08,0.14,-0.99,2.93,3.17,2.93
4.2620,0.09,0.13,-0.99,2.99,2.62,5.98
4.2770,0.09,0.12,-0.99,2.93,2.14,7.69
4.2980,0.09,0.11,-0.99,2.75,2.08,8.42
4.3160,0.07,0.08,-0.99,2.69,2.26,6.29
4.3320,0.08,0.09,-0.99,2.75,2.69,2.75
4.3490,0.08,0.11,-0.99,3.05,3.17,1.95
4.3650,0.08,0.11,-0.99,3.23,3.30,2.14
4.3810,0.08,0.11,-0.99,3.48,3.11,2.26
4.3980,0.08,0.11,-0.99,3.30,3.23,2.44
4.4130,0.08,0.11,-0.99,3.17,3.48,3.23
4.4290,0.08,0.12,-0.99,3.42,2.99,2.99
4.4440,0.09,0.13,-0.99,3.11,2.32,3.60
4.4580,0.08,0.12,-0.99,2.87,2.62,5.55
4.4640,0.07,0.11,-0.99,2.69,3.05,5.25
4.4870,0.08,0.11,-0.99,2.81,2.81,4.39
4.5040,0.08,0.11,-0.99,3.05,2.93,3.85
4.5200,0.08,0.11,-0.99,2.93,3.17,4.15
4.5360,0.08,0.10,-0.99,2.99,3.05,3.30
4.5520,0.09,0.10,-0.99,3.05,3.05,2.14
4.5670,0.08,0.11,-0.99,2.87,3.23,1.83
4.5830,0.08,0.12,-0.99,2.81,3.05,1.95
4.5870,0.07,0.13,-0.99,2.87,2.62,2.14
4.6030,0.08,0.13,-0.99,3.17,2.62,4.58
4.6260,0.09,0.12,-0.99,2.87,2.81,5.00
4.6420,0.09,0.11,-0.99,2.93,2.75,4.82
4.6580,0.09,0.10,-0.99,2.50,2.87,3.78
4.6740,0.08,0.10,-0.99,2.62,2.87,3.85
4.6890,0.09,0.10,-0.99,2.99,2.81,3.66
4.6920,0.08,0.11,-0.99,3.36,2.87,2.99
4.7080,0.08,0.12,-0.99,3.17,2.81,4.33
4.7270,0.08,0.12,-0.99,2.62,2.44,5.92
4.7450,0.08,0.13,-0.99,2.69,2.75,5.86
4.7610,0.09,0.12,-0.99,2.93,2.26,5.19
4.7800,0.09,0.12,-0.99,2.75,2.62,5.19
4.7950,0.08,0.11,-0.99,2.50,2.56,5.55
4.8100,0.08,0.11,-0.99,2.56,2.69,5.86
4.8260,0.08,0.08,-0.99,3.05,2.38,5.62
4.8410,0.08,0.10,-0.99,3.36,2.81,3.97
4.8570,0.08,0.12,-0.99,3.11,2.87,3.48
4.8650,0.08,0.12,-0.99,3.05,2.50,4.15
4.8820,0.08,0.11,-0.99,3.05,2.50,5.25
4.8990,0.08,0.10,-0.99,2.75,2.44,5.68
4.9160,0.08,0.10,-0.99,3.05,2.75,4.09
4.9330,0.08,0.12,-0.99,2.75,2.62,3.66
4.9480,0.08,0.12,-0.99,2.87,2.56,4.76
4.9620,0.08,0.11,-0.99,2.87,2.50,5.31
4.9780,0.08,0.11,-0.99,2.93,2.32,4.94
4.9940,0.08,0.10,-0.99,2.99,2.87,4.09
5.0090,0.09,0.12,-0.99,2.99,3.11,2.87
5.0230,0.08,0.12,-0.99,3.17,2.75,4.03
5.0330,0.08,0.12,-0.99,3.05,2.62,6.35
5.0490,0.08,0.12,-0.99,2.75,1.77,8.54
5.0690,0.08,0.12,-0.99,2.50,2.20,9.52
5.0850,0.08,0.16,-0.98,1.59,1.46,9.58
5.1000,0.08,0.09,-1.00,2.38,1.77,10.99
5.1150,0.08,0.08,-0.99,2.81,2.08,7.63
5.1300,0.08,0.08,-1.00,3.17,2.62,5.19
5.1450,0.08,0.08,-0.99,3.11,2.75,4.15
5.1600,0.08,0.11,-0.99,3.36,3.11,2.99
5.1700,0.08,0.13,-0.99,3.05,3.30,4.15
5.1850,0.08,0.12,-0.99,2.81,2.44,7.39
5.2010,0.08,0.11,-0.99,2.69,2.14,7.75
5.2190,0.08,0.12,-0.99,2.38,1.77,6.90
5.2340,0.08,0.11,-0.99,2.75,2.56,6.29
5.2440,0.08,0.10,-0.99,2.99,2.56,5.68
5.2610,0.08,0.10,-0.99,3.05,2.44,5.13
5.2790,0.08,0.10,-0.99,3.11,2.62,5.31
5.2950,0.08,0.10,-0.99,2.75,2.69,4.52
5.3110,0.08,0.11,-0.99,2.99,3.17,2.99
5.3110,0.08,0.12,-0.99,3.11,2.69,2.81
5.3420,0.08,0.13,-0.99,2.87,2.81,4.15
5.3450,0.08,0.13,-0.99,2.81,2.38,6.16
5.3610,0.08,0.11,-0.99,2.93,2.20,6.71
5.3840,0.08,0.11,-0.99,2.50,2.38,6.35
5.4020,0.08,0.08,-1.00,2.93,2.87,5.19
5.4170,0.08,0.10,-0.99,3.11,2.87,3.17
5.4330,0.08,0.10,-0.99,3.23,2.93,2.69
5.4490,0.08,0.11,-0.99,3.11,2.75,2.62
5.4650,0.08,0.12,-0.99,3.30,2.81,3.17
5.4810,0.08,0.11,-0.99,3.17,3.05,3.85
5.4960,0.08,0.10,-0.99,3.05,2.99,3.85
5.5120,0.08,0.11,-0.99,3.05,3.05,2.93
5.5280,0.08,0.11,-0.99,3.17,3.05,2.81
5.5440,0.08,0.11,-0.99,3.11,3.36,2.69
5.5600,0.08,0.13,-0.99,2.81,3.05,3.11
5.5760,0.08,0.13,-0.99,3.05,2.62,4.33
5.5860,0.08,0.13,-0.99,2.99,2.50,4.88
5.6020,0.08,0.11,-0.99,2.87,2.14,6.53
5.6180,0.08,0.11,-0.99,2.75,2.44,6.96
5.6360,0.10,0.17,-0.97,1.16,1.77,8.61
5.6520,0.09,0.06,-1.00,3.05,2.38,8.91
5.6600,0.08,0.08,-0.99,3.05,2.38,6.90
5.6740,0.06,0.15,-0.94,1.95,2.56,4.15
5.6960,0.08,0.06,-1.00,3.60,2.75,5.00
5.7070,0.08,0.10,-0.99,3.17,2.87,3.17
5.7250,0.08,0.10,-0.99,3.05,2.75,2.81
5.7410,0.08,0.10,-0.99,3.30,3.11,2.26
5.7570,0.08,0.12,-0.99,3.17,3.05,2.32
5.7730,0.08,0.12,-0.99,3.17,2.56,3.11
5.7890,0.08,0.12,-0.99,3.30,2.93,3.78
5.8050,0.09,0.12,-0.99,2.81,2.75,5.00
5.8210,0.08,0.11,-0.99,3.05,2.56,5.92
5.8360,0.08,0.10,-0.99,2.93,2.26,5.62
5.8520,0.09,0.23,-0.95,1.04,2.08,5.31
5.8670,0.08,0.10,-1.00,3.05,1.83,10.19
5.8810,0.06,0.16,-0.95,1.65,1.71,9.46
5.8960,0.07,0.03,-1.00,3.30,2.20,10.68
5.9120,0.08,0.04,-1.00,2.69,2.20,6.77
5.9240,0.09,0.13,-0.98,1.65,2.38,5.00
5.9400,0.08,0.06,-1.00,3.36,2.56,5.00
5.9570,0.08,0.11,-0.99,2.99,2.99,2.93
5.9740,0.08,0.11,-0.99,3.05,3.30,3.42
5.9910,0.08,0.11,-0.99,3.05,3.05,3.78
6.0060,0.08,0.11,-0.99,3.17,2.69,3.54
6.0220,0.08,0.11,-0.99,3.17,2.75,3.54
6.0380,0.08,0.11,-0.99,3.11,3.30,3.85
6.0410,0.08,0.11,-0.99,3.11,3.30,3.85
6.0590,0.08,0.11,-0.99,3.17,2.69,3.60
6.0780,0.08,0.12,-0.99,3.11,2.69,4.21
6.0950,0.08,0.11,-0.99,3.05,3.05,4.82
6.1120,0.09,0.11,-0.99,3.05,2.75,5.31
6.1270,0.08,0.12,-0.99,2.93,2.44,5.86
6.1430,0.08,0.12,-0.99,3.05,2.50,6.35
6.1520,0.08,0.10,-0.99,2.99,2.20,6.47
6.1690,0.08,0.11,-0.99,2.93,2.62,5.49
6.1840,0.08,0.11,-0.99,2.26,2.32,5.00
6.2040,0.10,0.17,-0.97,1.59,2.20,6.59
6.2210,0.08,0.10,-0.99,2.62,2.08,10.44
6.2370,0.08,0.10,-1.00,2.62,2.56,7.81
6.2530,0.09,0.11,-1.00,2.44,1.83,7.63
6.2600,0.08,0.07,-1.00,2.93,2.50,7.26
6.2710,0.08,0.09,-0.99,3.05,2.99,4.27
6.2930,0.08,0.10,-0.99,3.17,2.87,3.97
6.3110,0.09,0.12,-0.99,3.11,2.87,4.03
6.3270,0.08,0.12,-0.99,2.81,2.87,5.07
6.3440,0.09,0.11,-0.99,3.11,2.62,6.04
6.3600,0.08,0.11,-0.99,3.05,2.32,5.68
6.3600,0.08,0.11,-0.99,2.99,2.20,5.37
6.3770,0.10,0.19,-0.96,1.53,1.83,5.74
6.3930,0.08,0.09,-0.99,2.99,2.14,8.79
6.4090,0.08,0.10,-1.00,2.62,2.62,6.53
6.4270,0.09,0.11,-0.99,2.26,2.26,6.96
6.4430,0.08,0.09,-0.99,2.99,2.56,5.86
6.4590,0.08,0.11,-0.99,3.11,2.87,4.46
6.4760,0.08,0.10,-0.99,3.36,2.50,4.76
6.4930,0.08,0.11,-0.99,2.99,2.69,4.88
6.5090,0.08,0.11,-0.99,3.05,2.81,4.27
6.5300,0.09,0.11,-0.99,2.87,3.05,4.52
6.5460,0.08,0.12,-0.99,2.99,2.62,4.21
6.5600,0.08,0.12,-0.99,3.05,2.62,4.52
6.5760,0.08,0.11,-0.99,3.11,2.87,4.88
6.5790,0.08,0.11,-0.99,3.05,2.50,5.37
6.5950,0.08,0.11,-0.99,2.93,2.75,5.13
6.6220,0.08,0.20,-0.95,1.34,2.50,5.74
6.6330,0.08,0.09,-0.99,2.99,2.26,10.07
6.6510,0.09,0.09,-0.99,2.62,2.38,7.87
6.6670,0.06,0.14,-0.96,1.95,2.14,6.90
6.6830,0.08,0.04,-1.00,3.36,2.56,7.63
6.6980,0.08,0.10,-0.99,3.11,3.23,3.66
6.7130,0.08,0.10,-0.99,3.30,2.69,2.56
6.7290,0.08,0.11,-0.99,3.17,2.93,2.44
6.7440,0.08,0.13,-0.99,3.11,2.93,3.42
6.7600,0.08,0.12,-0.99,3.11,2.87,3.85
6.7740,0.08,0.11,-0.99,3.05,2.93,5.19
6.7840,0.08,0.10,-0.99,2.99,2.50,5.13
6.7990,0.08,0.10,-0.99,2.93,2.75,3.66
6.8200,0.08,0.10,-0.99,2.99,2.69,3.17
6.8350,0.08,0.11,-0.99,3.11,3.17,2.44
6.8510,0.08,0.11,-0.99,3.17,3.11,2.20
6.8660,0.08,0.11,-0.99,2.99,3.11,2.08
6.8820,0.08,0.11,-0.99,3.30,2.87,2.20
6.8980,0.09,0.12,-0.99,3.11,2.99,2.20
6.9070,0.08,0.11,-0.99,3.05,2.93,2.14
6.9230,0.08,0.11,-0.99,3.17,3.17,2.20
6.9380,0.08,0.11,-0.99,3.05,2.87,2.08
6.9600,0.08,0.11,-0.99,3.23,3.05,1.95
6.9750,0.09,0.12,-0.99,3.11,3.11,2.08
6.9910,0.09,0.13,-0.99,3.17,2.87,3.42
6.9930,0.08,0.14,-0.99,2.87,3.17,5.80
7.0100,0.08,0.11,-0.99,2.87,2.38,7.87
7.0260,0.08,0.08,-0.99,2.93,2.50,6.29
7.0420,0.08,0.10,-0.99,3.05,2.81,3.05
7.0600,0.08,0.11,-0.99,3.30,2.93,2.69
7.0760,0.09,0.12,-0.99,3.05,3.17,2.69
7.0930,0.08,0.11,-0.99,2.99,3.17,3.17
7.1100,0.08,0.11,-0.99,3.05,2.75,3.30
7.1270,0.09,0.11,-0.99,2.99,3.05,3.17
7.1430,0.08,0.12,-0.99,3.05,3.05,3.36
7.1630,0.09,0.13,-0.98,2.87,2.75,4.39
7.1780,0.08,0.12,-0.99,2.69,2.56,6.71
7.1930,0.09,0.12,-0.99,2.69,2.08,7.26
7.2080,0.11,0.22,-0.96,0.31,1.40,8.73
7.2240,0.09,0.09,-0.99,3.05,1.71,11.96
7.2310,0.09,0.11,-0.99,2.81,1.71,10.38
7.2470,0.10,0.12,-0.98,1.40,1.53,10.50
7.2690,0.08,0.05,-1.00,3.23,2.01,8.97
7.2850,0.08,0.10,-0.99,2.99,2.62,4.64
7.3030,0.08,0.10,-0.99,3.17,2.62,4.39
7.3180,0.08,0.12,-0.99,3.17,2.81,3.54
7.3340,0.08,0.11,-0.99,3.05,2.75,3.97
7.3480,0.09,0.11,-0.99,2.99,3.11,3.78
7.3630,0.08,0.11,-0.99,2.93,3.30,3.54
7.3780,0.08,0.12,-0.99,3.17,3.05,3.42
7.3930,0.08,0.12,-0.99,2.93,2.93,4.52
7.4020,0.08,0.12,-0.99,2.93,2.62,5.13
7.4170,0.08,0.12,-0.99,2.99,2.32,5.92
7.4400,0.08,0.13,-0.99,2.81,2.08,6.84
7.4550,0.09,0.12,-0.99,2.62,2.32,8.30
7.4700,0.12,0.14,-0.99,1.46,1.22,11.78
7.4850,0.08,0.04,-1.00,2.69,2.44,8.91
7.5000,0.08,0.08,-0.99,2.69,2.87,5.80
7.5150,0.07,0.11,-0.99,2.44,2.93,3.11
7.5300,0.09,0.09,-0.99,3.54,2.87,3.72
7.5460,0.09,0.12,-0.99,3.23,2.99,3.66
7.5620,0.08,0.11,-0.99,3.05,2.81,4.58
7.5770,0.09,0.11,-0.99,2.99,2.44,5.98
7.5880,0.08,0.11,-0.99,2.87,2.32,6.23
7.6060,0.08,0.10,-0.99,2.69,2.62,6.10
7.6220,0.08,0.11,-0.99,2.93,2.81,4.21
7.6380,0.08,0.12,-0.99,3.05,2.56,4.03
7.6540,0.09,0.12,-0.99,2.93,2.20,5.68
7.6610,0.09,0.11,-0.99,2.93,2.38,6.71
7.6860,0.08,0.10,-0.99,2.81,2.32,6.29
7.7020,0.08,0.11,-0.99,2.75,2.75,5.07
7.7170,0.08,0.12,-0.99,2.81,2.26,5.13
7.7320,0.06,0.15,-0.96,1.83,2.44,6.10
7.7480,0.09,0.08,-1.00,3.23,2.08,9.89
7.7630,0.08,0.10,-0.99,2.99,2.20,6.77
7.7780,0.08,0.10,-0.99,2.99,2.50,6.23
7.7930,0.08,0.09,-1.00,2.93,2.81,5.13
7.8050,0.08,0.11,-0.99,3.11,2.87,2.93
7.8220,0.08,0.11,-0.99,3.17,3.11,2.44
7.8390,0.08,0.12,-0.99,2.99,3.05,2.93
7.8550,0.08,0.13,-0.99,2.93,3.05,4.82
7.8710,0.08,0.14,-0.99,2.69,2.50,7.32
7.8860,0.08,0.12,-0.99,2.44,1.34,10.50
7.9020,0.09,0.11,-0.99,2.44,1.65,10.25
7.9170,0.08,0.12,-1.00,2.26,2.20,9.22
7.9330,0.10,0.09,-0.99,2.44,1.22,13.24
7.9470,0.08,0.05,-1.00,2.99,1.53,8.91
7.9620,0.08,0.08,-0.99,2.69,2.38,6.29
7.9770,0.08,0.09,-0.99,3.05,3.11,2.69
7.9880,0.08,0.11,-0.99,3.17,3.05,1.89
8.0050,0.08,0.12,-0.99,3.11,2.87,1.95
8.0220,0.09,0.12,-0.99,3.11,2.81,2.20
8.0390,0.09,0.13,-0.99,3.36,2.69,3.72
8.0540,0.08,0.13,-0.99,2.75,2.44,7.26
8.0710,0.08,0.10,-0.99,2.26,1.77,9.22
8.0860,0.08,0.09,-0.99,2.75,2.32,6.96
8.1020,0.08,0.09,-0.99,2.93,2.87,4.09
8.1160,0.08,0.10,-0.99,2.99,2.87,1.89
8.1320,0.08,0.11,-0.99,2.99,2.44,1.77
8.1390,0.09,0.11,-0.99,2.93,2.93,1.83
8.1620,0.09,0.13,-0.99,3.05,2.87,1.53
8.1770,0.09,0.12,-0.99,3.05,3.05,4.09
8.1910,0.08,0.13,-0.99,3.17,2.32,6.47
8.2070,0.08,0.10,-0.99,2.69,2.01,7.57
8.2220,0.09,0.10,-0.99,2.81,2.50,5.74
8.2380,0.08,0.11,-0.99,2.87,2.81,4.70
8.2540,0.08,0.11,-0.99,2.81,2.50,4.52
8.2620,0.09,0.11,-0.99,2.93,2.87,3.54
8.2800,0.09,0.11,-0.99,2.99,2.62,2.75
8.2950,0.08,0.11,-0.99,3.17,2.75,2.62
8.3110,0.08,0.12,-0.99,3.23,3.05,3.48
8.3290,0.08,0.11,-0.99,2.87,2.75,5.07
8.3290,0.08,0.10,-0.99,2.81,2.62,4.70
8.3600,0.08,0.10,-0.99,2.81,2.81,3.66
8.3750,0.08,0.11,-0.99,3.17,3.23,1.83
8.3780,0.08,0.11,-0.99,3.05,3.42,1.77
8.3940,0.09,0.11,-0.99,2.99,3.23,1.77
8.4200,0.08,0.11,-0.99,3.30,2.99,1.83
8.4330,0.08,0.11,-0.99,3.42,2.99,1.59
8.4480,0.08,0.11,-0.99,3.36,3.05,1.71
8.4660,0.09,0.12,-0.97,3.85,3.17,1.77
8.4810,0.09,0.11,-0.99,3.60,3.17,1.83
8.4970,0.08,0.11,-0.99,3.17,2.93,1.95
8.5120,0.08,0.11,-0.99,3.23,3.11,2.08
8.5290,0.08,0.11,-0.99,3.17,3.11,1.95
8.5450,0.08,0.11,-0.99,3.36,3.11,2.01
8.5610,0.08,0.11,-0.99,3.30,3.17,1.89
8.5770,0.08,0.11,-0.99,2.38,2.81,2.01
8.5920,0.09,0.11,-0.99,2.93,3.48,1.89
8.6070,0.08,0.12,-0.99,2.81,3.42,1.34
8.6150,0.09,0.11,-0.99,3.05,3.23,1.71
8.6320,0.08,0.11,-0.99,3.05,3.11,1.53
8.6480,0.08,0.11,-0.99,3.30,3.05,1.77
8.6660,0.08,0.11,-0.99,3.36,3.42,1.89
8.6810,0.09,0.11,-0.99,3.36,3.23,1.59
8.6990,0.09,0.11,-0.99,3.17,3.48,0.79
8.7140,0.08,0.11,-0.99,3.42,3.11,0.31
8.7220,0.08,0.11,-0.99,3.48,3.54,0.31
8.7370,0.08,0.11,-0.99,3.66,3.66,0.49
8.7600,0.08,0.11,-0.99,3.66,3.17,0.55
8.7760,0.09,0.11,-0.99,3.36,2.69,1.34
8.7930,0.08,0.12,-0.99,3.48,2.81,1.89
8.8100,0.08,0.11,-0.99,2.99,3.17,1.95
8.8250,0.08,0.11,-0.99,3.11,3.17,2.08
8.8420,0.09,0.11,-0.99,3.30,2.81,1.65
8.8570,0.09,0.11,-0.99,3.48,2.87,1.22
8.8630,0.08,0.12,-0.99,3.66,2.87,0.98
8.8750,0.08,0.12,-0.99,3.17,3.11,1.46
8.8980,0.08,0.12,-0.99,2.87,3.05,1.53
8.9150,0.08,0.11,-0.99,3.23,3.05,1.71
8.9310,0.08,0.11,-0.99,3.30,2.99,1.83
8.9470,0.09,0.11,-0.99,3.30,3.05,1.77
8.9630,0.08,0.11,-0.99,3.30,3.54,1.46
8.9790,0.08,0.12,-0.99,3.36,3.11,1.22
8.9950,0.08,0.11,-0.99,3.48,3.23,1.71
9.0110,0.08,0.11,-0.99,3.23,2.62,2.01
9.0280,0.08,0.11,-0.99,3.05,3.05,1.77
9.0430,0.08,0.11,-0.99,3.05,3.36,1.53
9.0590,0.08,0.12,-0.99,3.05,3.30,1.83
9.0750,0.08,0.11,-0.99,2.99,3.36,2.01
9.0910,0.08,0.11,-0.99,3.48,3.42,2.01
9.1070,0.08,0.11,-0.99,3.48,3.17,1.95
9.1220,0.09,0.12,-0.99,3.54,3.05,1.95
9.1370,0.08,0.12,-0.99,3.23,3.17,1.59
9.1480,0.09,0.11,-0.99,2.50,3.05,1.53
9.1640,0.10,0.21,-0.97,2.75,3.72,-2.81
9.1810,0.08,0.05,-1.00,3.91,4.27,-3.48
9.1970,0.09,0.10,-0.99,3.05,3.48,0.61
9.2130,0.12,0.11,-0.99,3.42,3.23,-0.12
9.2280,0.12,0.10,-0.99,3.17,3.48,-0.73
9.2440,0.11,0.09,-0.99,2.75,3.23,0.67
9.2590,0.08,0.10,-0.99,2.32,3.05,0.79
9.2740,0.04,0.13,-0.99,2.50,3.05,1.77
9.2890,0.08,0.12,-0.99,2.81,2.81,2.38
9.3040,0.08,0.12,-0.99,2.93,2.69,2.26
9.3140,0.07,0.12,-0.99,2.93,3.11,1.95
9.3300,0.07,0.12,-0.99,3.17,3.11,1.83
9.3510,0.07,0.11,-0.99,3.36,2.81,1.95
9.3660,0.08,0.11,-0.99,3.17,2.93,1.77
9.3820,0.08,0.11,-0.99,3.17,3.23,2.20
9.3970,0.08,0.11,-0.99,3.36,3.23,2.38
9.4120,0.08,0.11,-0.99,3.17,3.05,1.95
9.4290,0.08,0.11,-0.99,3.11,2.99,2.14
9.4450,0.08,0.11,-0.99,3.11,2.87,1.95
9.4610,0.08,0.11,-0.99,2.99,3.36,2.01
9.4760,0.09,0.11,-0.99,3.05,3.11,1.95
9.4910,0.09,0.11,-0.99,3.30,3.30,1.83
9.5020,0.08,0.11,-0.99,3.17,3.23,1.89
9.5190,0.08,0.11,-0.99,3.11,3.42,1.89
9.5340,0.08,0.11,-0.99,3.05,3.30,1.89
9.5510,0.09,0.11,-0.99,3.17,3.11,1.89
9.5660,0.09,0.11,-0.99,3.05,3.11,1.89
9.5820,0.11,0.11,-0.99,3.11,3.23,2.20
9.5850,0.10,0.11,-0.99,2.75,2.93,3.11
9.6000,0.08,0.11,-0.99,2.93,2.93,3.36
9.6240,0.07,0.11,-0.99,2.93,3.30,2.93
9.6410,0.08,0.11,-0.99,3.05,3.17,2.26
9.6580,0.09,0.11,-0.99,3.17,3.17,1.95
9.6740,0.09,0.11,-0.99,3.17,3.23,1.89
9.6900,0.09,0.12,-0.99,2.99,3.05,2.20
9.7060,0.08,0.11,-0.99,2.99,3.05,2.56
9.7220,0.08,0.11,-0.99,3.05,2.75,2.56
9.7380,0.08,0.11,-0.99,3.23,2.87,2.44
9.7400,0.09,0.11,-0.99,3.05,2.99,2.20
9.7630,0.09,0.11,-0.99,2.75,3.17,2.81
9.7790,0.08,0.11,-0.99,2.87,2.99,3.17
9.7970,0.08,0.11,-0.99,3.17,2.62,2.75
9.8120,0.08,0.11,-0.99,3.17,3.17,2.38
9.8300,0.09,0.11,-0.99,3.11,3.36,2.08
9.8450,0.09,0.11,-0.99,3.05,3.11,2.08
9.8610,0.09,0.11,-0.99,2.81,3.30,2.14
9.8760,0.08,0.11,-0.99,3.11,3.05,1.83
9.8800,0.08,0.11,-0.99,3.05,2.93,1.83
9.9070,0.07,0.11,-0.99,3.05,3.05,2.20
9.9150,0.08,0.12,-0.99,2.87,3.36,2.44
9.9310,0.08,0.11,-0.99,2.93,3.05,2.62
9.9490,0.08,0.11,-0.99,3.23,2.93,2.69
9.9660,0.08,0.11,-0.99,3.42,3.36,2.81
9.9810,0.08,0.11,-0.99,3.30,3.11,3.30
9.9980,0.08,0.10,-0.99,3.30,2.99,3.17
9.9990,0.08,0.11,-0.99,2.93,2.93,3.05
10.0300,0.08,0.11,-0.99,3.36,2.93,2.93
10.0450,0.08,0.11,-0.99,2.87,3.05,3.17
10.0610,0.08,0.11,-0.99,3.05,3.11,3.36
10.0780,0.08,0.12,-0.99,2.99,3.11,3.66
10.0930,0.09,0.12,-0.99,3.05,2.87,3.36
10.1080,0.09,0.11,-0.99,3.17,2.69,3.05
10.1240,0.09,0.12,-0.99,2.93,2.93,2.75
10.1380,0.09,0.11,-0.99,2.87,3.11,2.26
10.1530,0.09,0.11,-0.99,2.75,3.11,1.46
10.1650,0.09,0.12,-0.99,2.75,3.42,0.73
10.1820,0.08,0.11,-0.99,2.50,3.42,1.22
10.1980,0.09,0.11,-0.99,2.93,3.17,1.71
10.2140,0.09,0.11,-1.00,3.85,2.87,1.59
10.2160,0.09,0.11,-0.99,3.30,3.05,1.46
10.2460,0.08,0.11,-0.99,2.50,3.42,2.01
10.2620,0.09,0.11,-0.99,2.20,3.30,1.71
10.2790,0.09,0.11,-0.99,2.44,3.23,1.77
10.2830,0.08,0.11,-0.99,2.81,2.81,1.95
10.3110,0.09,0.11,-0.99,3.30,3.11,2.14
10.3270,0.09,0.11,-0.99,3.30,3.23,2.08
10.3430,0.09,0.11,-0.99,3.05,2.99,2.20
10.3490,0.08,0.11,-0.99,3.23,2.87,2.99
10.3650,0.08,0.11,-0.99,3.60,3.11,2.81
10.3880,0.09,0.11,-0.99,4.09,2.62,2.32
10.4050,0.08,0.11,-0.99,3.60,2.99,2.14
10.4200,0.08,0.11,-0.99,3.60,2.75,1.83
10.4360,0.08,0.11,-0.99,3.23,2.62,1.77
10.4530,0.09,0.11,-0.99,3.36,3.30,1.83
10.4680,0.08,0.11,-0.99,3.23,3.42,2.01
10.4830,0.09,0.11,-0.99,3.23,3.54,2.08
10.4980,0.09,0.11,-0.99,2.87,2.99,2.62
10.5130,0.08,0.11,-0.99,2.99,2.93,3.11
10.5280,0.07,0.11,-0.99,3.30,2.93,2.93
10.5430,0.08,0.11,-0.99,3.23,3.30,2.69
10.5540,0.09,0.11,-0.99,3.48,3.11,2.50
10.5710,0.09,0.11,-0.99,3.54,2.99,2.75
10.5870,0.08,0.11,-0.99,3.48,2.93,2.99
10.6050,0.09,0.11,-0.99,3.36,3.05,2.99
10.6210,0.09,0.11,-0.99,3.17,3.05,3.11
10.6360,0.09,0.11,-0.99,3.30,3.17,2.56
10.6520,0.09,0.11,-0.99,3.11,3.05,2.14
10.6670,0.09,0.11,-0.99,3.17,2.93,1.83
10.6820,0.09,0.11,-0.99,3.17,2.99,1.95
10.6970,0.08,0.11,-0.99,3.05,2.93,1.59
10.7120,0.08,0.11,-0.99,2.99,3.54,1.83
10.7260,0.08,0.11,-0.99,2.93,2.81,2.08
10.7380,0.09,0.11,-0.99,2.99,3.17,2.44
10.7540,0.08,0.11,-0.99,2.93,3.17,2.20
10.7710,0.08,0.11,-0.99,3.05,3.11,1.59
10.7880,0.08,0.11,-0.99,3.17,3.36,1.10
10.8040,0.10,0.11,-0.99,3.30,3.42,0.98
10.8200,0.10,0.11,-0.99,3.17,3.30,0.79
10.8360,0.09,0.11,-0.99,2.99,3.30,1.22
10.8530,0.07,0.11,-0.99,2.93,3.42,2.08
10.8680,0.07,0.11,-0.99,2.99,2.93,2.20
10.8820,0.07,0.11,-0.99,3.05,3.17,2.14
10.8980,0.07,0.11,-0.99,3.42,3.30,1.77
10.9140,0.09,0.11,-0.99,3.17,2.87,1.95
10.9290,0.08,0.11,-0.99,3.36,3.23,1.77
10.9440,0.09,0.11,-0.99,3.23,3.05,1.59
10.9540,0.09,0.11,-0.99,3.30,2.99,1.77
10.9710,0.09,0.11,-0.99,3.17,3.11,2.01
10.9870,0.10,0.11,-0.99,3.30,2.81,2.08
11.0040,0.09,0.11,-0.99,2.99,3.05,2.50
11.0200,0.09,0.11,-0.99,3.05,3.11,2.44
11.0360,0.07,0.12,-0.99,3.05,2.99,2.32
11.0510,0.07,0.11,-0.99,3.23,2.87,2.62
11.0660,0.08,0.11,-0.99,3.30,3.05,2.50
11.0820,0.08,0.11,-0.99,3.36,3.23,2.32
11.0880,0.08,0.11,-0.99,3.30,3.17,1.89
11.1040,0.08,0.11,-0.99,3.36,3.05,1.28
11.1260,0.09,0.11,-0.99,3.30,3.30,1.28
11.1420,0.09,0.11,-0.99,3.23,3.11,1.40
11.1600,0.10,0.11,-0.99,3.36,2.93,1.40
11.1760,0.09,0.11,-0.99,3.23,3.30,1.77
11.1770,0.08,0.11,-0.99,3.23,3.05,1.83
11.2070,0.08,0.11,-0.99,3.23,3.17,1.83
11.2240,0.09,0.11,-0.99,3.11,2.99,1.83
11.2260,0.09,0.11,-0.99,3.11,3.30,1.95
11.2420,0.09,0.11,-0.99,3.30,2.81,2.01
11.2670,0.08,0.11,-0.99,3.23,3.30,2.08
11.2850,0.07,0.11,-0.99,3.23,3.05,1.83
11.3010,0.08,0.11,-0.99,3.11,3.23,1.71
11.3160,0.09,0.11,-0.99,3.17,3.05,1.71
11.3320,0.09,0.11,-0.99,3.11,3.11,2.14
11.3340,0.09,0.11,-0.99,3.23,2.93,2.75
11.3500,0.08,0.11,-0.99,3.30,3.17,2.50
11.3740,0.07,0.11,-0.99,3.30,2.93,2.38
11.3910,0.09,0.11,-0.99,3.23,3.11,1.89
11.4070,0.08,0.11,-0.99,3.17,3.30,1.40
11.4240,0.09,0.11,-0.99,3.23,3.23,1.22
11.4400,0.09,0.11,-0.99,3.23,3.11,1.46
11.4560,0.09,0.11,-0.99,3.23,3.30,1.46
11.4730,0.08,0.11,-0.99,3.17,2.81,1.77
11.4880,0.08,0.11,-0.99,3.23,3.17,1.83
11.5050,0.09,0.11,-0.99,3.11,3.11,1.83
11.5210,0.09,0.11,-0.99,3.17,2.99,2.01
11.5360,0.07,0.11,-0.99,3.05,3.30,2.26
11.5510,0.09,0.11,-0.99,3.36,3.05,2.01
11.5660,0.09,0.11,-0.99,3.23,3.05,2.26
11.5810,0.08,0.11,-0.99,3.23,3.05,2.26
11.5960,0.08,0.11,-0.99,3.23,2.87,1.95
11.6070,0.09,0.11,-0.99,3.17,2.93,2.14
11.6230,0.09,0.11,-0.99,3.17,2.87,2.14
11.6430,0.08,0.11,-0.99,3.23,2.81,2.14
11.6590,0.08,0.11,-0.99,3.30,2.93,1.89
11.6740,0.07,0.11,-0.99,3.23,2.81,1.83
11.6790,0.08,0.11,-0.99,3.30,2.69,1.83
11.6970,0.09,0.11,-0.99,2.99,2.99,1.95
11.7120,0.08,0.11,-0.99,3.23,2.87,1.89
11.7280,0.08,0.11,-0.99,3.30,3.05,2.08
11.7460,0.08,0.11,-0.99,3.30,2.81,2.01
11.7640,0.09,0.11,-0.99,3.23,3.11,2.08
11.7800,0.08,0.11,-0.99,3.17,2.56,1.95
11.7950,0.08,0.11,-0.99,3.36,2.99,2.01
11.8110,0.08,0.11,-0.99,3.17,2.99,1.95
11.8130,0.08,0.11,-0.99,3.11,2.87,2.14
11.8410,0.11,0.11,-0.99,3.05,3.23,2.01
11.8460,0.06,0.12,-0.99,2.99,3.30,2.38
11.8730,0.08,0.11,-0.99,3.36,3.05,2.20
11.8890,0.09,0.11,-0.99,3.23,2.99,2.01
11.8950,0.09,0.11,-0.99,2.99,3.17,2.20
11.9100,0.09,0.11,-0.99,2.99,2.81,2.87
11.9340,0.08,0.11,-0.99,3.11,2.69,2.87
11.9490,0.08,0.11,-0.99,2.99,2.99,2.93
11.9640,0.11,0.10,-0.99,2.99,2.93,2.93
11.9670,0.06,0.12,-0.99,3.17,2.75,3.66
11.9830,0.08,0.11,-0.99,3.30,2.81,2.56
12.0070,0.07,0.11,-0.99,3.30,3.11,2.62
12.0240,0.08,0.11,-0.99,3.23,2.75,2.08
12.0400,0.08,0.12,-0.99,2.99,3.05,2.14
12.0560,0.09,0.11,-0.99,2.87,2.56,3.66
12.0720,0.09,0.11,-0.99,3.17,2.87,3.05
12.0870,0.09,0.11,-0.99,3.23,3.17,2.01
12.1020,0.10,0.12,-0.99,3.05,3.11,2.01
12.1170,0.09,0.11,-0.99,3.23,3.11,2.81
12.1320,0.09,0.11,-0.99,3.17,2.62,3.91
12.1470,0.07,0.11,-0.99,3.23,2.44,4.64
12.1620,0.07,0.11,-0.99,3.17,2.32,4.27
12.1740,0.08,0.11,-0.99,3.17,2.62,3.85
12.1900,0.08,0.11,-0.99,3.23,2.87,3.42
12.2070,0.08,0.11,-0.99,3.11,2.81,2.56
12.2230,0.08,0.11,-0.99,2.99,2.75,1.95
12.2390,0.08,0.11,-0.99,2.93,3.11,2.01
12.2550,0.09,0.11,-0.99,3.05,2.87,2.08
12.2710,0.09,0.12,-0.99,2.99,2.81,1.89
12.2730,0.07,0.13,-0.99,3.30,3.11,0.31
12.2890,0.08,0.08,-0.99,3.54,3.36,0.92
12.3140,0.10,0.09,-0.99,4.52,3.23,0.43
12.3300,0.08,0.11,-0.99,3.66,3.54,-2.81
12.3460,0.07,0.12,-0.99,3.36,3.66,-1.22
12.3640,0.08,0.11,-0.99,3.78,3.11,1.77
12.3800,0.08,0.11,-0.99,3.30,2.87,1.65
12.3960,0.08,0.11,-0.99,3.17,2.99,1.77
12.4110,0.08,0.11,-0.99,3.36,3.17,1.89
12.4270,0.08,0.11,-0.99,3.60,3.17,1.95
12.4430,0.09,0.11,-0.99,3.42,3.11,1.95
12.4580,0.08,0.11,-0.99,3.48,3.54,2.26
12.4660,0.08,0.11,-0.99,3.11,2.99,1.95
12.4790,0.09,0.11,-0.99,3.05,2.93,1.89
12.5030,0.08,0.11,-0.99,3.11,2.99,1.89
12.5200,0.08,0.11,-0.99,3.60,3.05,1.95
12.5360,0.09,0.11,-0.99,3.42,3.17,1.83
12.5530,0.08,0.10,-0.99,3.30,3.66,0.98
12.5690,0.09,0.12,-0.99,3.48,3.54,0.12
12.5850,0.09,0.11,-0.99,3.60,3.36,0.18
12.5990,0.09,0.10,-0.99,3.66,3.66,-0.43
12.6140,0.08,0.11,-0.99,3.91,3.60,-0.49
12.6290,0.08,0.11,-0.99,3.54,2.87,0.67
12.6440,0.08,0.11,-0.99,3.23,3.66,0.67
12.6600,0.09,0.12,-0.99,3.36,3.54,0.49
12.6700,0.09,0.12,-0.99,3.17,3.11,0.67
12.6860,0.09,0.10,-0.99,2.99,3.30,0.43
12.7030,0.09,0.11,-0.99,2.81,3.42,0.61
12.7190,0.09,0.11,-0.99,2.69,2.93,1.53
12.7340,0.08,0.11,-0.99,2.87,3.05,2.14
12.7490,0.08,0.11,-0.99,2.93,2.75,2.38
12.7640,0.08,0.13,-0.99,2.99,2.93,2.75
12.7800,0.08,0.12,-0.99,3.05,3.17,2.56
12.7950,0.08,0.11,-0.99,2.99,3.05,2.32
12.8100,0.09,0.11,-0.99,3.05,3.11,1.95
12.8200,0.09,0.11,-0.99,2.99,3.30,1.89
12.8360,0.09,0.11,-0.99,2.99,2.87,1.89
12.8540,0.09,0.11,-0.99,3.11,3.17,1.77
12.8710,0.09,0.11,-0.99,2.99,2.56,1.83
12.8870,0.09,0.11,-0.99,3.05,2.93,2.01
12.9030,0.09,0.11,-0.99,3.17,3.05,2.26
12.9200,0.08,0.11,-0.99,2.99,3.23,2.14
12.9350,0.08,0.11,-0.99,3.11,2.69,2.01
12.9500,0.09,0.11,-0.99,2.99,3.05,2.08
12.9650,0.10,0.12,-0.99,3.11,2.99,2.01
12.9810,0.08,0.11,-0.99,2.99,3.30,1.83
12.9880,0.08,0.11,-0.99,3.30,3.05,1.65
13.0030,0.07,0.11,-0.99,3.36,3.36,1.95
13.0260,0.08,0.11,-0.99,3.30,3.48,1.95
13.0420,0.09,0.11,-0.99,3.05,3.05,2.01
13.0570,0.09,0.11,-0.99,3.11,3.17,1.95
13.0670,0.08,0.11,-0.99,3.11,3.17,2.01
13.0870,0.08,0.11,-0.99,3.23,2.87,1.95
13.0940,0.09,0.11,-0.99,3.30,2.75,2.14
13.1170,0.09,0.11,-0.99,3.42,3.17,2.01
13.1330,0.09,0.11,-0.99,3.11,3.23,1.83
13.1430,0.09,0.11,-0.99,3.11,3.11,1.83
13.1590,0.09,0.11,-0.99,3.23,2.99,2.08
13.1770,0.08,0.11,-0.99,3.23,3.05,2.14
13.1940,0.08,0.11,-0.99,3.11,2.87,2.26
13.2090,0.09,0.11,-0.99,3.17,3.17,1.89
13.2250,0.09,0.12,-0.99,2.93,3.54,1.77
13.2270,0.09,0.12,-0.99,2.99,2.93,2.01
13.2430,0.09,0.11,-0.99,3.05,3.23,1.95
13.2670,0.22,0.13,-0.97,3.36,3.11,1.89
13.2820,-0.02,0.09,-0.99,3.36,3.05,2.44
13.2990,0.11,0.13,-0.98,2.99,3.30,1.40
13.3150,0.03,0.08,-1.00,3.11,3.17,1.95
13.3320,0.07,0.10,-0.99,3.54,2.93,1.95
13.3370,0.08,0.11,-0.99,3.54,2.87,1.89
13.3530,0.09,0.11,-0.99,3.23,3.11,1.95
13.3770,0.09,0.11,-0.99,2.93,3.36,1.89
13.3920,0.08,0.11,-0.99,3.05,3.17,2.01
13.4030,0.09,0.11,-0.99,2.93,3.23,2.01
13.4190,0.08,0.11,-0.99,3.05,3.30,2.20
13.4360,0.09,0.11,-0.99,3.11,3.05,2.01
13.4530,0.09,0.11,-0.99,3.30,3.17,1.89
13.4690,0.08,0.11,-0.99,3.30,3.23,1.95
13.4840,0.08,0.11,-0.99,3.42,2.93,1.89
13.5000,0.09,0.11,-0.99,3.42,3.17,1.95
13.5150,0.09,0.11,-0.99,3.42,2.93,1.95
13.5200,0.08,0.11,-0.99,3.17,3.17,1.95
13.5360,0.09,0.11,-0.99,3.17,3.05,1.89
13.5530,0.08,0.11,-0.99,3.54,2.81,1.89
13.5700,0.08,0.11,-0.99,3.17,3.23,1.95
13.5860,0.09,0.11,-0.99,3.17,3.17,1.83
13.6030,0.08,0.11,-0.99,3.17,3.05,1.83
13.6200,0.08,0.11,-0.99,3.11,3.17,1.95
13.6360,0.08,0.11,-0.99,3.36,2.75,1.95
13.6510,0.08,0.11,-0.99,3.05,3.17,1.89
13.6670,0.08,0.11,-0.99,3.17,3.11,1.95
13.6820,0.09,0.11,-0.98,3.11,3.11,1.95
13.6970,0.14,0.09,-1.00,3.78,3.54,2.38
13.7130,0.10,0.13,-0.98,2.20,2.69,5.37
13.7290,0.06,0.12,-0.99,2.69,2.44,4.76
13.7360,0.09,0.10,-0.99,3.23,2.87,2.81
13.7520,-0.01,0.12,-1.00,3.42,3.30,1.77
13.7740,0.09,0.11,-0.99,3.23,2.99,1.83
13.7740,0.08,0.11,-0.99,2.99,3.11,1.71
13.7920,0.09,0.11,-0.99,3.17,3.54,1.46
13.8090,0.09,0.11,-0.99,3.30,3.05,1.16
13.8240,0.09,0.11,-0.99,3.17,2.87,1.28
13.8460,0.09,0.11,-0.99,2.93,3.05,1.46
13.8640,0.08,0.11,-0.99,3.11,2.99,1.71
13.8800,0.07,0.11,-0.99,3.11,3.42,2.20
13.8960,0.08,0.11,-0.99,3.23,3.05,2.01
13.9130,0.08,0.11,-0.99,3.78,2.69,1.89
13.9290,0.08,0.11,-0.99,3.85,2.75,1.95
13.9440,0.08,0.11,-0.99,3.23,3.11,1.83
13.9610,0.09,0.11,-0.99,3.17,2.93,1.95
13.9770,0.08,0.11,-0.99,3.05,3.30,1.89
13.9930,0.09,0.11,-0.99,3.11,3.05,1.95
14.0090,0.09,0.11,-0.99,3.11,2.87,2.62
14.0250,0.09,0.11,-0.99,2.93,3.30,3.05
14.0400,0.09,0.11,-0.99,3.05,2.99,2.62
14.0470,0.08,0.11,-0.99,3.30,2.93,2.50
14.0670,0.09,0.11,-0.99,3.17,2.93,2.50
14.0850,0.09,0.11,-0.99,2.99,2.99,2.69
14.1010,0.09,0.11,-0.99,2.99,3.05,2.69
14.1160,0.09,0.11,-0.99,2.99,2.99,2.75
14.1310,0.08,0.11,-0.99,2.93,2.93,2.44
14.1350,0.09,0.11,-0.99,2.87,3.23,2.20
14.1500,0.09,0.11,-0.99,2.87,3.36,2.14
14.1730,0.09,0.11,-0.99,2.87,3.17,2.20
14.1890,0.08,0.11,-0.99,3.05,2.75,2.50
14.2050,0.35,0.09,-0.96,3.85,3.60,0.18
14.2230,-0.11,0.13,-0.99,3.72,3.36,0.24
14.2390,-0.04,0.14,-0.99,2.62,2.69,3.60
14.2550,0.08,0.11,-0.99,3.11,3.23,0.43
14.2690,0.07,0.10,-0.99,3.42,3.23,1.22
14.2850,0.09,0.11,-0.99,3.78,2.93,1.77
14.2890,0.08,0.11,-0.99,3.11,3.36,1.83
14.3140,0.08,0.11,-0.99,3.17,2.99,1.71
14.3230,0.09,0.11,-0.99,3.30,2.69,1.83
14.3390,0.08,0.11,-0.99,3.42,2.75,1.89
14.3590,0.08,0.11,-0.99,3.23,3.05,1.83
14.3750,0.09,0.11,-0.99,3.05,3.30,2.01
14.3910,0.08,0.11,-0.99,2.99,3.17,1.95
14.4070,0.08,0.11,-0.99,3.05,3.23,2.01
14.4220,0.08,0.11,-0.99,3.11,3.11,1.95
14.4260,0.08,0.11,-0.99,3.17,2.99,2.01
14.4420,0.08,0.11,-0.99,2.93,2.99,1.83
14.4660,0.08,0.11,-0.99,2.99,2.87,1.89
14.4830,0.09,0.11,-0.99,2.99,2.93,2.01
14.4980,0.08,0.11,-0.99,3.30,2.69,1.95
14.5140,0.09,0.11,-0.99,3.36,2.93,1.95
14.5160,0.08,0.11,-0.99,3.23,2.99,2.01
14.5310,0.08,0.11,-0.99,3.17,2.99,2.08
14.5550,0.09,0.11,-0.99,3.36,3.17,1.89
14.5720,0.08,0.11,-0.99,3.05,2.87,2.08
14.5890,0.09,0.11,-0.99,2.99,2.99,2.01
14.6050,0.09,0.11,-0.99,3.36,2.93,2.32
14.6210,0.08,0.11,-0.99,3.36,3.36,2.01
14.6230,0.08,0.11,-0.99,3.17,2.93,2.14
14.6530,0.08,0.12,-0.99,2.99,3.17,2.26
14.6680,0.09,0.11,-0.99,3.17,3.23,1.83
14.6860,0.09,0.12,-0.99,3.23,2.87,1.89
14.7010,0.09,0.11,-0.99,2.99,3.17,1.40
14.7160,0.08,0.10,-0.99,3.11,3.05,1.34
14.7310,0.08,0.10,-0.99,3.11,2.93,1.34
14.7450,0.08,0.11,-0.99,3.23,3.23,1.22
14.7550,0.08,0.11,-0.99,3.30,3.11,1.28
14.7710,0.09,0.11,-0.99,3.17,3.11,1.46
14.7910,0.08,0.10,-0.99,3.36,2.81,1.28
14.8070,0.08,0.11,-0.99,3.30,3.17,1.77
14.8240,0.09,0.11,-0.99,3.48,3.17,1.83
14.8390,0.09,0.11,-0.99,3.17,2.93,1.83
14.8540,0.09,0.11,-0.99,3.23,2.93,1.83
14.8680,0.09,0.11,-0.99,3.23,3.30,1.95
14.8770,0.10,0.10,-0.99,3.36,3.05,1.89
14.8930,0.10,0.10,-0.99,3.11,2.81,2.81
14.9140,0.10,0.10,-0.99,2.93,2.93,3.72
14.9170,0.09,0.11,-0.99,2.93,2.81,3.72
14.9440,0.07,0.13,-0.99,2.69,2.32,4.03
14.9600,0.07,0.12,-0.99,2.87,2.99,3.42
14.9740,0.08,0.11,-0.99,3.05,3.05,2.69
14.9840,0.08,0.11,-0.99,3.36,2.93,2.87
15.0000,0.07,0.11,-0.99,3.60,2.81,3.17
15.0200,0.08,0.11,-0.99,3.30,2.93,3.11
15.0360,0.09,0.12,-0.99,3.30,2.56,2.62
15.0380,0.09,0.11,-0.99,3.05,3.05,2.38
15.0670,0.08,0.11,-0.99,3.11,2.99,2.14
15.0740,0.09,0.11,-0.99,3.17,2.75,2.01
15.0910,0.08,0.11,-0.99,3.30,2.81,1.89
15.1070,0.09,0.11,-0.99,3.11,3.11,2.01
15.1240,0.09,0.11,-0.99,3.05,3.17,1.83
15.1410,0.09,0.11,-0.99,3.11,3.54,1.83
15.1590,0.09,0.11,-0.99,3.05,2.99,1.83
15.1730,0.09,0.11,-0.99,3.17,3.11,1.77
15.1900,0.09,0.11,-0.99,3.11,2.81,1.77
15.2060,0.10,0.11,-0.99,3.11,3.23,1.53
15.2080,0.09,0.11,-0.99,3.11,3.17,0.55
15.2230,0.09,0.11,-0.99,3.42,3.54,0.12
15.2460,0.09,0.11,-0.99,3.30,3.42,-0.31
15.2640,0.09,0.11,-0.99,3.66,3.48,-0.73
15.2800,0.08,0.11,-0.99,3.72,3.48,-0.85
15.2960,0.07,0.11,-0.99,3.30,3.36,-0.55
15.3120,0.20,0.11,-0.98,3.60,3.17,-0.12
15.3290,-0.01,0.10,-1.00,3.72,3.60,-2.44
15.3440,0.08,0.12,-0.99,3.05,3.17,-0.18
15.3460,0.04,0.11,-0.99,3.23,3.23,0.24
15.3750,0.07,0.10,-0.99,3.42,3.17,0.85
15.3800,0.07,0.11,-0.99,3.60,3.30,1.28
15.3950,0.08,0.11,-0.99,3.23,3.11,1.65
15.4110,0.09,0.11,-0.99,2.99,2.81,1.53
15.4340,0.09,0.11,-0.99,3.11,2.93,1.95
15.4510,0.08,0.11,-0.99,3.23,2.93,2.26
15.4660,0.07,0.11,-0.99,3.30,2.38,2.38
15.4820,0.08,0.11,-0.99,3.17,2.99,2.08
15.4970,0.09,0.11,-0.99,3.05,3.17,1.77
15.5130,0.09,0.11,-0.99,3.23,2.93,1.83
15.5270,0.08,0.11,-0.99,3.23,3.05,1.83
15.5430,0.09,0.11,-0.99,3.11,2.99,1.89
15.5570,0.08,0.11,-0.99,3.11,3.36,1.77
15.5690,0.09,0.11,-0.99,2.99,3.23,1.71
15.5850,0.09,0.11,-0.99,3.05,3.23,1.65
15.6010,0.09,0.11,-0.99,3.11,2.62,1.46
15.6180,0.09,0.11,-0.99,2.93,3.05,1.40
15.6330,0.08,0.11,-0.99,3.05,3.23,1.28
15.6490,0.10,0.12,-0.99,3.17,3.17,1.59
15.6650,0.06,0.11,-0.99,3.60,3.17,1.10
15.6800,0.08,0.11,-0.99,3.30,3.05,1.16
15.6840,0.10,0.12,-0.99,2.99,3.54,1.16
15.7000,0.09,0.11,-0.99,3.23,3.17,0.85
15.7220,0.09,0.11,-0.99,3.60,3.05,0.92
15.7390,0.06,0.11,-0.99,3.23,3.36,1.34
15.7550,0.07,0.11,-0.99,3.42,2.93,1.46
15.7720,0.08,0.11,-0.99,3.17,3.42,1.34
15.7870,0.09,0.11,-0.99,3.05,3.54,1.28
15.8030,0.09,0.11,-0.99,3.17,3.05,1.34
15.8190,0.09,0.11,-0.99,3.23,2.87,1.34
15.8350,0.09,0.11,-0.99,3.30,3.11,1.53
15.8510,0.09,0.11,-0.99,3.30,3.17,1.40
15.8660,0.09,0.11,-0.99,3.11,2.99,1.40
15.8820,0.10,0.11,-0.99,3.11,3.23,1.71
15.8970,0.10,0.11,-0.99,3.36,3.23,1.71
15.9110,0.08,0.11,-0.99,3.30,3.48,1.71
15.9220,0.06,0.11,-0.99,3.30,3.23,1.65
15.9390,0.08,0.11,-0.99,3.17,3.54,1.46
15.9550,0.08,0.11,-0.99,3.42,3.42,1.46
15.9710,0.08,0.11,-0.99,3.36,3.23,1.53
15.9870,0.09,0.11,-0.99,3.36,3.23,1.53
16.0030,0.09,0.11,-0.99,3.30,3.17,1.53
16.0190,0.08,0.11,-0.99,3.48,3.23,1.59
16.0340,0.09,0.11,-0.99,3.30,2.93,1.65
16.0490,0.08,0.11,-0.99,2.93,3.23,1.65
16.0640,0.09,0.11,-0.99,3.05,3.17,1.59
16.0790,0.09,0.11,-0.99,3.23,3.36,1.65
16.0880,0.09,0.11,-0.99,3.30,3.36,1.22
16.1060,0.08,0.11,-0.99,3.30,3.05,1.22
16.1220,0.09,0.11,-0.99,3.17,3.17,1.16
16.1390,0.09,0.11,-0.99,3.23,3.11,1.10
16.1560,0.08,0.11,-0.99,3.42,3.54,0.79
16.1720,0.09,0.11,-0.99,3.54,3.11,0.73
16.1870,0.09,0.11,-0.99,3.30,3.36,0.49
16.2020,0.08,0.11,-0.99,3.42,3.05,0.67
16.2180,0.09,0.11,-0.99,3.42,3.66,0.98
16.2220,0.07,0.11,-0.99,3.48,2.99,1.28
16.2380,0.08,0.11,-0.99,3.23,3.36,1.59
16.2610,0.08,0.11,-0.99,3.30,2.75,1.83
16.2780,0.08,0.11,-0.99,3.54,2.93,1.77
16.2950,0.09,0.11,-0.99,3.36,3.11,1.95
16.3110,0.08,0.11,-0.99,3.42,2.87,2.01
16.3280,0.08,0.11,-0.99,3.42,3.11,1.95
16.3440,0.09,0.11,-0.99,3.42,3.17,2.01
16.3600,0.09,0.11,-0.99,3.60,2.81,1.95
16.3750,0.08,0.11,-0.99,3.36,3.23,2.08
16.3900,0.08,0.11,-0.99,3.48,3.23,1.95
16.3950,0.08,0.11,-0.99,3.11,3.05,2.08
16.4200,0.09,0.11,-0.99,3.36,3.17,2.08
16.4350,0.09,0.11,-0.99,3.36,2.69,1.83
16.4450,0.08,0.11,-0.99,3.36,2.50,1.95
16.4610,0.09,0.11,-0.99,3.17,2.99,2.08
16.4780,0.09,0.11,-0.99,2.99,3.17,1.95
16.4960,0.08,0.11,-1.00,3.05,2.93,1.89
16.5110,0.08,0.11,-0.99,2.93,2.87,2.08
16.5290,0.08,0.11,-0.99,2.99,2.93,1.89
16.5440,0.08,0.11,-0.99,3.23,3.17,2.01
16.5610,0.08,0.11,-0.99,2.99,2.93,2.20
16.5770,0.09,0.11,-0.99,3.05,2.93,2.08
16.5930,0.08,0.11,-0.99,3.17,3.11,1.77
16.6080,0.08,0.11,-0.99,3.11,3.30,0.61
16.6240,0.09,0.11,-0.99,3.30,3.05,0.24
16.6280,0.08,0.11,-0.99,3.60,3.30,0.79
16.6430,0.08,0.11,-0.99,3.30,2.87,0.92
16.6700,0.08,0.11,-0.99,3.36,2.99,0.61
16.6850,0.09,0.11,-0.99,3.30,3.42,0.55
16.7000,0.09,0.11,-0.99,3.11,3.17,1.40
16.7160,0.08,0.11,-0.99,3.23,2.99,1.71
16.7310,0.08,0.11,-0.99,3.48,3.17,1.40
16.7440,0.08,0.11,-0.99,3.66,3.30,0.98
16.7610,0.09,0.11,-0.99,3.23,3.11,0.73
16.7770,0.08,0.11,-0.99,3.11,3.11,1.34
16.7910,0.09,0.11,-0.99,3.17,3.11,1.59
16.8060,0.09,0.11,-0.99,3.42,3.05,1.40
16.8180,0.09,0.11,-0.99,3.42,3.42,1.65
16.8340,0.08,0.11,-0.99,3.23,2.87,1.59
16.8500,0.09,0.11,-0.99,3.42,2.93,1.77
16.8670,0.08,0.11,-0.99,3.36,3.05,1.77
16.8840,0.08,0.11,-0.99,3.54,3.11,1.83
16.9000,0.08,0.11,-0.99,3.23,3.36,2.01
16.9150,0.08,0.11,-0.99,3.42,2.69,1.83
16.9310,0.08,0.10,-0.99,3.23,2.81,1.28
16.9340,0.09,0.11,-0.99,3.11,3.30,-0.61
16.9500,0.09,0.11,-0.99,3.36,3.30,-0.24
16.9720,0.09,0.11,-0.99,3.42,3.17,-0.24
16.9890,0.08,0.11,-0.99,3.54,3.11,-0.85
17.0050,0.11,0.09,-0.99,4.03,3.97,-4.33
17.0220,0.07,0.11,-0.99,4.39,4.58,-10.01
17.0380,0.07,0.13,-0.99,4.09,4.03,-5.68
17.0430,0.08,0.11,-0.99,3.66,3.42,-1.77
17.0580,0.09,0.11,-0.99,3.48,3.36,-1.16
17.0770,0.09,0.10,-0.99,3.72,3.72,-2.62
17.0940,0.08,0.11,-0.99,3.78,3.60,-3.48
17.1110,0.08,0.11,-0.99,3.60,3.72,-2.87
17.1270,0.08,0.12,-0.99,3.60,3.30,-1.65
17.1460,0.08,0.12,-0.99,3.48,3.11,0.06
17.1600,0.09,0.12,-0.99,3.48,2.87,1.53
17.1770,0.09,0.11,-0.99,3.36,2.81,1.28
17.1940,0.09,0.11,-0.99,3.36,2.93,0.61
17.2100,0.09,0.10,-0.99,3.54,3.42,-1.16
17.2150,0.08,0.10,-0.99,3.91,3.48,-2.75
17.2310,0.08,0.11,-0.99,3.85,3.48,-3.05
17.2530,0.09,0.12,-0.99,3.60,3.54,-2.01
17.2700,0.08,0.12,-0.99,3.48,3.78,-1.53
17.2860,0.09,0.11,-0.99,3.48,3.72,-0.67
17.3030,0.09,0.10,-0.99,3.42,2.93,-1.59
17.3180,0.08,0.10,-0.99,3.42,3.11,-2.20
17.3330,0.08,0.12,-0.99,3.48,3.17,-1.10
17.3370,0.08,0.12,-0.99,3.42,3.30,0.18
17.3520,0.08,0.11,-0.99,3.42,2.93,0.67
17.3750,0.08,0.07,-1.00,3.66,3.11,0.12
17.3920,0.08,0.10,-0.99,3.60,3.17,-1.16
17.4080,0.09,0.12,-0.99,3.48,3.30,-1.95
17.4250,0.08,0.12,-0.99,3.54,3.48,-1.59
17.4400,0.09,0.13,-0.99,3.66,3.17,-1.10
17.4410,0.09,0.12,-0.99,3.48,3.11,0.49
17.4700,0.08,0.11,-0.99,3.30,3.11,0.61
17.4750,0.08,0.11,-0.99,3.30,3.23,0.73
17.4910,0.08,0.11,-0.99,3.48,3.48,0.43
17.5190,0.08,0.10,-0.99,3.72,3.30,0.06
17.5300,0.08,0.11,-0.99,3.54,3.23,-0.43
17.5470,0.08,0.11,-0.99,3.42,3.30,-0.37
17.5630,0.08,0.11,-0.99,3.36,3.48,-0.06
17.5810,0.09,0.11,-0.99,3.54,3.60,-1.04
17.5960,0.09,0.11,-0.99,3.48,3.78,-1.89
17.6130,0.08,0.13,-0.99,3.72,3.60,-2.01
17.6270,0.09,0.12,-0.99,3.30,3.05,0.79
17.6440,0.08,0.11,-0.99,3.30,3.11,1.77
17.6470,0.08,0.11,-0.99,3.42,2.99,1.89
17.6710,0.08,0.10,-0.99,3.05,3.23,1.46
17.6850,0.08,0.11,-0.99,3.11,3.05,1.16
17.7020,0.08,0.10,-0.99,3.30,3.11,0.85
17.7190,0.09,0.09,-1.00,3.54,3.30,-0.67
17.7350,0.09,0.13,-0.99,3.60,3.78,-2.56
17.7520,0.09,0.12,-0.99,3.42,3.66,-0.61
17.7680,0.09,0.11,-0.99,3.23,3.23,0.31
17.7850,0.08,0.12,-0.99,3.36,3.36,-0.18
17.8000,0.08,0.12,-0.99,3.42,3.36,0.43
17.8150,0.08,0.11,-0.99,3.42,2.81,1.59
17.8310,0.08,0.11,-0.99,3.54,2.75,1.77
17.8350,0.08,0.11,-0.99,3.30,3.17,1.46
17.8510,0.08,0.10,-0.99,3.30,2.99,1.28
17.8750,0.08,0.11,-0.99,3.30,3.42,1.16
17.8910,0.08,0.10,-0.99,3.36,3.30,0.92
17.9070,0.09,0.08,-0.99,3.60,3.48,-0.92
17.9230,0.09,0.12,-0.99,3.66,3.97,-3.54
17.9390,0.08,0.12,-0.99,3.48,3.66,-1.46
17.9550,0.09,0.12,-0.99,3.36,3.17,0.18
17.9710,0.08,0.11,-0.99,3.36,3.05,0.79
17.9750,0.09,0.11,-0.99,3.42,3.30,0.24
17.9960,0.08,0.10,-0.99,3.54,3.60,-0.37
18.0130,0.08,0.10,-0.99,3.66,3.60,-1.04
18.0300,0.08,0.12,-0.99,3.48,2.93,-0.67
18.0470,0.08,0.12,-0.99,3.23,3.17,0.67
18.0620,0.08,0.11,-0.99,3.36,2.87,1.40
18.0790,0.09,0.12,-0.99,3.30,3.17,1.22
18.0940,0.08,0.11,-0.99,3.17,3.05,1.16
18.1100,0.08,0.11,-0.99,3.36,3.17,1.04
18.1260,0.08,0.11,-0.99,3.42,3.17,0.79
18.1410,0.08,0.09,-0.99,3.42,3.48,0.24
18.1570,0.08,0.10,-0.99,3.97,3.78,-2.93
18.1720,0.09,0.13,-0.99,3.85,3.66,-3.17
18.1790,0.09,0.13,-0.99,3.48,3.72,-0.49
18.2020,0.09,0.12,-0.99,3.17,3.17,0.98
18.2190,0.09,0.11,-0.99,3.42,3.48,0.98
18.2350,0.08,0.10,-0.99,3.23,3.36,-0.06
18.2510,0.08,0.10,-0.99,3.48,3.23,-1.34
18.2680,0.08,0.12,-0.99,3.42,3.60,-1.53
18.2860,0.08,0.11,-0.99,3.48,3.42,-0.49
18.3010,0.08,0.09,-0.99,3.42,3.36,-0.67
18.3160,0.09,0.10,-0.99,3.60,3.54,-2.08
18.3310,0.09,0.12,-0.99,3.91,3.78,-3.85
18.3470,0.09,0.13,-0.99,3.85,3.72,-2.93
18.3520,0.09,0.13,-0.99,3.66,2.93,-0.98
18.3720,0.09,0.12,-0.99,3.36,2.69,0.06
18.3920,0.08,0.11,-0.99,3.60,2.81,1.28
18.4090,0.09,0.10,-0.99,3.23,3.30,0.98
18.4240,0.08,0.08,-1.00,3.66,3.48,-0.18
18.4400,0.08,0.11,-0.99,3.66,3.78,-4.21
18.4570,0.08,0.12,-0.99,3.97,3.72,-3.66
18.4730,0.09,0.12,-0.99,3.54,3.48,-2.32
18.4890,0.09,0.13,-0.99,3.48,3.36,-1.22
18.5040,0.09,0.12,-0.99,3.42,3.23,-0.49
18.5090,0.08,0.11,-0.99,3.17,3.36,0.00
18.5250,0.08,0.10,-0.99,3.48,2.93,-0.55
18.5410,0.08,0.11,-0.99,3.48,3.48,-2.08
18.5620,0.08,0.11,-0.99,3.48,3.23,-1.34
18.5790,0.09,0.12,-0.99,3.48,3.17,-0.67
18.5960,0.09,0.12,-0.99,3.42,3.42,-0.43
18.6130,0.08,0.12,-0.99,3.36,3.30,-0.06
18.6140,0.08,0.11,-0.99,3.30,3.30,0.37
18.6440,0.08,0.09,-0.99,3.42,3.54,0.18
18.6470,0.08,0.08,-1.00,3.78,3.66,-2.20
18.6750,0.08,0.12,-0.99,3.66,3.78,-3.72
18.6900,0.09,0.13,-0.99,3.36,3.72,-2.08
18.7070,0.09,0.13,-0.99,3.42,3.48,-1.22
18.7230,0.09,0.12,-0.99,3.30,3.36,0.55
18.7290,0.08,0.11,-0.99,3.36,3.54,0.43
18.7450,0.08,0.09,-0.99,3.36,3.48,-0.73
18.7680,0.08,0.11,-1.00,3.66,3.54,-2.75
18.7850,0.08,0.11,-0.99,3.60,3.42,-2.38
18.8000,0.08,0.11,-0.99,3.60,3.54,-1.46
18.8160,0.08,0.11,-0.99,3.78,3.36,-1.89
18.8310,0.08,0.11,-0.99,3.60,3.54,-2.26
18.8350,0.08,0.10,-0.99,3.66,3.91,-3.05
18.8510,0.09,0.12,-0.99,3.42,3.78,-2.14
18.8750,0.08,0.12,-0.99,3.42,3.42,-0.49
18.8930,0.09,0.12,-0.99,3.30,3.23,0.31
18.9070,0.08,0.10,-0.99,3.42,3.36,0.18
18.9240,0.08,0.09,-0.99,3.54,3.72,-1.53
18.9400,0.08,0.10,-0.99,3.60,4.15,-3.36
18.9550,0.09,0.12,-0.99,3.78,3.54,-3.60
18.9700,0.09,0.13,-0.99,3.60,3.66,-1.89
18.9860,0.08,0.12,-0.99,3.54,3.42,-0.31
19.0020,0.08,0.11,-0.99,3.42,3.30,-0.12
19.0170,0.08,0.10,-0.99,3.66,3.11,-0.73
19.0240,0.08,0.10,-0.99,3.78,3.48,-2.93
19.0400,0.08,0.10,-0.99,3.85,3.60,-2.99
19.0630,0.08,0.10,-0.99,3.60,3.97,-3.36
19.0790,0.09,0.11,-0.99,3.85,3.91,-4.27
19.0950,0.08,0.12,-0.99,3.97,4.09,-4.46
19.1120,0.08,0.13,-0.99,3.60,3.60,-3.23
19.1280,0.09,0.14,-0.99,3.54,3.05,-0.06
19.1440,0.09,0.12,-0.99,3.30,3.17,0.79
19.1590,0.08,0.11,-0.99,3.30,3.30,1.53
19.1750,0.08,0.10,-0.99,3.42,3.48,0.55
19.1790,0.08,0.07,-1.00,3.85,3.66,-1.65
19.1950,0.08,0.10,-1.00,3.97,4.21,-4.88
19.2190,0.09,0.13,-0.98,3.97,4.21,-4.15
19.2350,0.09,0.13,-0.99,3.72,3.72,-2.69
19.2510,0.09,0.13,-0.99,3.48,3.48,-1.46
19.2670,0.08,0.11,-0.99,3.30,3.60,-0.79
19.2830,0.08,0.09,-0.99,3.54,3.60,-1.53
19.2980,0.08,0.09,-0.99,3.78,3.66,-3.11
19.3140,0.08,0.08,-0.99,3.85,3.91,-4.64
19.3300,0.09,0.09,-0.99,4.03,4.21,-6.41
19.3460,0.09,0.11,-0.99,4.33,4.64,-7.02
19.3610,0.07,0.16,-0.98,3.72,4.09,-5.74
19.3760,0.09,0.14,-0.99,3.48,3.48,-1.10
19.3910,0.09,0.11,-0.99,3.23,3.36,0.55
19.4020,0.08,0.09,-0.99,3.23,3.11,0.00
19.4180,0.08,0.08,-0.99,3.42,3.72,-1.28
19.4350,0.08,0.10,-0.99,3.66,3.78,-4.21
19.4520,0.08,0.12,-0.99,3.97,3.97,-3.54
19.4680,0.09,0.12,-0.99,3.36,3.48,-1.77
19.4840,0.09,0.12,-0.99,3.42,3.48,-1.46
19.5010,0.08,0.10,-0.99,3.54,3.54,-1.16
19.5160,0.08,0.09,-0.99,3.60,3.85,-2.62
19.5310,0.07,0.09,-1.00,3.78,4.52,-4.58
19.5470,0.07,0.08,-0.99,4.03,4.33,-5.92
19.5630,0.10,0.09,-0.99,4.58,4.70,-8.67
19.5780,0.08,0.16,-0.98,3.97,4.76,-8.06
19.5850,0.09,0.15,-0.98,3.60,3.60,-2.44
19.6010,0.09,0.13,-0.99,3.42,3.66,-0.85
19.6240,0.08,0.10,-0.99,3.48,3.36,-0.43
19.6420,0.08,0.09,-0.99,3.72,3.66,-1.34
19.6570,0.08,0.12,-0.99,3.78,3.60,-3.05
19.6730,0.08,0.10,-0.99,3.91,3.42,-3.66
19.6900,0.09,0.11,-0.99,3.97,3.66,-4.03
19.6900,0.08,0.12,-0.99,3.91,3.42,-3.78
19.7190,0.08,0.13,-0.99,3.48,3.42,-2.26
19.7240,0.08,0.11,-0.99,3.48,3.42,-0.24
19.7390,0.08,0.10,-0.99,3.48,3.54,-0.92
19.7570,0.08,0.10,-0.99,3.42,3.60,-2.08
19.7730,0.08,0.10,-0.99,3.85,4.15,-3.48
19.7910,0.08,0.10,-0.99,3.85,4.15,-3.85
19.8070,0.08,0.09,-0.99,3.85,3.97,-4.64
19.8240,0.08,0.08,-1.00,4.21,4.21,-6.47
19.8400,0.08,0.10,-0.99,4.33,4.03,-8.00
19.8560,0.08,0.13,-0.99,4.15,4.09,-7.39
19.8720,0.09,0.14,-0.98,3.72,4.03,-4.94
19.8740,0.09,0.13,-0.99,3.54,3.66,-1.83
19.8890,0.08,0.10,-0.99,3.48,3.30,-0.55
19.9070,0.08,0.09,-0.99,3.66,3.85,-2.75
19.9230,0.07,0.09,-0.99,3.78,4.03,-4.76
19.9400,0.08,0.10,-0.99,4.03,4.27,-6.04
19.9580,0.09,0.11,-0.99,4.09,4.15,-5.62
19.9740,0.08,0.13,-0.99,4.27,4.27,-5.92
19.9900,0.08,0.13,-0.99,3.66,3.91,-3.30
20.0070,0.09,0.12,-0.99,3.42,3.30,-1.71
20.0230,0.08,0.09,-0.99,3.54,3.72,-1.59
20.0400,0.07,0.10,-0.99,3.78,3.72,-4.70
20.0560,0.08,0.13,-0.99,3.97,4.09,-4.76
20.0790,0.09,0.13,-0.98,3.85,3.91,-2.01
20.0940,0.09,0.13,-0.99,3.36,3.66,-1.04
20.0950,0.08,0.11,-0.99,3.30,3.05,0.06
20.1270,0.07,0.09,-0.99,3.60,3.91,-1.22
20.1430,0.08,0.10,-0.99,3.78,4.09,-2.50
20.1450,0.08,0.12,-0.99,3.66,3.78,-2.44
20.1740,0.09,0.13,-0.99,3.60,3.54,-0.92
20.1790,0.08,0.11,-0.99,3.48,3.17,0.49
20.2080,0.08,0.10,-0.99,3.30,3.36,0.98
20.2240,0.08,0.10,-0.99,3.42,3.54,-0.12
20.2280,0.08,0.10,-0.99,3.23,3.36,-1.22
20.2430,0.08,0.09,-0.99,3.60,3.60,-2.69
20.2700,0.08,0.10,-0.99,3.78,3.91,-3.97
20.2820,0.09,0.12,-0.99,4.03,4.15,-5.31
20.2980,0.09,0.10,-0.99,3.97,4.09,-3.91
20.3150,0.06,0.12,-0.99,4.03,4.27,-6.35
20.3310,0.08,0.11,-0.99,3.72,4.21,-3.36
20.3470,0.08,0.13,-0.99,3.60,3.85,-2.81
20.3630,0.08,0.14,-0.99,3.36,3.48,-1.16
20.3740,0.08,0.11,-0.99,3.30,3.42,1.28
20.3810,0.08,0.11,-0.99,3.23,3.23,1.65
20.4050,0.08,0.11,-0.99,3.11,3.17,0.73
20.4210,0.09,0.10,-0.99,3.54,3.11,-0.49
20.4370,0.08,0.10,-0.99,3.66,3.54,-1.46
20.4540,0.08,0.11,-0.99,3.48,3.48,-0.55
20.4700,0.08,0.11,-0.99,3.42,3.30,0.24
20.4860,0.09,0.10,-0.99,3.42,3.66,0.18
20.5020,0.08,0.10,-0.99,3.78,3.60,-2.44
20.5190,0.08,0.11,-0.99,3.78,3.97,-3.11
20.5350,0.08,0.12,-0.99,3.42,3.78,-1.95
20.5380,0.09,0.10,-0.99,3.60,3.48,-1.65
20.5530,0.09,0.09,-0.99,3.85,4.15,-4.27
20.5760,0.09,0.06,-0.99,4.15,4.58,-6.90
20.5930,0.03,0.11,-1.00,4.94,5.80,-15.08
20.6100,0.07,0.16,-0.98,3.54,4.46,-6.23
20.6260,0.10,0.17,-0.98,3.42,3.66,-2.32
20.6420,0.09,0.14,-0.98,3.30,3.42,0.31
20.6580,0.08,0.11,-0.99,3.30,3.54,0.73
20.6740,0.08,0.10,-0.99,3.48,3.60,-0.06
20.6890,0.08,0.10,-1.00,3.54,3.42,-1.16
20.6920,0.08,0.11,-0.99,3.42,3.36,-2.26
20.7080,0.08,0.12,-0.99,3.54,3.48,-1.65
20.7330,0.08,0.11,-0.99,3.42,3.78,-0.85
20.7500,0.08,0.10,-0.99,3.60,3.72,-1.53
20.7660,0.08,0.09,-0.99,3.91,3.97,-3.54
20.7830,0.08,0.09,-0.99,3.97,3.91,-5.31
20.7990,0.08,0.10,-0.99,4.09,4.46,-6.04
20.8150,0.07,0.13,-0.99,4.03,4.21,-5.37
20.8310,0.08,0.13,-0.99,3.60,4.03,-3.30
20.8470,0.09,0.11,-0.99,3.78,3.91,-3.23
20.8490,0.08,0.10,-0.99,3.78,4.03,-3.78
20.8740,0.08,0.09,-0.99,3.91,4.15,-4.52
20.8930,0.09,0.06,-1.00,4.58,4.27,-5.92
20.9040,0.34,-0.04,-0.98,4.09,4.58,-6.53
20.9210,0.00,0.03,-1.01,4.82,6.16,-17.58
20.9370,0.11,0.12,-0.99,3.97,4.39,-6.47
20.9550,0.02,0.22,-0.99,4.03,5.13,-10.86
20.9700,0.01,0.26,-0.97,3.23,3.85,-2.50
20.9860,0.02,0.24,-0.98,3.05,3.17,1.71
21.0020,0.07,0.11,-0.99,3.11,2.87,2.81
21.0170,0.08,0.10,-0.99,3.23,3.17,2.26
21.0320,0.07,0.10,-0.99,3.17,3.48,1.04
21.0470,0.08,0.10,-0.99,3.36,3.60,0.24
21.0630,0.08,0.10,-0.99,3.42,3.54,1.04
21.0780,0.08,0.12,-0.99,3.54,2.99,1.59
21.0930,0.09,0.12,-0.99,3.11,2.69,2.69
21.1040,0.09,0.12,-0.99,3.23,2.99,2.75
21.1200,0.08,0.11,-0.99,3.11,3.11,2.20
21.1370,0.08,0.11,-0.99,3.23,2.93,2.01
21.1540,0.07,0.10,-0.99,3.36,3.11,1.65
21.1700,0.07,0.10,-0.99,3.72,3.17,1.10
21.1860,0.07,0.10,-0.99,3.42,3.05,0.85
21.2020,0.06,0.10,-0.99,3.30,3.42,0.92
21.2180,0.07,0.10,-0.99,3.30,2.87,0.61
21.2340,0.06,0.11,-0.99,3.30,3.05,0.49
21.2500,0.09,0.13,-0.98,3.17,3.48,-0.06
21.2540,0.11,0.13,-0.99,3.36,3.23,0.98
21.2740,0.09,0.11,-0.99,3.36,2.99,2.38
21.2940,0.08,0.11,-0.99,3.36,3.11,2.26
21.3100,0.06,0.11,-0.99,3.23,3.30,1.83
21.3280,0.07,0.11,-0.99,3.30,3.30,0.85
21.3440,0.10,0.11,-0.99,3.60,3.42,0.67
21.3600,0.10,0.11,-0.99,3.42,2.99,1.22
21.3740,0.08,0.11,-0.99,2.93,3.05,2.50
21.3920,0.09,0.10,-0.99,3.11,2.75,2.93
21.3950,0.08,0.11,-0.99,3.54,3.05,2.20
21.4240,0.07,0.11,-0.99,3.60,3.66,0.92
21.4280,0.08,0.11,-0.99,3.36,3.54,-0.18
21.4450,0.09,0.11,-0.99,3.17,3.48,-0.24
21.4600,0.09,0.11,-0.99,3.30,3.05,0.55
21.4830,0.08,0.11,-0.99,3.11,3.36,1.22
21.5010,0.08,0.11,-0.99,3.23,2.87,0.43
21.5170,0.08,0.11,-0.99,3.36,3.11,-0.31
21.5330,0.08,0.11,-0.99,3.42,3.23,-0.61
21.5500,0.08,0.12,-0.99,3.30,3.11,0.24
21.5650,0.08,0.11,-0.99,2.81,3.11,1.77
21.5800,0.08,0.11,-0.99,2.81,3.17,1.95
21.5960,0.08,0.11,-0.99,3.17,2.87,1.83
21.6120,0.08,0.11,-0.99,2.99,2.69,1.89
21.6270,0.08,0.12,-0.99,2.75,3.36,2.14
21.6430,0.08,0.11,-0.99,3.11,3.23,1.53
21.6580,0.07,0.10,-0.99,3.42,3.42,1.53
21.6660,0.06,0.12,-1.01,4.82,2.99,1.83
21.6820,0.10,0.12,-0.97,4.15,3.05,0.85
21.7040,0.07,0.13,-0.99,3.30,3.54,-0.18
21.7060,0.07,0.12,-0.99,3.48,3.36,-0.37
21.7230,0.07,0.08,-0.99,3.85,3.48,0.24
21.7400,0.10,0.09,-0.99,3.48,2.99,3.60
21.7570,0.08,0.11,-0.99,3.72,3.05,2.75
21.7750,0.08,0.11,-0.99,3.36,2.93,2.26
21.7890,0.08,0.11,-0.99,3.30,2.87,2.38
21.8060,0.08,0.11,-0.99,3.23,2.87,2.50
21.8220,0.08,0.11,-0.99,3.11,3.05,2.44
21.8390,0.08,0.11,-0.99,3.05,3.30,2.44
21.8570,0.08,0.11,-0.99,3.17,2.69,2.14
21.8730,0.08,0.11,-0.99,3.17,3.48,2.01
21.8890,0.08,0.11,-0.99,3.23,3.36,2.14
21.8910,0.08,0.11,-0.99,3.17,3.05,2.26
21.9060,0.08,0.11,-0.99,3.23,2.93,2.20
21.9240,0.08,0.11,-0.99,3.17,2.93,2.20
21.9400,0.08,0.11,-0.99,3.17,2.62,2.14
21.9690,0.08,0.11,-0.99,3.54,2.81,2.08
21.9840,0.08,0.11,-0.99,3.30,2.99,2.01
21.9990,0.08,0.11,-0.99,3.23,2.99,2.08
22.0100,0.08,0.11,-0.99,3.23,2.99,2.08
22.0260,0.08,0.11,-0.99,3.05,3.23,2.14
22.0430,0.08,0.11,-0.99,3.23,2.62,2.08
22.0590,0.08,0.11,-0.99,3.23,3.23,2.26
22.0760,0.08,0.11,-0.99,3.23,2.87,1.95
22.0920,0.08,0.11,-0.99,3.23,3.36,2.14
22.1080,0.08,0.11,-0.99,3.11,3.11,2.01
22.1240,0.08,0.11,-0.99,3.30,2.99,2.14
22.1400,0.08,0.11,-0.99,3.17,2.44,2.08
22.1430,0.08,0.11,-0.99,3.23,2.93,1.95
22.1580,0.08,0.11,-0.99,3.30,3.05,2.14
22.1870,0.08,0.11,-0.99,3.36,3.11,2.08
22.1980,0.08,0.11,-0.99,3.11,2.93,2.14
22.2140,0.08,0.11,-0.99,3.30,2.81,1.95
22.2310,0.08,0.11,-0.99,3.17,2.99,2.14
22.2470,0.08,0.11,-0.99,3.05,3.05,2.01
22.2630,0.08,0.11,-0.99,3.36,2.99,2.20
22.2760,0.08,0.11,-0.99,3.30,3.36,2.08
22.2800,0.08,0.11,-0.99,3.30,3.23,2.08
22.3040,0.08,0.11,-0.99,3.23,3.17,2.08
22.3200,0.08,0.11,-0.99,3.36,2.99,2.01
22.3370,0.08,0.11,-0.99,3.17,3.23,2.08
22.3530,0.08,0.11,-0.99,3.11,3.42,2.08
22.3700,0.08,0.11,-0.99,3.23,3.11,1.95
22.3870,0.08,0.11,-0.99,3.23,3.23,1.95
22.4030,0.08,0.11,-0.99,2.99,3.05,2.01
22.4200,0.08,0.11,-0.99,3.17,3.30,2.08
22.4210,0.08,0.11,-0.99,3.05,2.93,2.08
22.4520,0.08,0.11,-0.99,3.17,3.17,1.89
22.4690,0.08,0.11,-0.99,3.11,3.23,2.08
22.4840,0.08,0.11,-0.99,3.11,3.05,2.14
22.5000,0.08,0.11,-0.99,3.11,3.17,2.01
22.5160,0.08,0.11,-0.99,3.11,3.23,1.89
22.5310,0.08,0.11,-0.99,3.30,2.81,1.95
22.5460,0.08,0.11,-0.99,3.60,3.11,2.20
22.5600,0.08,0.11,-0.99,3.30,2.56,1.95
22.5700,0.08,0.11,-0.99,3.23,3.23,2.08
22.5850,0.08,0.11,-0.99,3.17,3.11,2.01
22.6070,0.08,0.11,-0.99,3.36,2.75,1.95
22.6220,0.08,0.11,-0.99,3.54,2.62,1.89
22.6260,0.08,0.11,-0.99,3.05,2.93,1.89
22.6420,0.08,0.11,-0.99,3.17,2.75,2.01
22.6650,0.08,0.11,-0.99,3.30,2.81,2.01
22.6810,0.08,0.11,-0.99,3.23,3.17,1.95
22.6980,0.08,0.11,-0.99,3.54,3.23,2.14
22.7150,0.08,0.11,-0.99,3.30,3.05,2.01
22.7300,0.08,0.11,-0.99,3.17,3.05,1.89
22.7450,0.08,0.11,-0.99,3.17,2.93,1.89
22.7480,0.08,0.11,-0.99,2.87,2.81,1.89
22.7640,0.08,0.12,-1.00,3.36,2.93,1.95
22.7880,0.08,0.12,-1.01,2.69,3.05,1.89
22.8050,0.08,0.11,-0.99,2.87,3.11,2.01
22.8210,0.08,0.11,-0.99,3.05,3.05,2.08
22.8370,0.08,0.11,-0.99,3.11,2.99,2.01
22.8550,0.08,0.11,-0.99,3.17,3.23,2.14
22.8700,0.08,0.11,-0.99,3.17,3.05,2.01
22.8860,0.08,0.11,-0.99,3.11,3.30,2.14
22.9020,0.08,0.11,-0.99,3.23,3.36,1.95
22.9180,0.08,0.11,-0.99,3.11,3.05,2.01
22.9210,0.08,0.11,-0.99,3.30,3.17,2.08
22.9370,0.08,0.11,-0.99,3.30,2.81,2.01
22.9610,0.08,0.11,-0.99,3.36,2.75,1.83
22.9770,0.08,0.11,-0.99,3.48,2.69,1.95
22.9940,0.08,0.11,-0.99,3.17,3.05,2.14
23.0100,0.08,0.11,-0.99,3.36,3.05,1.95
23.0110,0.08,0.11,-0.99,3.23,2.81,1.83
23.0270,0.08,0.11,-0.99,3.30,2.69,1.95
23.0580,0.08,0.11,-0.99,3.23,2.93,1.95
23.0740,0.08,0.11,-0.99,3.17,3.05,2.14
23.0780,0.08,0.11,-0.99,3.23,2.87,1.95
23.0930,0.08,0.11,-0.99,3.23,3.11,1.89
23.1090,0.08,0.11,-0.99,3.17,3.17,2.08
23.1320,0.08,0.11,-0.99,3.17,3.36,1.83
23.1490,0.08,0.11,-0.99,3.23,2.81,2.08
23.1650,0.08,0.11,-0.99,3.17,3.11,2.14
23.1820,0.08,0.11,-0.99,3.23,3.36,2.08
23.1980,0.08,0.11,-0.99,3.30,2.99,1.95
23.2140,0.08,0.11,-0.99,3.30,3.11,1.95
23.2290,0.08,0.11,-0.99,3.11,3.30,1.95
23.2450,0.08,0.11,-0.99,3.36,3.05,1.89
23.2490,0.08,0.11,-0.99,3.36,3.05,2.08
23.2650,0.08,0.11,-0.99,3.17,3.11,1.95
23.2890,0.08,0.11,-0.99,3.30,3.30,2.08
23.3070,0.08,0.11,-0.99,3.23,2.93,1.95
23.3230,0.08,0.11,-0.99,3.30,3.05,2.08
23.3390,0.08,0.11,-0.99,3.17,3.17,1.89
23.3410,0.08,0.11,-0.99,3.23,2.93,2.08
23.3560,0.08,0.11,-0.99,3.30,2.87,1.95
23.3780,0.08,0.11,-0.99,3.36,3.11,2.01
23.3900,0.08,0.11,-0.99,3.23,3.05,1.95
23.4060,0.08,0.11,-0.99,3.23,2.93,1.95
23.4290,0.08,0.11,-0.99,3.42,2.87,1.89
23.4460,0.08,0.11,-0.99,3.36,2.99,1.89
23.4620,0.08,0.11,-0.99,3.05,2.99,1.89
23.4780,0.08,0.11,-0.99,3.17,2.87,1.95
23.4860,0.08,0.11,-0.99,3.17,2.99,1.95
23.5090,0.08,0.11,-0.99,3.17,3.17,2.01
23.5190,0.08,0.11,-0.99,3.23,2.99,1.95
23.5360,0.08,0.11,-0.99,3.17,2.93,1.95
23.5520,0.08,0.11,-0.99,3.23,3.17,1.95
23.5690,0.08,0.11,-0.99,3.23,2.99,1.95
23.5860,0.08,0.11,-0.99,3.30,2.87,2.01
23.6020,0.08,0.11,-0.99,3.11,2.81,2.01
23.6180,0.08,0.11,-0.99,3.17,2.99,1.95
23.6340,0.08,0.11,-0.99,3.36,2.93,2.14
23.6500,0.08,0.11,-0.99,3.36,2.93,1.89
23.6660,0.08,0.11,-0.99,3.36,2.93,1.95
23.6790,0.08,0.11,-0.99,3.36,2.75,2.08
23.6850,0.08,0.11,-0.99,3.05,2.69,1.89
23.7070,0.08,0.11,-0.99,2.87,3.05,1.95
23.7240,0.08,0.11,-0.99,3.42,2.62,2.14
23.7420,0.08,0.11,-0.99,3.30,2.87,2.01
23.7580,0.07,0.12,-0.99,3.17,2.87,2.26
23.7730,0.08,0.11,-0.99,2.75,2.50,5.55
23.7900,0.08,0.10,-0.99,2.87,2.75,6.53
23.8060,0.08,0.11,-0.99,3.11,2.69,3.48
23.8220,0.08,0.11,-0.99,3.17,3.11,2.14
23.8240,0.08,0.11,-0.99,3.30,3.11,1.89
23.8540,0.08,0.11,-0.99,3.23,3.11,1.89
23.8690,0.08,0.11,-0.99,3.36,3.11,1.77
23.8830,0.07,0.10,-0.99,3.66,3.11,2.01
23.8940,0.07,0.10,-0.99,2.99,2.81,5.07
23.9110,0.09,0.13,-0.99,2.99,2.50,5.00
23.9260,0.08,0.11,-0.99,3.05,2.38,4.21
23.9420,0.07,0.10,-0.99,3.11,2.75,3.85
23.9500,0.07,0.11,-0.99,3.05,2.62,4.82
23.9680,0.07,0.12,-0.99,2.93,2.20,5.31
23.9840,0.09,0.12,-0.99,2.93,2.20,5.31
24.0000,0.09,0.12,-0.99,3.23,2.20,4.52
24.0210,0.09,0.12,-0.99,3.17,2.93,3.72
24.0370,0.08,0.11,-0.99,3.30,2.87,3.05
24.0530,0.09,0.11,-0.99,3.23,2.75,2.99
24.0700,0.08,0.11,-0.99,2.99,3.11,2.99
24.0790,0.08,0.10,-0.99,3.05,3.05,2.87
24.0890,0.08,0.11,-0.99,3.11,2.99,2.62
24.1140,0.09,0.13,-0.99,3.11,3.11,2.44
24.1300,0.08,0.11,-0.99,3.17,2.75,2.20
24.1320,0.08,0.11,-0.99,3.05,2.75,2.01
24.1470,0.07,0.11,-0.99,3.23,2.93,2.93
24.1720,0.08,0.11,-0.99,3.23,2.93,3.23
24.1900,0.08,0.11,-0.99,3.23,2.81,3.11
24.2050,0.08,0.11,-0.99,3.36,2.99,2.93
24.2220,0.08,0.11,-0.99,3.11,3.11,2.44
24.2230,0.08,0.11,-0.99,2.93,3.05,2.62
24.2390,0.08,0.12,-0.99,3.17,3.17,2.81
24.2570,0.10,0.12,-0.99,2.99,2.87,2.56
24.2800,0.09,0.11,-0.99,2.99,3.23,2.08
24.2880,0.08,0.11,-0.99,2.87,3.11,1.71
24.3120,0.08,0.11,-0.99,2.87,3.11,1.77
24.3280,0.08,0.11,-0.99,3.23,2.87,1.89
24.3430,0.08,0.11,-0.99,3.11,3.23,1.95
24.3630,0.08,0.11,-0.99,3.23,3.23,1.95
24.3780,0.08,0.11,-0.99,3.17,2.81,2.01
24.3830,0.08,0.11,-0.99,2.93,2.75,2.14
24.3980,0.08,0.11,-0.99,3.23,2.87,1.89
24.4200,0.08,0.11,-0.99,3.48,2.69,1.77
24.4360,0.08,0.11,-0.99,3.17,3.11,1.95
24.4530,0.08,0.11,-0.99,3.11,2.93,1.83
24.4700,0.08,0.11,-0.99,2.99,2.81,1.89
24.4870,0.08,0.11,-0.99,3.17,2.99,1.83
24.5030,0.05,0.10,-0.99,3.30,2.87,2.26
24.5190,0.07,0.11,-0.99,3.23,2.99,2.50
24.5350,0.10,0.12,-0.99,3.05,2.93,2.01
24.5510,0.09,0.11,-0.99,2.93,2.62,2.01
24.5670,0.08,0.11,-0.99,2.93,2.93,2.01
24.5820,0.08,0.11,-0.99,2.99,3.23,1.95
24.5980,0.08,0.12,-1.01,3.78,3.11,2.20
24.6130,0.08,0.11,-0.99,3.60,3.30,2.01
24.6280,0.08,0.11,-0.99,3.23,3.11,2.14
24.6370,0.08,0.11,-0.99,3.11,2.69,1.95
24.6530,0.08,0.11,-0.99,3.17,3.17,2.01
24.6690,0.08,0.11,-0.99,3.23,2.99,2.14
24.6870,0.08,0.11,-0.99,3.30,2.87,1.95
24.7030,0.08,0.11,-0.99,3.30,3.05,2.14
24.7190,0.08,0.11,-0.99,3.17,2.81,1.95
24.7350,0.08,0.11,-0.99,3.11,2.50,1.95
24.7510,0.08,0.11,-0.99,3.23,3.17,2.01
24.7530,0.08,0.11,-0.99,3.11,3.23,1.89
24.7800,0.08,0.11,-0.99,3.30,3.11,1.95
24.7950,0.08,0.11,-0.99,3.11,3.05,1.83
24.8110,0.08,0.11,-0.99,3.30,2.99,1.95
24.8280,0.08,0.11,-0.99,3.23,3.17,2.14
24.8440,0.08,0.11,-0.99,3.30,3.17,1.89
24.8590,0.08,0.11,-0.99,3.11,3.17,1.95
24.8750,0.08,0.11,-0.99,3.23,2.62,1.83
24.8910,0.08,0.11,-0.99,3.11,2.93,1.89
24.9070,0.08,0.11,-0.99,3.30,3.05,2.01
24.9130,0.08,0.11,-0.99,3.23,2.81,1.95
24.9380,0.08,0.11,-0.99,3.05,2.81,2.08
24.9540,0.08,0.11,-0.99,3.30,2.81,1.95
24.9690,0.08,0.11,-0.99,3.23,2.81,2.08
24.9800,0.08,0.11,-0.99,3.11,3.11,1.95
24.9950,0.08,0.11,-0.99,3.23,2.99,2.01
25.0130,0.08,0.11,-0.99,3.36,2.75,1.95
25.0280,0.08,0.11,-0.99,3.30,3.05,1.89
25.0450,0.08,0.11,-0.99,3.23,2.81,2.01
25.0600,0.08,0.11,-0.99,3.17,3.05,2.08
25.0770,0.08,0.11,-0.99,3.30,2.99,1.95
25.0920,0.08,0.11,-0.99,3.30,2.99,1.89
25.1080,0.08,0.11,-0.99,3.30,2.99,1.95
25.1250,0.08,0.11,-0.99,3.42,2.93,2.08
25.1300,0.08,0.11,-0.99,3.42,3.17,1.89
25.1450,0.08,0.11,-0.99,3.23,3.05,1.95
25.1610,0.08,0.11,-0.99,3.23,2.99,2.08
25.1850,0.08,0.11,-0.99,3.36,3.11,2.01
25.2020,0.08,0.11,-0.99,3.36,2.81,1.95
25.2030,0.08,0.11,-0.99,3.23,2.93,1.95
25.2340,0.08,0.11,-0.99,3.30,3.23,2.01
25.2500,0.08,0.11,-0.99,3.36,3.11,2.01
25.2650,0.08,0.11,-0.99,3.17,2.93,1.83
25.2800,0.08,0.11,-0.99,2.99,3.17,2.08
25.2950,0.08,0.11,-0.99,3.30,3.05,2.08
25.3110,0.08,0.11,-0.99,3.23,3.11,2.08
25.3190,0.08,0.11,-0.99,3.17,2.93,2.01
25.3340,0.08,0.11,-0.99,3.36,3.05,2.08
25.3580,0.08,0.11,-0.99,3.36,2.99,2.08
25.3740,0.08,0.11,-0.99,3.23,2.62,1.89
25.3910,0.08,0.11,-0.99,3.30,2.99,1.83
25.3920,0.08,0.11,-0.99,3.23,3.17,1.95
25.4230,0.08,0.11,-0.99,3.23,2.93,2.01
25.4390,0.08,0.11,-0.99,3.23,3.23,1.83
25.4550,0.09,0.11,-0.97,3.36,3.17,2.01
25.4700,0.06,0.13,-1.07,3.30,3.11,2.14
25.4810,0.08,0.11,-1.00,3.11,2.50,1.89
25.4910,0.08,0.11,-1.00,3.23,2.87,1.95
25.5150,0.08,0.11,-0.99,3.17,3.11,1.95
25.5320,0.08,0.11,-0.99,3.05,3.23,1.89
25.5470,0.08,0.11,-0.99,3.17,3.17,1.89
25.5630,0.08,0.11,-0.99,3.23,3.48,2.08
25.5790,0.08,0.11,-0.99,3.23,3.54,2.08
25.5820,0.08,0.11,-0.99,3.17,3.05,2.01
25.5980,0.08,0.11,-0.99,3.11,2.93,1.95
25.6220,0.08,0.11,-0.99,3.11,3.17,2.08
25.6390,0.08,0.11,-0.99,3.23,2.75,2.01
25.6560,0.08,0.11,-0.99,3.30,2.69,1.95
25.6730,0.08,0.11,-0.99,3.23,3.11,1.95
25.6810,0.08,0.11,-0.99,3.30,2.81,1.95
25.6900,0.08,0.11,-0.99,3.11,2.93,1.95
25.7050,0.08,0.11,-0.99,3.36,3.23,2.20
25.7220,0.08,0.11,-0.99,3.11,2.87,2.01
25.7500,0.08,0.11,-0.99,3.17,2.93,2.01
25.7560,0.08,0.11,-0.99,3.11,3.36,1.95
25.7730,0.08,0.11,-0.99,3.30,3.11,1.95
25.7890,0.08,0.11,-0.99,3.17,2.99,1.95
25.8070,0.08,0.11,-0.99,3.17,3.42,2.08
25.8220,0.08,0.11,-0.99,3.17,3.17,2.01
25.8400,0.08,0.11,-0.99,3.17,3.05,1.89
25.8560,0.08,0.11,-0.99,3.17,3.23,2.08
25.8730,0.08,0.11,-0.99,3.30,3.05,1.95
25.8880,0.08,0.11,-0.99,3.36,3.05,2.01
25.9050,0.08,0.11,-0.99,3.42,2.62,2.01
25.9060,0.08,0.11,-0.99,3.05,3.11,2.14
25.9220,0.08,0.11,-0.99,3.36,3.17,1.83
25.9390,0.08,0.11,-0.99,3.11,3.30,2.08
25.9550,0.08,0.11,-0.99,3.17,3.42,2.08
25.9820,0.08,0.11,-0.99,3.17,3.23,2.14
26.0000,0.08,0.11,-0.99,3.23,3.54,2.01
26.0080,0.08,0.11,-0.99,3.11,3.30,1.89
26.0250,0.08,0.11,-0.99,3.17,3.60,2.14
26.0420,0.08,0.11,-0.99,3.23,3.36,2.20
26.0580,0.08,0.11,-0.99,3.23,3.17,2.08
26.0750,0.08,0.11,-0.99,3.17,2.87,1.83
26.0910,0.08,0.11,-0.99,3.11,3.30,2.01
26.1070,0.08,0.11,-0.99,3.23,3.23,1.95
26.1090,0.08,0.11,-0.99,3.11,3.30,2.01
26.1390,0.08,0.11,-0.99,3.17,3.17,1.83
26.1550,0.08,0.11,-0.99,3.30,3.23,2.01
26.1580,0.08,0.11,-0.99,3.05,3.30,2.01
26.1820,0.08,0.11,-0.99,3.42,3.05,2.01
26.1970,0.08,0.11,-0.99,3.36,3.05,2.01
26.2150,0.08,0.11,-0.99,3.30,3.05,2.14
26.2300,0.08,0.11,-0.99,3.36,3.30,2.08
26.2460,0.08,0.11,-0.99,3.30,3.05,2.01
26.2620,0.08,0.11,-0.99,3.23,3.05,2.01
26.2640,0.08,0.11,-0.99,3.23,2.87,2.08
26.2820,0.08,0.11,-0.99,3.11,3.17,2.01
26.3050,0.08,0.11,-0.99,3.23,2.93,2.14
26.3210,0.08,0.11,-0.99,3.17,3.11,2.08
26.3370,0.08,0.11,-0.99,3.30,3.54,2.08
26.3540,0.08,0.11,-0.99,3.23,3.23,2.14
26.3700,0.08,0.11,-0.99,3.11,3.23,1.95
26.3870,0.08,0.11,-0.99,3.17,3.36,1.95
26.4040,0.08,0.11,-0.99,3.30,3.36,2.08
26.4200,0.08,0.11,-0.99,3.36,2.93,1.89
26.4360,0.08,0.11,-0.99,3.23,3.17,1.95
26.4520,0.08,0.11,-0.99,3.23,3.30,1.89
26.4680,0.08,0.11,-0.99,3.30,2.93,2.08
26.4840,0.08,0.11,-0.99,3.11,2.99,2.08
26.5010,0.08,0.11,-0.99,3.23,3.36,1.95
26.5160,0.08,0.11,-0.99,3.30,2.38,1.95
26.5210,0.08,0.11,-0.99,3.23,3.30,2.08
26.5370,0.08,0.11,-0.99,3.17,2.81,1.95
26.5590,0.08,0.11,-0.99,3.17,2.87,2.08
26.5760,0.08,0.11,-0.99,3.23,2.99,1.89
26.5920,0.08,0.11,-0.99,3.17,2.93,2.08
26.6080,0.08,0.11,-0.99,3.30,2.75,1.83
26.6250,0.08,0.11,-0.99,3.11,2.93,1.95
26.6410,0.08,0.11,-0.99,3.11,3.11,2.08
26.6570,0.08,0.11,-0.99,3.05,2.93,1.95
26.6730,0.08,0.11,-0.99,2.93,3.17,2.01
26.6830,0.08,0.11,-0.99,3.17,2.93,2.01
26.6910,0.08,0.11,-0.99,3.30,2.93,1.89
26.7150,0.08,0.11,-0.99,3.05,2.81,1.95
26.7320,0.08,0.11,-0.99,3.30,3.11,1.83
26.7480,0.08,0.11,-0.99,3.23,2.99,1.83
26.7630,0.08,0.11,-0.99,3.30,2.69,1.89
26.7790,0.08,0.11,-0.99,3.17,3.23,2.08
26.7830,0.08,0.11,-0.99,3.30,2.75,1.89
26.7970,0.08,0.11,-0.99,3.30,2.81,2.01
26.8190,0.08,0.11,-0.99,3.11,2.99,1.95
26.8360,0.08,0.11,-0.99,2.99,3.23,1.89
26.8520,0.08,0.11,-0.99,3.30,2.81,1.95
26.8690,0.08,0.11,-0.99,3.17,2.93,2.01
26.8860,0.08,0.11,-0.99,3.11,3.42,1.83
26.9010,0.08,0.11,-0.99,3.36,2.87,1.89
26.9170,0.08,0.11,-0.99,3.11,3.05,1.89
26.9320,0.08,0.11,-0.99,2.99,2.81,2.01
26.9370,0.08,0.11,-0.99,3.23,3.30,1.95
26.9520,0.08,0.11,-0.99,3.11,3.60,2.08
26.9780,0.08,0.11,-0.99,3.23,3.23,1.95
26.9940,0.08,0.11,-0.99,3.11,2.99,1.95
27.0100,0.08,0.11,-0.99,3.17,3.05,1.95
27.0270,0.08,0.11,-0.99,3.30,2.93,1.89
27.0430,0.08,0.11,-0.99,3.05,3.17,2.01
27.0440,0.08,0.11,-0.99,3.17,3.30,2.01
27.0750,0.08,0.11,-0.99,3.17,3.05,2.01
27.0900,0.08,0.11,-0.99,3.30,2.87,1.83
27.0940,0.08,0.11,-0.99,3.11,2.99,1.95
27.1230,0.08,0.11,-0.99,3.11,2.99,1.95
27.1280,0.08,0.11,-0.99,3.23,3.36,2.14
27.1430,0.08,0.11,-0.99,3.11,3.17,2.01
27.1600,0.08,0.11,-0.99,3.17,2.93,1.95
27.1830,0.08,0.11,-0.99,3.36,3.11,2.01
27.1980,0.08,0.11,-0.99,3.36,3.05,1.89
27.2140,0.08,0.11,-0.99,3.36,2.93,1.95
27.2320,0.08,0.11,-0.99,3.11,2.99,2.01
27.2480,0.08,0.11,-0.99,3.30,2.93,2.08
27.2630,0.08,0.11,-0.99,3.17,3.05,2.01
27.2790,0.08,0.11,-0.99,3.30,2.93,2.01
27.2950,0.08,0.11,-0.99,3.30,2.69,2.14
27.2980,0.08,0.11,-0.99,2.87,2.93,1.83
27.3140,0.08,0.11,-0.99,2.99,2.93,2.20
27.3390,0.08,0.11,-0.99,2.99,3.48,2.01
27.3550,0.08,0.11,-0.99,3.23,3.36,2.08
27.3710,0.08,0.11,-0.99,3.17,3.42,1.89
27.3870,0.08,0.11,-0.99,3.36,2.62,1.89
27.3890,0.08,0.11,-0.99,3.05,2.93,1.89
27.4050,0.08,0.11,-0.99,3.23,2.87,1.95
27.4340,0.08,0.11,-0.99,3.60,2.99,2.08
27.4380,0.08,0.11,-0.99,3.48,3.23,2.14
27.4540,0.08,0.11,-0.99,3.11,2.93,1.95
27.4790,0.05,0.11,-0.99,3.05,2.81,2.08
27.4950,0.04,0.11,-0.99,2.87,2.75,3.97
27.5110,0.10,0.11,-0.99,2.99,2.69,3.91
27.5130,0.08,0.11,-0.99,3.23,2.81,2.38
27.5290,0.08,0.11,-0.99,3.11,3.05,1.71
27.5530,0.08,0.11,-0.99,3.05,3.05,1.46
27.5690,0.10,0.11,-0.99,3.05,2.93,1.65
27.5850,0.08,0.11,-0.99,3.05,3.05,1.65
27.6010,0.07,0.11,-0.99,3.17,2.87,1.95
27.6170,0.09,0.11,-0.99,3.30,3.11,2.26
27.6330,0.09,0.11,-0.99,3.23,2.69,2.14
27.6480,0.07,0.11,-0.99,3.42,2.87,2.14
27.6640,0.08,0.11,-0.99,3.05,2.75,2.26
27.6790,0.09,0.11,-0.99,2.93,2.87,2.32
27.6940,0.08,0.11,-0.99,3.30,2.87,2.38
27.7090,0.07,0.11,-0.99,3.30,2.93,2.50
27.7190,0.07,0.11,-0.99,3.17,2.75,2.50
27.7340,0.08,0.11,-0.99,3.17,2.56,2.93
27.7550,0.08,0.11,-0.99,3.11,2.50,2.75
27.7570,0.07,0.10,-0.99,3.36,2.50,2.69
27.7860,0.07,0.11,-0.99,2.99,2.87,2.62
27.7900,0.08,0.11,-0.99,3.17,2.93,2.62
27.8170,0.08,0.11,-0.99,3.11,2.50,2.93
27.8220,0.08,0.11,-0.99,2.81,2.99,3.30
27.8500,0.09,0.11,-0.99,3.11,2.87,3.54
27.8560,0.09,0.11,-0.99,3.05,2.93,3.23
27.8720,0.09,0.12,-0.99,2.93,3.42,2.81
27.8900,0.08,0.11,-0.99,2.87,3.11,2.62
27.9050,0.08,0.11,-0.99,2.99,2.99,3.30
27.9210,0.08,0.11,-0.99,2.75,2.87,3.72
27.9410,0.08,0.11,-0.99,2.99,3.05,3.85
27.9440,0.09,0.11,-0.99,2.69,3.11,3.54
27.9590,0.08,0.11,-0.99,2.87,2.69,3.36
27.9870,0.08,0.11,-0.99,2.99,2.62,3.42
27.9940,0.08,0.11,-0.99,2.93,2.32,3.54
28.0170,0.08,0.11,-0.99,2.99,2.81,4.03
28.0260,0.09,0.11,-0.99,3.17,2.93,4.03
28.0430,0.08,0.11,-0.99,3.30,2.87,3.36
28.0590,0.08,0.11,-0.99,2.99,2.62,3.72
28.0790,0.08,0.11,-0.99,2.87,3.05,4.03
28.0950,0.08,0.11,-0.99,2.93,2.75,4.46
28.0980,0.08,0.11,-0.99,2.75,2.08,4.94
28.1250,0.08,0.11,-0.99,2.81,2.75,5.19
28.1410,0.08,0.11,-0.99,2.93,2.50,5.13
28.1570,0.07,0.11,-0.99,2.99,2.75,4.88
28.1730,0.08,0.11,-0.99,2.93,2.75,4.88
28.1890,0.08,0.11,-0.99,3.05,2.38,4.21
28.2040,0.09,0.11,-0.99,3.05,2.75,3.66
28.2190,0.08,0.11,-0.99,3.11,2.81,3.23
28.2300,0.08,0.11,-0.99,2.99,2.99,3.30
28.2460,0.08,0.11,-0.99,3.05,3.11,2.93
28.2630,0.08,0.11,-0.99,2.93,2.69,3.05
28.2780,0.08,0.11,-0.99,3.17,2.56,3.11
28.2950,0.07,0.11,-0.99,3.11,2.69,3.36
28.3110,0.08,0.11,-0.99,3.17,2.44,3.72
28.3130,0.08,0.11,-0.99,2.93,2.44,4.21
28.3290,0.08,0.11,-0.99,3.11,2.56,4.27
28.3570,0.09,0.11,-0.99,3.11,2.81,3.91
28.3680,0.08,0.11,-0.99,3.11,2.26,3.48
28.3860,0.08,0.11,-0.99,2.87,2.81,3.48
28.4020,0.08,0.11,-0.99,2.93,2.87,3.17
28.4170,0.08,0.11,-0.99,3.05,2.81,2.81
28.4320,0.08,0.11,-0.99,3.17,2.56,2.62
28.4360,0.07,0.11,-0.99,3.05,2.62,2.62
28.4620,0.07,0.10,-0.99,3.17,2.81,2.44
28.4760,0.08,0.10,-0.99,3.30,3.30,2.50
28.4920,0.08,0.10,-0.99,3.23,2.99,2.44
28.5020,0.09,0.11,-0.99,3.11,2.81,2.20
28.5180,0.09,0.11,-0.99,2.99,2.87,1.89
28.5350,0.08,0.11,-0.99,3.11,3.23,1.53
28.5520,0.09,0.12,-0.99,3.23,3.05,1.34
28.5680,0.08,0.11,-0.99,3.17,3.05,1.89
28.5700,0.08,0.11,-0.99,2.99,2.99,2.08
28.5990,0.08,0.11,-0.99,3.05,3.17,2.26
28.6140,0.08,0.11,-0.99,3.05,3.05,2.08
28.6290,0.09,0.12,-0.99,3.11,2.69,2.20
28.6440,0.09,0.11,-0.99,3.17,2.62,2.14
28.6580,0.08,0.11,-0.99,3.23,3.30,2.08
28.6740,0.08,0.11,-0.99,3.17,3.17,2.14
28.6850,0.08,0.11,-0.99,3.30,3.17,1.77
28.7000,0.08,0.11,-0.99,2.87,3.05,2.08
28.7200,0.08,0.11,-0.99,2.81,3.23,2.38
28.7230,0.08,0.11,-0.99,2.87,2.99,2.99
28.7500,0.09,0.11,-0.99,2.93,2.87,3.11
28.7650,0.08,0.11,-0.99,3.30,3.30,2.56
28.7730,0.08,0.11,-0.99,3.17,2.87,2.38
28.7890,0.08,0.11,-0.99,2.93,2.99,2.56
28.8080,0.08,0.11,-0.99,3.11,2.44,2.81
28.8220,0.08,0.11,-0.99,3.05,2.81,3.17
28.8390,0.06,0.12,-1.01,2.93,2.32,3.91
28.8560,0.09,0.13,-0.99,3.11,2.69,7.51
28.8570,0.10,0.09,-0.99,3.11,2.20,7.45
28.8860,0.11,0.08,-0.99,3.05,2.14,5.74
28.8890,0.10,0.09,-0.99,3.36,2.50,3.72
28.9050,0.08,0.11,-0.99,3.54,2.56,2.08
28.9320,0.08,0.11,-0.99,3.23,3.17,1.71
28.9420,0.08,0.11,-0.99,3.48,2.81,1.71
28.9590,0.08,0.11,-0.99,3.30,2.93,1.83
28.9750,0.08,0.11,-0.99,3.30,3.17,1.83
28.9930,0.06,0.11,-0.99,3.30,2.93,1.95
29.0090,0.07,0.10,-0.99,3.23,3.23,2.81
29.0090,0.07,0.12,-1.00,2.81,2.50,3.72
29.0260,0.08,0.11,-0.99,3.11,2.99,3.36
29.0550,0.09,0.11,-0.99,3.42,2.56,2.62
29.0710,0.07,0.11,-0.99,3.30,2.99,2.26
29.0850,0.07,0.11,-0.99,3.23,2.87,2.32
29.1020,0.08,0.11,-0.99,3.17,2.87,2.75
29.1100,0.08,0.11,-0.99,3.30,2.93,2.69
29.1260,0.08,0.11,-0.99,3.42,2.81,1.89
29.1440,0.08,0.11,-0.99,3.30,3.05,1.65
29.1590,0.08,0.11,-0.99,3.05,3.36,1.65
29.1770,0.09,0.13,-0.99,3.17,2.81,2.81
29.1920,0.10,0.10,-0.99,3.60,2.87,2.87
29.2090,0.08,0.10,-0.99,3.48,3.36,2.32
29.2250,0.09,0.11,-0.99,3.30,2.99,2.08
29.2410,0.09,0.11,-0.99,3.11,2.87,1.95
29.2430,0.08,0.11,-0.99,3.36,3.17,2.01
29.2720,0.08,0.11,-0.99,3.42,2.87,2.01
29.2870,0.08,0.11,-0.99,3.48,2.62,1.95
29.2940,0.07,0.11,-0.99,2.87,3.23,2.50
29.3090,0.08,0.11,-0.99,2.87,2.93,3.11
29.3330,0.08,0.11,-0.99,3.11,2.38,2.87
29.3480,0.05,0.13,-1.03,2.87,2.69,3.05
29.3630,0.08,0.12,-0.99,3.05,3.11,3.11
29.3700,0.09,0.10,-0.99,3.11,2.93,2.81
29.3870,0.08,0.11,-0.99,3.30,2.75,2.93
29.4030,0.08,0.11,-0.99,3.17,2.81,2.99
29.4240,0.09,0.11,-0.99,3.05,2.93,3.11
29.4390,0.09,0.11,-0.99,3.23,2.56,2.99
29.4540,0.08,0.11,-0.99,3.36,2.81,2.99
29.4580,0.08,0.11,-0.99,3.17,2.20,3.17
29.4740,0.08,0.11,-0.99,3.23,2.56,3.48
29.4970,0.08,0.11,-0.99,3.23,2.81,3.30
29.5140,0.08,0.11,-0.99,2.93,2.50,2.99
29.5310,0.07,0.10,-0.98,2.08,2.14,4.15
29.5470,0.08,0.11,-0.99,3.17,2.81,4.46
29.5620,0.07,0.11,-0.99,3.17,2.62,4.21
29.5780,0.06,0.10,-0.97,2.32,2.56,4.33
29.5930,0.09,0.11,-0.99,3.36,2.93,3.30
29.6090,0.09,0.11,-0.99,3.36,2.56,2.99
29.6140,0.06,0.11,-0.98,2.87,2.50,2.99
29.6300,0.09,0.11,-0.99,3.54,2.87,3.11
29.6550,0.08,0.11,-0.99,3.36,2.56,3.05
29.6710,0.08,0.11,-0.99,3.17,3.11,3.30
29.6860,0.09,0.11,-0.99,3.05,2.87,3.42
29.6870,0.08,0.11,-0.99,3.30,2.69,3.17
29.7050,0.08,0.11,-0.99,3.30,2.32,3.23
29.7210,0.08,0.11,-0.99,3.17,2.87,3.42
29.7380,0.09,0.11,-0.99,3.23,2.87,3.05
29.7550,0.08,0.11,-0.99,3.05,2.75,2.81
29.7710,0.08,0.11,-0.99,3.11,3.11,2.62
29.7890,0.08,0.11,-0.99,3.05,2.87,2.87
29.8040,0.07,0.11,-0.99,2.81,2.62,3.17
29.8240,0.08,0.11,-0.99,3.17,3.11,3.36
29.8410,0.08,0.11,-0.99,3.05,3.11,2.99
29.8570,0.08,0.11,-0.99,3.17,2.93,3.05
29.8730,0.06,0.12,-0.99,2.87,2.56,2.93
29.8890,0.08,0.11,-0.99,3.36,2.81,2.99
29.9050,0.09,0.11,-0.99,3.36,3.11,2.20
29.9200,0.08,0.11,-0.99,3.42,2.75,2.01
29.9270,0.08,0.11,-0.99,3.23,2.99,2.08
29.9500,0.08,0.11,-0.99,3.11,2.81,2.44
29.9650,0.08,0.11,-0.99,3.23,3.11,2.50
29.9760,0.09,0.11,-0.99,3.42,2.62,2.56
29.9930,0.08,0.11,-0.99,3.36,3.05,2.38
30.0100,0.08,0.11,-0.99,3.36,3.05,2.26
30.0270,0.08,0.11,-0.99,3.42,3.05,2.50
30.0420,0.08,0.11,-0.99,3.42,3.17,2.75
30.0440,0.08,0.11,-0.99,3.17,3.05,2.56
30.0600,0.08,0.11,-0.99,3.17,2.99,2.56
30.0910,0.08,0.11,-0.99,3.30,3.42,2.50
30.1070,0.08,0.11,-0.99,2.99,3.11,2.62
30.1100,0.07,0.11,-0.99,3.05,3.05,2.50
30.1390,0.07,0.11,-0.99,2.87,2.69,2.69
30.1440,0.08,0.11,-0.99,3.23,2.87,2.75
30.1600,0.08,0.11,-0.99,3.05,2.87,2.50
30.1840,0.08,0.11,-0.99,3.17,2.75,2.44
30.1930,0.09,0.11,-0.99,3.05,3.23,2.32
30.2090,0.09,0.11,-0.99,3.30,2.87,2.20
30.2240,0.09,0.11,-0.99,3.17,3.05,1.95
30.2440,0.08,0.11,-0.99,3.23,3.11,1.95
30.2520,0.08,0.11,-0.99,3.36,3.05,2.32
30.2690,0.08,0.11,-0.99,3.23,2.93,2.08
30.2870,0.08,0.11,-0.99,3.17,2.81,2.14
30.3020,0.09,0.11,-0.99,3.05,2.75,2.32
30.3190,0.08,0.11,-0.99,3.60,2.93,2.32
30.3360,0.08,0.11,-0.99,3.54,2.81,2.44
30.3520,0.08,0.11,-0.99,3.11,2.87,2.44
30.3670,0.08,0.11,-0.99,3.05,2.44,2.20
30.3830,0.08,0.11,-0.99,2.99,3.11,2.26
30.3980,0.08,0.11,-0.99,3.05,2.99,2.20
30.4130,0.07,0.11,-0.99,2.69,2.44,2.38
30.4180,0.08,0.11,-0.99,3.30,2.69,2.75
30.4340,0.08,0.11,-0.99,3.23,2.81,2.32
30.4580,0.08,0.11,-0.99,3.17,2.69,2.20
30.4760,0.08,0.11,-0.99,3.11,2.99,1.83
30.4910,0.09,0.11,-0.99,3.23,3.05,1.71
30.5070,0.08,0.11,-0.99,3.11,2.93,1.77
30.5230,0.08,0.11,-0.99,3.72,2.62,1.95
30.5240,0.08,0.11,-0.99,3.54,3.05,2.08
30.5410,0.08,0.11,-0.99,3.42,2.50,2.08
30.5700,0.08,0.11,-0.99,3.17,3.30,1.95
30.5850,0.08,0.11,-0.99,3.36,2.69,1.77
30.6000,0.08,0.11,-0.99,3.42,2.50,1.89
30.6080,0.08,0.11,-0.99,3.17,2.93,2.20
30.6240,0.08,0.11,-0.99,3.23,2.87,2.26
30.6450,0.08,0.11,-0.99,3.36,2.93,2.20
30.6490,0.08,0.11,-0.99,3.42,2.93,2.01
30.6650,0.08,0.11,-0.99,3.11,3.36,1.89
30.6880,0.08,0.11,-0.99,3.11,3.42,1.83
30.6970,0.08,0.11,-0.99,3.23,2.93,1.59
30.7210,0.08,0.11,-0.99,3.36,3.36,1.71
30.7380,0.08,0.11,-0.99,3.17,3.66,1.65
30.7540,0.08,0.11,-0.99,3.17,3.48,1.59
30.7710,0.08,0.11,-0.99,3.30,3.17,0.73
30.7710,0.09,0.11,-0.99,3.36,3.23,0.49
30.7890,0.08,0.11,-0.99,3.11,3.36,0.49
30.8050,0.08,0.11,-0.99,3.42,3.42,0.73
30.8200,0.08,0.11,-0.99,3.30,2.99,0.61
30.8480,0.08,0.11,-0.99,3.23,3.48,0.12
30.8570,0.07,0.11,-0.99,3.05,3.60,0.24
30.8750,0.08,0.11,-0.99,3.17,3.48,0.55
30.8930,0.08,0.11,-0.99,3.30,2.99,0.85
30.9090,0.08,0.11,-0.99,3.42,2.93,1.04
30.9250,0.08,0.11,-0.99,3.23,3.30,0.61
30.9410,0.05,0.12,-0.99,3.11,3.11,0.24
30.9570,0.06,0.11,-0.99,2.99,2.99,0.55
30.9580,0.08,0.10,-0.99,3.36,2.62,1.04
30.9880,0.09,0.10,-0.99,3.42,3.30,1.46
31.0040,0.10,0.10,-0.99,3.48,2.87,1.95
31.0200,0.10,0.11,-0.99,3.42,2.99,1.40
31.0370,0.09,0.11,-0.99,3.23,2.99,1.46
31.0520,0.09,0.11,-0.99,3.30,2.99,1.65
31.0570,0.09,0.11,-0.99,3.30,2.99,1.71
31.0720,0.09,0.11,-0.99,3.30,2.99,1.46
31.0970,0.09,0.11,-0.99,3.42,2.75,1.46
31.1130,0.09,0.11,-0.99,3.48,2.75,1.46
31.1290,0.08,0.11,-0.99,3.11,2.99,1.71
31.1440,0.08,0.11,-0.99,3.23,3.17,1.77
31.1470,0.08,0.11,-0.99,3.42,3.17,1.71
31.1620,0.08,0.11,-0.99,3.48,2.87,1.71
31.1890,0.08,0.11,-0.99,3.60,2.99,1.59
31.2020,0.08,0.11,-0.99,3.36,3.23,1.22
31.2190,0.08,0.11,-0.99,3.48,3.48,1.22
31.2350,0.08,0.11,-0.99,3.42,3.17,0.98
31.2530,0.07,0.11,-0.99,3.42,3.30,0.55
31.2690,0.08,0.11,-0.99,3.42,2.99,-0.12
31.2850,0.08,0.11,-0.99,3.54,2.87,0.31
31.3020,0.08,0.11,-0.99,3.54,3.48,0.18
31.3180,0.08,0.11,-0.99,3.66,3.30,-0.67
31.3340,0.08,0.11,-0.99,3.30,3.42,-0.85
31.3490,0.07,0.11,-0.99,3.11,2.99,-0.61
31.3650,0.08,0.11,-0.99,3.30,3.17,0.00
31.3810,0.08,0.11,-0.99,3.30,3.05,0.24
31.3960,0.08,0.11,-0.99,3.23,2.93,0.55
31.4110,0.08,0.11,-0.99,3.23,3.54,0.98
31.4250,0.08,0.11,-0.99,3.23,3.05,0.85
31.4360,0.08,0.11,-0.99,3.30,3.11,0.92
31.4520,0.09,0.11,-0.99,3.30,2.99,1.28
31.4690,0.09,0.11,-0.99,3.36,2.81,1.46
31.4860,0.08,0.11,-0.99,3.36,2.99,1.59
31.5010,0.08,0.11,-0.99,3.23,3.05,1.59
31.5170,0.08,0.11,-0.99,3.42,3.23,1.71
31.5190,0.08,0.11,-0.99,3.23,3.23,1.40
31.5350,0.08,0.11,-0.99,2.99,3.17,1.28
31.5600,0.08,0.11,-0.99,3.17,2.87,1.40
31.5780,0.08,0.11,-0.99,3.42,2.99,1.46
31.5890,0.07,0.11,-0.99,3.48,3.11,1.34
31.6090,0.08,0.11,-0.99,3.23,3.11,0.61
31.6250,0.07,0.12,-0.99,3.17,3.30,-0.12
31.6270,0.08,0.11,-0.99,3.17,3.05,0.18
31.6420,0.08,0.11,-0.99,3.48,3.36,0.55
31.6610,0.08,0.11,-0.99,3.23,3.42,0.92
31.6890,0.08,0.11,-0.99,3.11,3.30,1.10
31.7050,0.09,0.11,-0.99,2.99,3.17,1.10
31.7100,0.09,0.11,-0.99,3.30,2.62,1.04
31.7260,0.09,0.11,-0.99,3.36,2.87,1.16
31.7420,0.09,0.11,-0.99,3.42,2.93,1.65
31.7670,0.08,0.11,-0.99,3.36,3.23,1.71
31.7830,0.08,0.11,-0.99,3.17,3.11,1.71
31.7990,0.08,0.11,-0.99,3.42,2.81,1.83
31.8130,0.08,0.11,-0.99,3.23,2.93,1.77
31.8290,0.08,0.11,-0.99,3.17,2.69,1.46
31.8440,0.07,0.12,-0.99,3.11,3.30,1.28
31.8600,0.07,0.11,-0.99,3.30,3.17,0.85
31.8750,0.07,0.11,-0.99,3.42,2.87,0.55
31.8890,0.07,0.11,-0.99,3.23,2.75,0.18
31.9060,0.08,0.11,-0.99,3.36,2.99,0.06
31.9170,0.09,0.11,-0.99,3.36,2.93,-0.06
31.9330,0.09,0.11,-0.99,3.48,3.23,-0.18
31.9510,0.08,0.11,-0.99,3.54,3.05,0.31
31.9670,0.07,0.11,-0.99,3.30,3.30,0.61
31.9810,0.08,0.11,-0.99,3.48,3.30,0.73
31.9960,0.09,0.11,-0.99,3.36,3.54,0.73
32.0120,0.09,0.11,-0.99,3.42,3.36,0.55
32.0270,0.09,0.11,-0.99,3.42,3.17,0.31
32.0430,0.09,0.11,-0.99,3.30,3.36,0.00
32.0580,0.08,0.11,-0.99,3.23,3.36,0.12
32.0670,0.08,0.11,-0.99,3.30,3.54,0.18
32.0900,0.08,0.11,-0.99,3.36,3.36,-0.24
32.0980,0.08,0.11,-0.99,3.54,3.17,-0.31
32.1220,0.08,0.11,-0.99,3.48,3.42,-0.43
32.1380,0.07,0.11,-0.99,3.48,3.23,-0.73
32.1550,0.08,0.11,-0.99,3.36,3.23,-1.10
32.1710,0.08,0.11,-0.99,3.30,3.30,-1.28
32.1870,0.08,0.11,-0.99,3.42,3.72,-1.83
32.1900,0.07,0.10,-0.99,3.36,3.66,-2.01
32.2050,0.09,0.11,-0.99,3.66,3.54,-2.69
32.2290,0.08,0.11,-0.99,3.42,3.78,-2.38
32.2450,0.08,0.11,-0.99,3.48,3.91,-2.62
32.2610,0.08,0.11,-0.99,3.23,3.30,-1.71
32.2770,0.09,0.11,-0.99,3.23,3.17,-0.55
32.2930,0.09,0.11,-0.99,3.30,2.99,1.22
32.3090,0.09,0.11,-0.99,3.48,2.75,1.77
32.3240,0.09,0.11,-0.99,3.48,2.81,1.83
32.3290,0.08,0.11,-0.99,3.23,3.36,2.01
32.3560,0.08,0.11,-0.99,3.17,2.56,1.83
32.3720,0.08,0.11,-0.99,3.11,3.11,2.08
32.3870,0.08,0.11,-0.99,3.17,2.50,2.01
32.3950,0.08,0.11,-0.99,3.30,2.99,2.32
32.4110,0.08,0.11,-0.99,3.48,3.05,2.32
32.4340,0.08,0.11,-0.99,2.99,3.05,2.87
32.4500,0.09,0.11,-0.99,3.17,2.99,3.05
32.4670,0.09,0.11,-0.99,3.30,2.81,2.69
32.4830,0.08,0.11,-0.99,3.17,3.23,2.38
32.4900,0.09,0.11,-0.99,3.17,2.93,2.38
32.5010,0.08,0.11,-0.99,3.30,2.75,2.20
32.5240,0.08,0.11,-0.99,3.11,2.99,1.95
32.5410,0.08,0.11,-0.99,3.17,3.05,1.89
32.5570,0.08,0.11,-0.99,3.17,2.93,1.89
32.5740,0.08,0.11,-0.99,3.30,2.62,1.95
32.5910,0.08,0.11,-0.99,3.54,2.87,1.77
32.5920,0.08,0.11,-0.99,3.36,2.87,1.83
32.6230,0.08,0.11,-0.99,3.48,2.75,2.08
32.6390,0.08,0.11,-0.99,3.36,2.93,1.95
32.6550,0.08,0.11,-0.99,3.11,2.75,1.95
32.6700,0.08,0.11,-0.99,3.30,2.99,1.83
32.6870,0.08,0.11,-0.99,2.99,2.81,1.83
32.6910,0.08,0.11,-0.99,3.05,2.69,1.89
32.7070,0.08,0.11,-0.99,3.17,2.93,1.71
32.7320,0.08,0.11,-0.99,3.54,2.75,1.83
32.7480,0.08,0.11,-0.99,3.36,3.36,1.95
32.7640,0.08,0.11,-0.99,3.05,3.05,1.95
32.7790,0.08,0.10,-0.98,3.48,2.99,1.95
32.7940,0.08,0.12,-0.99,2.38,2.75,3.91
32.8000,0.08,0.11,-0.99,2.75,2.99,2.08
32.8160,0.09,0.10,-0.99,3.11,3.54,1.34
32.8330,0.07,0.12,-0.99,3.17,3.05,0.85
32.8500,0.08,0.11,-0.99,3.17,3.23,1.28
32.8660,0.08,0.11,-0.99,3.30,3.23,1.28
32.8820,0.08,0.11,-0.99,3.17,2.99,1.77
32.8990,0.08,0.11,-0.99,2.99,3.11,1.83
32.9140,0.08,0.11,-0.99,2.99,3.36,1.95
32.9290,0.08,0.11,-0.99,3.23,3.11,1.95
32.9440,0.08,0.11,-0.99,3.36,3.17,1.83
32.9500,0.08,0.11,-0.99,3.36,3.23,1.83
32.9660,0.08,0.11,-0.99,3.30,3.11,1.89
32.9830,0.08,0.11,-0.99,3.42,3.36,2.08
32.9990,0.08,0.11,-0.99,3.30,2.81,1.89
33.0170,0.08,0.11,-0.99,3.23,3.05,1.89
33.0320,0.08,0.11,-0.99,3.11,3.11,2.01
33.0490,0.08,0.11,-0.99,3.23,2.81,1.83
33.0640,0.08,0.11,-0.99,3.30,2.93,2.01
33.0670,0.08,0.10,-0.99,3.48,2.81,2.01
33.0950,0.08,0.11,-0.98,3.23,2.75,2.01
33.1000,0.08,0.12,-0.99,3.11,3.17,2.08
33.1240,0.08,0.11,-0.99,3.05,2.75,1.95
33.1330,0.08,0.11,-0.99,3.11,3.05,1.95
33.1480,0.08,0.10,-0.99,3.30,2.62,1.77
33.1710,0.08,0.11,-0.99,3.36,2.75,1.89
33.1710,0.08,0.12,-0.99,3.23,3.11,1.95
33.1900,0.08,0.11,-0.99,3.23,2.62,2.01
33.2050,0.08,0.11,-0.99,3.36,2.87,1.95
33.2230,0.08,0.11,-0.99,3.30,2.87,2.14
33.2380,0.08,0.11,-0.99,3.11,3.11,1.95
33.2620,0.08,0.11,-0.99,3.30,2.62,1.89
33.2780,0.08,0.11,-0.99,3.23,3.05,1.89
33.2930,0.08,0.11,-0.99,3.05,2.81,1.71
33.3080,0.08,0.11,-0.99,3.11,2.87,1.77
33.3240,0.08,0.11,-0.99,3.36,2.99,2.08
33.3400,0.08,0.11,-0.99,3.48,2.62,1.95
33.3560,0.08,0.11,-0.99,3.36,3.11,2.01
33.3720,0.08,0.11,-0.99,3.30,3.05,1.95
33.3780,0.08,0.11,-0.99,3.23,3.05,1.95
33.3940,0.08,0.11,-0.99,3.23,2.99,1.89
33.4180,0.08,0.11,-0.99,2.99,3.36,2.08
33.4330,0.08,0.11,-0.99,3.23,3.05,2.08
33.4490,0.08,0.11,-0.99,3.30,3.05,2.01
33.4650,0.08,0.11,-0.99,3.30,2.99,1.95
33.4810,0.08,0.11,-0.99,3.23,3.11,2.01
33.4970,0.08,0.11,-0.99,3.17,3.05,2.01
33.5030,0.08,0.11,-0.99,3.23,2.93,1.95
33.5210,0.08,0.11,-0.99,3.23,2.81,1.95
33.5360,0.09,0.12,-0.99,3.23,3.05,1.77
33.5530,0.09,0.13,-0.99,3.23,2.62,1.40
33.5700,0.08,0.11,-0.99,3.11,3.11,1.22
33.5880,0.08,0.11,-0.99,3.11,3.17,1.59
33.6030,0.08,0.11,-0.99,3.42,2.81,1.59
33.6200,0.09,0.11,-0.99,3.11,3.23,1.65
33.6350,0.09,0.11,-0.99,3.17,2.93,2.08
33.6510,0.08,0.11,-0.99,3.42,2.50,1.95
33.6530,0.08,0.10,-0.99,3.11,2.93,2.01
33.6820,0.08,0.12,-0.99,3.23,3.05,1.83
33.6910,0.08,0.12,-0.99,3.30,2.75,2.20
33.7150,0.09,0.11,-0.99,3.05,2.56,3.30
33.7310,0.08,0.11,-0.99,2.99,2.62,3.97
33.7460,0.07,0.09,-0.99,2.99,2.81,4.46
33.7530,0.08,0.11,-0.98,2.99,2.62,3.72
33.7710,0.08,0.12,-0.99,2.99,3.11,3.30
33.7910,0.08,0.11,-1.00,3.11,2.20,3.42
33.8040,0.08,0.11,-1.00,2.99,2.32,3.36
33.8190,0.07,0.10,-0.99,3.05,2.75,3.42
33.8370,0.07,0.11,-0.99,3.11,2.56,2.93
33.8530,0.08,0.11,-0.99,3.17,2.93,2.44
33.8540,0.08,0.11,-0.99,3.11,2.93,2.56
33.8850,0.08,0.11,-0.99,2.93,2.93,2.81
33.8910,0.08,0.11,-0.99,2.99,2.69,2.87
33.9170,0.08,0.11,-0.99,3.17,2.93,2.62
33.9330,0.08,0.11,-0.99,3.05,2.81,2.87
33.9360,0.08,0.11,-0.99,3.23,2.75,2.81
33.9510,0.08,0.11,-0.99,2.99,2.75,3.05
33.9750,0.08,0.12,-0.99,3.05,2.81,3.05
33.9930,0.08,0.12,-0.99,3.30,2.20,3.66
34.0090,0.08,0.10,-0.99,2.99,3.05,4.46
34.0250,0.08,0.11,-0.99,2.99,3.05,3.91
34.0270,0.08,0.11,-0.99,3.11,2.81,3.97
34.0420,0.08,0.12,-0.99,2.93,2.62,3.60
34.0590,0.08,0.12,-0.99,2.99,2.87,4.33
34.0770,0.08,0.11,-0.99,2.87,2.62,5.07
34.0920,0.08,0.10,-0.99,3.05,2.81,5.13
34.1190,0.08,0.09,-0.99,2.99,3.05,3.66
34.1260,0.08,0.10,-0.99,3.11,2.99,2.32
34.1500,0.08,0.11,-0.99,3.23,3.23,2.20
34.1590,0.08,0.12,-0.99,3.11,3.42,2.32
34.1750,0.08,0.11,-0.99,3.17,3.23,2.38
34.1910,0.08,0.11,-0.99,3.17,3.05,2.38
34.2010,0.08,0.12,-1.00,3.30,3.05,2.56
34.2240,0.08,0.11,-0.99,3.23,2.87,2.50
34.2350,0.08,0.10,-1.00,3.30,2.87,3.05
34.2520,0.08,0.11,-0.99,3.30,2.87,2.56
34.2680,0.08,0.12,-0.99,3.17,2.81,2.38
34.2860,0.09,0.12,-0.99,3.17,2.75,2.56
34.3020,0.08,0.12,-0.99,3.17,2.69,2.69
34.3180,0.08,0.11,-0.99,3.11,2.69,3.60
34.3330,0.08,0.10,-0.99,3.17,2.69,3.78
34.3480,0.08,0.11,-0.99,3.11,2.93,2.81
34.3640,0.09,0.12,-0.99,3.05,2.50,2.69
34.3780,0.09,0.12,-0.99,2.93,2.69,3.17
34.3910,0.09,0.13,-0.98,2.93,2.75,3.66
34.4010,0.08,0.11,-0.99,2.99,2.26,5.49
34.4170,0.08,0.10,-0.99,2.99,2.38,5.19
34.4380,0.08,0.11,-0.99,3.11,2.69,3.97
34.4540,0.09,0.12,-0.99,2.99,2.99,3.85
34.4600,0.09,0.12,-0.99,3.11,2.38,4.52
34.4760,0.08,0.11,-0.99,2.81,2.75,5.49
34.4990,0.07,0.10,-0.99,2.99,2.81,4.64
34.5010,0.08,0.10,-0.99,3.11,3.05,3.23
34.5300,0.08,0.11,-0.99,3.17,2.93,2.81
34.5340,0.09,0.12,-0.99,3.05,2.87,2.75
34.5610,0.08,0.11,-0.99,2.99,2.99,3.78
34.5760,0.08,0.11,-0.99,3.11,3.17,3.72
34.5900,0.08,0.10,-0.99,3.11,2.99,3.60
34.6000,0.08,0.10,-0.99,3.05,3.23,3.48
34.6170,0.08,0.11,-0.99,3.11,2.99,2.99
34.6340,0.08,0.11,-0.99,3.05,2.62,3.11
34.6500,0.08,0.11,-0.99,3.11,2.99,3.05
34.6670,0.08,0.11,-0.99,3.30,2.62,2.44
34.6820,0.08,0.11,-0.99,3.05,2.81,2.62
34.6990,0.08,0.12,-0.99,2.99,2.56,2.99
34.7150,0.10,0.14,-0.98,2.81,2.87,3.54
34.7320,0.08,0.10,-1.00,2.81,2.69,5.31
34.7480,0.07,0.10,-0.99,2.87,2.75,4.21
34.7630,0.08,0.11,-1.00,3.23,2.87,3.23
34.7770,0.08,0.11,-0.99,3.05,2.87,2.87
34.7920,0.08,0.12,-0.99,3.11,2.81,3.05
34.8080,0.09,0.13,-0.98,2.99,2.32,4.09
34.8230,0.08,0.11,-0.99,2.99,2.32,5.43
34.8350,0.08,0.11,-0.99,2.93,2.32,5.31
34.8510,0.08,0.11,-0.99,2.87,2.75,5.00
34.8680,0.08,0.10,-0.99,2.99,2.87,4.03
34.8840,0.08,0.11,-0.99,2.99,3.11,3.30
34.8990,0.08,0.11,-0.99,3.17,2.93,2.99
34.9010,0.08,0.11,-0.99,3.42,2.87,2.50
34.9310,0.08,0.11,-0.99,3.05,3.11,2.50
34.9460,0.08,0.11,-0.99,3.05,3.36,2.81
34.9620,0.09,0.13,-0.99,2.99,2.93,3.23
34.9770,0.08,0.11,-0.99,3.11,2.44,4.09
34.9910,0.08,0.11,-0.99,3.05,2.81,3.91
35.0060,0.08,0.11,-0.99,2.99,2.75,3.91
35.0170,0.08,0.11,-0.99,3.30,2.38,3.78
35.0340,0.08,0.11,-0.99,3.17,2.32,3.60
35.0490,0.08,0.11,-0.99,2.93,2.56,4.03
35.0670,0.08,0.11,-0.99,2.87,2.69,3.97
35.0820,0.08,0.11,-0.99,2.93,3.05,3.78
35.0930,0.08,0.12,-0.99,3.05,2.44,3.85
35.1150,0.08,0.10,-0.99,2.93,2.81,4.09
35.1310,0.08,0.11,-0.99,2.93,2.93,3.91
35.1460,0.08,0.10,-0.99,3.17,2.75,3.91
35.1600,0.08,0.11,-0.99,3.05,3.17,3.05
35.1760,0.08,0.11,-0.99,3.11,2.99,2.93
35.1920,0.08,0.11,-0.99,3.05,2.56,3.17
35.2000,0.08,0.11,-0.99,3.05,2.93,3.05
35.2160,0.08,0.11,-0.99,2.87,3.05,2.75
35.2320,0.07,0.11,-0.99,3.23,2.99,2.62
35.2550,0.09,0.11,-0.99,3.05,3.11,2.50
35.2700,0.09,0.10,-1.00,3.11,2.99,2.50
35.2720,0.07,0.12,-0.99,3.17,3.11,2.38
35.3020,0.08,0.11,-0.99,2.99,3.05,2.69
35.3050,0.08,0.11,-0.99,3.05,3.05,3.23
35.3200,0.09,0.12,-0.99,2.87,2.93,4.03
35.3360,0.08,0.11,-0.99,3.11,2.44,4.82
35.3580,0.08,0.11,-0.99,3.11,2.75,3.85
35.3770,0.08,0.11,-0.99,3.11,2.81,3.60
35.3930,0.08,0.11,-0.99,3.17,3.11,2.93
35.4090,0.08,0.11,-0.99,3.17,3.05,2.81
35.4240,0.08,0.11,-0.99,3.30,2.87,2.50
35.4390,0.08,0.11,-0.99,3.05,2.99,2.62
35.4490,0.08,0.11,-0.99,3.05,3.17,2.87
35.4650,0.08,0.11,-0.99,3.11,2.81,2.69
35.4820,0.08,0.11,-0.99,3.05,2.99,2.56
35.4990,0.08,0.11,-0.99,3.17,2.93,2.93
35.5150,0.08,0.11,-0.99,3.05,3.05,2.99
35.5330,0.08,0.11,-0.99,3.17,2.81,3.05
35.5490,0.08,0.11,-0.99,3.17,2.62,2.81
35.5640,0.08,0.11,-0.99,3.17,2.75,2.81
35.5800,0.08,0.11,-0.99,3.11,3.05,2.93
35.5950,0.08,0.11,-0.99,3.11,2.87,3.05
35.6100,0.09,0.12,-0.99,3.05,2.50,3.60
35.6260,0.07,0.10,-0.99,3.23,2.50,4.76
35.6410,0.08,0.11,-0.99,2.99,2.81,3.23
35.6560,0.08,0.11,-0.99,3.05,2.99,2.93
35.6650,0.08,0.11,-0.99,3.23,2.75,2.93
35.6810,0.08,0.11,-0.99,3.17,2.32,2.87
35.7020,0.08,0.11,-0.99,3.23,2.62,2.75
35.7180,0.08,0.12,-0.99,3.05,2.81,3.17
35.7190,0.08,0.11,-0.99,2.99,2.62,3.60
35.7370,0.08,0.11,-0.99,3.05,2.69,3.48
35.7520,0.08,0.11,-0.99,3.05,2.75,3.23
35.7740,0.09,0.11,-0.99,3.11,2.75,3.05
35.7940,0.08,0.11,-0.99,2.87,2.93,3.30
35.8070,0.08,0.11,-0.99,2.99,3.11,2.99
35.8240,0.09,0.10,-0.99,3.17,2.87,2.81
35.8410,0.08,0.11,-0.99,3.11,2.93,2.50
35.8570,0.09,0.11,-0.99,2.99,3.05,2.93
35.8730,0.08,0.11,-0.99,3.05,2.81,3.23
35.8890,0.08,0.11,-0.99,2.99,2.50,3.66
35.8940,0.08,0.11,-0.99,3.11,2.56,3.78
35.9080,0.08,0.11,-0.99,3.23,2.87,3.23
35.9230,0.08,0.11,-0.99,3.23,2.87,2.87
35.9390,0.08,0.11,-0.99,2.99,3.17,2.87
35.9540,0.08,0.11,-0.99,3.11,3.23,2.87
35.9700,0.08,0.12,-0.99,2.93,3.05,3.36
35.9940,0.08,0.11,-0.99,3.17,2.81,3.66
36.0070,0.08,0.12,-0.99,2.99,2.69,3.85
36.0250,0.08,0.11,-0.99,3.05,2.44,4.09
36.0410,0.08,0.12,-0.99,3.05,2.50,4.09
36.0570,0.08,0.10,-0.99,2.93,2.44,4.33
36.0730,0.08,0.11,-0.99,2.93,3.11,3.72
36.0880,0.08,0.11,-0.99,2.93,3.23,3.48
36.1040,0.08,0.11,-0.99,2.99,2.81,3.72
36.1070,0.08,0.11,-0.99,3.17,2.87,3.78
36.1240,0.08,0.11,-0.99,3.17,2.75,3.30
36.1400,0.08,0.11,-0.99,3.05,2.93,2.93
36.1580,0.09,0.12,-0.99,2.99,2.93,3.05
36.1730,0.08,0.11,-0.99,2.93,2.87,4.03
36.1940,0.08,0.11,-0.99,3.05,2.87,4.39
36.2060,0.08,0.11,-0.99,2.87,2.81,4.94
36.2280,0.08,0.11,-0.99,3.05,2.44,4.21
36.2430,0.08,0.11,-0.99,3.11,2.62,3.54
36.2590,0.08,0.11,-0.99,3.23,2.69,3.48
36.2740,0.08,0.11,-0.99,2.93,2.81,3.72
36.2890,0.08,0.11,-0.99,3.17,2.69,3.48
36.2980,0.08,0.11,-0.99,3.11,2.69,3.48
36.3140,0.08,0.11,-0.99,3.23,2.62,3.54
36.3320,0.08,0.11,-0.99,3.23,2.81,3.60
36.3470,0.08,0.11,-0.99,2.93,2.69,3.48
36.3640,0.08,0.11,-0.99,2.99,2.93,3.42
36.3810,0.08,0.11,-0.99,3.11,2.93,3.42
36.3960,0.08,0.11,-0.99,3.05,2.69,3.42
36.4110,0.08,0.11,-0.99,3.23,2.87,3.17
36.4250,0.08,0.11,-0.99,3.17,2.99,3.17
36.4410,0.09,0.12,-0.99,2.93,2.69,3.72
36.4470,0.09,0.12,-0.99,2.93,2.99,4.76
36.4630,0.08,0.11,-0.99,2.81,2.87,4.64
36.4870,0.08,0.10,-0.99,2.93,2.87,3.78
36.4940,0.08,0.11,-0.99,3.05,2.93,3.17
36.5180,0.08,0.11,-0.99,3.17,2.93,3.42
36.5210,0.08,0.11,-0.99,2.93,2.38,4.15
36.5510,0.08,0.11,-0.99,3.05,2.93,4.27
36.5550,0.08,0.11,-0.99,3.11,2.81,3.48
36.5830,0.08,0.11,-0.99,3.11,2.99,3.42
36.5940,0.08,0.11,-0.99,3.17,2.99,3.42
36.6050,0.09,0.12,-0.99,3.11,2.93,3.60
36.6200,0.08,0.12,-0.99,2.87,2.75,4.64
36.6440,0.08,0.11,-0.99,3.11,2.56,5.00
36.6590,0.08,0.10,-0.99,2.93,2.56,5.00
36.6630,0.08,0.11,-0.99,2.87,2.50,4.58
36.6780,0.08,0.11,-0.99,2.99,2.38,3.91
36.6940,0.08,0.11,-0.99,2.99,3.11,3.48
36.7200,0.08,0.11,-0.99,3.05,2.75,3.54
36.7350,0.08,0.11,-0.99,2.99,2.56,3.85
36.7530,0.08,0.11,-0.99,2.93,2.75,4.15
36.7680,0.08,0.11,-0.99,2.93,2.75,4.33
36.7850,0.08,0.11,-0.99,2.99,2.69,3.97
36.8000,0.08,0.11,-0.99,2.87,2.50,3.91
36.8020,0.08,0.11,-0.99,2.99,2.81,3.66
36.8200,0.08,0.11,-0.99,3.36,2.81,3.54
36.8360,0.08,0.12,-0.99,3.11,2.81,3.91
36.8570,0.08,0.12,-0.99,3.11,2.44,4.46
36.8750,0.08,0.12,-0.99,2.99,2.56,4.64
36.8910,0.08,0.10,-0.99,3.05,3.17,4.64
36.9050,0.08,0.11,-0.99,2.99,3.11,3.91
36.9080,0.09,0.12,-0.99,3.11,2.81,3.85
36.9240,0.08,0.11,-0.99,2.87,2.56,4.76
36.9410,0.08,0.11,-0.99,3.11,2.26,4.94
36.9660,0.08,0.11,-0.99,2.99,2.69,5.62
36.9740,0.08,0.10,-0.99,3.11,2.32,4.58
36.9950,0.08,0.11,-0.99,2.99,2.93,3.36
37.0080,0.08,0.11,-0.99,3.11,2.87,3.11
37.0240,0.09,0.12,-0.99,3.23,2.87,3.48
37.0410,0.08,0.11,-0.99,3.23,3.11,3.97
37.0570,0.08,0.10,-0.99,2.99,2.99,3.30
37.0740,0.08,0.11,-0.99,3.17,3.30,2.44
37.0900,0.08,0.11,-0.99,3.11,3.17,2.32
37.0950,0.08,0.11,-0.99,3.11,3.36,2.50
37.1210,0.08,0.11,-0.99,3.05,3.36,2.56
37.1240,0.09,0.12,-0.99,3.11,2.99,2.69
37.1530,0.08,0.11,-0.99,3.11,3.11,3.42
37.1570,0.08,0.11,-0.99,3.05,3.11,3.36
37.1720,0.08,0.11,-0.99,3.05,2.99,3.36
37.1970,0.08,0.11,-0.99,3.17,2.81,3.54
37.2130,0.08,0.11,-0.99,3.11,2.87,3.30
37.2280,0.08,0.11,-0.99,3.11,3.30,2.69
37.2430,0.08,0.11,-0.99,3.17,2.75,2.38
37.2470,0.08,0.11,-0.99,3.23,2.99,2.56
37.2620,0.08,0.11,-0.99,3.17,2.87,2.75
37.2850,0.08,0.11,-0.99,3.23,2.87,2.69
37.3010,0.08,0.11,-0.99,3.17,3.05,2.62
37.3180,0.08,0.11,-0.99,2.99,2.81,2.81
37.3340,0.08,0.11,-0.99,3.23,2.62,2.87
37.3510,0.08,0.11,-0.99,2.99,3.05,3.11
37.3660,0.08,0.11,-0.99,3.05,3.05,2.87
37.3820,0.08,0.11,-0.99,3.30,2.75,2.87
37.3980,0.08,0.11,-0.99,3.11,2.81,2.93
37.4010,0.08,0.11,-0.99,3.23,2.87,2.69
37.4170,0.08,0.11,-0.99,3.11,2.75,2.99
37.4410,0.08,0.12,-0.99,2.99,2.87,3.54
37.4570,0.08,0.11,-0.99,2.99,2.62,3.85
37.4750,0.08,0.10,-0.99,3.05,2.99,3.78
37.4900,0.08,0.11,-0.99,3.11,2.69,2.81
37.5060,0.08,0.11,-0.99,3.11,2.93,2.81
37.5070,0.08,0.11,-0.99,3.23,2.93,2.75
37.5240,0.08,0.11,-0.99,3.11,2.69,2.87
37.5410,0.08,0.11,-0.99,3.23,2.87,2.81
37.5570,0.08,0.11,-0.99,3.11,2.87,2.56
37.5800,0.08,0.11,-0.99,3.36,2.93,2.56
37.5970,0.08,0.11,-0.99,3.11,2.99,2.50
37.6140,0.08,0.11,-0.99,3.42,2.69,2.38
37.6300,0.08,0.11,-0.99,3.23,2.93,2.50
37.6450,0.08,0.11,-0.99,3.23,2.81,2.56
37.6610,0.08,0.11,-0.99,2.99,3.05,2.62
37.6760,0.09,0.11,-0.99,3.17,2.87,2.56
37.6910,0.08,0.11,-0.99,2.93,3.05,2.81
37.7070,0.08,0.11,-0.99,3.11,2.62,3.05
37.7220,0.08,0.11,-0.99,3.05,2.81,3.36
37.7370,0.08,0.11,-0.99,3.05,2.75,3.36
37.7470,0.08,0.11,-0.99,3.05,2.75,3.17
37.7640,0.08,0.11,-0.99,2.99,2.56,3.23
37.7800,0.08,0.11,-0.99,3.11,3.11,3.05
37.7970,0.08,0.11,-0.99,3.05,3.23,2.69
37.8120,0.08,0.11,-0.99,3.11,2.38,2.62
37.8270,0.08,0.12,-0.99,3.30,2.69,2.62
37.8420,0.08,0.11,-0.99,3.05,2.56,2.99
37.8480,0.08,0.11,-0.99,3.11,2.50,3.30
37.8630,0.08,0.11,-0.99,3.17,3.05,3.42
37.8880,0.08,0.11,-0.99,3.17,2.32,3.30
37.8960,0.08,0.11,-0.99,3.23,2.44,3.36
37.9190,0.08,0.12,-0.99,3.05,2.87,3.54
37.9340,0.09,0.12,-0.99,2.99,2.44,4.39
37.9500,0.08,0.10,-0.99,2.81,2.69,5.00
37.9670,0.08,0.10,-0.99,2.99,2.75,4.33
37.9830,0.08,0.11,-0.99,2.87,2.87,3.54
37.9960,0.08,0.11,-0.99,2.93,2.75,3.23
38.0120,0.08,0.11,-0.99,2.99,2.93,3.48
38.0230,0.08,0.11,-0.99,3.05,2.75,3.97
38.0390,0.08,0.11,-0.99,2.99,2.87,4.70
38.0570,0.08,0.11,-0.99,3.23,2.75,4.21
38.0720,0.08,0.11,-0.99,2.99,2.62,3.42
38.0890,0.08,0.11,-0.99,3.05,2.69,3.05
38.1050,0.08,0.11,-0.99,3.05,3.05,2.62
38.1060,0.08,0.11,-0.99,2.99,3.17,2.75
38.1370,0.09,0.12,-0.99,3.11,2.81,3.17
38.1530,0.08,0.11,-0.99,2.99,2.81,3.85
38.1550,0.08,0.11,-0.99,2.93,3.11,3.85
38.1720,0.08,0.12,-0.99,2.99,2.62,3.54
38.1970,0.09,0.12,-0.99,2.93,2.50,4.27
38.2130,0.08,0.11,-0.99,3.05,2.44,4.58
38.2300,0.08,0.10,-0.99,3.05,2.87,4.15
38.2460,0.08,0.11,-0.99,3.11,3.11,2.62
38.2610,0.08,0.11,-0.99,3.11,3.30,2.62
38.2760,0.08,0.12,-0.99,3.17,2.99,2.75
38.2920,0.08,0.11,-0.99,3.11,2.32,3.85
38.3080,0.08,0.11,-0.99,3.17,2.38,4.46
38.3140,0.08,0.10,-0.99,3.17,2.26,4.21
38.3300,0.08,0.11,-0.99,3.11,2.87,3.30
38.3530,0.08,0.11,-0.99,3.05,2.81,3.11
38.3630,0.09,0.11,-0.99,3.05,2.93,3.23
38.3790,0.08,0.11,-0.99,3.05,2.62,3.42
38.3990,0.08,0.11,-0.99,3.11,3.05,3.11
38.4150,0.08,0.11,-0.99,3.05,2.81,2.50
38.4190,0.08,0.11,-0.99,3.05,2.87,2.56
38.4340,0.09,0.11,-0.99,3.23,2.93,2.50
38.4590,0.09,0.12,-0.99,3.23,2.62,2.75
38.4750,0.08,0.11,-0.99,3.30,2.62,3.30
38.4760,0.08,0.10,-0.99,2.87,2.69,4.03
38.5050,0.08,0.11,-0.99,3.05,2.81,3.11
38.5090,0.08,0.11,-0.99,3.11,2.56,2.38
38.5270,0.08,0.11,-0.99,3.23,2.93,2.26
38.5420,0.09,0.12,-0.99,3.36,2.69,2.32
38.5620,0.09,0.13,-0.99,3.11,2.99,2.56
38.5790,0.08,0.11,-0.99,3.11,2.62,3.48
38.5970,0.08,0.11,-0.99,3.17,2.81,3.72
38.6120,0.08,0.11,-0.99,2.99,3.05,3.60
38.6270,0.08,0.11,-0.99,3.05,3.30,3.30
38.6430,0.09,0.12,-0.99,2.99,3.05,3.17
38.6450,0.09,0.12,-0.99,2.99,2.56,3.91
38.6610,0.08,0.10,-0.99,3.05,2.69,4.27
38.6850,0.08,0.11,-0.99,2.99,2.62,2.99
38.7020,0.08,0.11,-0.99,3.11,2.93,2.75
38.7190,0.08,0.11,-0.99,3.17,2.81,2.44
38.7340,0.09,0.12,-0.99,2.87,2.93,2.50
38.7500,0.08,0.11,-0.99,3.05,2.81,3.36
38.7650,0.08,0.11,-0.99,2.93,3.17,3.42
38.7690,0.08,0.11,-0.99,3.30,2.44,3.36
38.7850,0.09,0.12,-0.99,3.11,2.62,3.36
38.8080,0.09,0.12,-0.99,3.11,2.75,3.66
38.8250,0.08,0.11,-0.99,2.99,2.26,4.52
38.8410,0.09,0.12,-0.99,3.05,2.69,4.52
38.8570,0.08,0.11,-0.99,3.05,2.56,4.64
38.8730,0.08,0.11,-0.99,3.30,2.62,4.09
38.8760,0.08,0.11,-0.99,3.30,2.62,3.42
38.8970,0.08,0.11,-0.99,3.05,2.99,3.36
38.9090,0.08,0.12,-0.99,2.93,2.75,3.66
38.9260,0.08,0.12,-0.99,2.99,2.75,3.91
38.9490,0.08,0.11,-0.99,2.99,2.87,3.97
38.9590,0.08,0.11,-0.99,2.93,2.62,3.30
38.9750,0.08,0.11,-0.99,2.93,2.69,3.23
38.9910,0.09,0.12,-0.99,2.99,2.56,3.72
39.0090,0.08,0.11,-0.99,2.93,2.56,3.97
39.0150,0.08,0.11,-0.99,3.05,2.87,3.54
39.0330,0.08,0.11,-0.99,3.05,2.69,3.54
39.0480,0.08,0.11,-0.99,3.05,2.99,3.36
39.0710,0.08,0.12,-0.99,3.05,2.81,3.30
39.0870,0.09,0.12,-0.99,2.93,2.87,3.60
39.0970,0.08,0.11,-0.99,2.99,2.81,4.09
39.1060,0.08,0.11,-0.99,2.99,2.81,3.48
39.1220,0.08,0.11,-0.99,3.05,2.99,2.87
39.1440,0.08,0.11,-0.99,2.99,3.30,2.69
39.1600,0.08,0.11,-0.99,3.36,2.75,2.38
39.1770,0.08,0.11,-0.99,3.23,3.05,2.44
39.1940,0.08,0.12,-0.99,3.30,2.81,2.50
39.2090,0.08,0.11,-0.99,2.99,2.81,3.36
39.2250,0.08,0.11,-0.99,2.93,2.87,3.36
39.2400,0.08,0.11,-0.99,2.81,2.93,3.30
39.2560,0.08,0.11,-0.99,3.30,3.11,2.87
39.2610,0.08,0.11,-0.99,3.05,3.05,2.38
39.2770,0.08,0.11,-0.99,3.23,2.93,2.14
39.2970,0.08,0.11,-0.99,3.23,3.11,1.95
39.3130,0.09,0.12,-0.99,3.23,2.93,1.53
39.3300,0.08,0.11,-0.99,3.17,3.17,1.59
39.3460,0.08,0.11,-0.99,3.42,2.75,1.95
39.3620,0.08,0.11,-0.99,3.17,3.17,2.20
39.3790,0.10,0.14,-0.99,2.99,2.99,2.38
39.3940,0.08,0.11,-0.99,2.99,2.44,3.72
39.4080,0.09,0.12,-0.99,2.93,2.69,3.48
39.4140,0.08,0.11,-0.99,3.11,2.87,3.66
39.4390,0.08,0.11,-0.99,3.05,2.99,3.48
39.4470,0.08,0.11,-0.99,2.81,2.99,3.23
39.4700,0.08,0.11,-0.99,3.05,2.87,3.17
39.4800,0.08,0.11,-0.99,3.05,3.11,2.75
39.4970,0.08,0.11,-0.99,3.17,3.11,2.56
39.5130,0.09,0.11,-0.99,3.11,2.81,2.44
39.5290,0.10,0.14,-0.99,3.11,2.93,2.75
39.5450,0.09,0.12,-0.99,2.93,2.44,4.46
39.5610,0.08,0.11,-0.99,3.05,2.38,4.46
39.5760,0.07,0.10,-0.99,3.05,2.56,4.09
39.5910,0.08,0.11,-0.99,3.11,2.69,2.99
39.6070,0.08,0.11,-0.99,3.11,3.05,2.62
39.6220,0.08,0.11,-0.99,3.42,2.99,2.44
39.6360,0.08,0.11,-0.99,3.11,3.11,2.32
39.6520,0.08,0.11,-0.99,3.23,3.11,2.26
39.6630,0.08,0.11,-0.99,3.36,2.99,2.50
39.6800,0.10,0.13,-0.99,3.17,2.87,2.50
39.6960,0.07,0.10,-0.99,3.17,2.62,4.09
39.6970,0.08,0.11,-0.99,3.23,2.81,3.42
39.7140,0.08,0.11,-0.99,3.17,3.30,3.54
39.7410,0.08,0.11,-0.99,3.11,2.93,2.99
39.7570,0.08,0.11,-0.99,3.30,2.87,2.93
39.7710,0.09,0.11,-0.99,3.23,2.87,2.62
39.7860,0.09,0.12,-0.99,3.30,3.05,2.81
39.7970,0.09,0.11,-0.99,3.11,2.99,3.36
39.8140,0.09,0.12,-0.99,3.05,2.99,3.78
39.8300,0.08,0.11,-0.99,2.99,2.93,4.15
39.8460,0.08,0.11,-0.99,2.99,2.69,4.09
39.8620,0.08,0.11,-0.99,2.99,2.81,3.85
39.8640,0.08,0.11,-0.99,2.99,2.69,3.48
39.8910,0.09,0.11,-0.99,2.99,3.11,3.17
39.9070,0.09,0.13,-0.99,2.93,2.81,3.91
39.9130,0.09,0.13,-0.99,2.93,2.93,4.64
39.9290,0.08,0.11,-0.99,2.93,2.32,5.80
39.9450,0.08,0.10,-0.99,3.05,2.69,4.70
39.9650,0.08,0.11,-0.99,2.99,2.38,3.60
39.9820,0.08,0.11,-0.99,3.17,2.62,3.17
39.9980,0.08,0.11,-0.99,3.05,2.93,3.17
40.0140,0.08,0.11,-0.99,2.99,2.75,3.23
40.0300,0.08,0.11,-0.99,2.99,2.50,3.30
40.0450,0.09,0.12,-0.99,2.93,2.99,3.36
40.0480,0.08,0.11,-0.99,2.99,2.87,3.97
40.0640,0.08,0.11,-0.99,3.17,2.50,3.78
40.0880,0.08,0.11,-0.99,3.23,2.56,3.54
40.1040,0.08,0.11,-0.99,3.23,2.56,3.42
40.1220,0.08,0.11,-0.99,3.17,2.56,2.69
40.1370,0.08,0.11,-0.99,3.17,2.93,2.50
40.1540,0.09,0.11,-0.99,2.99,3.05,2.38
40.1700,0.10,0.13,-0.99,3.11,2.69,2.81
40.1710,0.09,0.12,-0.99,3.11,2.81,4.15
40.2010,0.08,0.10,-0.99,2.93,2.50,3.97
40.2040,0.08,0.11,-0.99,2.93,2.75,3.36
40.2210,0.08,0.11,-0.99,3.11,2.93,3.30
40.2390,0.08,0.11,-0.99,3.11,2.62,2.87
40.2540,0.08,0.11,-0.99,3.05,3.11,2.75
40.2730,0.09,0.11,-0.99,3.23,2.69,2.50
40.2880,0.08,0.11,-0.99,3.23,2.62,2.56
40.3040,0.09,0.12,-0.99,3.23,2.62,2.44
40.3210,0.08,0.11,-0.99,2.99,2.87,2.75
40.3360,0.09,0.11,-0.99,3.11,3.17,2.81
40.3520,0.09,0.12,-0.99,3.05,2.93,3.23
40.3670,0.09,0.12,-0.99,2.93,2.38,3.60
40.3820,0.08,0.11,-0.99,2.93,2.50,4.46
40.3890,0.08,0.11,-0.99,2.99,2.81,4.21
40.4050,0.08,0.11,-0.99,3.23,2.32,3.36
40.4200,0.08,0.11,-0.99,3.11,2.75,3.48
40.4420,0.09,0.12,-0.99,2.99,2.69,3.54
40.4570,0.08,0.11,-0.99,3.17,2.75,3.97
40.4730,0.08,0.11,-0.99,2.99,2.87,3.78
40.4890,0.08,0.11,-0.99,3.11,2.50,3.72
40.4970,0.08,0.11,-0.99,3.11,2.93,3.72
40.5090,0.08,0.11,-0.99,3.05,2.93,3.85
40.5330,0.09,0.12,-0.99,3.17,2.50,4.21
40.5500,0.08,0.11,-0.99,3.17,2.38,4.46
40.5510,0.08,0.11,-0.99,2.93,2.62,4.21
40.5810,0.09,0.11,-0.99,3.05,2.81,4.70
40.5840,0.08,0.11,-0.99,2.87,2.87,4.88
40.6000,0.08,0.10,-0.99,2.81,2.87,4.09
40.6240,0.08,0.11,-0.99,2.99,2.50,3.54
40.6410,0.08,0.11,-0.99,3.17,2.99,2.81
40.6570,0.09,0.11,-0.99,3.30,2.69,2.62
40.6730,0.08,0.10,-0.98,2.99,2.75,2.93
40.6740,0.08,0.11,-1.00,2.99,2.87,2.87
40.7020,0.09,0.11,-0.99,2.69,2.75,2.69
40.7070,0.08,0.11,-0.99,2.69,3.23,2.14
40.7330,0.08,0.11,-0.99,3.30,3.17,1.71
40.7420,0.08,0.11,-0.99,3.11,3.11,1.40
40.7570,0.08,0.11,-0.99,3.11,2.56,1.28
40.7750,0.09,0.11,-0.99,3.30,3.30,1.34
40.7910,0.09,0.11,-0.99,3.30,3.11,0.98
40.8070,0.08,0.12,-0.99,3.11,3.05,1.40
40.8220,0.08,0.12,-0.99,2.99,3.42,1.83
40.8380,0.08,0.11,-0.99,3.11,3.30,1.83
40.8490,0.08,0.11,-0.99,3.60,3.30,1.95
40.8650,0.09,0.11,-0.99,3.54,3.23,1.83
40.8820,0.08,0.11,-0.99,3.17,3.17,1.89
40.8980,0.08,0.11,-0.99,3.11,3.17,2.08
40.9140,0.08,0.11,-0.99,3.11,2.99,1.95
40.9300,0.09,0.12,-0.99,3.48,2.93,1.59
40.9450,0.08,0.11,-0.99,3.48,3.23,1.22
40.9600,0.08,0.11,-0.99,3.36,2.87,1.71
40.9650,0.08,0.11,-0.99,3.30,3.05,1.95
40.9810,0.08,0.11,-0.99,3.23,3.05,1.95
41.0050,0.09,0.11,-0.99,3.17,3.05,2.01
41.0210,0.08,0.11,-0.99,3.11,3.05,1.40
41.0230,0.08,0.11,-0.99,3.17,3.36,1.59
41.0380,0.08,0.11,-0.99,3.48,2.81,1.83
41.0560,0.08,0.11,-0.99,3.48,2.99,1.89
41.0720,0.08,0.11,-0.99,3.23,2.69,1.89
41.0970,0.08,0.11,-0.99,3.23,2.62,1.89
41.1130,0.09,0.12,-0.99,3.30,2.81,2.01
41.1290,0.08,0.11,-0.99,2.99,3.17,2.32
41.1310,0.08,0.11,-0.99,2.93,3.17,2.14
41.1600,0.08,0.11,-0.99,3.30,2.99,2.08
41.1750,0.08,0.11,-0.99,3.30,2.99,1.89
41.1800,0.08,0.11,-0.99,3.23,3.11,2.08
41.1990,0.09,0.12,-0.99,3.48,3.11,2.08
41.2200,0.10,0.13,-0.98,2.93,2.75,3.23
41.2210,0.07,0.10,-1.00,2.99,2.50,4.27
41.2380,0.09,0.11,-0.99,3.30,2.62,3.23
41.2550,0.07,0.10,-0.99,3.36,2.87,2.99
41.2720,0.09,0.11,-0.99,3.23,2.93,1.89
41.2870,0.08,0.11,-0.99,3.36,2.87,1.59
41.3040,0.09,0.11,-0.99,3.30,3.05,1.83
41.3270,0.09,0.12,-0.99,3.17,2.81,2.32
41.3420,0.09,0.12,-0.99,2.93,2.62,3.17
41.3590,0.08,0.11,-0.99,3.11,2.62,3.17
41.3750,0.08,0.11,-0.99,3.23,2.99,2.50
41.3770,0.08,0.11,-0.99,3.23,2.93,2.08
41.3990,0.08,0.11,-0.99,3.17,3.11,1.89
41.4220,0.08,0.11,-0.99,3.17,3.05,1.89
41.4370,0.08,0.11,-0.99,3.11,3.17,1.89
41.4480,0.08,0.11,-0.99,3.17,2.93,1.89
41.4640,0.08,0.11,-0.99,3.11,3.17,1.71
41.4810,0.08,0.11,-0.99,2.99,3.36,1.89
41.4980,0.08,0.11,-0.99,3.11,3.11,1.83
41.5150,0.08,0.11,-0.99,3.05,3.23,1.95
41.5300,0.09,0.15,-0.99,3.23,3.17,2.32
41.5450,0.10,0.14,-0.98,3.11,2.93,2.62
41.5480,0.08,0.12,-0.99,3.11,2.69,4.52
41.5630,0.07,0.08,-1.00,3.11,2.44,4.82
41.5880,0.07,0.10,-0.99,2.87,2.93,3.05
41.6060,0.08,0.10,-0.99,3.17,2.75,2.20
41.6200,0.08,0.11,-0.99,3.17,2.62,1.95
41.6370,0.08,0.11,-0.99,3.05,3.11,2.14
41.6530,0.09,0.11,-0.99,3.17,2.99,1.95
41.6690,0.08,0.12,-0.99,3.30,2.93,2.20
41.6840,0.08,0.11,-0.99,3.30,3.11,2.44
41.6870,0.08,0.11,-0.99,3.17,3.05,2.44
41.7140,0.08,0.12,-0.99,3.17,2.69,2.32
41.7210,0.09,0.12,-0.99,3.23,2.75,3.11
41.7380,0.09,0.12,-0.99,3.17,2.75,3.48
41.7540,0.10,0.14,-0.98,3.05,2.56,5.07
41.7780,0.08,0.15,-0.99,2.69,1.95,7.75
41.7920,0.05,0.03,-1.00,2.93,2.08,7.93
41.8080,0.07,0.09,-0.99,3.05,2.62,2.93
41.8220,0.08,0.10,-0.99,3.36,2.87,1.59
41.8380,0.08,0.11,-0.99,3.17,2.99,1.83
41.8550,0.08,0.12,-0.99,3.23,2.87,1.83
41.8700,0.08,0.11,-0.99,3.17,3.23,2.01
41.8790,0.08,0.11,-0.99,3.30,3.11,1.95
41.9000,0.08,0.11,-0.99,3.42,3.05,2.01
41.9170,0.08,0.11,-0.99,3.11,3.17,2.08
41.9330,0.08,0.11,-0.99,3.05,3.17,2.08
41.9340,0.09,0.11,-0.99,2.99,2.99,2.26
41.9650,0.08,0.11,-0.99,3.30,2.99,2.26
41.9800,0.08,0.11,-0.99,3.42,2.87,2.20
41.9850,0.08,0.11,-0.99,3.42,3.42,2.14
42.0020,0.08,0.11,-0.99,3.42,3.30,2.26
42.0250,0.09,0.12,-0.99,3.30,3.11,2.14
42.0410,0.09,0.12,-0.99,3.11,3.17,2.14
42.0580,0.09,0.12,-0.99,2.81,2.93,2.32
42.0730,0.07,0.10,-0.99,2.08,2.93,3.36
42.0750,0.08,0.10,-0.99,3.30,3.36,3.05
42.1050,0.08,0.11,-0.99,3.42,3.60,2.20
42.1200,0.09,0.12,-0.99,3.60,3.42,2.26
42.1370,0.08,0.11,-0.99,2.75,3.36,2.38
42.1520,0.08,0.11,-0.99,3.05,2.75,2.32
42.1670,0.08,0.11,-0.99,3.23,3.11,2.14
42.1830,0.08,0.11,-0.99,3.05,3.54,2.01
42.1980,0.09,0.12,-0.99,3.48,2.75,2.26
42.2080,0.09,0.12,-0.99,3.05,2.81,2.87
42.2260,0.07,0.10,-0.99,3.30,2.99,3.72
42.2410,0.07,0.10,-1.00,3.11,3.11,3.54
42.2590,0.08,0.10,-0.99,3.23,3.36,2.38
42.2590,0.08,0.11,-0.99,3.36,3.30,2.14
42.2900,0.09,0.11,-0.99,3.17,3.30,2.08
42.3060,0.09,0.11,-0.99,3.23,3.36,1.95
42.3210,0.08,0.11,-0.99,3.30,2.81,2.01
42.3360,0.08,0.11,-0.99,3.42,2.69,2.20
42.3420,0.09,0.11,-0.99,3.54,3.05,2.38
42.3690,0.09,0.12,-0.99,3.23,2.93,2.44
42.3750,0.08,0.11,-0.99,2.87,2.81,3.54
42.3910,0.08,0.11,-0.99,2.81,2.75,3.48
42.4140,0.08,0.11,-0.99,3.11,2.87,3.23
42.4300,0.09,0.11,-0.99,3.17,2.81,2.69
42.4470,0.08,0.11,-0.99,3.11,3.05,2.81
42.4620,0.08,0.11,-0.99,3.23,2.87,2.69
42.4790,0.09,0.11,-0.99,3.30,2.93,2.81
42.4940,0.09,0.12,-0.99,3.05,3.23,3.05
42.5080,0.11,0.14,-0.98,2.56,2.62,3.72
42.5140,0.07,0.09,-0.99,2.81,2.44,4.82
42.5300,0.08,0.11,-0.99,3.17,2.38,3.42
42.5540,0.10,0.14,-0.98,2.99,2.62,3.30
42.5560,0.07,0.09,-1.00,3.17,2.44,4.33
42.5730,0.08,0.10,-0.99,3.05,2.87,3.05
42.5960,0.10,0.13,-0.99,3.30,2.99,2.75
42.6120,0.07,0.10,-0.99,3.05,2.99,4.94
42.6270,0.07,0.10,-0.99,3.11,2.44,5.43
42.6450,0.08,0.11,-0.99,2.87,2.62,4.15
42.6590,0.07,0.10,-0.99,2.99,2.87,3.36
42.6760,0.08,0.11,-0.99,3.23,2.69,2.44
42.6910,0.08,0.11,-0.99,2.99,2.93,2.32
42.7070,0.09,0.12,-0.99,3.11,2.81,2.75
42.7230,0.09,0.12,-0.99,3.23,2.93,3.17
42.7380,0.08,0.11,-0.99,3.30,2.62,3.30
42.7440,0.09,0.12,-0.99,2.99,3.17,2.81
42.7600,0.08,0.11,-0.99,3.11,3.17,3.54
42.7870,0.09,0.12,-0.99,3.05,2.99,3.60
42.8010,0.10,0.14,-0.98,2.93,2.81,3.54
42.8100,0.09,0.12,-0.99,2.93,2.81,4.03
42.8250,0.07,0.10,-0.99,3.05,2.69,3.78
42.8470,0.08,0.10,-0.99,3.05,2.50,2.69
42.8630,0.09,0.12,-0.99,3.17,2.87,2.69
42.8790,0.08,0.12,-0.99,2.99,2.69,3.85
42.8930,0.09,0.12,-0.99,2.81,2.56,4.64
42.9080,0.07,0.10,-0.99,3.05,2.20,6.53
42.9230,0.08,0.10,-0.99,2.93,2.44,5.37
42.9310,0.08,0.10,-0.99,3.11,2.69,3.97
42.9470,0.08,0.10,-0.99,2.93,2.87,2.62
42.9650,0.08,0.11,-0.99,3.11,3.17,2.50
42.9810,0.08,0.11,-0.99,3.36,3.23,2.50
42.9970,0.09,0.11,-0.99,3.48,3.30,2.50
43.0130,0.08,0.12,-0.99,3.23,3.23,2.62
43.0300,0.09,0.11,-0.99,3.17,3.11,2.56
43.0460,0.10,0.13,-0.98,2.99,3.11,2.44
43.0480,0.08,0.10,-0.99,3.36,2.93,2.99
43.0770,0.08,0.11,-0.99,3.23,3.23,2.87
43.0800,0.08,0.11,-0.99,3.17,3.11,2.56
43.1020,0.08,0.11,-0.99,3.23,3.30,2.32
43.1190,0.08,0.11,-0.99,3.54,3.11,2.08
43.1360,0.09,0.11,-0.99,3.23,2.87,2.01
43.1540,0.10,0.14,-0.99,2.93,2.99,2.38
43.1690,0.07,0.11,-1.00,3.05,2.81,3.78
43.1860,0.06,0.10,-1.00,3.36,2.81,3.91
43.2020,0.09,0.12,-0.99,3.23,3.17,2.62
43.2030,0.06,0.09,-1.00,3.48,3.05,2.99
43.2330,0.09,0.12,-0.99,3.30,2.93,2.08
43.2470,0.08,0.11,-0.99,3.30,2.87,2.14
43.2530,0.09,0.12,-0.99,3.23,3.30,2.44
43.2790,0.09,0.12,-0.99,3.05,3.11,2.87
43.2860,0.11,0.14,-0.98,3.11,2.93,2.93
43.3030,0.06,0.09,-1.00,3.17,2.99,3.72
43.3210,0.08,0.11,-0.99,3.23,3.05,2.81
43.3360,0.10,0.15,-0.98,3.30,2.93,3.30
43.3530,0.10,0.13,-0.98,2.75,2.32,5.86
43.3690,0.07,0.09,-0.99,2.62,2.26,5.31
43.3850,0.08,0.10,-0.99,3.05,2.81,2.75
43.3860,0.08,0.11,-0.99,3.42,3.05,2.32
43.4030,0.09,0.12,-0.99,3.30,3.23,2.26
43.4330,0.09,0.12,-0.99,3.23,3.17,2.44
43.4360,0.09,0.14,-0.99,2.99,3.36,2.93
43.4520,0.11,0.14,-1.00,3.17,2.75,4.88
43.4770,0.07,0.10,-0.99,3.11,2.69,4.94
43.4940,0.10,0.13,-0.99,3.05,2.75,3.42
43.5090,0.07,0.10,-1.00,3.23,2.87,4.15
43.5250,0.08,0.11,-0.99,2.87,2.69,3.54
43.5410,0.09,0.11,-0.99,3.17,3.05,3.30
43.5440,0.09,0.13,-0.99,3.17,2.69,3.66
43.5730,0.07,0.10,-0.99,3.11,2.69,4.64
43.5890,0.08,0.11,-0.99,2.99,2.69,3.72
43.6050,0.08,0.11,-0.99,3.11,2.56,4.64
43.6210,0.11,0.18,-0.98,2.56,2.50,6.10
43.6340,0.08,0.10,-0.99,2.93,2.20,8.54
43.6430,0.10,0.11,-0.98,2.93,2.26,6.41
43.6590,0.07,0.08,-1.00,3.54,2.50,5.92
43.6750,0.07,0.09,-0.99,2.93,2.87,4.27
43.6970,0.10,0.14,-0.98,2.93,2.81,2.81
43.7020,0.07,0.11,-0.99,2.99,2.50,4.94
43.7270,0.12,0.19,-0.97,2.81,2.87,5.13
43.7420,0.07,0.10,-0.99,2.99,1.95,8.42
43.7570,0.09,0.14,-0.99,2.93,2.38,8.12
43.7730,0.06,0.06,-1.00,3.23,2.50,8.54
43.7880,0.06,0.08,-1.00,2.81,2.50,4.64
43.8020,0.09,0.11,-0.99,3.05,3.05,1.59
43.8130,0.08,0.11,-0.99,3.17,2.99,1.53
43.8350,0.08,0.11,-0.99,3.11,3.05,1.65
43.8510,0.08,0.11,-0.99,3.23,3.42,1.83
43.8520,0.08,0.11,-0.99,3.42,2.99,2.01
43.8830,0.08,0.11,-0.99,3.42,2.99,2.14
43.8850,0.09,0.11,-0.99,3.23,3.42,2.26
43.9020,0.09,0.12,-0.99,3.11,2.99,2.50
43.9180,0.09,0.12,-0.99,2.93,3.23,2.50
43.9330,0.08,0.11,-0.99,2.93,3.11,2.44
43.9550,0.09,0.11,-0.99,3.17,2.87,2.26
43.9720,0.09,0.11,-0.99,2.99,3.11,2.26
43.9880,0.09,0.13,-0.99,2.87,3.11,2.50
44.0040,0.06,0.10,-1.00,2.87,3.17,3.97
44.0220,0.08,0.11,-0.99,3.05,3.17,2.93
44.0380,0.08,0.11,-0.99,3.23,3.11,2.50
44.0530,0.08,0.11,-0.99,2.93,3.05,2.26
44.0680,0.10,0.12,-0.99,3.05,2.99,2.14
44.0710,0.12,0.14,-0.98,3.11,2.99,2.81
44.1010,0.09,0.10,-0.99,2.62,2.81,4.39
44.1050,0.06,0.10,-0.99,2.99,2.99,4.21
44.1210,0.08,0.10,-0.99,3.05,3.05,2.69
44.1480,0.06,0.11,-0.99,3.30,2.99,2.32
44.1630,0.07,0.10,-0.99,3.17,3.36,2.32
44.1720,0.08,0.11,-0.99,2.99,2.99,2.26
44.1880,0.08,0.12,-0.99,2.81,3.17,1.95
44.2050,0.08,0.11,-0.99,3.36,3.48,1.95
44.2230,0.09,0.11,-0.99,3.17,3.23,2.32
44.2380,0.09,0.12,-0.99,3.23,3.30,2.14
44.2540,0.09,0.11,-0.99,3.23,3.23,2.56
44.2710,0.08,0.11,-0.99,3.11,3.17,2.56
44.2720,0.08,0.11,-0.99,2.99,3.23,2.20
44.3020,0.08,0.12,-0.99,3.23,3.60,2.38
44.3180,0.08,0.11,-0.99,3.23,2.87,2.44
44.3230,0.08,0.11,-0.99,3.48,3.05,2.50
44.3390,0.08,0.11,-0.99,3.11,3.17,2.56
44.3630,0.09,0.12,-0.99,3.17,3.36,2.44
44.3780,0.09,0.12,-0.99,2.99,2.99,2.50
44.3940,0.09,0.12,-0.99,3.11,3.11,3.17
44.4090,0.08,0.12,-0.99,3.11,2.93,3.60
44.4250,0.08,0.11,-0.99,3.05,2.99,4.21
44.4280,0.08,0.11,-0.99,2.87,3.05,3.66
44.4440,0.08,0.11,-0.99,2.99,3.11,2.81
44.4600,0.08,0.11,-0.99,3.17,3.11,2.69
44.4830,0.09,0.13,-0.99,3.36,3.05,2.87
44.5020,0.09,0.12,-0.99,2.75,2.50,5.74
44.5170,0.07,0.11,-0.99,2.81,2.56,6.29
44.5330,0.08,0.11,-0.99,2.81,2.75,4.39
44.5480,0.08,0.11,-0.99,2.75,3.17,3.78
44.5640,0.08,0.11,-0.99,2.87,3.11,3.30
44.5670,0.08,0.11,-0.99,3.05,3.17,3.17
44.5830,0.09,0.12,-0.99,3.11,3.05,2.99
44.6060,0.08,0.12,-0.99,2.81,2.99,3.85
44.6240,0.08,0.11,-0.99,2.81,2.99,3.85
44.6410,0.08,0.11,-0.99,3.05,2.99,3.60
44.6560,0.08,0.12,-0.99,3.17,2.87,3.54
44.6730,0.08,0.10,-0.99,2.93,3.05,3.91
44.6740,0.08,0.11,-0.99,3.11,3.05,2.81
44.7030,0.08,0.12,-0.99,3.05,3.05,2.69
44.7070,0.09,0.12,-0.99,2.99,2.99,2.93
44.7240,0.08,0.11,-0.99,2.99,3.05,3.11
44.7400,0.08,0.11,-0.99,2.99,3.36,2.44
44.7570,0.08,0.11,-0.99,2.93,3.30,1.71
44.7720,0.09,0.12,-0.99,3.23,3.05,1.71
44.7960,0.08,0.11,-0.99,3.42,3.66,1.53
44.8130,0.08,0.11,-0.99,3.48,3.36,2.44
44.8290,0.08,0.12,-0.99,3.42,3.11,2.93
44.8440,0.08,0.11,-0.99,3.23,3.05,2.81
44.8590,0.09,0.11,-0.99,3.23,3.05,2.56
44.8750,0.08,0.12,-0.99,3.23,3.17,2.75
44.8790,0.09,0.11,-0.99,3.54,2.75,4.21
44.9030,0.09,0.13,-0.98,3.85,3.11,3.30
44.9200,0.07,0.10,-0.99,2.26,3.11,3.11
44.9380,0.07,0.10,-0.99,3.17,3.30,2.56
44.9530,0.08,0.11,-0.99,3.72,3.11,2.32
44.9690,0.09,0.12,-0.99,3.66,3.42,2.62
44.9710,0.08,0.12,-0.99,3.72,3.17,2.81
45.0010,0.08,0.11,-0.99,3.42,3.17,2.20
45.0160,0.08,0.11,-0.99,3.66,3.05,1.89
45.0200,0.08,0.12,-0.99,4.39,3.17,1.95
45.0360,0.09,0.12,-0.99,3.30,3.11,1.59
45.0600,0.09,0.12,-0.98,3.91,3.60,0.92
45.0760,0.08,0.11,-0.99,4.64,3.60,0.79
45.0920,0.08,0.11,-0.99,4.94,3.30,1.46
45.1080,0.08,0.12,-0.99,4.27,2.99,1.89
45.1240,0.08,0.12,-0.99,2.99,3.11,1.83
45.1260,0.08,0.12,-0.99,2.56,2.93,1.77
45.1420,0.08,0.12,-0.99,2.32,3.42,1.83
45.1660,0.08,0.12,-0.99,2.56,3.60,1.77
45.1820,0.09,0.11,-0.99,0.67,3.11,1.95
45.1990,0.08,0.11,-0.99,2.50,3.42,2.08
45.2160,0.08,0.11,-0.99,2.69,2.75,2.08
45.2310,0.08,0.12,-0.99,3.17,3.17,2.08
45.2480,0.08,0.12,-0.99,2.69,3.11,1.95
45.2640,0.08,0.11,-0.99,2.62,3.30,1.83
45.2780,0.08,0.11,-1.00,1.65,3.23,2.75
45.2930,0.08,0.11,-0.99,2.32,3.11,2.62
45.3080,0.09,0.11,-0.99,2.26,2.99,2.87
45.3160,0.09,0.11,-0.99,2.93,3.30,1.83
45.3330,0.08,0.11,-0.99,2.99,3.30,0.49
45.3490,0.08,0.11,-0.99,2.75,3.36,1.65
45.3690,0.08,0.11,-0.99,2.62,3.30,2.01
45.3840,0.08,0.11,-0.99,2.81,3.17,2.14
45.3990,0.08,0.11,-0.99,2.50,3.05,1.59
45.4140,0.09,0.12,-0.99,2.62,3.23,0.98
45.4240,0.09,0.12,-0.99,2.87,3.48,0.73
45.4400,0.08,0.11,-0.99,2.93,3.23,1.46
45.4580,0.08,0.11,-0.99,3.30,3.17,1.53
45.4740,0.08,0.11,-0.99,3.36,3.23,1.59
45.4900,0.09,0.12,-0.99,3.05,3.11,1.40
45.5060,0.08,0.12,-0.99,3.05,3.23,1.10
45.5220,0.08,0.11,-0.99,2.81,3.17,1.22
45.5240,0.08,0.10,-0.99,2.69,3.17,1.04
45.5530,0.08,0.12,-0.99,2.81,2.99,0.67
45.5680,0.09,0.12,-0.99,2.81,3.42,1.22
45.5740,0.09,0.12,-0.99,2.69,3.30,1.40
45.5980,0.08,0.16,-1.02,2.20,3.17,1.53
45.6070,0.08,0.11,-0.99,3.30,3.30,2.01
45.6240,0.09,0.11,-0.99,4.03,3.17,2.01
45.6410,0.09,0.11,-0.99,3.17,2.93,1.65
45.6560,0.09,0.11,-0.99,3.11,3.42,0.98
45.6750,0.09,0.11,-0.99,3.91,3.66,0.49
45.6910,0.08,0.12,-0.99,3.17,3.48,0.85
45.7040,0.09,0.11,-0.99,3.23,3.36,1.16
45.7110,0.08,0.11,-0.99,3.30,3.23,-0.24
45.7370,0.08,0.12,-0.99,3.72,3.72,-0.06
45.7480,0.08,0.12,-0.99,2.44,2.93,0.92
45.7650,0.08,0.11,-0.99,2.87,3.05,1.65
45.7810,0.08,0.11,-0.99,3.11,3.30,1.65
45.7980,0.08,0.11,-0.99,2.99,3.11,2.01
45.8150,0.09,0.11,-0.99,3.42,2.93,2.01
45.8310,0.08,0.11,-0.99,3.17,3.17,1.89
45.8480,0.08,0.11,-0.99,3.30,3.11,1.10
45.8630,0.08,0.11,-0.99,3.11,3.30,1.46
45.8650,0.08,0.11,-0.99,3.36,2.99,1.83
45.8930,0.08,0.11,-0.99,3.23,2.99,1.89
45.9040,0.08,0.11,-0.99,3.17,3.36,1.89
45.9140,0.08,0.11,-0.99,3.23,2.87,2.01
45.9380,0.09,0.11,-0.99,3.23,2.81,2.08
45.9540,0.09,0.11,-0.99,3.30,3.11,2.08
45.9690,0.08,0.12,-0.99,3.30,3.11,0.79
45.9840,0.08,0.11,-0.99,2.99,3.30,1.95
45.9990,0.09,0.11,-0.99,3.23,2.99,1.89
46.0050,0.08,0.11,-0.99,3.11,3.11,0.92
46.0210,0.08,0.12,-0.99,3.11,3.23,1.22
46.0440,0.08,0.11,-0.99,3.05,3.17,1.40
46.0590,0.09,0.11,-0.99,3.11,3.11,1.71
46.0620,0.08,0.11,-0.99,3.05,2.99,1.83
46.0890,0.09,0.11,-0.99,3.05,3.30,1.46
46.1050,0.08,0.11,-0.99,3.36,2.75,1.59
46.1200,0.08,0.11,-0.99,3.23,3.17,1.65
46.1350,0.08,0.11,-0.99,3.17,3.48,1.89
46.1450,0.08,0.11,-0.99,3.17,3.05,1.95
46.1620,0.08,0.11,-0.99,3.23,3.17,1.95
46.1800,0.08,0.11,-0.99,3.23,3.05,1.95
46.1960,0.09,0.11,-0.99,3.17,2.99,1.77
46.2120,0.08,0.11,-0.99,3.36,3.05,1.95
46.2280,0.09,0.11,-0.99,3.42,3.30,1.89
46.2440,0.09,0.11,-0.99,3.17,3.05,2.08
46.2590,0.08,0.11,-0.99,3.05,3.30,1.89
46.2630,0.08,0.11,-0.99,3.11,3.11,1.95
46.2910,0.09,0.11,-0.99,3.23,3.17,1.95
46.3050,0.08,0.11,-0.99,3.11,3.30,1.71
46.3130,0.09,0.11,-0.99,3.11,3.11,1.53
46.3280,0.08,0.11,-0.99,3.42,3.23,1.40
46.3510,0.08,0.11,-0.99,3.54,3.11,1.10
46.3690,0.09,0.11,-0.99,3.30,3.30,1.04
46.3840,0.08,0.11,-0.99,3.30,3.42,0.79
46.4010,0.08,0.11,-0.99,3.23,3.42,1.22
46.4160,0.08,0.11,-0.99,3.36,3.23,1.53
46.4180,0.09,0.11,-0.99,3.11,3.42,1.16
46.4350,0.08,0.11,-0.99,3.17,3.05,1.46
46.4640,0.09,0.11,-0.99,3.11,2.99,1.77
46.4680,0.09,0.11,-0.99,3.36,3.17,1.04
46.4850,0.08,0.12,-0.99,3.30,3.23,0.18
46.5050,0.09,0.11,-0.99,3.11,3.05,1.22
46.5260,0.09,0.10,-0.99,3.17,3.11,0.24
46.5340,0.08,0.12,-0.99,3.42,3.23,0.73
46.5520,0.08,0.11,-0.99,3.30,2.99,1.89
46.5670,0.08,0.11,-0.99,3.17,3.05,2.14
46.5850,0.08,0.11,-0.99,3.36,2.81,2.08
46.6010,0.09,0.11,-0.99,3.30,2.93,2.14
46.6050,0.08,0.11,-0.99,3.05,3.11,2.08
46.6340,0.08,0.11,-0.99,3.30,2.93,1.83
46.6350,0.08,0.11,-0.99,3.11,3.30,2.20
46.6660,0.09,0.10,-0.98,3.48,3.30,1.95
46.6680,0.08,0.11,-0.99,2.75,3.23,1.89
46.6850,0.08,0.12,-0.99,3.72,2.99,1.95
46.7050,0.08,0.11,-0.99,3.42,3.17,1.83
46.7180,0.08,0.11,-0.99,3.05,2.69,1.89
46.7400,0.09,0.11,-0.99,3.17,2.87,2.08
46.7570,0.08,0.11,-0.99,3.36,3.30,2.01
46.7730,0.08,0.11,-0.99,2.99,3.11,2.01
46.7890,0.08,0.11,-0.99,3.30,3.11,1.89
46.8060,0.08,0.11,-0.99,3.17,2.99,1.95
46.8210,0.08,0.11,-0.99,3.11,3.42,2.08
46.8380,0.08,0.11,-0.99,3.17,2.87,1.95
46.8530,0.08,0.11,-0.99,3.05,3.17,1.83
46.8700,0.09,0.11,-0.99,3.30,3.23,1.77
46.8860,0.08,0.11,-0.99,3.42,3.30,1.22
46.8910,0.08,0.11,-0.99,3.30,3.42,1.28
46.9070,0.08,0.11,-0.99,3.23,2.87,1.46
46.9310,0.08,0.11,-0.99,3.42,3.30,1.89
46.9470,0.08,0.11,-0.99,3.36,3.48,1.95
46.9620,0.08,0.11,-0.99,3.30,3.05,2.01
46.9650,0.09,0.11,-0.99,3.11,3.23,1.95
46.9800,0.08,0.11,-0.99,3.17,3.17,2.08
47.0070,0.08,0.11,-0.99,3.17,3.36,2.01
47.0230,0.09,0.11,-0.99,3.05,3.42,2.01
47.0390,0.08,0.11,-0.99,3.11,3.05,1.83
47.0550,0.08,0.11,-0.99,3.30,3.05,1.95
47.0710,0.09,0.11,-0.99,3.17,2.99,2.01
47.0740,0.08,0.11,-0.99,3.48,3.30,2.08
47.1040,0.09,0.12,-0.99,3.11,3.11,2.01
47.1190,0.12,0.32,-0.97,2.32,3.36,0.73
47.1350,0.07,0.28,-0.97,4.76,5.98,-16.30
47.1510,0.06,0.04,-1.00,5.55,7.32,-24.66
47.1580,0.08,-0.05,-1.01,4.76,5.98,-16.48
47.1820,0.08,-0.04,-1.01,4.33,4.09,-4.88
47.1910,0.08,0.08,-0.99,3.78,3.66,-0.49
47.2070,0.09,0.11,-0.99,2.81,3.17,1.95
47.2230,0.08,0.11,-0.99,3.48,3.54,2.08
47.2420,0.09,0.11,-0.99,3.11,3.23,2.01
47.2470,0.08,0.11,-0.99,3.05,3.60,2.08
47.2650,0.08,0.11,-0.99,3.11,3.30,2.14
47.2810,0.09,0.11,-0.99,3.11,2.87,2.01
47.2970,0.09,0.09,-0.98,3.66,3.48,1.71
47.3140,0.08,0.11,-1.00,4.39,3.42,2.44
47.3320,0.09,0.05,-1.00,3.30,2.93,4.94
47.3470,0.09,0.13,-0.99,2.44,2.62,5.92
47.3640,0.07,0.18,-0.98,3.05,2.93,-0.73
47.3800,0.09,0.08,-0.97,1.22,2.56,0.67
47.3820,0.08,0.11,-0.99,2.81,2.69,2.01
47.4120,0.08,0.11,-0.99,3.30,3.05,2.08
47.4150,0.11,0.13,-0.98,3.05,3.36,1.53
47.4310,0.08,0.12,-0.99,3.23,3.85,-1.95
47.4460,0.07,0.10,-0.99,3.36,3.72,-1.77
47.4710,0.07,0.09,-0.99,3.17,3.48,-0.73
47.4890,0.08,0.11,-0.99,2.93,3.72,1.77
47.5050,0.08,0.11,-0.99,3.11,3.11,1.95
47.5220,0.08,0.11,-0.99,3.05,3.42,2.01
47.5370,0.08,0.11,-0.99,2.99,2.99,2.01
47.5550,0.08,0.11,-0.99,3.17,3.23,2.20
47.5710,0.08,0.11,-0.99,3.05,2.87,1.83
47.5890,0.08,0.11,-0.99,3.36,3.05,2.01
47.6050,0.08,0.11,-0.99,3.17,3.48,2.08
47.6210,0.09,0.11,-0.99,3.05,3.23,1.77
47.6370,0.08,0.11,-0.99,3.23,2.99,1.77
47.6530,0.08,0.11,-0.99,3.17,3.11,1.83
47.6540,0.08,0.11,-0.99,3.30,3.42,2.08
