Timestamp, AccX, AccY, AccZ, GyroX, GyroY, GyroZ
0.0110,0.07,0.13,-0.99,1.46,4.39,1.53
0.0260,0.06,0.13,-0.99,1.10,4.21,1.04
0.0320,0.07,0.09,-0.98,1.77,2.93,1.40
0.0490,0.06,0.14,-1.00,3.54,2.08,0.79
0.0690,0.07,0.12,-0.99,2.14,2.50,1.59
0.0810,0.07,0.15,-1.00,3.85,1.89,1.53
0.0980,0.07,0.13,-0.99,3.72,1.95,1.59
0.1140,0.07,0.13,-0.99,4.03,2.01,1.71
0.1150,0.07,0.13,-1.00,3.85,2.26,1.65
0.1300,0.07,0.13,-1.00,3.11,2.20,1.71
0.1580,0.07,0.13,-0.99,2.87,1.65,1.53
0.1730,0.07,0.13,-0.99,2.93,1.77,1.46
0.1880,0.07,0.13,-0.99,3.05,2.01,1.59
0.1950,0.07,0.13,-0.99,3.30,2.14,1.53
0.2130,0.07,0.13,-0.99,3.23,2.14,1.40
0.2280,0.07,0.13,-1.00,3.60,2.20,1.34
0.2460,0.07,0.13,-1.00,3.78,2.01,1.28
0.2610,0.07,0.13,-0.99,3.36,2.08,1.34
0.2760,0.07,0.13,-0.99,3.36,1.95,1.53
0.2770,0.07,0.13,-1.00,3.60,2.01,1.65
0.3060,0.07,0.13,-1.00,3.48,1.71,1.53
0.3100,0.07,0.13,-0.99,3.42,1.59,1.59
0.3270,0.07,0.13,-0.99,3.11,2.08,1.59
0.3440,0.07,0.13,-0.99,2.87,1.95,1.53
0.3640,0.07,0.13,-0.99,3.30,1.89,1.71
0.3760,0.07,0.13,-1.00,3.36,1.89,1.59
0.3920,0.07,0.13,-0.99,3.11,2.01,1.59
0.4080,0.07,0.13,-0.99,3.78,1.59,1.46
0.4240,0.07,0.13,-1.00,3.97,1.28,1.71
0.4300,0.07,0.13,-1.00,3.72,1.28,1.59
0.4540,0.07,0.13,-0.99,3.54,1.65,1.53
0.4620,0.07,0.13,-0.99,3.66,1.59,1.59
0.4780,0.07,0.13,-0.99,3.78,1.40,1.59
0.4940,0.07,0.13,-0.99,3.72,1.89,1.59
0.5110,0.07,0.13,-1.00,3.72,2.08,1.59
0.5270,0.07,0.13,-0.99,3.48,1.95,1.65
0.5410,0.07,0.13,-0.99,3.17,1.77,1.46
0.5570,0.06,0.13,-0.99,3.36,1.77,1.89
0.5610,0.06,0.13,-0.99,3.30,2.01,1.59
0.5870,0.07,0.13,-1.00,3.23,1.89,1.59
0.5930,0.07,0.13,-0.99,3.23,2.01,1.89
0.6160,0.07,0.13,-0.99,3.30,2.14,1.83
0.6260,0.07,0.13,-1.00,3.60,1.59,1.77
0.6410,0.07,0.13,-1.00,3.42,1.89,1.83
0.6590,0.07,0.13,-1.00,3.36,2.14,1.77
0.6740,0.06,0.13,-0.99,3.11,2.56,1.89
0.6900,0.06,0.13,-0.99,3.05,2.38,2.20
0.7060,0.07,0.13,-1.00,3.85,1.59,3.78
0.7210,0.07,0.12,-1.00,3.05,2.08,4.15
0.7360,0.06,0.12,-1.00,2.75,2.14,2.50
0.7400,0.07,0.13,-0.99,2.56,2.08,2.32
0.7570,0.06,0.13,-0.99,2.93,1.89,2.69
0.7790,0.07,0.12,-0.99,3.30,1.83,2.62
0.7950,0.06,0.13,-0.99,3.30,1.95,2.81
0.8110,0.06,0.12,-0.99,3.36,1.83,3.48
0.8280,0.07,0.13,-0.99,3.11,2.14,2.75
0.8440,0.06,0.13,-0.99,3.05,1.59,2.69
0.8590,0.06,0.14,-0.99,3.36,1.95,3.78
0.8740,0.07,0.14,-0.99,3.54,1.46,6.04
0.8890,0.07,0.13,-0.99,4.15,1.16,6.96
0.9040,0.06,0.12,-1.00,3.91,1.04,6.84
0.9100,0.06,0.11,-1.00,2.99,1.53,5.92
0.9250,0.06,0.11,-0.99,2.87,1.83,4.46
0.9460,0.06,0.12,-0.99,2.87,2.08,3.91
0.9620,0.05,0.17,-0.98,3.97,1.59,2.26
0.9780,0.07,0.11,-1.00,4.33,1.34,1.89
0.9940,0.06,0.13,-1.00,2.99,1.95,2.87
1.0100,0.06,0.13,-0.98,2.62,2.20,3.11
1.0250,0.06,0.14,-0.99,4.09,1.89,2.99
1.0280,0.07,0.13,-1.00,4.76,1.10,3.36
1.0510,0.07,0.12,-0.99,3.05,1.28,3.30
1.0650,0.07,0.13,-0.99,3.11,1.53,3.48
1.0820,0.06,0.13,-0.99,2.99,2.38,2.50
1.0970,0.06,0.12,-1.00,3.30,2.08,1.83
1.1140,0.06,0.12,-1.00,2.44,2.38,2.08
1.1300,0.07,0.14,-0.99,2.75,2.20,2.08
1.1460,0.07,0.13,-0.99,4.15,1.28,2.14
1.1500,0.06,0.13,-1.00,3.91,1.40,3.17
1.1780,0.06,0.13,-0.99,3.42,1.89,3.11
1.1940,0.06,0.12,-1.00,3.23,1.95,2.81
1.2090,0.07,0.12,-0.99,3.05,1.71,1.89
1.2250,0.07,0.12,-0.99,2.93,1.65,1.65
1.2280,0.06,0.13,-0.99,3.60,1.71,1.71
1.2570,0.06,0.12,-1.00,4.52,1.59,1.83
1.2720,0.06,0.12,-1.00,4.03,1.95,1.89
1.2860,0.06,0.13,-0.99,2.87,2.62,1.71
1.2980,0.06,0.13,-0.99,3.48,2.26,1.59
1.3140,0.07,0.12,-1.00,4.03,2.01,1.71
1.3340,0.06,0.13,-0.99,3.60,1.40,1.59
1.3490,0.06,0.13,-0.99,3.97,1.71,1.65
1.3640,0.06,0.13,-0.99,3.97,1.77,1.59
1.3790,0.07,0.12,-0.99,3.78,1.83,1.59
1.3940,0.07,0.13,-0.99,3.66,1.95,1.59
1.4100,0.07,0.13,-0.99,4.27,1.59,1.65
1.4250,0.07,0.13,-1.00,4.39,1.34,1.65
1.4390,0.07,0.13,-0.99,3.54,1.53,1.53
1.4510,0.06,0.13,-0.99,3.42,2.01,1.53
1.4660,0.06,0.13,-0.99,3.54,1.89,1.65
1.4840,0.06,0.13,-0.99,3.30,1.53,1.46
1.4990,0.07,0.13,-0.99,3.42,1.77,1.71
1.5140,0.07,0.13,-0.99,3.97,1.71,1.71
1.5290,0.07,0.13,-0.99,4.09,1.83,1.65
1.5420,0.07,0.13,-1.00,3.72,1.89,1.65
1.5590,0.07,0.13,-0.99,3.66,1.89,1.71
1.5740,0.07,0.13,-0.99,3.48,1.77,1.65
1.5890,0.07,0.13,-0.99,3.60,1.46,1.53
1.6040,0.07,0.13,-0.99,3.60,1.53,1.46
1.6130,0.07,0.13,-0.99,3.72,1.46,1.59
1.6290,0.06,0.13,-0.99,3.36,1.65,1.59
1.6500,0.07,0.13,-1.00,3.54,1.59,1.65
1.6510,0.07,0.13,-0.99,3.30,1.83,1.77
1.6670,0.07,0.13,-0.99,3.36,1.59,1.65
1.6840,0.07,0.13,-0.99,3.48,1.95,1.65
1.7000,0.07,0.13,-1.00,3.48,1.71,1.71
1.7260,0.07,0.13,-0.99,3.48,1.83,1.71
1.7410,0.07,0.13,-0.99,3.60,1.53,1.59
1.7550,0.07,0.13,-0.99,3.48,1.83,1.71
1.7650,0.07,0.13,-1.00,3.66,1.65,1.77
1.7820,0.07,0.13,-0.99,3.48,1.83,1.59
1.7970,0.07,0.13,-0.99,3.48,2.01,1.65
1.8130,0.07,0.13,-0.99,3.36,1.95,1.71
1.8300,0.07,0.13,-0.99,3.42,2.26,1.59
1.8460,0.07,0.13,-0.99,3.60,2.08,1.77
1.8630,0.07,0.13,-0.99,3.36,2.20,1.71
1.8780,0.07,0.13,-0.99,3.05,1.95,1.65
1.8800,0.07,0.13,-0.99,3.11,2.14,1.71
1.8950,0.07,0.13,-0.99,3.54,1.83,1.59
1.9130,0.07,0.13,-0.99,3.48,2.14,1.65
1.9400,0.07,0.13,-0.99,3.48,2.01,1.65
1.9560,0.07,0.13,-0.99,3.48,2.44,1.65
1.9620,0.07,0.13,-0.99,3.42,2.38,1.83
1.9770,0.07,0.13,-0.99,3.17,2.26,1.53
1.9990,0.06,0.13,-0.99,3.42,1.83,1.59
2.0150,0.06,0.13,-0.99,3.30,1.89,1.65
2.0320,0.07,0.13,-0.99,3.54,2.01,1.71
2.0470,0.07,0.13,-0.99,3.60,2.01,1.71
2.0630,0.07,0.13,-1.00,3.30,2.08,1.46
2.0790,0.07,0.13,-0.99,3.42,2.01,1.77
2.0940,0.07,0.13,-0.99,3.48,2.01,1.89
2.1090,0.06,0.13,-0.99,3.36,1.89,1.65
2.1130,0.07,0.13,-0.99,3.36,1.95,1.65
2.1390,0.07,0.13,-0.99,3.48,1.71,1.77
2.1550,0.07,0.13,-0.99,3.60,2.01,1.77
2.1650,0.07,0.13,-1.00,3.66,1.83,1.77
2.1820,0.06,0.13,-0.99,3.54,1.59,1.83
2.1970,0.07,0.13,-0.99,3.54,2.01,1.59
2.2130,0.07,0.13,-1.00,3.48,1.46,1.53
2.2280,0.07,0.13,-0.99,3.42,1.65,1.65
2.2440,0.07,0.13,-0.99,3.17,1.71,1.59
2.2600,0.07,0.13,-1.00,3.05,1.59,1.65
2.2630,0.07,0.13,-0.99,3.17,2.01,1.77
2.2790,0.06,0.13,-0.99,3.42,1.77,1.65
2.2990,0.07,0.13,-1.00,3.36,1.65,1.53
2.3210,0.07,0.13,-0.99,3.36,1.71,1.71
2.3320,0.07,0.13,-0.99,3.30,1.53,1.65
2.3480,0.07,0.13,-1.00,3.17,2.32,1.59
2.3650,0.07,0.13,-0.99,3.42,2.14,1.71
2.3820,0.07,0.13,-0.99,3.48,2.14,1.59
2.3970,0.07,0.13,-1.00,3.48,2.01,1.71
2.4140,0.07,0.13,-0.99,3.36,2.14,1.77
2.4280,0.07,0.13,-0.99,3.36,1.65,1.65
2.4420,0.07,0.13,-0.99,3.54,1.65,1.65
2.4580,0.07,0.13,-0.99,3.66,1.95,1.71
2.4720,0.07,0.13,-0.99,3.36,1.89,1.59
2.4870,0.07,0.13,-0.99,3.66,2.01,1.71
2.5010,0.07,0.13,-0.99,3.54,2.08,1.59
2.5120,0.07,0.13,-0.99,3.23,2.14,1.65
2.5280,0.07,0.13,-0.99,3.23,2.32,1.71
2.5450,0.07,0.13,-0.99,3.36,2.32,1.71
2.5610,0.07,0.13,-0.99,3.23,1.95,1.71
2.5770,0.07,0.13,-0.99,3.48,1.83,1.65
2.5920,0.07,0.13,-0.99,3.42,1.95,1.65
2.6080,0.06,0.13,-0.99,3.48,2.08,1.71
2.6240,0.07,0.13,-0.99,3.05,2.32,1.77
2.6390,0.07,0.13,-0.99,3.11,2.50,1.89
2.6550,0.06,0.13,-0.99,2.99,2.56,1.77
2.6700,0.01,0.14,-1.00,3.54,2.62,2.87
2.6860,0.08,0.12,-1.00,3.36,2.14,2.62
2.7010,0.07,0.13,-0.99,3.30,1.95,1.65
2.7160,0.06,0.13,-0.99,3.30,2.32,1.65
2.7300,0.07,0.13,-0.99,3.17,2.26,1.83
2.7410,0.07,0.13,-0.99,3.54,2.20,1.89
2.7570,0.07,0.13,-0.99,3.48,1.95,1.71
2.7750,0.07,0.13,-0.99,3.60,2.32,1.71
2.7900,0.07,0.13,-0.99,3.60,1.95,1.65
2.8060,0.06,0.13,-0.99,3.11,2.32,1.77
2.8220,0.04,0.14,-1.00,3.11,2.44,2.50
2.8370,0.08,0.12,-1.00,3.30,2.14,2.93
2.8520,0.05,0.13,-0.99,3.30,2.14,2.08
2.8670,0.08,0.12,-0.99,3.78,2.44,2.50
2.8720,0.07,0.13,-1.00,3.78,1.83,1.77
2.8980,0.07,0.13,-0.99,3.54,2.01,1.71
2.9130,0.07,0.13,-0.99,3.36,1.77,1.71
2.9270,0.07,0.13,-1.00,3.54,2.20,1.71
2.9380,0.07,0.13,-0.99,3.42,2.38,1.77
2.9540,0.07,0.13,-0.99,3.60,2.14,1.83
2.9710,0.06,0.13,-0.99,3.42,2.08,1.77
2.9870,0.06,0.13,-0.99,3.66,1.95,1.83
3.0020,0.06,0.13,-0.99,3.97,1.83,1.71
3.0190,0.06,0.13,-0.99,3.48,1.95,1.89
3.0350,0.06,0.13,-0.99,3.66,2.01,1.65
3.0490,0.06,0.13,-1.00,3.72,1.65,1.77
3.0640,0.07,0.13,-0.99,3.78,1.46,1.53
3.0790,0.06,0.13,-1.00,3.72,1.53,1.71
3.0940,0.06,0.13,-0.99,3.42,1.83,1.83
3.1080,0.05,0.14,-0.99,3.36,1.95,2.32
3.1230,0.07,0.12,-1.00,3.42,2.69,3.85
3.1340,0.07,0.12,-0.99,3.42,1.89,2.08
3.1500,0.06,0.13,-1.00,3.42,1.40,2.26
3.1660,0.07,0.12,-0.99,3.54,2.32,2.56
3.1820,0.07,0.13,-1.00,3.36,2.01,1.95
3.1990,0.06,0.13,-0.99,3.36,2.32,1.95
3.2140,0.06,0.13,-0.99,3.60,2.08,1.83
3.2290,0.06,0.13,-0.99,3.78,2.14,1.71
3.2450,0.06,0.13,-0.99,3.91,1.83,1.65
3.2600,0.06,0.13,-0.99,3.48,2.32,1.59
3.2750,0.05,0.14,-0.98,2.87,2.32,3.36
3.2900,0.07,0.13,-1.00,3.60,2.62,4.88
3.3050,0.06,0.16,-0.99,3.23,1.53,5.86
3.3200,0.07,0.11,-1.00,4.21,1.46,8.18
3.3300,0.07,0.11,-1.00,3.66,1.59,7.26
3.3460,0.06,0.12,-0.99,2.38,1.71,5.00
3.3620,0.07,0.11,-1.00,2.99,1.71,3.42
3.3780,0.06,0.12,-0.99,3.23,2.26,2.20
3.3930,0.06,0.13,-0.99,3.36,1.95,1.89
3.4080,0.06,0.13,-1.00,3.60,2.14,1.89
3.4230,0.06,0.13,-1.00,3.23,2.08,1.83
3.4280,0.06,0.14,-0.99,2.87,2.01,1.95
3.4440,0.06,0.14,-0.99,3.97,1.53,3.23
3.4660,0.06,0.13,-1.00,3.78,1.77,3.97
3.4810,0.06,0.13,-0.99,3.05,1.83,3.85
3.4980,0.06,0.13,-0.99,3.36,1.89,4.33
3.5070,0.06,0.13,-1.00,3.23,1.71,4.27
3.5140,0.06,0.12,-0.99,3.42,1.65,3.91
3.5310,0.06,0.13,-0.99,3.66,1.83,3.85
3.5470,0.06,0.13,-0.99,3.78,1.89,4.33
3.5720,0.06,0.14,-0.99,3.78,1.83,5.43
3.5870,0.06,0.13,-0.99,3.30,1.77,5.86
3.5960,0.06,0.12,-1.00,3.23,1.59,5.92
3.6130,0.03,0.12,-1.00,2.93,1.59,5.13
3.6290,0.06,0.12,-0.99,2.81,1.53,4.52
3.6450,0.06,0.12,-0.99,2.87,1.71,3.66
3.6610,0.06,0.13,-0.99,3.36,2.01,3.60
3.6780,0.06,0.13,-0.99,3.72,1.71,4.09
3.6790,0.06,0.13,-0.99,3.54,1.59,4.46
3.7040,0.06,0.13,-0.99,3.11,1.34,4.52
3.7110,0.06,0.13,-0.99,3.05,1.34,4.82
3.7270,0.06,0.13,-0.99,3.23,1.40,5.13
3.7440,0.06,0.12,-0.99,3.36,1.46,5.43
3.7590,0.06,0.12,-1.00,3.17,1.46,4.33
3.7760,0.06,0.12,-0.99,2.87,1.71,3.30
3.7920,0.06,0.13,-0.99,3.17,1.71,2.87
3.8090,0.06,0.13,-1.00,3.42,1.77,3.05
3.8240,0.06,0.12,-1.00,3.54,1.89,3.17
3.8420,0.06,0.13,-1.00,2.87,1.83,2.20
3.8570,0.06,0.13,-1.00,3.17,1.65,2.26
3.8740,0.06,0.13,-0.99,3.05,1.59,1.89
3.8750,0.06,0.13,-0.99,3.36,1.83,1.83
3.9010,0.06,0.13,-1.00,3.66,1.77,1.77
3.9070,0.06,0.13,-0.99,3.60,1.89,1.77
3.9240,0.06,0.13,-0.99,3.66,1.53,1.53
3.9390,0.06,0.13,-0.99,3.72,1.83,1.71
3.9560,0.06,0.13,-0.99,3.30,2.01,1.59
3.9720,0.06,0.13,-1.00,3.36,2.26,1.71
3.9870,0.06,0.13,-0.99,3.60,2.44,1.59
4.0070,0.06,0.13,-1.00,3.60,2.08,1.65
4.0220,0.06,0.13,-1.00,3.54,2.14,1.65
4.0380,0.06,0.13,-0.99,3.66,2.08,1.65
4.0550,0.06,0.13,-0.99,3.66,2.08,1.71
4.0710,0.06,0.13,-0.99,3.66,1.83,1.71
4.0850,0.06,0.13,-0.99,3.85,1.65,1.59
4.1000,0.07,0.13,-0.99,3.91,1.46,1.59
4.1150,0.06,0.13,-0.99,3.54,1.71,1.65
4.1300,0.07,0.13,-0.99,3.72,1.89,1.65
4.1440,0.06,0.13,-0.99,3.97,2.01,1.71
4.1580,0.06,0.13,-0.99,3.78,2.32,1.77
4.1690,0.06,0.12,-1.00,3.36,1.89,1.65
4.1860,0.06,0.13,-1.00,3.48,2.14,1.59
4.2010,0.07,0.13,-0.99,3.66,2.20,1.65
4.2190,0.07,0.13,-0.99,3.60,1.89,1.77
4.2350,0.07,0.13,-0.99,3.42,1.89,1.65
4.2500,0.06,0.13,-0.99,3.23,1.95,1.77
4.2520,0.06,0.13,-0.99,3.48,2.01,1.59
4.2810,0.06,0.13,-1.00,3.23,2.14,1.77
4.2940,0.07,0.13,-0.99,2.87,2.69,1.77
4.3000,0.07,0.13,-0.99,3.36,2.26,1.83
4.3260,0.07,0.13,-0.99,3.91,2.08,1.77
4.3370,0.06,0.13,-1.00,3.66,2.38,1.77
4.3530,0.06,0.13,-0.99,3.23,2.14,1.65
4.3690,0.06,0.13,-0.99,3.17,2.50,1.71
4.3860,0.06,0.13,-0.99,3.36,2.26,1.83
4.4030,0.07,0.13,-0.99,3.60,2.01,2.69
4.4190,0.06,0.13,-1.00,4.82,1.83,2.93
4.4340,0.06,0.12,-1.00,3.54,1.83,2.62
4.4510,0.06,0.13,-0.99,3.23,1.95,2.14
4.4650,0.06,0.14,-0.99,3.97,1.77,2.50
4.4800,0.06,0.12,-1.00,4.09,1.34,2.87
4.4950,0.06,0.13,-0.99,3.23,1.77,2.38
4.5060,0.06,0.13,-0.99,3.42,1.83,2.44
4.5220,0.06,0.13,-0.99,3.66,1.83,3.05
4.5390,0.06,0.13,-0.99,3.78,1.83,3.05
4.5540,0.06,0.13,-0.99,3.36,1.77,2.93
4.5690,0.06,0.12,-1.00,3.48,1.46,2.69
4.5840,0.06,0.13,-0.99,3.36,1.83,2.50
4.6000,0.06,0.13,-1.00,3.72,1.46,2.32
4.6150,0.06,0.13,-1.00,3.66,1.83,2.01
4.6290,0.06,0.13,-0.99,3.72,2.08,1.77
4.6440,0.07,0.14,-0.99,3.60,1.95,1.77
4.6530,0.06,0.13,-0.99,4.15,1.34,2.50
4.6680,0.06,0.13,-1.00,3.54,1.77,3.11
4.6900,0.06,0.13,-0.99,3.30,1.95,3.23
4.7060,0.06,0.13,-0.99,3.66,1.77,3.36
4.7080,0.06,0.13,-1.00,3.78,1.71,3.42
4.7230,0.06,0.13,-0.99,3.48,2.01,3.78
4.7500,0.06,0.13,-0.99,3.11,1.95,3.54
4.7560,0.06,0.13,-0.99,3.36,1.53,3.54
4.7710,0.06,0.12,-0.99,3.36,1.34,3.78
4.7940,0.06,0.12,-0.99,2.87,1.77,3.54
4.8100,0.06,0.12,-1.00,3.17,1.46,2.69
4.8260,0.06,0.13,-0.99,3.17,1.46,2.08
4.8410,0.06,0.13,-0.99,3.05,1.77,1.71
4.8570,0.06,0.13,-0.99,2.81,1.83,1.71
4.8730,0.07,0.13,-0.99,2.99,1.89,1.95
4.8880,0.07,0.13,-0.99,3.54,1.22,2.26
4.8920,0.06,0.13,-0.99,3.78,1.53,2.38
4.9080,0.06,0.13,-1.00,3.42,1.16,2.26
4.9310,0.06,0.13,-0.99,2.99,1.77,1.71
4.9470,0.06,0.14,-0.99,3.36,1.65,2.14
4.9640,0.06,0.13,-0.99,3.60,1.83,2.56
4.9790,0.06,0.13,-0.99,3.72,1.77,2.50
4.9950,0.06,0.13,-0.99,3.54,2.01,2.81
5.0100,0.06,0.13,-0.99,3.42,1.77,2.56
5.0250,0.06,0.13,-0.99,3.11,2.08,2.81
5.0400,0.06,0.13,-0.99,3.11,1.59,3.05
5.0440,0.06,0.13,-1.00,3.17,1.89,3.48
5.0600,0.06,0.13,-0.99,3.36,1.46,3.42
5.0830,0.06,0.13,-0.99,3.36,1.89,3.11
5.0980,0.07,0.14,-0.99,3.36,1.89,3.23
5.1140,0.06,0.13,-0.99,3.60,1.65,3.66
5.1310,0.06,0.12,-1.00,3.36,1.65,3.54
5.1450,0.06,0.12,-0.99,3.11,1.83,3.23
5.1480,0.06,0.13,-1.00,3.11,2.14,3.36
5.1640,0.06,0.13,-1.00,3.30,1.65,3.11
5.1900,0.06,0.12,-0.99,3.17,1.71,2.87
5.2010,0.06,0.12,-1.00,3.23,1.89,2.44
5.2170,0.06,0.13,-1.00,2.93,1.95,1.71
5.2350,0.06,0.13,-0.99,3.23,2.08,1.83
5.2500,0.06,0.13,-0.99,3.36,1.71,2.14
5.2650,0.06,0.14,-0.99,4.15,1.59,2.81
5.2810,0.07,0.14,-0.99,3.91,1.34,4.09
5.2960,0.06,0.13,-1.00,3.48,1.22,4.33
5.3110,0.06,0.12,-1.00,2.87,1.28,3.85
5.3260,0.06,0.12,-1.00,3.11,1.77,2.99
5.3320,0.06,0.12,-0.99,3.30,2.01,2.62
5.3550,0.06,0.13,-0.99,3.36,1.89,2.62
5.3650,0.06,0.13,-0.99,3.60,1.89,3.17
5.3810,0.06,0.13,-0.99,3.60,1.59,2.99
5.3990,0.06,0.13,-0.99,3.66,1.71,2.75
5.4140,0.07,0.13,-0.99,3.54,1.77,2.62
5.4300,0.07,0.14,-0.99,3.72,1.89,2.75
5.4460,0.06,0.14,-0.99,3.36,1.83,3.11
5.4600,0.06,0.13,-0.99,3.11,1.53,3.85
5.4750,0.06,0.12,-1.00,3.17,1.95,4.15
5.4910,0.06,0.12,-1.00,3.54,1.77,3.48
5.4960,0.06,0.12,-1.00,3.11,1.71,2.81
5.5110,0.06,0.12,-0.99,2.99,1.95,2.56
5.5330,0.06,0.13,-1.00,3.48,1.65,2.32
5.5500,0.06,0.13,-0.99,3.36,2.14,2.69
5.5510,0.06,0.13,-0.99,3.48,1.89,2.99
5.5800,0.06,0.13,-0.99,3.48,1.71,2.87
5.5960,0.06,0.13,-1.00,3.42,2.01,2.56
5.6100,0.06,0.13,-0.99,2.99,1.59,2.26
5.6260,0.06,0.13,-0.99,3.05,1.89,2.26
5.6410,0.06,0.13,-1.00,3.05,2.01,2.50
5.6560,0.06,0.13,-1.00,3.17,1.89,2.26
5.6710,0.06,0.13,-0.99,3.23,1.77,2.32
5.6860,0.06,0.13,-1.00,3.36,1.95,2.32
5.6960,0.06,0.13,-0.99,3.30,1.83,2.56
5.7120,0.06,0.13,-0.99,3.23,1.89,2.50
5.7320,0.06,0.13,-1.00,2.99,1.95,2.50
5.7470,0.06,0.13,-0.99,2.87,1.71,2.81
5.7610,0.06,0.12,-0.99,3.05,1.95,2.81
5.7770,0.06,0.12,-0.99,3.30,1.83,2.56
5.7920,0.06,0.13,-0.99,3.23,1.77,2.14
5.8080,0.06,0.13,-1.00,3.23,1.77,2.01
5.8230,0.06,0.13,-0.99,3.17,2.01,1.71
5.8380,0.06,0.13,-1.00,3.17,2.20,1.77
5.8480,0.06,0.13,-0.99,2.99,2.38,1.77
5.8650,0.06,0.14,-0.99,3.30,1.77,2.20
5.8820,0.06,0.13,-1.00,4.15,1.59,2.69
5.8970,0.06,0.13,-0.99,3.11,1.46,2.69
5.9030,0.06,0.13,-1.00,3.05,1.77,2.50
5.9180,0.06,0.14,-0.99,2.08,2.01,2.69
5.9330,0.06,0.13,-1.00,3.60,2.44,3.54
5.9580,0.06,0.13,-0.99,3.11,2.26,3.78
5.9630,0.06,0.12,-0.99,3.17,1.95,3.78
5.9880,0.06,0.12,-1.00,3.23,2.20,3.17
6.0040,0.06,0.12,-1.00,3.23,1.77,2.62
6.0200,0.06,0.13,-0.99,3.05,1.77,2.20
6.0220,0.06,0.13,-1.00,3.85,1.71,2.50
6.0520,0.06,0.12,-1.00,3.78,1.16,2.69
6.0670,0.06,0.12,-0.99,3.60,1.53,2.38
6.0820,0.06,0.12,-0.99,3.60,1.83,2.32
6.0970,0.06,0.12,-0.99,3.36,1.59,1.95
6.1050,0.06,0.13,-1.00,3.72,1.65,1.65
6.1260,0.06,0.13,-1.00,3.30,1.65,1.65
6.1410,0.06,0.13,-0.99,3.05,1.83,1.83
6.1530,0.06,0.14,-0.99,3.60,1.95,2.69
6.1690,0.06,0.13,-1.00,3.78,1.83,3.66
6.1860,0.06,0.12,-1.00,2.81,1.65,3.54
6.2000,0.06,0.13,-1.00,2.69,2.08,2.99
6.2170,0.06,0.12,-1.00,3.30,1.83,2.75
6.2300,0.06,0.12,-1.00,3.66,1.83,2.44
6.2460,0.06,0.13,-0.99,2.93,2.08,2.08
6.2610,0.06,0.13,-0.99,3.48,1.83,2.38
6.2660,0.06,0.16,-1.02,2.99,1.22,2.38
6.2820,0.07,0.13,-1.00,3.42,1.89,3.91
6.3040,0.07,0.12,-1.00,2.87,1.77,3.11
6.3200,0.06,0.12,-0.99,2.75,2.32,2.62
6.3360,0.06,0.12,-1.00,3.11,1.95,2.69
6.3520,0.06,0.12,-1.00,3.66,1.77,2.32
6.3670,0.06,0.13,-1.00,3.60,1.77,1.95
6.3810,0.06,0.13,-0.99,3.60,2.14,1.83
6.3860,0.06,0.13,-1.00,3.54,1.77,1.83
6.4010,0.06,0.12,-0.99,3.36,1.89,1.77
6.4240,0.06,0.13,-0.99,3.54,1.95,1.53
6.4400,0.06,0.13,-0.99,3.30,1.95,1.46
6.4560,0.06,0.12,-1.00,3.17,2.20,1.65
6.4720,0.09,0.12,-0.99,3.60,1.95,1.77
6.4740,0.06,0.13,-0.99,3.78,2.14,1.89
6.5020,0.06,0.13,-0.99,3.60,2.01,1.71
6.5060,0.06,0.13,-0.99,3.48,2.08,2.08
6.5320,0.06,0.13,-1.00,4.70,1.46,2.50
6.5470,0.06,0.13,-0.99,3.78,1.40,2.99
6.5560,0.06,0.13,-1.00,3.72,1.83,3.54
6.5710,0.06,0.12,-1.00,3.48,1.77,3.30
6.5900,0.06,0.13,-0.99,3.48,2.08,3.85
6.6060,0.06,0.13,-1.00,4.09,1.28,4.39
6.6240,0.06,0.13,-1.00,3.66,1.10,4.52
6.6400,0.06,0.12,-0.99,3.42,1.65,4.39
6.6550,0.07,0.12,-1.00,3.54,1.40,3.91
6.6710,0.06,0.11,-0.99,3.30,2.08,2.87
6.6730,0.06,0.12,-1.00,3.30,1.89,1.89
6.7020,0.06,0.13,-0.99,3.30,1.77,1.77
6.7170,0.06,0.13,-0.99,3.48,1.40,1.71
6.7330,0.06,0.14,-0.99,3.66,1.46,1.95
6.7370,0.06,0.12,-1.00,3.85,1.34,2.38
6.7520,0.06,0.13,-0.99,2.75,2.14,2.32
6.7740,0.06,0.13,-0.99,3.17,1.77,2.20
6.7910,0.06,0.13,-1.00,3.54,1.77,2.44
6.8060,0.06,0.14,-0.99,3.30,1.83,3.36
6.8080,0.06,0.13,-0.99,3.48,1.83,3.97
6.8360,0.06,0.13,-1.00,3.17,1.59,4.09
6.8500,0.06,0.12,-0.99,2.32,1.65,3.91
6.8650,0.06,0.13,-0.99,3.54,1.53,3.91
6.8800,0.06,0.13,-0.99,2.99,1.89,4.03
6.8950,0.06,0.13,-0.99,2.99,1.65,4.33
6.9100,0.06,0.12,-1.00,3.72,1.71,4.33
6.9210,0.06,0.12,-1.00,3.60,1.65,4.03
6.9380,0.06,0.11,-1.00,3.11,1.83,3.05
6.9530,0.06,0.12,-1.00,2.87,1.77,1.83
6.9710,0.06,0.13,-0.99,2.93,2.32,2.14
6.9860,0.06,0.13,-0.99,3.91,2.08,2.50
7.0010,0.06,0.12,-1.00,3.78,2.01,2.56
7.0170,0.06,0.12,-0.99,3.42,1.65,2.26
7.0320,0.06,0.13,-1.00,3.42,2.01,1.95
7.0470,0.06,0.13,-1.00,3.17,1.89,1.89
7.0620,0.06,0.13,-0.99,3.30,1.83,2.20
7.0770,0.06,0.13,-1.00,3.54,1.59,2.32
7.0890,0.06,0.13,-0.99,3.30,2.20,2.62
7.1050,0.06,0.12,-1.00,3.54,2.08,2.62
7.1210,0.06,0.12,-1.00,3.17,2.26,2.50
7.1370,0.06,0.13,-0.99,3.17,1.65,2.08
7.1540,0.06,0.13,-1.00,3.60,1.89,2.56
7.1690,0.06,0.13,-0.99,3.48,1.65,3.11
7.1840,0.06,0.13,-0.99,3.60,1.59,3.23
7.1980,0.06,0.13,-0.99,3.17,1.65,3.05
7.2040,0.06,0.12,-1.00,3.66,1.83,2.93
7.2290,0.06,0.12,-0.99,3.30,2.26,2.81
7.2440,0.06,0.13,-0.99,3.48,1.83,2.69
7.2600,0.06,0.13,-0.99,3.78,1.59,2.81
7.2750,0.06,0.13,-0.99,3.97,1.34,3.54
7.2850,0.06,0.13,-1.00,4.21,1.16,4.15
7.3010,0.06,0.13,-1.00,3.72,1.28,3.91
7.3190,0.06,0.12,-0.98,2.38,1.83,3.42
7.3340,0.06,0.12,-1.00,3.97,1.40,3.48
7.3500,0.06,0.13,-0.95,0.37,1.16,3.48
7.3660,0.07,0.13,-1.00,5.25,0.79,5.31
7.3810,0.06,0.12,-0.99,2.99,1.83,4.03
7.3950,0.06,0.12,-0.99,3.05,1.83,3.66
7.4110,0.06,0.11,-1.00,3.42,1.71,2.62
7.4260,0.06,0.12,-0.99,3.42,1.40,1.65
7.4360,0.06,0.13,-0.99,3.48,2.14,1.77
7.4470,0.06,0.13,-0.99,3.42,2.01,1.83
7.4690,0.06,0.13,-1.00,2.99,2.14,1.83
7.4850,0.06,0.13,-0.99,2.93,2.32,1.83
7.5010,0.06,0.12,-0.99,3.42,1.77,2.14
7.5180,0.06,0.13,-0.99,4.03,1.59,2.14
7.5190,0.06,0.13,-1.00,3.78,1.71,2.50
7.5360,0.06,0.13,-0.99,3.60,1.95,2.87
7.5640,0.06,0.13,-0.99,3.54,1.71,3.36
7.5800,0.06,0.13,-0.99,3.42,1.83,3.78
7.5840,0.06,0.13,-0.99,3.36,1.28,4.03
7.6120,0.06,0.12,-0.99,3.36,1.46,4.94
7.6210,0.06,0.12,-1.00,3.17,1.46,4.09
7.6370,0.06,0.12,-0.99,2.99,1.65,3.91
7.6520,0.06,0.12,-1.00,3.42,1.16,3.60
7.6690,0.06,0.12,-1.00,3.17,1.65,2.87
7.6850,0.06,0.12,-0.99,3.11,1.40,1.83
7.7020,0.06,0.13,-0.99,3.60,1.95,1.65
7.7170,0.06,0.13,-1.00,3.48,1.71,1.65
7.7320,0.06,0.13,-0.99,2.87,1.71,1.77
7.7360,0.07,0.13,-0.99,3.05,2.01,2.69
7.7510,0.06,0.13,-1.00,3.23,1.46,2.87
7.7800,0.06,0.13,-0.99,3.23,1.59,2.32
7.7960,0.06,0.12,-1.00,3.36,1.83,3.54
7.8090,0.06,0.14,-1.00,2.62,1.89,3.17
7.8210,0.06,0.13,-0.98,4.03,1.71,3.36
7.8370,0.06,0.12,-1.00,4.09,1.71,3.72
7.8530,0.07,0.12,-1.00,3.23,1.59,3.36
7.8690,0.06,0.12,-0.99,3.05,1.95,2.93
7.8850,0.06,0.12,-1.00,3.72,1.59,2.44
7.9000,0.06,0.12,-1.00,3.36,1.65,2.14
7.9150,0.06,0.13,-0.99,3.42,1.95,2.32
7.9300,0.06,0.13,-0.99,3.48,2.01,3.17
7.9450,0.07,0.13,-0.99,4.21,1.28,3.72
7.9600,0.07,0.12,-1.00,3.54,1.46,4.21
7.9750,0.06,0.12,-0.99,2.20,1.40,3.42
7.9910,0.06,0.12,-1.00,3.54,1.40,3.23
8.0050,0.05,0.14,-1.04,3.11,1.65,3.05
8.0160,0.06,0.13,-0.99,2.81,1.95,3.97
8.0340,0.06,0.12,-1.00,3.60,1.40,4.88
8.0500,0.06,0.12,-1.00,3.42,1.46,4.03
8.0650,0.06,0.11,-1.00,3.60,1.65,3.17
8.0810,0.06,0.12,-1.00,3.23,1.77,2.69
8.0960,0.06,0.13,-0.99,3.30,2.50,2.14
8.0980,0.06,0.13,-0.99,3.54,2.20,2.14
8.1240,0.06,0.13,-1.00,4.09,1.89,2.69
8.1410,0.06,0.15,-0.99,3.54,1.77,3.23
8.1510,0.06,0.14,-0.99,4.15,1.16,5.07
8.1680,0.06,0.14,-1.00,3.91,1.28,5.86
8.1850,0.06,0.12,-1.00,3.11,1.40,5.92
8.2010,0.06,0.11,-1.00,2.99,1.16,5.55
8.2170,0.06,0.11,-1.00,3.48,1.40,4.82
8.2330,0.06,0.11,-1.00,2.99,1.59,2.75
8.2490,0.06,0.13,-0.99,3.23,2.20,1.65
8.2640,0.06,0.13,-0.99,3.54,2.08,1.89
8.2790,0.06,0.13,-0.99,3.11,2.26,1.83
8.2940,0.06,0.13,-0.99,2.93,2.01,1.83
8.3090,0.06,0.13,-0.99,3.05,1.77,1.77
8.3230,0.06,0.12,-0.99,3.36,1.65,1.77
8.3380,0.06,0.13,-1.00,3.66,1.59,1.71
8.3540,0.06,0.13,-0.99,2.99,2.20,1.83
8.3640,0.06,0.13,-0.99,3.11,2.14,2.20
8.3800,0.06,0.13,-0.99,4.46,1.40,3.11
8.3970,0.06,0.14,-0.99,4.03,1.04,4.27
8.4130,0.06,0.12,-1.00,3.48,1.28,5.37
8.4290,0.06,0.12,-0.99,1.77,1.71,4.33
8.4440,0.06,0.12,-0.99,2.69,1.46,4.64
8.4590,0.06,0.12,-1.00,3.11,1.95,4.27
8.4730,0.06,0.12,-1.00,3.54,1.83,3.97
8.4880,0.06,0.12,-1.00,3.30,2.14,3.17
8.5040,0.06,0.12,-0.99,3.23,1.53,2.62
8.5170,0.06,0.12,-0.99,3.48,1.28,2.50
8.5330,0.06,0.12,-0.99,3.36,1.16,2.14
8.5490,0.06,0.13,-1.00,3.23,1.95,2.01
8.5610,0.06,0.13,-0.99,3.11,2.20,1.83
8.5760,0.06,0.13,-0.99,2.87,1.89,1.83
8.5930,0.06,0.13,-0.99,3.54,2.32,2.56
8.6100,0.06,0.14,-0.99,3.66,2.01,3.48
8.6260,0.07,0.14,-0.99,3.54,1.10,4.76
8.6410,0.06,0.13,-1.00,4.15,1.04,5.19
8.6580,0.06,0.13,-0.99,3.11,1.59,5.31
8.6720,0.06,0.12,-0.99,2.81,1.28,5.49
8.6870,0.06,0.12,-1.02,3.30,1.40,5.62
8.7030,0.06,0.11,-0.99,1.95,1.53,5.37
8.7180,0.06,0.10,-1.01,3.42,0.92,4.27
8.7340,0.06,0.10,-0.99,2.93,2.14,2.20
8.7400,0.06,0.12,-0.99,3.85,2.01,1.77
8.7560,0.06,0.13,-1.00,4.39,1.65,1.89
8.7790,0.06,0.13,-0.99,3.54,2.08,1.59
8.7940,0.05,0.13,-0.99,3.11,2.14,1.59
8.8090,0.06,0.12,-1.00,3.36,2.20,1.53
8.8240,0.07,0.12,-0.99,3.60,1.83,1.59
8.8400,0.07,0.13,-0.99,3.85,1.71,1.71
8.8550,0.06,0.13,-1.00,4.76,1.71,1.65
8.8710,0.06,0.13,-0.99,3.42,2.08,1.65
8.8870,0.06,0.13,-1.00,3.11,2.56,1.71
8.9020,0.06,0.12,-0.99,2.44,2.50,1.40
8.9110,0.07,0.13,-1.00,3.60,2.26,1.59
8.9260,0.07,0.09,-1.00,3.48,2.26,1.65
8.9420,0.06,0.12,-0.99,3.54,1.77,1.65
8.9590,0.06,0.13,-0.99,3.72,2.08,1.59
8.9750,0.06,0.12,-1.00,3.91,2.08,1.65
8.9760,0.06,0.13,-1.00,3.30,2.01,1.46
9.0060,0.06,0.13,-0.99,3.05,2.56,1.71
9.0090,0.06,0.13,-0.99,3.30,2.38,1.77
9.0360,0.06,0.12,-0.99,3.17,2.26,1.83
9.0460,0.06,0.12,-1.00,3.48,2.38,1.71
9.0630,0.06,0.13,-1.00,2.62,2.62,1.77
9.0790,0.06,0.12,-0.99,3.30,1.89,1.53
9.0940,0.06,0.12,-0.99,3.91,1.28,1.53
9.1070,0.06,0.12,-0.98,4.39,0.49,1.46
9.1240,0.06,0.13,-1.00,3.85,1.77,1.77
9.1390,0.06,0.12,-0.99,2.32,2.26,1.59
9.1520,0.06,0.12,-0.99,3.85,1.83,1.59
9.1670,0.06,0.13,-1.00,3.60,1.65,1.65
9.1840,0.06,0.12,-0.99,3.42,2.14,1.83
9.2000,0.06,0.13,-1.00,3.72,1.95,1.83
9.2160,0.06,0.12,-0.99,3.60,1.59,1.77
9.2320,0.06,0.13,-1.00,3.42,1.89,1.71
9.2480,0.06,0.13,-0.99,3.05,2.32,1.65
9.2640,0.06,0.13,-0.99,3.05,2.26,1.71
9.2790,0.06,0.12,-1.00,3.23,1.77,1.77
9.2820,0.07,0.13,-0.99,3.66,1.77,1.71
9.3040,0.06,0.13,-0.99,4.21,1.65,1.65
9.3200,0.06,0.13,-1.00,3.91,2.08,1.71
9.3360,0.06,0.13,-0.99,3.05,2.44,1.71
9.3530,0.06,0.12,-0.99,3.11,2.38,1.71
9.3690,0.06,0.13,-1.00,3.36,2.50,1.77
9.3850,0.06,0.13,-1.00,3.66,2.01,1.77
9.3860,0.06,0.13,-0.99,3.60,1.77,1.65
9.4160,0.06,0.13,-0.99,3.60,1.95,1.77
9.4190,0.07,0.13,-1.00,3.48,2.38,1.89
9.4340,0.06,0.12,-0.99,2.81,2.14,1.71
9.4490,0.06,0.13,-0.99,3.05,2.38,2.01
9.4730,0.06,0.13,-1.00,3.60,2.32,2.26
9.4890,0.05,0.13,-1.00,3.54,2.26,2.81
9.5060,0.06,0.12,-1.00,2.75,3.11,3.60
9.5220,0.06,0.12,-0.99,2.14,2.56,2.44
9.5360,0.06,0.13,-0.99,3.48,1.89,2.38
9.5520,0.06,0.13,-1.00,3.54,1.65,2.44
9.5670,0.06,0.13,-1.00,3.17,2.26,3.60
9.5830,0.06,0.12,-1.00,2.44,2.50,3.11
9.5880,0.06,0.13,-0.99,2.26,3.17,2.62
9.6030,0.06,0.13,-0.99,3.23,2.20,3.23
9.6250,0.06,0.12,-0.99,3.48,2.20,3.23
9.6420,0.06,0.12,-1.00,3.85,1.53,2.50
9.6580,0.06,0.13,-1.00,3.60,1.46,1.83
9.6740,0.06,0.12,-1.00,3.11,1.95,1.77
9.6900,0.06,0.13,-1.00,3.11,2.08,2.14
9.7060,0.06,0.14,-0.98,3.60,2.08,2.62
9.7210,0.06,0.14,-0.99,5.07,1.10,3.85
9.7240,0.06,0.11,-1.00,4.21,1.34,4.46
9.7400,0.06,0.12,-0.99,2.62,1.83,2.99
9.7670,0.06,0.12,-1.00,3.85,1.53,2.14
9.7770,0.06,0.13,-1.00,3.66,1.34,1.71
9.7950,0.06,0.13,-1.00,3.42,1.59,1.89
9.8090,0.06,0.13,-0.99,3.48,1.95,2.14
9.8260,0.06,0.13,-0.99,3.48,1.53,2.44
9.8400,0.06,0.12,-1.00,3.54,1.89,2.69
9.8550,0.06,0.12,-1.00,2.99,2.08,2.20
9.8710,0.06,0.12,-0.99,2.75,2.32,2.01
9.8860,0.07,0.13,-1.00,3.66,1.65,1.71
9.8930,0.07,0.13,-0.99,3.66,1.95,1.95
9.9060,0.06,0.14,-0.99,3.72,1.59,2.20
9.9260,0.06,0.12,-0.99,3.60,1.53,2.81
9.9430,0.06,0.13,-1.00,3.48,2.32,3.17
9.9580,0.06,0.13,-0.99,3.17,2.01,3.05
9.9750,0.06,0.13,-0.99,3.91,1.71,2.93
9.9910,0.07,0.14,-0.99,3.91,1.10,3.66
10.0050,0.06,0.14,-0.99,4.27,1.04,5.07
10.0200,0.06,0.14,-1.00,3.42,1.53,5.68
10.0250,0.06,0.12,-1.00,3.66,1.53,5.80
10.0400,0.06,0.11,-0.99,3.11,1.53,4.88
10.0570,0.06,0.11,-1.00,2.81,2.01,3.54
10.0790,0.06,0.12,-0.99,2.93,2.32,1.83
10.0950,0.06,0.12,-1.00,3.11,1.83,1.59
10.1060,0.06,0.13,-0.99,3.48,2.14,1.65
10.1220,0.06,0.13,-1.00,3.54,2.20,1.77
10.1380,0.06,0.12,-0.99,3.17,2.14,1.77
10.1550,0.06,0.13,-0.99,3.17,1.95,1.77
10.1710,0.06,0.13,-0.99,3.17,2.32,1.77
10.1720,0.06,0.13,-1.00,3.11,1.83,1.65
10.2020,0.06,0.13,-0.99,3.05,1.95,2.01
10.2180,0.06,0.13,-0.99,3.30,2.38,2.14
10.2340,0.06,0.13,-0.99,3.97,1.59,2.75
10.2370,0.06,0.12,-1.00,3.78,1.65,3.05
10.2530,0.06,0.12,-0.99,2.81,2.14,2.32
10.2690,0.06,0.13,-0.99,3.11,2.32,2.20
10.2940,0.06,0.13,-0.99,3.05,2.14,2.38
10.3050,0.06,0.13,-1.00,3.05,2.14,2.62
10.3220,0.06,0.13,-0.99,2.56,1.71,2.69
10.3390,0.06,0.13,-0.99,3.91,1.59,3.85
10.3540,0.07,0.12,-1.00,3.36,1.77,3.60
10.3690,0.06,0.13,-0.99,2.50,2.50,3.30
10.3850,0.06,0.13,-0.99,3.42,2.44,4.03
10.4000,0.06,0.12,-0.99,3.42,1.95,4.15
10.4150,0.06,0.12,-1.00,2.99,1.83,3.60
10.4310,0.06,0.11,-0.99,2.56,2.62,2.62
10.4470,0.06,0.12,-0.99,3.30,2.26,1.77
10.4620,0.06,0.13,-1.00,3.54,2.38,1.77
10.4690,0.06,0.12,-0.99,2.56,2.56,1.71
10.4850,0.06,0.13,-0.99,3.17,2.14,2.01
10.5070,0.06,0.13,-0.99,3.54,1.59,1.95
10.5230,0.06,0.13,-0.99,3.48,1.77,2.26
10.5390,0.06,0.13,-0.99,3.66,1.77,2.50
10.5540,0.06,0.13,-0.99,4.03,1.40,3.17
10.5690,0.06,0.12,-1.00,3.60,1.59,3.85
10.5850,0.06,0.13,-1.00,2.44,2.14,3.30
10.6000,0.06,0.12,-0.98,2.20,1.95,3.23
10.6150,0.06,0.12,-1.00,3.85,1.34,3.48
10.6210,0.06,0.11,-1.00,3.42,1.53,2.87
10.6370,0.06,0.12,-0.99,2.69,2.20,1.77
10.6580,0.06,0.13,-0.99,3.23,2.20,2.01
10.6750,0.06,0.13,-0.99,2.93,2.14,2.08
10.6900,0.06,0.13,-0.99,3.85,1.71,2.81
10.6900,0.06,0.13,-1.00,3.91,1.10,3.48
10.7130,0.06,0.13,-0.99,3.36,1.34,3.42
10.7300,0.06,0.12,-1.00,3.91,1.77,3.72
10.7460,0.06,0.11,-1.00,3.05,2.14,3.36
10.7620,0.06,0.12,-0.99,2.20,2.08,2.56
10.7800,0.06,0.12,-0.99,3.17,2.26,2.56
10.7940,0.06,0.12,-0.99,3.97,1.95,2.50
10.7990,0.06,0.12,-1.00,4.15,1.28,2.20
10.8150,0.06,0.13,-1.00,3.66,1.83,1.83
10.8340,0.06,0.12,-0.99,3.66,1.89,1.77
10.8510,0.06,0.12,-0.99,3.72,1.65,1.65
10.8670,0.06,0.12,-0.99,3.78,1.40,1.59
10.8830,0.06,0.13,-0.99,4.33,1.16,1.59
10.8990,0.07,0.13,-0.99,4.64,0.92,1.59
10.9140,0.06,0.13,-1.00,4.39,1.40,1.46
10.9290,0.06,0.13,-0.99,3.78,2.01,1.53
10.9440,0.06,0.13,-0.99,3.72,1.77,1.65
10.9590,0.06,0.13,-1.00,4.27,1.59,1.46
10.9650,0.06,0.13,-0.99,3.60,2.08,1.34
10.9800,0.06,0.13,-0.99,3.85,1.83,1.53
11.0020,0.06,0.13,-1.00,4.09,1.95,1.77
11.0180,0.06,0.13,-1.00,3.17,1.95,1.59
11.0350,0.07,0.13,-0.99,3.23,1.77,1.46
11.0360,0.06,0.12,-1.00,4.09,1.59,1.28
11.0510,0.06,0.13,-1.00,3.60,1.89,1.53
11.0820,0.06,0.13,-0.99,3.30,2.50,1.71
11.0970,0.06,0.12,-0.99,3.42,2.62,1.71
11.1130,0.06,0.13,-0.99,4.03,2.20,1.71
11.1270,0.06,0.13,-0.99,3.91,2.14,1.71
11.1320,0.06,0.13,-1.00,3.72,2.20,1.77
11.1480,0.06,0.13,-0.99,2.99,2.32,1.77
11.1720,0.06,0.13,-1.00,3.23,2.14,1.65
11.1870,0.06,0.13,-0.99,3.23,2.56,1.83
11.2030,0.06,0.13,-1.00,3.48,2.14,1.65
11.2180,0.06,0.13,-0.99,2.87,2.44,1.71
11.2340,0.06,0.13,-0.99,2.69,2.38,2.01
11.2500,0.06,0.12,-0.99,3.23,2.20,2.38
11.2650,0.06,0.13,-1.00,3.85,1.46,2.32
11.2810,0.06,0.13,-1.00,3.42,1.59,2.38
11.2970,0.07,0.13,-0.99,3.05,2.08,2.50
11.3110,0.06,0.12,-1.00,3.30,2.14,3.42
11.3170,0.06,0.12,-1.00,2.99,2.14,3.17
11.3330,0.06,0.12,-0.99,3.11,2.38,2.75
11.3550,0.06,0.12,-0.99,3.36,2.38,2.44
11.3700,0.06,0.12,-0.99,3.30,2.26,2.08
11.3880,0.06,0.13,-0.99,3.17,2.20,1.77
11.4030,0.06,0.13,-0.99,3.42,2.20,2.01
11.4190,0.06,0.13,-0.99,2.93,1.95,2.26
11.4350,0.06,0.13,-0.99,3.54,2.01,3.23
11.4490,0.06,0.13,-1.00,3.60,1.46,3.78
11.4650,0.06,0.12,-1.00,3.42,2.01,3.17
11.4800,0.06,0.13,-0.99,2.75,2.01,3.05
11.4960,0.06,0.12,-1.00,4.03,1.53,3.60
11.5110,0.06,0.12,-1.00,3.23,1.71,3.42
11.5270,0.06,0.12,-0.99,2.50,2.01,2.69
11.5420,0.06,0.12,-1.00,3.72,1.77,2.99
11.5570,0.06,0.12,-1.00,3.48,1.59,2.69
11.5720,0.06,0.12,-1.00,3.60,2.08,2.62
11.5840,0.06,0.13,-0.99,3.78,1.46,2.56
11.5990,0.06,0.13,-0.99,4.33,1.16,2.75
11.6160,0.07,0.12,-1.00,4.03,1.22,2.75
11.6330,0.06,0.12,-0.99,3.66,1.83,2.62
11.6480,0.06,0.13,-0.99,3.30,1.89,2.99
11.6640,0.06,0.12,-1.00,3.72,1.83,3.36
11.6790,0.07,0.12,-1.00,2.99,1.95,2.56
11.6940,0.06,0.13,-0.99,3.05,1.77,2.14
11.7100,0.06,0.13,-1.00,3.23,2.08,2.38
11.7140,0.06,0.14,-0.99,3.11,2.20,2.50
11.7300,0.06,0.14,-1.00,3.60,2.01,3.78
11.7550,0.06,0.12,-0.99,2.69,1.71,4.58
11.7660,0.06,0.11,-1.00,3.11,1.04,4.88
11.7820,0.05,0.12,-0.99,2.56,1.10,4.15
11.7980,0.06,0.11,-1.00,3.36,1.53,2.87
11.8150,0.06,0.12,-1.00,3.11,1.83,1.95
11.8300,0.06,0.13,-0.99,3.42,2.26,1.83
11.8450,0.06,0.13,-0.99,3.91,1.59,2.44
11.8600,0.06,0.13,-0.99,3.85,1.46,2.99
11.8750,0.06,0.12,-1.00,3.60,1.34,3.42
11.8900,0.06,0.12,-1.00,3.05,1.28,3.11
11.9040,0.06,0.13,-0.99,2.62,2.32,2.32
11.9130,0.06,0.12,-0.99,3.23,2.14,2.75
11.9290,0.06,0.12,-1.00,2.87,1.89,2.87
11.9480,0.06,0.12,-0.99,3.23,2.08,2.56
11.9570,0.06,0.12,-0.99,4.15,1.59,2.56
11.9790,0.06,0.13,-1.00,3.30,1.34,2.26
11.9850,0.06,0.13,-0.99,2.81,1.83,2.26
12.0000,0.06,0.12,-0.99,3.54,1.46,2.93
12.0190,0.06,0.13,-1.00,3.72,1.65,3.11
12.0360,0.06,0.12,-1.00,3.17,1.83,3.05
12.0510,0.06,0.12,-0.99,3.05,1.53,2.62
12.0680,0.06,0.13,-1.00,3.30,1.89,2.26
12.0840,0.06,0.13,-1.00,3.17,1.77,2.81
12.1000,0.06,0.14,-1.01,2.87,1.77,3.42
12.1140,0.06,0.13,-0.99,2.20,2.26,4.21
12.1180,0.06,0.12,-1.00,3.48,1.59,4.82
12.1450,0.06,0.11,-0.99,2.62,1.83,3.78
12.1530,0.06,0.11,-1.00,3.17,1.71,2.93
12.1670,0.06,0.12,-1.00,3.54,1.71,2.26
12.1910,0.06,0.12,-1.00,3.60,1.77,1.89
12.2030,0.06,0.13,-1.00,3.48,1.65,1.71
12.2180,0.06,0.13,-0.99,3.17,1.89,2.01
12.2350,0.06,0.13,-0.99,3.30,1.71,2.32
12.2500,0.06,0.13,-1.00,3.30,1.77,2.75
12.2650,0.06,0.13,-0.99,3.42,1.71,2.93
12.2810,0.06,0.14,-0.99,3.48,1.83,3.30
12.2960,0.06,0.13,-1.00,4.09,1.22,4.27
12.3120,0.06,0.12,-0.99,2.75,1.53,3.97
12.3270,0.06,0.12,-1.00,3.23,1.59,4.33
12.3420,0.06,0.12,-0.99,2.56,1.89,3.36
12.3570,0.06,0.12,-1.00,3.17,1.89,2.99
12.3710,0.06,0.12,-0.99,3.05,2.44,2.81
12.3830,0.06,0.13,-0.99,3.42,1.89,2.75
12.3980,0.06,0.13,-1.00,3.36,1.83,2.93
12.4150,0.06,0.12,-0.99,2.87,1.59,3.42
12.4310,0.06,0.12,-1.00,3.23,1.10,3.85
12.4330,0.06,0.12,-1.00,3.30,1.95,3.11
12.4480,0.06,0.13,-1.00,3.48,1.89,3.11
12.4770,0.06,0.12,-0.99,3.17,1.65,3.11
12.4920,0.06,0.13,-1.00,3.23,1.89,3.30
12.5070,0.06,0.14,-1.00,3.36,1.95,4.21
12.5220,0.06,0.12,-0.99,3.54,1.89,4.52
12.5370,0.06,0.12,-1.00,2.81,1.22,3.60
12.5470,0.06,0.11,-0.99,2.50,1.40,2.75
12.5630,0.06,0.12,-1.00,3.42,1.34,2.20
12.5780,0.06,0.12,-0.99,3.60,1.59,1.77
12.5940,0.06,0.13,-1.00,3.54,1.71,1.83
12.6120,0.06,0.12,-0.99,3.42,2.01,1.89
12.6260,0.06,0.13,-1.00,3.30,2.08,2.08
12.6300,0.07,0.13,-0.99,3.30,2.01,2.32
12.6450,0.08,0.11,-0.99,3.42,1.71,2.62
12.6730,0.06,0.12,-1.01,2.62,1.10,3.23
12.6870,0.04,0.14,-1.00,3.05,2.62,2.75
12.6970,0.04,0.13,-0.98,2.26,3.11,2.50
12.7140,0.05,0.13,-0.99,4.39,2.01,3.42
12.7300,0.07,0.12,-1.00,3.23,1.65,5.37
12.7480,0.06,0.10,-0.98,1.89,1.28,4.88
12.7630,0.06,0.11,-1.00,4.52,0.55,3.66
12.7790,0.06,0.11,-1.00,4.33,1.10,2.62
12.7950,0.06,0.12,-1.00,2.75,2.20,2.26
12.8100,0.06,0.13,-0.99,2.93,2.32,1.77
12.8260,0.06,0.12,-0.99,3.36,2.26,2.14
12.8400,0.07,0.13,-1.00,3.11,2.01,2.50
12.8560,0.06,0.12,-0.99,2.75,2.14,2.93
12.8720,0.06,0.12,-0.99,3.60,2.26,2.87
12.8870,0.06,0.11,-1.00,3.30,2.01,2.87
12.8930,0.06,0.12,-1.00,2.93,1.77,2.44
12.9090,0.06,0.12,-0.99,3.60,1.77,2.01
12.9280,0.05,0.13,-0.99,3.66,1.77,2.32
12.9440,0.06,0.13,-1.00,4.33,1.40,4.15
12.9600,0.06,0.12,-1.01,3.30,1.46,4.39
12.9760,0.06,0.11,-0.99,2.14,1.95,2.93
12.9930,0.07,0.12,-1.00,2.99,1.10,1.95
13.0080,0.06,0.12,-1.00,3.36,1.71,2.14
13.0250,0.06,0.12,-1.00,3.36,2.20,2.14
13.0400,0.06,0.13,-0.99,3.23,2.56,2.26
13.0550,0.06,0.12,-0.99,3.48,2.08,2.62
13.0580,0.06,0.12,-1.00,4.03,0.67,3.11
13.0730,0.06,0.12,-0.99,2.99,1.10,2.32
13.1010,0.06,0.12,-0.99,4.03,1.59,2.56
13.1160,0.06,0.13,-1.00,3.60,1.89,2.75
13.1270,0.06,0.13,-0.99,3.54,1.65,3.11
13.1430,0.06,0.13,-0.99,4.46,1.59,3.91
13.1600,0.06,0.12,-0.99,3.17,1.46,3.54
13.1760,0.06,0.12,-1.00,3.60,1.40,3.78
13.1920,0.06,0.11,-1.00,3.36,1.34,3.72
13.2080,0.06,0.11,-1.00,3.48,1.59,2.99
13.2250,0.06,0.12,-1.00,3.36,1.53,2.20
13.2410,0.06,0.12,-1.00,3.54,1.77,1.83
13.2570,0.06,0.13,-1.00,3.66,1.65,1.71
13.2710,0.06,0.13,-1.00,2.99,1.40,1.65
13.2740,0.06,0.12,-0.99,2.69,1.65,1.83
13.3020,0.06,0.12,-0.99,3.48,1.71,2.50
13.3190,0.06,0.12,-1.00,4.15,1.16,2.62
13.3340,0.06,0.12,-1.00,3.66,1.28,1.89
13.3500,0.06,0.12,-0.99,3.48,1.53,1.95
13.3560,0.06,0.12,-0.99,3.97,1.22,1.89
13.3720,0.06,0.12,-1.00,4.15,0.92,1.53
13.3910,0.06,0.12,-1.00,4.33,0.79,1.53
13.4070,0.06,0.12,-0.99,4.70,0.85,1.53
13.4230,0.06,0.13,-1.00,4.76,0.92,1.46
13.4400,0.06,0.13,-1.00,4.21,1.40,1.53
13.4570,0.06,0.12,-0.99,3.66,1.71,1.40
13.4730,0.06,0.12,-0.99,3.66,1.46,1.46
13.4880,0.06,0.12,-0.99,4.09,1.40,1.59
13.5050,0.06,0.12,-1.00,4.39,1.53,1.65
13.5200,0.06,0.13,-0.99,4.03,2.32,1.83
13.5360,0.06,0.13,-1.00,3.72,1.83,1.65
13.5520,0.06,0.12,-1.00,4.09,1.46,1.65
13.5540,0.06,0.12,-0.99,3.91,1.83,1.65
13.5690,0.06,0.13,-0.99,3.97,0.85,1.46
13.5930,0.06,0.12,-0.99,3.91,1.34,1.53
13.6090,0.06,0.13,-1.00,4.46,1.28,1.53
13.6260,0.06,0.13,-0.99,4.46,0.92,1.65
13.6420,0.07,0.13,-0.99,4.70,0.92,1.65
13.6570,0.07,0.13,-0.99,5.00,1.22,1.77
13.6720,0.07,0.13,-1.00,4.88,1.22,1.71
13.6740,0.07,0.13,-0.99,4.52,1.34,1.77
13.6900,0.07,0.13,-0.99,4.15,1.83,1.77
13.7160,0.07,0.13,-1.00,4.09,1.53,1.77
13.7280,0.06,0.13,-0.99,3.91,1.65,1.71
13.7440,0.06,0.13,-0.99,3.97,1.34,1.46
13.7600,0.06,0.13,-1.00,4.27,1.10,1.53
13.7760,0.07,0.13,-1.00,4.58,1.16,1.59
13.7920,0.06,0.13,-0.99,4.88,1.10,1.28
13.8090,0.07,0.13,-1.00,4.27,1.77,1.59
13.8240,0.07,0.13,-0.99,3.54,1.65,1.40
13.8420,0.07,0.13,-0.99,3.97,1.59,1.22
13.8560,0.07,0.13,-0.99,4.03,1.65,1.22
13.8710,0.07,0.13,-0.99,3.97,1.34,1.34
13.8780,0.07,0.13,-0.99,3.85,1.89,1.46
13.8940,0.07,0.13,-0.99,4.21,1.77,1.65
13.9090,0.06,0.13,-0.99,4.09,1.65,1.65
13.9280,0.06,0.13,-0.99,3.97,1.59,1.65
13.9440,0.06,0.13,-1.00,3.85,1.77,1.53
13.9610,0.06,0.13,-0.99,3.54,1.95,1.71
13.9780,0.06,0.13,-0.99,4.15,1.59,1.71
13.9930,0.07,0.12,-0.99,5.19,1.10,1.71
14.0100,0.07,0.13,-0.99,5.74,0.92,1.65
14.0260,0.07,0.14,-0.99,5.13,1.22,1.53
14.0270,0.07,0.14,-0.99,4.21,1.59,1.46
14.0580,0.07,0.13,-0.99,3.42,1.77,1.40
14.0720,0.07,0.13,-0.99,3.48,1.95,1.40
14.0750,0.07,0.13,-0.99,3.66,1.89,1.59
14.0900,0.07,0.13,-0.99,3.78,2.62,1.65
14.1170,0.06,0.13,-0.99,3.60,2.14,1.83
14.1280,0.06,0.13,-0.99,3.30,2.50,1.71
14.1440,0.06,0.13,-0.99,3.11,2.26,1.59
14.1620,0.07,0.13,-0.99,3.17,1.95,1.65
14.1770,0.07,0.14,-0.99,3.36,1.95,1.71
14.1930,0.07,0.13,-0.99,2.69,1.89,1.71
14.2080,0.07,0.13,-0.99,2.81,1.89,1.83
14.2250,0.07,0.13,-0.99,2.99,2.26,1.77
14.2410,0.06,0.13,-0.99,2.75,2.08,1.77
14.2560,0.07,0.13,-0.99,2.50,2.56,1.83
14.2720,0.07,0.13,-0.99,2.62,2.56,2.08
14.2880,0.07,0.13,-0.99,3.11,2.14,2.20
14.2920,0.07,0.13,-0.99,3.11,2.14,2.26
14.3160,0.06,0.13,-0.99,3.11,2.50,2.20
14.3230,0.06,0.13,-0.99,3.23,2.14,2.20
14.3390,0.06,0.13,-0.99,3.17,2.20,2.69
14.3540,0.07,0.13,-1.00,3.23,1.77,3.11
14.3750,0.07,0.13,-0.99,3.17,1.71,2.75
14.3910,0.07,0.13,-0.99,3.05,1.77,2.81
14.4060,0.07,0.14,-0.99,3.17,1.46,4.03
14.4210,0.06,0.13,-0.99,3.30,2.01,4.58
14.4360,0.07,0.13,-0.99,2.62,1.71,3.42
14.4400,0.07,0.14,-0.99,2.81,1.46,3.66
14.4550,0.06,0.12,-1.00,3.60,1.16,3.91
14.4780,0.06,0.12,-1.00,3.05,1.34,3.54
14.4940,0.07,0.13,-0.99,3.36,1.65,2.75
14.5100,0.06,0.13,-0.99,3.23,2.08,2.20
14.5280,0.06,0.13,-0.99,2.93,2.01,1.83
14.5430,0.06,0.13,-0.99,2.81,1.89,1.65
14.5580,0.07,0.14,-1.00,3.11,1.53,1.77
14.5730,0.07,0.14,-0.99,2.87,1.40,2.20
14.5810,0.06,0.13,-0.99,3.60,1.59,3.17
14.5960,0.06,0.13,-0.99,3.17,1.65,3.23
14.6110,0.06,0.13,-1.00,2.99,2.08,3.05
14.6340,0.07,0.12,-0.99,2.26,2.08,2.93
14.6480,0.06,0.13,-0.99,2.81,2.44,3.23
14.6630,0.06,0.13,-0.99,3.05,2.20,2.62
14.6780,0.06,0.13,-0.99,3.30,2.08,2.62
14.6930,0.06,0.13,-0.99,3.11,1.71,2.75
14.7000,0.06,0.13,-0.99,2.93,1.77,2.69
14.7220,0.06,0.13,-0.98,2.38,1.71,2.62
14.7370,0.07,0.13,-1.00,3.11,1.28,2.81
14.7480,0.06,0.13,-0.99,3.05,1.89,2.75
14.7650,0.06,0.13,-0.99,3.23,1.46,2.62
14.7810,0.06,0.14,-0.99,3.54,1.40,3.36
14.7960,0.07,0.15,-0.99,3.66,1.16,4.52
14.8130,0.07,0.13,-1.00,4.09,1.28,5.25
14.8300,0.06,0.12,-0.99,2.56,1.22,4.70
14.8450,0.06,0.12,-0.99,2.56,1.83,4.64
14.8600,0.06,0.13,-0.99,2.99,1.22,4.82
14.8740,0.06,0.13,-0.99,2.99,1.10,5.25
14.8900,0.06,0.13,-0.99,3.42,0.79,5.19
14.9050,0.06,0.11,-0.99,3.11,1.16,4.88
14.9210,0.06,0.12,-1.00,2.93,1.28,3.48
14.9350,0.06,0.13,-0.99,3.54,1.71,3.05
14.9440,0.07,0.13,-0.99,3.78,1.53,3.23
14.9600,0.07,0.13,-1.00,3.54,1.46,3.36
14.9800,0.06,0.13,-0.99,3.60,1.46,3.42
14.9950,0.07,0.13,-1.00,3.60,1.71,3.60
15.0110,0.07,0.14,-0.99,3.36,1.59,3.78
15.0270,0.06,0.13,-0.98,2.75,1.46,4.21
15.0420,0.07,0.14,-1.00,3.42,1.16,5.43
15.0450,0.06,0.14,-1.00,2.99,1.46,5.25
15.0610,0.06,0.13,-0.99,2.75,1.16,5.37
15.0830,0.07,0.13,-1.00,3.05,1.28,6.04
15.0990,0.07,0.15,-0.99,3.36,1.22,6.59
15.1160,0.07,0.13,-0.99,3.60,1.10,7.75
15.1310,0.07,0.12,-1.00,2.87,1.10,8.54
15.1480,0.06,0.11,-1.00,2.56,0.61,6.90
15.1640,0.07,0.11,-1.00,2.50,1.22,5.07
15.1790,0.07,0.11,-1.00,2.75,1.28,3.23
15.1810,0.06,0.12,-0.99,3.30,1.53,2.44
15.2000,0.06,0.13,-0.99,3.60,1.46,1.71
15.2190,0.06,0.13,-0.99,3.42,1.71,1.65
15.2340,0.06,0.13,-0.99,2.93,1.89,2.01
15.2500,0.06,0.13,-1.00,3.60,1.40,2.20
15.2690,0.06,0.13,-1.00,3.54,1.89,2.56
15.2850,0.06,0.13,-0.99,3.54,1.59,2.56
15.3010,0.06,0.13,-0.99,3.72,1.59,2.99
15.3160,0.06,0.13,-0.99,3.48,1.83,3.17
15.3190,0.07,0.13,-0.99,3.42,1.71,3.72
15.3350,0.07,0.13,-0.99,3.48,0.98,3.91
15.3560,0.06,0.13,-1.00,3.05,1.40,3.72
15.3730,0.06,0.14,-1.00,2.93,1.77,3.17
15.3890,0.06,0.13,-1.00,3.30,1.28,3.66
15.4050,0.06,0.12,-1.00,2.87,1.89,3.42
15.4210,0.06,0.12,-1.00,3.17,1.65,2.50
15.4360,0.07,0.13,-0.99,3.48,1.59,2.32
15.4520,0.06,0.13,-0.99,3.72,1.65,2.50
15.4670,0.06,0.13,-0.99,3.17,1.89,2.69
15.4830,0.06,0.13,-1.00,3.05,2.20,2.69
15.4970,0.06,0.13,-0.99,2.81,2.01,2.56
15.5140,0.06,0.13,-1.00,2.99,1.95,2.20
15.5280,0.07,0.13,-0.99,2.87,2.01,2.20
15.5370,0.07,0.15,-0.99,3.36,1.71,2.50
15.5530,0.07,0.15,-0.99,3.85,0.92,4.94
15.5690,0.07,0.16,-0.98,3.36,1.16,5.80
15.5850,0.07,0.14,-0.99,3.72,1.04,7.87
15.6010,0.06,0.12,-1.00,1.95,0.73,7.20
15.6170,0.06,0.12,-0.99,2.56,0.67,6.41
15.6330,0.07,0.11,-1.00,3.17,0.73,5.13
15.6480,0.06,0.11,-1.00,2.87,1.59,3.42
15.6650,0.06,0.12,-1.00,3.05,1.40,2.87
15.6810,0.06,0.12,-0.99,3.72,1.71,1.95
15.6950,0.07,0.13,-0.99,3.66,1.46,1.71
15.7000,0.07,0.13,-0.99,2.99,1.83,1.89
15.7160,0.06,0.13,-0.99,3.36,2.08,1.89
15.7380,0.06,0.13,-0.99,3.54,2.01,2.26
15.7540,0.06,0.13,-1.00,3.72,2.01,2.14
15.7710,0.06,0.13,-0.99,3.11,2.08,2.32
15.7860,0.06,0.14,-0.99,3.78,1.10,2.56
15.8020,0.07,0.14,-0.99,4.15,1.34,3.85
15.8180,0.07,0.13,-1.00,3.78,1.53,4.82
15.8330,0.07,0.13,-0.99,2.99,1.40,4.27
15.8470,0.06,0.12,-0.98,2.81,1.10,4.76
15.8620,0.06,0.12,-1.00,3.91,1.16,5.74
15.8700,0.06,0.12,-0.99,2.32,2.20,5.00
15.8880,0.06,0.11,-0.99,3.42,1.53,3.97
15.9060,0.06,0.12,-1.00,2.99,1.89,2.50
15.9170,0.06,0.15,-0.99,3.42,1.89,1.71
15.9330,0.06,0.13,-0.99,3.66,2.14,2.08
15.9530,0.07,0.13,-0.99,3.30,2.20,2.08
15.9540,0.06,0.14,-0.99,3.42,1.95,2.81
15.9700,0.06,0.13,-0.99,3.85,1.28,3.30
15.9870,0.06,0.12,-1.00,3.42,1.71,3.60
16.0160,0.07,0.13,-0.99,2.50,1.59,3.23
16.0190,0.07,0.13,-0.99,3.66,1.40,4.21
16.0460,0.07,0.14,-0.99,3.11,1.71,5.31
16.0520,0.07,0.15,-0.99,2.87,1.04,6.71
16.0680,0.06,0.13,-1.00,3.42,0.61,6.71
16.0910,0.06,0.12,-1.00,2.69,0.85,6.04
16.1060,0.06,0.12,-1.00,2.69,1.16,4.58
16.1060,0.06,0.12,-1.00,3.11,1.77,3.66
16.1360,0.06,0.12,-1.00,2.99,1.89,2.81
16.1510,0.06,0.12,-1.00,3.17,1.65,2.56
16.1670,0.06,0.12,-0.99,2.69,2.26,1.95
16.1820,0.06,0.12,-0.99,3.17,1.95,1.65
16.1980,0.07,0.13,-0.99,3.54,1.77,1.65
16.2050,0.07,0.13,-0.99,3.05,2.38,1.65
16.2200,0.07,0.13,-1.00,3.23,2.14,1.65
16.2420,0.07,0.13,-0.99,3.05,1.95,1.83
16.2580,0.07,0.14,-0.99,3.72,2.01,2.87
16.2740,0.06,0.14,-0.99,3.85,1.71,3.91
16.2890,0.07,0.13,-1.00,3.78,1.40,6.47
16.3050,0.06,0.11,-1.00,2.20,1.40,6.04
16.3210,0.06,0.10,-0.99,1.59,1.34,4.46
16.3360,0.06,0.12,-0.99,2.50,1.77,3.66
16.3400,0.06,0.13,-0.99,3.42,1.10,3.66
16.3560,0.06,0.12,-0.99,3.48,1.46,3.91
16.3790,0.07,0.12,-1.00,3.54,1.28,3.60
16.3950,0.06,0.12,-0.99,2.87,1.46,2.56
16.3960,0.07,0.12,-0.99,3.17,1.77,2.01
16.4120,0.06,0.13,-0.99,3.48,2.38,1.95
16.4280,0.06,0.13,-0.99,3.36,2.20,1.95
16.4450,0.07,0.13,-0.99,3.30,2.14,2.01
16.4610,0.06,0.13,-0.99,3.72,1.83,2.14
16.4810,0.06,0.14,-0.99,3.66,1.89,2.62
16.4980,0.06,0.13,-0.99,3.85,1.71,4.09
16.5130,0.06,0.12,-1.00,3.17,1.65,4.64
16.5310,0.06,0.12,-1.00,2.75,1.95,3.54
16.5470,0.07,0.12,-1.00,2.87,1.71,2.87
16.5620,0.06,0.13,-0.99,3.05,2.14,2.99
16.5780,0.07,0.13,-0.99,3.97,1.65,4.15
16.5940,0.06,0.12,-1.00,3.78,1.71,3.85
16.6090,0.06,0.12,-0.99,2.69,2.08,2.81
16.6240,0.06,0.12,-1.00,3.60,1.46,2.81
16.6390,0.06,0.12,-1.00,3.42,1.46,2.01
16.6530,0.06,0.12,-0.99,3.42,1.89,1.89
16.6680,0.06,0.13,-1.00,3.48,1.89,1.83
16.6830,0.06,0.13,-1.00,3.17,1.89,1.83
16.6940,0.07,0.13,-0.99,2.93,2.01,1.95
16.7100,0.07,0.13,-0.99,3.30,1.89,2.44
16.7270,0.07,0.13,-1.00,3.48,1.83,2.50
16.7420,0.07,0.15,-1.00,3.05,1.77,2.93
16.7580,0.06,0.13,-1.00,3.91,1.22,4.64
16.7740,0.06,0.12,-1.00,2.99,1.34,5.25
16.7900,0.06,0.12,-1.00,2.62,1.40,3.48
16.8060,0.06,0.11,-0.99,2.20,1.59,2.26
16.8210,0.07,0.12,-0.99,3.78,1.83,2.14
16.8360,0.07,0.13,-0.99,3.30,1.77,2.08
16.8420,0.06,0.16,-0.99,3.78,2.26,2.93
16.8670,0.07,0.14,-1.00,5.00,0.92,6.10
16.8740,0.06,0.10,-1.00,2.38,1.34,6.90
16.8900,0.06,0.10,-1.00,1.46,1.40,5.00
16.9050,0.07,0.10,-0.99,2.50,1.77,3.17
16.9260,0.07,0.11,-1.00,3.42,2.08,2.14
16.9430,0.06,0.12,-0.99,3.78,2.14,1.83
16.9580,0.06,0.13,-0.99,3.48,2.14,1.83
16.9720,0.06,0.13,-0.99,3.48,1.16,2.01
16.9890,0.07,0.13,-1.00,3.11,1.53,2.01
17.0040,0.07,0.13,-1.00,2.81,1.89,1.89
17.0080,0.06,0.13,-0.99,3.17,2.14,1.95
17.0230,0.06,0.14,-0.99,4.21,1.59,2.56
17.0500,0.07,0.15,-0.99,4.09,1.71,3.42
17.0600,0.06,0.13,-0.99,4.52,1.22,5.92
17.0770,0.06,0.12,-1.00,3.36,1.10,6.53
17.0940,0.06,0.11,-1.00,1.95,1.95,4.33
17.1110,0.06,0.11,-1.00,3.11,1.65,3.17
17.1270,0.06,0.12,-1.00,3.54,1.89,2.26
17.1410,0.06,0.12,-0.99,3.66,1.95,1.71
17.1570,0.06,0.13,-0.99,3.91,1.77,1.53
17.1710,0.06,0.13,-0.99,3.23,2.01,1.65
17.1860,0.06,0.13,-1.00,3.42,1.65,1.71
17.2010,0.07,0.13,-1.00,3.23,1.71,1.77
17.2150,0.07,0.13,-0.99,3.23,1.40,1.95
17.2300,0.07,0.12,-1.00,3.66,1.83,2.26
17.2400,0.06,0.12,-0.99,3.17,1.95,1.77
17.2570,0.06,0.12,-0.99,3.66,1.53,1.59
17.2730,0.07,0.13,-0.99,3.72,1.46,1.59
17.2890,0.07,0.13,-0.99,3.91,1.53,1.59
17.3060,0.07,0.13,-1.00,3.54,1.59,1.71
17.3220,0.07,0.13,-0.99,2.62,2.01,1.65
17.3380,0.06,0.12,-0.99,2.62,1.83,1.71
17.3530,0.06,0.12,-0.99,3.17,1.65,1.83
17.3690,0.07,0.12,-1.00,3.54,1.40,1.77
17.3840,0.07,0.12,-1.00,3.42,1.65,1.71
17.3990,0.06,0.13,-1.00,3.66,1.95,2.01
17.4150,0.06,0.13,-0.99,3.54,2.01,2.87
17.4300,0.07,0.12,-0.99,3.23,2.01,2.93
17.4440,0.06,0.12,-1.00,2.81,1.46,3.78
17.4590,0.07,0.12,-1.00,3.72,1.46,3.42
17.4700,0.07,0.13,-0.99,3.42,2.08,2.01
17.4860,0.07,0.14,-0.99,4.21,1.89,2.56
17.5020,0.07,0.14,-1.00,4.76,1.34,4.03
17.5190,0.06,0.12,-1.00,3.78,1.10,5.00
17.5350,0.06,0.11,-1.00,2.69,1.59,3.66
17.5510,0.06,0.12,-0.99,3.60,1.53,2.26
17.5670,0.06,0.13,-0.99,4.46,1.77,1.71
17.5820,0.06,0.13,-1.00,4.15,1.95,1.59
17.5970,0.06,0.13,-0.99,3.36,1.59,1.59
17.6110,0.06,0.13,-0.99,2.81,1.89,1.59
17.6160,0.07,0.12,-0.99,2.56,1.95,1.83
17.6320,0.07,0.13,-1.00,2.99,2.01,1.77
17.6550,0.06,0.13,-0.99,3.36,1.59,1.71
17.6690,0.06,0.12,-0.99,3.72,1.95,1.89
17.6850,0.06,0.13,-0.99,3.91,1.46,2.26
17.7020,0.06,0.13,-1.00,3.91,1.89,2.56
17.7190,0.06,0.13,-1.00,3.30,2.26,2.20
17.7340,0.07,0.13,-0.99,3.54,1.77,2.69
17.7500,0.07,0.12,-0.99,3.97,1.59,3.23
17.7660,0.07,0.12,-1.00,3.78,1.59,2.14
17.7810,0.06,0.13,-0.99,3.85,1.83,1.65
17.7970,0.06,0.13,-1.00,3.48,2.14,1.83
17.7990,0.06,0.14,-0.99,2.93,2.14,2.50
17.8280,0.07,0.12,-1.00,2.99,1.83,4.33
17.8350,0.06,0.11,-0.99,3.30,1.77,4.27
17.8520,0.06,0.12,-1.00,2.99,2.08,2.56
17.8680,0.06,0.12,-0.99,3.60,1.95,1.77
17.8870,0.06,0.13,-0.99,3.72,2.08,1.77
17.9020,0.06,0.13,-0.99,3.36,1.22,1.40
17.9170,0.07,0.13,-1.00,3.54,1.28,1.53
17.9320,0.06,0.13,-0.99,3.91,1.10,1.53
17.9480,0.06,0.12,-0.99,3.60,1.77,1.65
17.9530,0.06,0.13,-0.99,3.91,1.16,1.46
17.9680,0.07,0.13,-1.00,4.09,1.10,1.59
17.9910,0.06,0.13,-0.99,3.72,1.34,1.46
18.0070,0.07,0.12,-0.99,3.91,0.98,1.40
18.0080,0.07,0.13,-0.99,4.39,0.98,1.46
18.0380,0.06,0.13,-1.00,3.85,1.16,1.65
18.0530,0.07,0.13,-0.99,3.48,0.98,1.59
18.0680,0.07,0.13,-0.99,3.66,1.10,1.59
18.0830,0.07,0.13,-0.99,3.97,0.67,1.59
18.0990,0.07,0.13,-1.00,4.09,0.98,1.71
18.1140,0.08,0.14,-1.00,4.27,0.31,1.59
18.1290,0.06,0.13,-0.99,4.03,1.28,1.65
18.1440,0.07,0.13,-0.99,3.72,1.65,1.65
18.1580,0.07,0.13,-1.00,4.03,1.16,1.59
18.1700,0.07,0.13,-0.99,4.09,1.40,1.46
18.1850,0.07,0.13,-0.99,3.91,1.16,1.53
18.2030,0.07,0.13,-1.00,4.39,1.10,1.46
18.2170,0.07,0.13,-1.00,3.30,1.89,1.59
18.2330,0.07,0.13,-1.00,2.32,2.87,1.59
18.2430,0.07,0.12,-0.99,2.62,3.17,1.71
18.2570,0.05,0.12,-0.99,3.11,3.48,1.59
18.2730,0.07,0.13,-1.00,3.78,2.32,1.40
18.2890,0.07,0.13,-0.99,2.93,2.93,1.46
18.3050,0.06,0.13,-1.00,3.17,2.32,1.46
18.3230,0.06,0.12,-0.99,2.99,2.01,1.16
18.3380,0.06,0.13,-0.99,4.03,1.65,1.22
18.3550,0.07,0.13,-1.00,4.15,1.59,1.46
18.3710,0.07,0.13,-0.99,3.97,1.40,1.53
18.3870,0.07,0.13,-1.00,3.91,1.10,1.65
18.4020,0.07,0.13,-0.99,3.78,2.01,1.71
18.4170,0.07,0.13,-0.99,3.42,1.59,1.71
18.4200,0.07,0.13,-0.99,3.48,1.83,1.65
18.4480,0.07,0.13,-0.99,3.72,2.32,1.77
18.4550,0.07,0.13,-0.99,3.42,1.71,1.53
18.4720,0.07,0.13,-0.99,3.42,1.89,1.53
18.4870,0.06,0.13,-0.99,4.15,1.46,1.71
18.5040,0.07,0.13,-1.00,4.09,1.65,1.40
18.5200,0.07,0.13,-0.99,3.23,2.14,1.77
18.5370,0.07,0.13,-0.99,3.78,1.83,1.65
18.5530,0.07,0.13,-1.00,4.15,1.89,1.65
18.5690,0.07,0.13,-1.00,3.97,1.89,1.46
18.5850,0.07,0.12,-0.99,3.36,2.20,1.59
18.5870,0.07,0.13,-0.99,3.78,1.65,1.59
18.6020,0.07,0.13,-0.99,3.72,1.77,1.40
18.6170,0.07,0.13,-1.00,3.72,2.01,1.46
18.6350,0.07,0.13,-0.99,3.23,1.83,1.53
18.6510,0.07,0.13,-0.99,3.30,1.77,1.46
18.6790,0.07,0.13,-0.99,3.54,1.53,1.46
18.6880,0.07,0.13,-0.99,3.60,1.65,1.71
18.7040,0.07,0.13,-0.99,3.72,1.65,1.71
18.7210,0.07,0.13,-0.99,3.30,2.20,1.77
18.7370,0.07,0.13,-0.99,2.87,1.89,1.65
18.7520,0.07,0.13,-0.99,3.17,2.32,1.59
18.7670,0.07,0.13,-0.99,3.42,1.83,1.65
18.7700,0.07,0.13,-0.99,3.54,1.83,1.59
18.7980,0.07,0.13,-0.99,3.48,1.53,1.53
18.8030,0.07,0.13,-1.00,2.93,2.44,1.59
18.8270,0.06,0.13,-0.99,2.87,2.26,1.59
18.8420,0.07,0.13,-1.00,2.93,2.08,1.65
18.8570,0.07,0.14,-1.00,3.17,2.26,1.59
18.8680,0.07,0.13,-0.99,3.17,2.20,1.65
18.8840,0.07,0.13,-0.99,3.91,1.46,1.53
18.9010,0.07,0.12,-0.99,3.85,1.22,1.59
18.9170,0.07,0.13,-0.99,3.85,1.53,1.53
18.9330,0.07,0.13,-0.99,3.78,1.28,1.53
18.9340,0.07,0.13,-0.99,3.97,1.53,1.65
18.9640,0.07,0.13,-0.99,4.15,1.53,1.71
18.9800,0.07,0.13,-0.99,3.97,1.59,1.65
18.9960,0.06,0.13,-1.00,3.85,2.01,1.77
18.9980,0.06,0.13,-1.00,3.66,1.77,1.59
19.0130,0.08,0.13,-0.99,3.60,1.71,1.10
19.0350,0.07,0.13,-0.99,3.66,1.77,0.00
19.0520,0.07,0.13,-0.99,3.91,1.53,0.79
19.0690,0.07,0.13,-0.99,4.58,1.46,1.59
19.0850,0.08,0.14,-1.00,4.03,1.59,1.46
19.1000,0.04,0.11,-1.00,4.15,1.95,-0.43
19.1160,0.06,0.13,-0.99,3.23,2.44,1.59
19.1310,0.07,0.13,-0.99,3.36,2.26,1.46
19.1470,0.07,0.13,-0.99,2.75,2.01,1.16
19.1490,0.09,0.12,-1.00,3.78,2.56,0.49
19.1780,0.08,0.14,-1.00,2.08,2.75,-3.42
19.1920,0.10,0.15,-0.98,1.16,2.14,-1.89
19.2040,0.07,0.13,-0.98,0.61,1.53,1.83
19.2190,0.04,0.13,-0.99,1.04,2.14,1.10
19.2370,0.03,0.11,-1.00,1.34,2.32,0.92
19.2520,0.12,0.03,-0.82,19.71,-9.52,-0.18
19.2690,0.07,0.17,-1.06,-2.14,7.20,-0.67
19.2700,0.08,0.17,-1.02,5.68,2.14,2.08
19.2990,0.06,0.08,-0.97,-2.08,3.23,1.46
19.3140,0.07,0.13,-0.99,3.54,0.85,1.53
19.3290,0.06,0.11,-0.98,2.56,1.28,1.83
19.3340,0.07,0.14,-1.01,5.62,1.34,1.83
19.3500,0.07,0.13,-1.00,2.14,1.95,1.65
19.3710,0.07,0.14,-1.00,2.14,2.01,1.59
19.3870,0.07,0.12,-0.99,0.37,2.44,1.46
19.4030,0.05,0.09,-1.00,2.26,2.26,1.59
19.4210,0.09,0.17,-0.99,3.23,2.75,1.71
19.4360,0.07,0.11,-0.98,0.79,2.44,1.83
19.4520,0.07,0.13,-1.00,3.11,1.04,1.59
19.4680,0.07,0.13,-1.00,4.03,1.28,1.71
19.4690,0.07,0.13,-0.99,3.72,1.89,1.83
19.4850,0.07,0.13,-1.00,3.91,2.26,1.77
19.5010,0.07,0.13,-1.00,3.42,1.89,1.65
19.5190,0.07,0.13,-0.99,3.30,1.16,1.71
19.5340,0.07,0.13,-1.00,2.50,1.22,1.59
19.5490,0.07,0.13,-1.00,2.44,0.85,1.46
19.5720,0.07,0.12,-0.99,2.20,0.73,1.53
19.5870,0.09,0.04,-0.85,4.21,1.46,1.77
19.6030,0.12,0.21,-1.02,14.10,0.24,2.75
19.6200,0.08,0.09,-0.99,-0.61,2.56,1.46
19.6200,0.07,0.15,-1.00,5.13,2.08,1.95
19.6510,0.07,0.11,-0.99,1.16,1.77,1.77
19.6530,0.08,0.15,-1.01,5.25,1.46,1.71
19.6830,0.07,0.12,-0.99,3.17,1.89,1.28
19.6860,0.07,0.13,-0.99,3.54,2.14,1.28
19.7010,0.07,0.13,-1.00,3.91,1.59,1.46
19.7170,0.07,0.14,-0.99,3.48,1.59,1.59
19.7410,0.07,0.13,-0.99,3.23,1.89,1.95
19.7580,0.07,0.13,-0.99,3.54,1.95,1.89
19.7730,0.06,0.13,-0.99,3.42,1.83,2.14
19.7890,0.07,0.12,-0.99,2.81,1.89,2.01
19.8040,0.08,0.13,-0.99,3.91,2.20,2.08
19.8180,0.08,0.14,-0.99,3.11,2.14,1.65
19.8330,0.08,0.13,-0.99,3.48,1.83,1.77
19.8480,0.07,0.13,-0.99,3.60,2.08,1.77
19.8630,0.06,0.12,-1.00,3.05,2.44,1.77
19.8780,0.07,0.13,-0.99,3.85,2.08,1.65
19.8880,0.08,0.14,-0.99,3.72,2.01,1.71
19.9050,0.09,0.12,-0.99,3.11,1.83,1.40
19.9210,0.08,0.13,-0.99,3.54,2.08,1.46
19.9380,0.07,0.14,-0.99,3.54,2.32,1.65
19.9540,0.06,0.13,-0.99,2.99,1.83,1.46
19.9700,0.07,0.13,-1.00,3.42,2.14,1.77
19.9850,0.08,0.13,-0.99,2.32,2.75,1.95
20.0000,0.07,0.14,-0.99,3.05,2.38,1.95
20.0140,0.08,0.14,-1.00,1.53,2.08,1.83
20.0290,0.08,0.13,-0.99,0.00,2.44,1.77
20.0440,0.07,0.09,-0.97,0.67,2.81,1.89
20.0580,0.07,0.13,-1.00,3.11,2.44,1.89
20.0680,0.07,0.13,-1.01,6.41,1.65,2.26
20.0840,0.07,0.12,-1.00,5.49,1.95,1.95
20.1010,0.06,0.14,-1.00,4.82,1.83,1.89
20.1160,0.07,0.12,-0.98,2.50,2.50,1.83
20.1330,0.08,0.14,-1.00,4.94,2.56,2.08
20.1500,0.08,0.13,-1.00,3.30,2.32,1.83
20.1660,0.06,0.13,-1.00,2.69,2.56,1.89
20.1820,0.06,0.13,-1.00,2.75,2.08,1.77
20.1990,0.07,0.12,-0.99,3.23,2.44,1.83
20.2150,0.08,0.13,-0.99,3.36,2.08,1.77
20.2300,0.08,0.13,-0.99,3.85,2.08,1.95
20.2450,0.07,0.13,-0.99,3.78,3.17,1.95
20.2600,0.06,0.12,-0.99,4.15,2.32,1.95
20.2740,0.06,0.13,-0.99,3.85,2.75,1.83
20.2890,0.04,0.18,-0.99,5.86,3.42,-0.37
20.3040,0.08,0.11,-1.00,5.74,4.09,-2.50
20.3180,0.10,0.10,-1.00,5.31,3.05,-0.49
20.3300,0.07,0.14,-1.00,4.39,2.26,1.83
20.3460,0.06,0.13,-1.00,3.42,2.56,1.89
20.3630,0.06,0.13,-1.00,4.52,1.71,1.89
20.3780,0.07,0.13,-0.99,3.72,2.38,1.89
20.3950,0.08,0.13,-0.99,3.91,1.77,1.77
20.4110,0.08,0.13,-0.99,2.93,2.26,1.83
20.4260,0.07,0.13,-0.99,3.05,2.50,2.01
20.4410,0.06,0.14,-0.99,2.81,2.69,2.50
20.4560,0.07,0.13,-1.00,5.25,3.05,3.48
20.4710,0.07,0.10,-1.00,4.09,2.26,2.75
20.4850,0.07,0.13,-1.00,3.85,1.89,1.71
20.5010,0.07,0.14,-0.99,3.66,1.71,1.71
20.5160,0.07,0.14,-1.00,3.23,1.34,1.59
20.5260,0.08,0.16,-0.98,2.14,2.44,1.40
20.5420,0.06,0.11,-1.00,3.85,2.69,-1.53
20.5590,0.07,0.13,-0.99,2.75,2.87,1.40
20.5740,0.07,0.13,-1.00,3.66,2.50,1.95
20.5900,0.07,0.13,-1.00,3.78,2.50,2.20
20.6000,0.07,0.13,-0.99,3.72,1.77,2.01
20.6200,0.07,0.13,-0.99,3.48,2.26,1.95
20.6340,0.07,0.13,-0.99,2.99,2.20,1.77
20.6490,0.07,0.13,-0.99,3.17,2.14,1.89
20.6640,0.07,0.13,-0.99,4.03,1.95,2.14
20.6790,0.07,0.13,-0.99,4.39,2.01,1.95
20.6890,0.07,0.13,-0.99,4.03,2.01,1.83
20.7050,0.07,0.13,-1.00,3.48,2.14,1.89
20.7220,0.06,0.13,-0.99,3.05,2.69,1.77
20.7380,0.07,0.14,-0.99,2.62,2.69,1.77
20.7520,0.06,0.13,-1.00,4.21,2.38,0.18
20.7680,0.08,0.14,-0.99,3.17,2.56,1.71
20.7810,0.06,0.12,-0.99,4.76,2.26,1.16
20.7970,0.07,0.13,-1.00,3.05,2.26,-0.12
20.8110,0.04,0.12,-1.00,3.30,1.34,1.04
20.8260,0.09,0.14,-0.98,3.66,1.53,2.14
20.8360,0.07,0.12,-1.00,3.23,1.65,2.56
20.8530,0.06,0.13,-0.99,3.30,1.65,1.34
20.8700,0.06,0.13,-0.99,3.78,1.83,1.04
20.8850,0.06,0.13,-1.00,3.91,1.46,0.37
20.9010,0.07,0.13,-0.99,3.60,2.08,0.49
20.9170,0.07,0.13,-0.99,3.78,1.53,0.73
20.9310,0.07,0.13,-0.99,3.78,2.14,1.04
20.9480,0.07,0.13,-0.99,4.39,1.77,1.22
20.9630,0.07,0.13,-1.00,3.78,2.08,0.55
20.9790,0.07,0.14,-0.99,3.36,2.14,0.73
20.9940,0.07,0.13,-0.99,2.81,1.83,1.04
21.0100,0.07,0.13,-0.99,3.05,1.95,1.10
21.0240,0.09,0.13,-0.99,3.97,1.95,1.16
21.0390,0.07,0.13,-0.99,3.42,2.26,0.31
21.0500,0.06,0.13,-0.99,3.48,1.95,0.24
21.0660,0.07,0.13,-1.00,3.48,2.20,0.37
21.0860,0.06,0.13,-0.99,3.78,2.08,0.61
21.1000,0.06,0.13,-1.00,3.85,1.46,1.16
21.1160,0.07,0.13,-0.99,4.27,1.65,1.40
21.1310,0.07,0.13,-0.99,3.36,2.01,1.65
21.1460,0.07,0.13,-0.99,3.30,1.53,1.46
21.1540,0.07,0.13,-0.99,3.48,1.83,1.71
21.1690,0.06,0.13,-0.99,3.66,2.01,1.77
21.1900,0.07,0.13,-0.99,3.91,2.01,1.65
21.2060,0.07,0.14,-0.99,3.97,1.65,1.46
21.2210,0.07,0.13,-0.99,3.42,2.20,1.28
21.2370,0.07,0.14,-0.99,3.85,2.38,1.40
21.2530,0.07,0.14,-0.99,3.91,1.34,1.22
21.2680,0.07,0.14,-0.99,4.03,1.71,0.85
21.2830,0.07,0.13,-0.99,3.72,1.95,0.55
21.2880,0.10,0.13,-1.00,3.72,1.83,0.31
21.3130,0.06,0.13,-1.00,3.60,2.26,0.00
21.3280,0.07,0.13,-0.99,4.21,2.01,0.00
21.3370,0.06,0.13,-1.00,3.66,1.89,0.06
21.3520,0.07,0.13,-1.00,3.97,2.08,0.06
21.3690,0.06,0.13,-0.99,3.23,2.50,0.18
21.3860,0.07,0.13,-1.00,3.91,2.01,0.61
21.4020,0.06,0.13,-0.99,3.54,2.26,0.98
21.4170,0.06,0.13,-0.99,3.91,1.95,1.53
21.4320,0.07,0.13,-0.99,3.97,2.08,1.77
21.4350,0.08,0.14,-1.00,3.48,2.50,1.83
21.4630,0.07,0.13,-0.99,3.36,2.20,1.83
21.4790,0.07,0.14,-1.00,3.54,1.77,1.71
21.4840,0.07,0.13,-0.99,2.93,2.01,1.71
21.5100,0.07,0.14,-0.99,3.66,1.77,2.01
21.5260,0.07,0.13,-0.99,3.91,2.20,1.77
21.5330,0.07,0.13,-0.99,3.97,2.32,1.89
21.5480,0.07,0.13,-0.99,4.03,1.95,1.95
21.5700,0.08,0.13,-0.99,4.15,2.26,1.71
21.5860,0.07,0.14,-0.99,3.42,2.14,1.22
21.6020,0.07,0.14,-0.99,3.17,1.89,1.40
21.6170,0.08,0.13,-0.99,3.36,2.50,1.77
21.6320,0.07,0.14,-1.00,3.42,2.14,1.71
21.6480,0.07,0.13,-0.99,3.54,1.59,1.65
21.6620,0.06,0.14,-0.99,3.30,1.59,1.71
21.6670,0.07,0.14,-0.99,3.48,2.01,1.40
21.6820,0.07,0.14,-0.99,3.11,2.20,1.40
21.7060,0.07,0.13,-0.99,3.23,2.14,1.40
21.7230,0.07,0.13,-0.99,3.42,2.14,1.46
21.7390,0.07,0.13,-0.99,3.78,2.08,1.34
21.7540,0.07,0.13,-0.99,3.85,1.95,1.28
21.7710,0.08,0.13,-0.99,3.72,1.95,0.98
21.7870,0.07,0.13,-0.99,3.66,2.14,0.67
21.8020,0.07,0.14,-0.99,3.91,2.20,0.55
21.8180,0.07,0.14,-0.99,3.66,1.77,0.73
21.8210,0.07,0.14,-0.99,3.17,1.89,0.85
21.8360,0.08,0.13,-0.99,3.05,2.44,1.16
21.8610,0.07,0.14,-0.99,3.36,2.20,1.59
21.8770,0.07,0.13,-0.99,3.85,2.56,1.71
21.8930,0.07,0.14,-0.99,3.91,2.38,1.71
21.9080,0.07,0.14,-0.99,3.72,1.89,1.71
21.9110,0.07,0.14,-0.99,3.30,2.26,1.16
21.9260,0.07,0.13,-0.99,3.23,1.71,0.73
21.9540,0.08,0.13,-0.99,3.23,1.77,0.49
21.9590,0.06,0.13,-0.99,3.36,1.46,0.00
21.9750,0.06,0.14,-0.99,3.60,1.77,0.73
22.0010,0.07,0.13,-0.99,3.78,2.08,1.22
22.0120,0.07,0.13,-0.99,3.66,1.77,1.53
22.0280,0.07,0.14,-0.99,3.54,1.59,1.53
22.0440,0.07,0.13,-0.99,2.87,2.08,1.53
22.0600,0.07,0.13,-0.99,3.05,2.14,1.53
22.0760,0.07,0.13,-0.99,3.54,2.14,1.83
22.0910,0.07,0.13,-0.99,4.03,2.08,1.89
22.1070,0.07,0.13,-0.99,4.15,2.32,1.89
22.1210,0.07,0.14,-1.00,3.72,2.62,1.83
22.1360,0.07,0.13,-1.00,2.87,1.95,0.98
22.1510,0.07,0.13,-0.99,2.99,2.08,1.04
22.1650,0.09,0.13,-0.99,3.54,1.59,0.67
22.1760,0.07,0.13,-0.99,3.48,2.44,0.37
22.1920,0.07,0.13,-0.99,3.91,2.08,0.85
22.2080,0.06,0.13,-0.99,3.85,2.38,0.79
22.2240,0.06,0.14,-1.00,3.91,2.01,0.98
22.2390,0.07,0.13,-0.99,2.56,2.69,1.04
22.2550,0.06,0.14,-0.99,3.78,2.01,1.16
22.2700,0.07,0.14,-0.99,3.17,1.77,1.34
22.2730,0.07,0.13,-0.99,3.11,2.32,1.59
22.2890,0.07,0.13,-0.99,3.05,2.14,1.34
22.3100,0.07,0.13,-0.99,3.05,2.14,1.28
22.3270,0.07,0.13,-0.99,3.78,1.40,1.16
22.3420,0.07,0.14,-0.99,3.85,1.71,1.22
22.3600,0.08,0.14,-0.99,3.72,2.32,1.77
22.3750,0.07,0.13,-0.99,3.36,2.20,1.83
22.3910,0.07,0.13,-0.99,3.48,2.01,1.77
22.4090,0.07,0.13,-0.99,3.05,2.62,1.77
22.4240,0.07,0.13,-0.99,3.36,2.32,1.89
22.4400,0.08,0.13,-0.99,3.60,2.08,1.83
22.4550,0.07,0.14,-0.99,3.97,1.95,1.95
22.4700,0.07,0.14,-1.00,3.85,1.83,1.89
22.4850,0.07,0.14,-0.99,2.81,2.32,2.08
22.5000,0.08,0.13,-0.99,2.75,1.89,2.14
22.5150,0.07,0.14,-0.99,2.56,2.20,2.08
22.5290,0.08,0.13,-0.99,2.99,1.83,2.01
22.5400,0.08,0.13,-0.99,3.05,2.20,1.95
22.5560,0.06,0.13,-1.00,3.54,1.40,1.83
22.5720,0.06,0.12,-1.00,2.81,2.38,1.77
22.5880,0.07,0.14,-0.99,4.27,2.20,1.40
22.6040,0.06,0.14,-1.00,2.93,2.14,1.22
22.6200,0.06,0.14,-0.99,3.36,2.20,1.22
22.6360,0.06,0.14,-0.97,1.89,2.26,1.46
22.6520,0.10,0.13,-0.97,1.83,2.38,1.77
22.6670,0.05,0.15,-0.99,6.29,1.53,1.28
22.6690,0.08,0.11,-1.00,3.91,2.81,1.83
22.6850,0.07,0.13,-0.99,0.12,2.20,1.53
22.7130,0.10,0.14,-0.99,4.21,2.75,1.10
22.7290,0.06,0.13,-0.99,4.70,2.14,1.71
22.7390,0.06,0.15,-1.00,4.52,2.08,1.83
22.7550,0.07,0.12,-0.99,2.75,2.38,1.65
22.7730,0.07,0.14,-0.98,2.26,2.08,1.65
22.7890,0.07,0.14,-1.00,5.25,1.89,1.59
22.8040,0.08,0.13,-1.00,2.99,2.26,1.65
22.8210,0.09,0.13,-0.99,2.69,2.08,1.53
22.8360,0.06,0.14,-0.99,3.91,1.89,1.46
22.8520,0.08,0.13,-1.00,4.27,2.14,1.65
22.8680,0.06,0.13,-1.00,2.62,1.65,1.65
22.8830,0.07,0.13,-0.99,2.81,1.71,1.34
22.8860,0.08,0.14,-0.99,3.60,1.71,1.77
22.9130,0.07,0.12,-1.00,3.91,2.01,1.59
22.9240,0.07,0.13,-0.99,2.56,2.08,1.65
22.9400,0.07,0.13,-0.99,3.05,1.95,1.53
22.9560,0.07,0.14,-0.99,4.70,2.14,1.83
22.9720,0.05,0.13,-1.00,3.23,1.77,2.32
22.9880,0.07,0.13,-0.99,3.05,1.83,1.65
23.0040,0.08,0.13,-0.99,2.99,1.89,1.65
23.0190,0.07,0.13,-1.00,3.97,1.95,1.34
23.0340,0.07,0.13,-0.99,3.97,1.83,1.16
23.0510,0.09,0.13,-1.00,3.60,2.14,1.22
23.0660,0.06,0.14,-0.99,3.97,1.65,1.46
23.0810,0.07,0.13,-1.00,3.66,1.95,1.65
23.0880,0.07,0.13,-0.99,2.44,2.08,1.53
23.1050,0.07,0.13,-0.99,3.42,1.83,1.53
23.1200,0.06,0.13,-0.99,3.36,1.77,1.65
23.1360,0.07,0.13,-1.00,2.93,2.14,1.77
23.1540,0.07,0.13,-0.99,2.44,1.77,1.71
23.1690,0.07,0.13,-0.99,3.11,1.71,1.65
23.1850,0.08,0.13,-0.99,3.78,2.08,2.14
23.2000,0.07,0.13,-1.00,2.99,1.89,2.01
23.2150,0.07,0.13,-0.99,2.87,2.01,2.01
23.2300,0.08,0.13,-0.99,3.48,1.59,1.83
23.2460,0.06,0.13,-0.99,3.11,1.34,1.77
23.2620,0.07,0.13,-0.99,2.87,2.32,1.59
23.2680,0.07,0.13,-0.99,3.11,2.08,1.71
23.2830,0.07,0.13,-0.99,3.78,2.01,1.59
23.3040,0.07,0.13,-0.99,3.72,2.14,1.77
23.3200,0.07,0.13,-0.99,3.48,2.14,1.71
23.3370,0.07,0.13,-0.99,3.78,1.95,1.77
23.3530,0.07,0.13,-0.99,3.85,1.71,1.65
23.3700,0.08,0.13,-0.99,2.99,1.95,1.59
23.3850,0.07,0.13,-0.99,3.48,1.59,1.46
23.4000,0.07,0.13,-0.99,3.72,1.77,1.28
23.4150,0.08,0.13,-0.99,3.48,1.77,1.34
23.4310,0.08,0.13,-0.99,3.11,1.65,1.34
23.4350,0.07,0.13,-0.99,3.48,2.01,1.59
23.4500,0.07,0.13,-0.99,3.54,2.08,1.59
23.4730,0.08,0.13,-0.99,3.54,2.14,1.65
23.4910,0.07,0.13,-0.99,3.42,2.08,1.40
23.5060,0.07,0.14,-0.99,3.17,2.01,1.46
23.5220,0.08,0.13,-0.99,2.87,2.01,1.71
23.5380,0.08,0.13,-0.99,3.72,2.08,2.26
23.5520,0.10,0.13,-0.99,4.03,2.20,2.26
23.5670,0.07,0.13,-1.00,4.15,1.71,2.99
23.5820,0.07,0.14,-1.00,4.15,1.77,1.71
23.5970,0.07,0.14,-0.99,2.62,2.08,1.16
23.6030,0.07,0.13,-0.99,2.56,2.38,1.10
23.6190,0.07,0.13,-0.99,2.69,2.08,1.40
23.6410,0.07,0.13,-0.99,2.93,2.44,1.53
23.6570,0.07,0.13,-0.99,3.17,2.08,1.59
23.6740,0.07,0.13,-0.99,3.66,1.95,1.53
23.6890,0.08,0.13,-0.99,3.91,2.01,1.59
23.6910,0.08,0.13,-0.99,3.66,1.89,1.59
23.7210,0.07,0.13,-0.99,3.66,1.83,1.16
23.7230,0.08,0.13,-0.99,3.48,2.26,1.04
23.7520,0.07,0.13,-0.99,3.42,2.32,0.98
23.7560,0.07,0.13,-0.99,3.54,2.44,1.04
23.7710,0.08,0.13,-0.99,3.85,1.83,1.04
23.7940,0.07,0.13,-0.99,3.30,2.01,0.73
23.8100,0.08,0.13,-0.99,2.99,2.01,1.28
23.8260,0.07,0.13,-0.99,3.23,2.26,1.22
23.8430,0.07,0.13,-0.99,3.66,2.20,1.46
23.8580,0.08,0.13,-0.99,3.66,2.62,1.65
23.8750,0.08,0.13,-0.99,3.85,2.50,1.65
23.8900,0.07,0.13,-0.99,3.91,2.14,1.95
23.9050,0.08,0.13,-1.00,3.48,2.20,2.08
23.9070,0.08,0.14,-0.99,2.44,1.65,2.08
23.9230,0.07,0.13,-0.99,2.81,2.38,1.59
23.9470,0.08,0.13,-1.00,3.36,2.08,1.46
23.9640,0.07,0.13,-0.99,3.48,2.14,1.34
23.9790,0.07,0.13,-0.99,3.66,1.89,0.67
23.9950,0.07,0.13,-0.99,3.54,2.32,0.85
24.0090,0.06,0.13,-0.99,2.93,2.26,1.34
24.0120,0.07,0.13,-0.99,3.11,2.20,1.59
24.0380,0.07,0.13,-0.99,3.42,2.26,1.83
24.0450,0.08,0.13,-0.99,3.72,1.89,1.83
24.0700,0.07,0.13,-0.99,3.23,2.14,1.89
24.0810,0.08,0.13,-1.00,3.17,2.26,1.77
24.0970,0.09,0.13,-0.99,3.17,2.32,1.77
24.1140,0.07,0.13,-1.00,3.36,2.38,1.65
24.1310,0.08,0.13,-0.99,3.36,2.56,1.65
24.1460,0.07,0.13,-0.99,3.30,2.20,1.46
24.1620,0.08,0.13,-0.99,3.48,2.32,1.59
24.1640,0.08,0.13,-0.99,3.42,1.77,1.46
24.1920,0.08,0.13,-0.99,3.11,2.56,1.53
24.1960,0.04,0.13,-0.99,3.48,1.34,1.71
24.2120,0.08,0.13,-0.99,3.54,1.65,1.34
24.2350,0.07,0.14,-1.00,3.05,1.34,1.40
24.2450,0.09,0.13,-1.00,2.81,2.08,1.40
24.2610,0.07,0.13,-0.99,2.69,1.71,1.59
24.2770,0.06,0.13,-0.99,2.75,2.20,2.14
24.2990,0.07,0.13,-1.00,3.78,2.14,1.95
24.3140,0.07,0.10,-0.99,2.99,2.14,1.77
24.3300,0.08,0.10,-1.00,2.75,2.32,1.22
24.3450,0.06,0.17,-0.98,4.03,2.01,1.89
24.3610,0.10,0.14,-1.00,5.62,2.50,2.38
24.3770,0.09,0.11,-0.99,-0.31,1.65,1.40
24.3920,0.07,0.12,-0.98,2.93,2.50,0.73
24.4080,0.07,0.13,-1.00,5.55,2.44,1.71
24.4240,0.06,0.14,-1.00,3.72,2.38,1.65
24.4390,0.10,0.10,-1.00,1.22,1.95,0.92
24.4550,0.07,0.15,-0.98,3.11,1.04,1.71
24.4620,0.07,0.16,-0.98,6.77,2.50,2.99
24.4770,0.08,0.11,-1.01,4.21,2.50,2.14
24.4990,0.08,0.13,-0.98,-0.24,2.08,0.85
24.5150,0.06,0.13,-0.99,4.88,1.59,1.22
24.5320,0.09,0.14,-1.00,4.94,2.44,1.89
24.5480,0.08,0.13,-0.99,2.01,1.59,1.46
24.5630,0.07,0.13,-0.99,2.81,2.01,0.85
24.5790,0.08,0.14,-0.99,4.46,2.20,1.77
24.5950,0.07,0.13,-1.00,2.99,2.01,1.16
24.5970,0.08,0.11,-1.00,1.77,2.01,0.61
24.6130,0.08,0.14,-0.98,3.05,1.71,1.77
24.6340,0.07,0.14,-0.99,5.00,1.71,2.14
24.6500,0.08,0.12,-1.00,2.44,1.65,1.65
24.6650,0.07,0.12,-0.99,2.26,2.32,1.04
24.6850,0.06,0.13,-1.00,4.46,2.08,1.89
24.7020,0.08,0.13,-1.00,3.85,1.83,1.83
24.7180,0.09,0.12,-1.00,2.50,1.71,1.34
24.7330,0.08,0.12,-0.99,2.75,1.95,1.40
24.7500,0.08,0.14,-0.99,5.31,2.56,2.50
24.7650,0.10,0.13,-1.01,3.30,2.44,2.14
24.7800,0.08,0.12,-0.99,2.14,1.89,1.34
24.7830,0.07,0.13,-0.99,3.54,1.71,1.59
24.8090,0.07,0.14,-1.00,3.42,2.26,2.08
24.8250,0.08,0.12,-0.99,2.75,2.44,1.46
24.8400,0.07,0.13,-0.99,2.99,2.14,1.46
24.8550,0.09,0.14,-0.98,3.05,2.87,1.89
24.8650,0.09,0.13,-1.00,1.77,2.62,2.32
24.8800,0.08,0.13,-1.00,2.75,1.77,2.44
24.8990,0.06,0.14,-0.99,2.20,1.59,2.44
24.9140,0.07,0.12,-0.98,1.10,2.50,2.81
24.9220,0.06,0.13,-1.00,4.70,1.89,3.97
24.9300,0.04,0.11,-0.98,2.75,1.59,2.14
24.9470,0.07,0.13,-0.99,3.42,2.01,1.65
24.9620,0.08,0.13,-1.00,4.64,1.65,1.83
24.9890,0.08,0.12,-0.99,4.27,1.46,1.77
24.9990,0.08,0.13,-0.99,3.78,1.10,1.65
25.0160,0.07,0.14,-0.99,4.21,2.32,1.77
25.0330,0.08,0.13,-1.00,3.78,2.20,1.95
25.0480,0.08,0.12,-0.99,2.62,2.75,1.65
25.0630,0.08,0.13,-0.99,2.87,2.69,1.77
25.0790,0.08,0.14,-0.99,4.39,2.99,2.08
25.0950,0.08,0.13,-1.00,3.54,2.08,1.77
25.1110,0.07,0.12,-0.99,2.20,2.44,1.59
25.1260,0.07,0.13,-0.99,3.30,2.38,1.77
25.1420,0.07,0.13,-1.00,3.60,2.20,1.71
25.1580,0.08,0.12,-0.99,2.99,2.26,1.71
25.1740,0.08,0.13,-0.99,3.72,2.14,1.77
25.1900,0.08,0.13,-0.99,4.46,1.95,1.89
25.1960,0.08,0.13,-1.00,3.91,2.01,1.71
25.2170,0.08,0.13,-1.00,2.99,2.14,1.65
25.2340,0.07,0.13,-0.99,3.05,1.77,1.83
25.2510,0.08,0.13,-0.99,3.85,2.20,1.89
25.2670,0.08,0.13,-0.99,3.54,1.83,1.77
25.2830,0.07,0.13,-0.99,3.30,2.01,1.65
25.2990,0.07,0.13,-0.99,4.33,2.26,1.89
25.3130,0.08,0.13,-1.00,3.42,2.01,1.83
25.3290,0.08,0.13,-0.99,2.81,1.83,1.71
25.3440,0.08,0.13,-0.99,2.93,2.08,1.71
25.3490,0.08,0.13,-0.99,3.97,2.26,1.71
25.3640,0.08,0.13,-1.00,3.48,1.71,1.89
25.3870,0.07,0.13,-0.99,3.23,2.08,1.65
25.4030,0.08,0.13,-0.99,3.91,2.08,1.65
25.4190,0.08,0.13,-1.00,3.23,1.77,1.65
25.4340,0.08,0.13,-0.99,3.30,2.08,1.65
25.4500,0.08,0.13,-0.99,3.48,2.32,1.83
25.4520,0.07,0.13,-0.99,3.48,1.95,1.71
25.4800,0.08,0.13,-0.99,3.60,2.08,1.71
25.4940,0.08,0.13,-0.99,3.17,1.83,1.71
25.5090,0.07,0.13,-0.99,3.42,1.95,1.65
25.5200,0.08,0.13,-0.99,3.17,2.38,1.83
25.5360,0.08,0.13,-0.99,2.99,2.32,1.89
25.5530,0.07,0.13,-0.99,3.42,1.95,1.77
25.5700,0.08,0.13,-0.99,4.09,2.08,1.83
25.5850,0.08,0.13,-1.00,3.60,1.71,1.83
25.6010,0.08,0.13,-1.00,2.75,2.20,1.77
25.6170,0.08,0.13,-0.99,2.26,2.08,1.71
25.6320,0.05,0.10,-1.00,1.71,2.50,2.87
25.6470,0.09,0.13,-0.98,0.61,2.81,4.33
25.6500,0.08,0.13,-1.00,3.05,2.26,2.56
25.6650,0.07,0.12,-0.99,2.32,2.01,2.56
25.6870,0.07,0.13,-0.99,2.69,2.01,3.11
25.7040,0.08,0.13,-0.99,3.05,1.77,2.62
25.7200,0.07,0.13,-1.00,3.30,1.71,2.44
25.7360,0.08,0.13,-0.99,2.93,1.77,2.44
25.7520,0.08,0.14,-1.01,4.46,2.50,2.26
25.7680,0.07,0.12,-0.99,2.56,2.20,1.83
25.7830,0.08,0.13,-0.99,3.60,2.01,1.77
25.7980,0.08,0.13,-0.99,3.85,1.89,1.71
25.8140,0.08,0.12,-1.00,3.97,1.89,1.89
25.8310,0.06,0.12,-0.99,3.17,1.65,1.59
25.8480,0.05,0.13,-0.99,4.33,2.75,1.89
25.8520,0.07,0.13,-1.00,4.52,1.71,1.89
25.8680,0.10,0.13,-0.99,3.85,1.28,1.89
25.8880,0.09,0.12,-0.99,3.36,0.92,1.89
25.9050,0.07,0.13,-0.99,4.15,1.89,2.62
25.9210,0.06,0.13,-1.00,4.58,2.50,1.89
25.9380,0.06,0.11,-1.00,2.69,2.81,1.65
25.9540,0.07,0.13,-0.99,2.50,2.62,1.71
25.9680,0.09,0.13,-0.99,4.88,2.26,1.95
25.9840,0.09,0.13,-1.00,4.76,1.77,2.20
25.9980,0.08,0.14,-0.98,1.77,2.14,3.30
26.0140,0.06,0.13,-0.99,2.99,2.62,1.95
26.0290,0.06,0.13,-1.00,3.17,2.87,1.83
26.0350,0.07,0.12,-1.00,2.62,1.77,1.95
26.0510,0.08,0.12,-0.99,1.65,2.20,2.69
26.0730,0.07,0.13,-1.00,3.11,2.26,2.93
26.0750,0.07,0.13,-0.99,1.40,2.81,3.54
26.1030,0.08,0.13,-0.99,1.16,2.56,3.11
26.1070,0.06,0.12,-1.00,1.59,2.32,1.83
26.1230,0.07,0.12,-0.99,1.04,1.83,2.75
26.1450,0.08,0.14,-1.00,2.20,1.89,3.23
26.1600,0.08,0.12,-0.99,1.22,1.77,3.05
26.1760,0.09,0.13,-0.98,1.59,2.01,3.23
26.1920,0.06,0.12,-0.99,2.87,1.89,2.62
26.2080,0.07,0.12,-1.00,1.89,2.56,3.17
26.2240,0.07,0.12,-1.00,2.20,2.14,2.38
26.2260,0.08,0.12,-0.99,1.53,2.08,2.93
26.2540,0.08,0.13,-0.99,3.97,2.38,2.75
26.2650,0.08,0.13,-1.00,4.33,2.56,1.83
26.2810,0.07,0.12,-1.00,3.78,2.50,1.95
26.2980,0.07,0.12,-0.99,3.17,2.81,1.83
26.3130,0.07,0.12,-0.99,3.91,2.50,1.77
26.3300,0.08,0.12,-1.00,4.09,2.08,1.65
26.3470,0.07,0.13,-0.99,4.03,2.38,1.95
26.3620,0.07,0.12,-1.00,4.46,2.32,2.08
26.3780,0.07,0.13,-1.00,3.17,2.08,1.77
26.3930,0.07,0.12,-1.00,2.14,2.69,1.77
26.4090,0.07,0.12,-0.99,2.62,2.50,1.77
26.4120,0.07,0.11,-1.00,3.36,2.26,2.20
26.4270,0.08,0.13,-0.99,1.59,2.69,3.05
26.4490,0.07,0.12,-0.99,3.23,2.20,1.83
26.4650,0.07,0.12,-0.99,4.64,2.14,1.89
26.4810,0.07,0.12,-1.00,5.00,2.08,1.89
26.4980,0.08,0.13,-1.00,4.82,1.95,1.83
26.5150,0.08,0.13,-1.00,3.36,2.56,1.89
26.5300,0.07,0.12,-0.99,2.75,2.75,1.89
26.5460,0.07,0.12,-0.99,3.36,2.75,1.89
26.5470,0.10,0.15,-1.01,11.17,-0.79,2.26
26.5620,0.07,0.10,-0.95,6.16,2.87,2.32
26.5910,0.07,0.18,-1.05,10.93,2.99,2.62
26.5960,0.07,0.12,-0.97,2.44,2.62,1.89
26.6120,0.09,0.15,-1.01,5.37,1.89,1.71
26.6330,0.07,0.13,-0.99,3.48,2.26,1.83
26.6500,0.07,0.11,-0.99,1.89,2.50,1.71
26.6650,0.07,0.13,-1.00,4.15,2.20,1.89
26.6820,0.07,0.13,-0.99,3.42,2.20,1.77
26.6970,0.07,0.13,-0.99,3.17,2.69,1.83
26.7130,0.07,0.13,-0.99,3.23,2.62,1.71
26.7290,0.07,0.13,-0.99,3.54,2.32,1.71
26.7430,0.07,0.13,-0.99,4.39,2.32,2.01
26.7570,0.07,0.13,-0.99,5.31,2.20,2.01
26.7730,0.07,0.13,-1.00,5.07,1.83,1.77
26.7880,0.07,0.17,-0.99,2.56,1.28,1.46
26.7960,0.06,0.14,-0.97,3.66,2.69,1.95
26.8120,0.07,0.09,-0.99,0.24,1.71,1.40
26.8320,0.08,0.15,-1.02,5.62,1.65,1.95
26.8340,0.07,0.12,-0.98,2.26,2.50,1.83
26.8620,0.07,0.14,-1.00,3.48,2.44,2.08
26.8780,0.09,0.13,-1.00,1.04,2.56,1.71
26.8860,0.05,0.13,-1.00,4.82,2.01,1.77
26.8960,0.06,0.11,-1.00,2.56,1.83,1.65
26.9240,0.07,0.14,-1.01,5.62,1.65,2.08
26.9340,0.07,0.13,-1.00,4.70,1.77,2.20
26.9500,0.08,0.13,-1.00,4.70,1.89,2.26
26.9670,0.08,0.15,-1.02,-1.04,2.44,2.26
26.9840,0.06,0.14,-0.99,5.25,2.20,2.01
26.9990,0.06,0.11,-0.98,1.10,2.50,1.71
27.0150,0.08,0.15,-1.01,5.07,1.71,1.89
27.0310,0.07,0.12,-0.99,2.38,1.77,1.83
27.0460,0.07,0.13,-0.99,3.78,1.65,1.71
27.0500,0.07,0.12,-0.99,2.93,2.14,1.77
27.0770,0.07,0.14,-1.00,3.97,2.26,1.71
27.0830,0.07,0.13,-0.99,3.23,2.26,1.71
27.1070,0.07,0.13,-0.99,3.30,2.26,1.83
27.1230,0.07,0.13,-1.00,2.93,2.14,1.65
27.1370,0.08,0.14,-1.00,3.85,1.95,1.77
27.1520,0.07,0.11,-0.99,2.99,1.89,1.77
27.1630,0.09,0.14,-1.00,4.21,2.44,1.89
27.1810,0.08,0.13,-0.99,3.05,2.38,1.77
27.1970,0.07,0.13,-1.00,3.66,1.95,1.95
27.2120,0.06,0.12,-0.99,2.75,1.83,1.65
27.2170,0.07,0.12,-1.00,3.85,2.08,1.71
27.2320,0.07,0.13,-1.00,3.48,1.83,1.65
27.2540,0.09,0.14,-0.98,3.60,1.89,1.65
27.2690,0.09,0.11,-0.99,0.73,2.26,1.46
27.2870,0.07,0.13,-0.99,2.44,2.26,1.53
27.3020,0.09,0.19,-0.98,4.15,2.44,-0.43
27.3180,0.08,0.10,-0.95,4.39,2.93,-5.62
27.3190,0.07,0.12,-1.05,4.52,3.42,-4.94
27.3500,0.10,0.11,-0.96,4.88,3.23,-4.27
27.3650,0.04,0.12,-1.01,4.76,2.32,-2.81
27.3770,0.08,0.13,-0.99,3.78,2.81,0.73
27.3980,0.07,0.12,-1.00,3.54,2.14,-0.61
27.4120,0.07,0.13,-0.99,4.15,2.50,-1.16
27.4180,0.07,0.13,-0.99,4.21,2.01,-1.46
27.4410,0.03,0.14,-0.99,4.09,2.08,-0.31
27.4500,0.06,0.13,-0.99,3.54,1.83,0.67
27.4660,0.07,0.13,-0.99,3.85,1.89,1.53
27.4820,0.09,0.13,-0.99,4.33,2.20,1.10
27.5000,0.08,0.13,-1.00,4.64,2.56,-1.16
27.5150,0.07,0.13,-0.99,4.52,2.69,-2.20
27.5320,0.08,0.14,-0.99,4.15,2.75,-1.77
27.5470,0.10,0.13,-1.00,4.15,2.44,-1.59
27.5480,0.07,0.13,-0.99,3.36,2.81,-2.14
27.5780,0.07,0.13,-1.00,3.97,2.50,-2.50
27.5950,0.07,0.13,-1.00,4.21,2.56,-2.69
27.5970,0.07,0.14,-0.99,3.85,2.75,-2.32
27.6250,0.07,0.14,-1.00,3.42,2.62,-0.49
27.6400,0.08,0.13,-0.99,3.54,2.08,0.18
27.6470,0.07,0.13,-0.99,3.91,2.32,0.24
27.6620,0.07,0.13,-1.00,3.97,2.14,0.24
27.6780,0.07,0.13,-0.99,4.03,2.08,-0.24
27.6930,0.07,0.13,-0.99,4.21,2.14,-0.55
27.7150,0.07,0.13,-0.99,4.09,2.50,-0.06
27.7300,0.08,0.13,-0.99,3.78,2.44,-0.06
27.7460,0.08,0.13,-0.99,3.97,2.44,-0.31
27.7490,0.08,0.13,-0.99,3.91,2.14,-0.98
27.7700,0.07,0.13,-0.99,3.72,2.87,-1.16
27.7860,0.07,0.14,-0.99,4.09,2.99,-1.22
27.8020,0.07,0.14,-0.99,3.85,2.32,-0.73
27.8180,0.07,0.14,-1.00,3.78,2.08,0.18
27.8350,0.07,0.13,-0.99,3.36,2.20,0.67
27.8510,0.07,0.13,-0.99,3.42,2.01,1.04
27.8670,0.07,0.13,-0.99,3.97,2.32,1.22
27.8830,0.07,0.14,-0.99,3.42,2.08,1.04
27.8980,0.07,0.13,-0.99,2.93,2.14,1.46
27.9140,0.08,0.13,-0.99,3.30,2.01,1.65
27.9290,0.09,0.13,-0.99,3.91,2.14,1.16
27.9450,0.08,0.13,-1.00,4.46,2.44,0.55
27.9600,0.07,0.13,-0.99,4.33,2.81,0.00
27.9740,0.08,0.14,-0.99,3.97,2.75,0.31
27.9900,0.09,0.13,-0.99,3.72,2.62,0.37
28.0040,0.07,0.13,-1.00,3.30,2.26,0.31
28.0150,0.07,0.14,-1.00,3.54,2.32,0.43
28.0310,0.07,0.13,-0.99,3.23,2.44,0.37
28.0480,0.09,0.12,-0.98,3.36,2.32,0.85
28.0640,0.08,0.14,-0.99,3.72,2.20,1.40
28.0800,0.07,0.13,-0.99,3.97,2.20,1.34
28.0960,0.08,0.13,-0.99,4.46,2.01,1.22
28.1120,0.09,0.13,-0.99,4.33,1.95,0.24
28.1270,0.08,0.15,-1.00,4.58,2.32,-0.43
28.1420,0.09,0.14,-0.99,3.42,2.32,-0.85
28.1570,0.06,0.14,-1.00,3.91,2.69,-0.37
28.1710,0.06,0.13,-0.99,3.23,2.69,0.55
28.1860,0.06,0.14,-0.99,3.78,2.44,1.28
28.2000,0.06,0.13,-0.99,3.30,2.01,1.34
28.2110,0.07,0.14,-0.99,3.11,2.08,1.53
28.2270,0.07,0.13,-0.99,2.69,2.50,1.59
28.2430,0.08,0.14,-0.99,2.87,2.38,1.65
28.2610,0.08,0.13,-0.99,3.17,2.44,1.71
28.2760,0.07,0.13,-0.99,3.36,2.26,1.83
28.2920,0.10,0.14,-0.99,3.78,2.44,1.53
28.3070,0.08,0.14,-0.99,4.15,2.32,0.37
28.3220,0.07,0.13,-0.99,4.27,2.50,0.55
28.3250,0.08,0.14,-0.99,3.91,2.20,0.73
28.3410,0.09,0.14,-0.99,3.54,2.44,0.67
28.3620,0.07,0.14,-0.99,3.66,2.38,0.37
28.3790,0.08,0.13,-0.99,3.36,2.50,0.55
28.3970,0.08,0.13,-0.99,3.48,2.56,0.43
28.4110,0.07,0.13,-0.99,4.09,2.08,0.79
28.4270,0.07,0.14,-0.99,4.70,2.01,0.73
28.4420,0.09,0.14,-0.99,4.64,2.32,0.49
28.4570,0.07,0.14,-0.99,4.09,2.56,0.06
28.4730,0.08,0.14,-0.99,3.60,2.38,0.24
28.4890,0.08,0.13,-0.97,3.85,2.08,0.06
28.4930,0.11,0.14,-0.97,3.60,2.75,0.12
28.5190,0.08,0.13,-0.99,3.36,2.26,1.04
28.5260,0.08,0.13,-0.99,3.42,2.01,1.04
28.5420,0.07,0.14,-1.00,4.46,1.95,0.67
28.5640,0.06,0.14,-0.99,3.11,2.62,1.04
28.5800,0.06,0.14,-0.99,2.99,2.56,1.04
28.5950,0.06,0.14,-1.00,3.36,2.38,1.04
28.6110,0.05,0.13,-0.99,2.44,2.56,1.46
28.6130,0.07,0.14,-0.99,3.42,2.01,1.77
28.6280,0.07,0.14,-0.99,3.30,1.89,1.95
28.6570,0.07,0.14,-0.99,3.36,2.38,1.71
28.6680,0.08,0.14,-0.99,3.36,2.20,1.71
28.6840,0.08,0.14,-0.99,3.48,2.14,1.77
28.7000,0.08,0.14,-0.99,3.42,2.50,1.95
28.7170,0.08,0.14,-0.99,3.78,2.62,1.77
28.7330,0.07,0.14,-0.99,3.30,2.20,1.77
28.7500,0.08,0.13,-0.99,3.05,2.01,1.46
28.7650,0.08,0.14,-0.99,3.48,1.77,1.46
28.7810,0.08,0.14,-0.99,3.54,2.26,1.40
28.7960,0.08,0.14,-0.99,3.48,2.01,1.46
28.8120,0.08,0.14,-0.99,3.60,2.01,1.59
28.8270,0.08,0.14,-0.99,3.42,1.89,1.22
28.8430,0.08,0.14,-0.99,3.54,1.89,1.04
28.8580,0.08,0.14,-0.99,3.66,2.14,0.61
28.8720,0.08,0.14,-0.99,3.66,1.77,0.43
28.8800,0.08,0.14,-0.99,4.39,2.01,0.37
28.8970,0.08,0.14,-0.99,4.39,1.89,0.31
28.9190,0.08,0.14,-0.99,4.33,2.14,-0.49
28.9300,0.10,0.13,-0.99,4.46,2.26,-0.79
28.9480,0.07,0.14,-0.99,4.33,1.04,-1.10
28.9630,0.07,0.14,-0.99,4.76,1.59,-0.79
28.9780,0.12,0.12,-0.96,4.21,1.65,-0.18
28.9940,0.08,0.15,-1.00,4.76,2.56,-0.37
29.0090,0.10,0.13,-0.98,3.72,2.38,-0.31
29.0250,0.08,0.14,-1.00,4.27,1.89,-0.43
29.0400,0.07,0.14,-0.99,3.78,2.01,0.00
29.0550,0.07,0.14,-0.99,3.66,2.01,1.22
29.0700,0.08,0.14,-0.99,3.97,2.01,1.59
29.0860,0.07,0.14,-0.99,3.60,1.83,1.40
29.1000,0.07,0.14,-0.99,3.05,1.65,1.46
29.1090,0.08,0.14,-0.99,3.11,1.71,1.53
29.1300,0.09,0.14,-0.99,3.30,2.26,1.53
29.1440,0.08,0.14,-0.99,3.60,2.01,1.10
29.1570,0.09,0.14,-0.99,3.66,1.89,0.85
29.1740,0.08,0.14,-0.99,3.78,1.77,0.00
29.1910,0.07,0.13,-1.00,4.15,1.77,-0.37
29.2060,0.08,0.14,-0.99,4.76,1.83,-0.37
29.2220,0.07,0.14,-0.99,4.58,2.14,-0.49
29.2370,0.08,0.14,-0.99,4.76,1.77,-0.18
29.2520,0.08,0.14,-0.99,4.09,2.08,-0.12
29.2670,0.05,0.15,-0.99,3.85,2.20,-0.37
29.2820,0.07,0.15,-0.98,2.87,2.32,0.00
29.2970,0.07,0.14,-1.00,2.93,2.44,0.12
29.3120,0.09,0.14,-0.99,3.54,2.01,0.37
29.3210,0.08,0.14,-0.99,4.21,2.50,0.18
29.3400,0.09,0.14,-1.00,3.97,2.20,0.06
29.3570,0.07,0.14,-1.01,4.15,1.95,-0.43
29.3580,0.07,0.15,-0.99,1.10,1.40,0.79
29.3740,0.06,0.14,-0.98,1.83,1.59,1.04
29.3910,0.06,0.14,-0.98,3.91,1.46,0.92
29.4060,0.07,0.14,-0.99,4.64,1.95,0.85
29.4230,0.09,0.14,-0.99,4.94,2.26,0.73
29.4390,0.08,0.14,-0.99,4.76,2.38,0.18
29.4660,0.08,0.14,-0.99,4.27,2.56,-0.06
29.4750,0.08,0.14,-0.99,4.09,2.32,0.37
29.4900,0.08,0.14,-0.99,3.97,1.77,1.16
29.5100,0.09,0.14,-0.99,3.91,1.89,1.40
29.5140,0.08,0.14,-0.99,3.36,1.95,0.98
29.5400,0.07,0.14,-0.99,3.42,2.01,0.61
29.5540,0.08,0.14,-0.99,3.36,1.71,0.85
29.5690,0.10,0.13,-1.00,3.54,1.40,0.73
29.5790,0.08,0.14,-0.99,3.30,1.34,0.67
29.5960,0.09,0.14,-0.99,4.27,1.59,1.04
29.6120,0.08,0.14,-0.99,3.30,1.65,0.85
29.6290,0.08,0.14,-0.99,2.87,1.34,0.12
29.6450,0.07,0.14,-0.98,2.87,1.59,-0.24
29.6600,0.08,0.14,-0.99,3.78,1.77,0.00
29.6750,0.08,0.14,-0.99,3.97,1.89,-0.12
29.6910,0.07,0.15,-0.99,3.23,1.95,0.24
29.7070,0.08,0.14,-0.99,3.23,1.71,0.92
29.7220,0.08,0.14,-1.00,3.23,2.32,1.40
29.7370,0.08,0.14,-0.99,2.69,1.89,1.40
29.7430,0.08,0.14,-0.99,3.60,1.59,1.28
29.7580,0.07,0.15,-1.00,4.33,1.89,1.10
29.7790,0.08,0.13,-0.99,2.93,2.01,0.67
29.7960,0.07,0.15,-0.99,2.75,1.65,1.04
29.8120,0.07,0.14,-0.99,2.56,1.83,1.53
29.8270,0.08,0.14,-0.99,3.36,1.89,1.71
29.8420,0.08,0.14,-1.00,3.42,1.77,1.59
29.8570,0.08,0.14,-0.99,3.97,1.40,1.71
29.8720,0.08,0.14,-0.99,4.39,2.20,1.83
29.8880,0.09,0.14,-1.00,3.72,2.01,1.89
29.9030,0.08,0.14,-0.99,2.81,1.71,1.71
29.9190,0.08,0.14,-0.99,2.93,1.89,1.71
29.9330,0.08,0.14,-0.99,3.36,1.77,1.77
29.9430,0.09,0.14,-0.99,4.27,1.59,1.71
29.9590,0.09,0.14,-0.99,3.97,1.77,1.46
29.9770,0.09,0.14,-0.99,3.30,1.89,1.53
29.9920,0.10,0.14,-1.00,3.05,1.89,1.53
29.9970,0.09,0.14,-0.99,2.32,0.85,1.22
30.0220,0.08,0.14,-0.99,2.56,0.73,0.85
30.0300,0.07,0.14,-0.99,2.99,0.79,0.61
30.0450,0.08,0.14,-0.99,3.30,0.85,0.92
30.0620,0.07,0.14,-0.99,2.93,0.98,1.46
30.0790,0.08,0.14,-0.98,3.60,1.59,1.04
30.0940,0.09,0.14,-0.98,4.09,2.08,1.22
30.1120,0.09,0.14,-1.00,4.33,1.53,1.16
30.1280,0.08,0.14,-0.98,2.50,1.10,1.71
30.1290,0.08,0.14,-0.98,3.23,1.77,1.77
30.1580,0.08,0.14,-0.99,4.03,2.14,1.89
30.1730,0.09,0.15,-1.00,4.39,2.44,2.14
30.1880,0.07,0.13,-0.97,3.85,2.81,2.20
30.2030,0.08,0.14,-0.99,3.23,2.50,1.71
30.2190,0.08,0.15,-0.99,3.78,2.32,1.34
30.2330,0.09,0.14,-0.99,4.82,2.93,1.10
30.2490,0.08,0.13,-1.00,6.23,2.69,0.67
30.2590,0.09,0.13,-1.00,5.43,1.40,0.73
30.2750,0.09,0.16,-1.00,5.37,1.16,1.34
30.2960,0.09,0.15,-1.01,3.85,1.89,1.22
30.3120,0.08,0.15,-0.98,0.31,2.14,1.89
30.3280,0.09,0.14,-1.01,-0.73,2.93,1.22
30.3430,0.08,0.12,-0.95,-2.08,1.34,1.22
30.3590,0.08,0.14,-0.98,4.94,1.65,1.95
30.3740,0.09,0.14,-0.99,2.93,2.99,1.34
30.3890,0.09,0.15,-0.99,1.46,3.11,2.20
30.4050,0.09,0.15,-0.99,2.44,2.56,2.69
30.4210,0.08,0.14,-0.99,1.40,2.56,2.08
30.4270,0.08,0.14,-0.99,1.53,2.26,1.89
30.4420,0.09,0.13,-0.98,3.36,2.62,2.20
30.4650,0.09,0.14,-0.99,4.33,2.44,2.32
30.4820,0.08,0.14,-0.99,4.39,3.05,1.83
30.4970,0.08,0.14,-0.99,4.21,3.42,1.16
30.5130,0.08,0.14,-1.00,4.09,3.11,1.46
30.5280,0.08,0.14,-0.99,3.91,2.81,1.65
30.5310,0.09,0.13,-0.99,3.48,2.44,1.71
30.5470,0.08,0.15,-0.99,4.21,2.38,1.59
30.5670,0.09,0.14,-0.99,2.32,2.20,1.77
30.5830,0.08,0.14,-0.99,2.38,1.59,1.04
30.5990,0.08,0.13,-0.99,2.32,1.95,1.77
30.6170,0.08,0.14,-0.99,2.93,2.01,1.28
30.6320,0.08,0.14,-0.99,3.91,1.59,1.40
30.6490,0.09,0.14,-0.99,4.33,1.89,1.40
30.6640,0.09,0.14,-0.99,3.91,2.01,1.65
30.6810,0.09,0.14,-1.00,4.09,1.71,1.40
30.6970,0.09,0.14,-0.99,2.20,1.65,0.98
30.7120,0.08,0.13,-0.99,1.83,0.92,0.43
30.7160,0.08,0.14,-0.98,2.14,1.10,1.10
30.7310,0.08,0.14,-0.98,3.05,1.71,1.77
30.7480,0.08,0.14,-0.99,3.54,1.71,1.04
30.7640,0.08,0.14,-0.99,2.99,2.08,1.04
30.7800,0.07,0.15,-0.99,3.36,2.26,1.59
30.8040,0.09,0.14,-1.00,4.39,2.87,2.01
30.8140,0.09,0.14,-1.00,3.91,1.53,1.40
30.8300,0.08,0.14,-0.98,4.09,1.71,1.16
30.8450,0.08,0.13,-0.99,4.64,2.14,1.16
30.8620,0.08,0.14,-1.00,4.52,2.38,1.71
30.8790,0.08,0.14,-0.99,4.33,2.32,1.83
30.8940,0.09,0.13,-1.00,4.21,2.08,1.10
30.9100,0.10,0.14,-1.00,2.75,2.01,-0.55
30.9120,0.08,0.13,-0.99,2.56,1.53,-1.22
30.9270,0.08,0.14,-0.99,2.56,1.59,-1.46
30.9570,0.08,0.10,-0.98,3.54,1.89,-1.46
30.9590,0.07,0.11,-1.01,4.58,2.32,-2.93
30.9870,0.08,0.15,-0.99,2.20,1.40,-2.14
30.9920,0.08,0.14,-0.99,3.30,1.46,-2.69
31.0110,0.08,0.15,-0.99,3.11,1.77,-2.50
31.0290,0.07,0.16,-0.99,3.11,1.95,-0.73
31.0450,0.08,0.15,-0.99,3.91,1.89,1.46
31.0620,0.09,0.14,-1.00,3.60,1.95,1.71
31.0770,0.09,0.13,-0.99,3.30,2.01,2.01
31.0940,0.09,0.14,-0.99,3.91,1.71,1.89
31.1100,0.09,0.14,-0.99,4.03,1.89,1.71
31.1250,0.08,0.14,-0.99,3.66,2.20,1.89
31.1400,0.08,0.14,-0.99,4.03,2.20,1.46
31.1550,0.06,0.14,-0.99,4.03,3.05,1.46
31.1590,0.09,0.14,-0.98,4.27,2.87,1.59
31.1750,0.09,0.14,-1.00,4.82,2.93,1.83
31.2000,0.09,0.14,-0.99,4.03,2.56,1.59
31.2150,0.08,0.14,-0.99,3.36,2.26,1.46
31.2170,0.08,0.14,-0.99,3.17,2.69,1.59
31.2320,0.08,0.14,-0.99,3.54,2.99,1.77
31.2610,0.09,0.14,-0.99,3.54,2.69,2.01
31.2760,0.09,0.14,-1.00,3.91,2.50,1.89
31.2930,0.09,0.14,-0.99,3.48,1.95,2.01
31.3090,0.08,0.14,-0.99,4.09,2.38,1.40
31.3230,0.08,0.14,-0.98,3.78,2.87,1.53
31.3380,0.08,0.17,-0.99,4.82,2.75,2.69
31.3520,0.11,0.10,-1.00,5.62,2.93,0.98
31.3630,0.11,0.10,-1.02,4.82,2.69,-0.18
31.3790,0.06,0.16,-0.98,1.71,2.50,2.56
31.3950,0.06,0.14,-1.01,6.90,3.78,-0.43
31.4120,0.10,0.16,-0.99,0.61,2.01,-0.06
31.4130,0.10,0.15,-0.98,4.03,1.10,1.10
31.4410,0.09,0.13,-0.99,4.03,1.95,0.92
31.4550,0.09,0.17,-0.98,4.21,2.81,2.20
31.4710,0.08,0.12,-1.02,5.31,2.69,1.53
31.4860,0.07,0.12,-0.98,-0.85,2.14,0.24
31.5010,0.08,0.16,-0.99,5.00,1.89,2.32
31.5160,0.09,0.15,-1.00,7.81,1.89,2.81
31.5270,0.09,0.13,-1.01,3.54,1.46,1.71
31.5430,0.08,0.14,-0.97,1.10,1.53,1.28
31.5600,0.08,0.13,-1.00,3.85,2.38,0.31
31.5760,0.08,0.13,-1.00,2.08,2.69,-0.49
31.5910,0.07,0.12,-1.01,2.87,2.75,-4.09
31.6080,0.09,0.15,-0.98,0.79,2.38,-2.01
31.6230,0.08,0.16,-0.98,4.70,2.32,0.31
31.6380,0.10,0.15,-1.00,4.94,2.44,1.04
31.6530,0.08,0.14,-0.99,0.61,1.89,1.04
31.6690,0.08,0.14,-0.98,3.72,2.20,1.95
31.6730,0.09,0.14,-1.00,5.37,2.20,2.20
31.6990,0.09,0.14,-1.00,3.85,1.77,1.95
31.7050,0.08,0.14,-0.98,3.17,1.77,1.83
31.7290,0.08,0.13,-0.99,4.46,2.38,2.08
31.7440,0.09,0.14,-1.00,2.87,2.62,0.00
31.7600,0.08,0.13,-0.99,2.20,1.89,-0.06
31.7760,0.07,0.12,-1.00,3.17,2.38,-0.24
31.7910,0.08,0.15,-0.98,2.87,4.03,-3.23
31.7970,0.09,0.15,-0.98,3.97,3.36,-2.87
31.8090,0.08,0.14,-1.00,4.27,2.69,-0.24
31.8310,0.08,0.14,-0.99,4.09,2.75,0.61
31.8480,0.08,0.14,-0.99,3.17,2.56,-0.12
31.8640,0.09,0.14,-0.99,2.50,1.95,-0.43
31.8800,0.09,0.14,-0.99,2.62,2.38,0.24
31.8960,0.08,0.14,-0.99,3.42,2.08,0.55
31.9120,0.08,0.14,-0.99,4.03,2.26,0.67
31.9270,0.08,0.14,-0.99,3.42,2.20,0.85
31.9430,0.08,0.14,-0.99,3.36,1.89,1.16
31.9460,0.08,0.14,-0.99,3.97,1.46,0.73
31.9730,0.08,0.13,-0.99,3.66,1.77,0.37
31.9790,0.08,0.13,-0.99,2.75,2.20,-0.67
31.9950,0.08,0.14,-0.99,3.11,2.44,-0.73
32.0150,0.08,0.14,-0.99,3.42,2.26,-0.43
32.0310,0.09,0.14,-0.99,3.72,2.14,1.10
32.0480,0.08,0.13,-0.99,4.09,2.44,1.04
32.0640,0.09,0.13,-0.99,4.21,2.81,-0.31
32.0810,0.09,0.14,-1.00,3.23,2.93,-1.89
32.0960,0.08,0.15,-0.99,2.50,2.44,-0.92
32.1100,0.08,0.15,-0.99,2.81,2.32,-0.06
32.1130,0.08,0.14,-0.99,3.78,2.01,1.34
32.1280,0.09,0.13,-0.99,3.60,1.77,1.77
32.1570,0.08,0.13,-0.99,3.05,2.26,1.16
32.1710,0.09,0.13,-0.99,3.91,2.75,0.24
32.1820,0.08,0.12,-1.00,3.54,2.75,-1.71
32.1980,0.08,0.14,-0.99,2.75,2.62,-1.83
32.2130,0.08,0.14,-0.98,2.93,2.38,-0.55
32.2300,0.08,0.14,-0.99,3.97,2.38,-0.49
32.2450,0.09,0.14,-0.99,3.54,2.87,-0.49
32.2550,0.08,0.14,-0.99,3.78,2.99,-0.92
32.2700,0.09,0.13,-0.99,3.42,2.81,-0.61
32.2900,0.08,0.13,-0.99,3.91,2.93,-1.53
32.3060,0.09,0.14,-0.99,2.93,3.42,-1.89
32.3210,0.08,0.14,-0.99,2.75,2.56,-1.10
32.3360,0.08,0.15,-0.99,3.11,2.50,-0.12
32.3520,0.08,0.15,-0.99,3.78,2.26,0.67
32.3670,0.08,0.14,-0.99,3.48,2.38,0.85
32.3830,0.08,0.14,-0.99,3.48,2.01,1.46
32.3980,0.08,0.14,-0.99,3.85,2.20,1.65
32.4140,0.08,0.14,-1.00,3.91,1.95,1.89
32.4210,0.08,0.14,-0.99,3.60,1.77,1.89
32.4370,0.08,0.14,-0.99,3.72,1.89,1.83
32.4580,0.08,0.13,-0.99,4.15,2.08,2.08
32.4730,0.08,0.13,-0.99,4.03,2.26,1.40
32.4890,0.09,0.13,-0.99,3.66,2.81,0.67
32.5040,0.09,0.12,-0.99,4.03,2.87,-0.31
32.5200,0.09,0.14,-1.00,3.60,2.93,-2.38
32.5240,0.08,0.15,-0.99,3.36,2.32,-0.37
32.5400,0.08,0.14,-0.99,3.91,2.01,0.79
32.5630,0.08,0.14,-0.99,3.36,2.01,0.85
32.5790,0.08,0.14,-0.99,3.36,2.08,1.34
32.5950,0.08,0.13,-0.99,3.05,2.08,1.53
32.6100,0.08,0.13,-0.99,3.48,2.08,0.79
32.6140,0.08,0.13,-0.99,4.09,2.44,0.43
32.6290,0.08,0.13,-0.99,4.21,2.75,-0.31
32.6450,0.08,0.13,-0.99,3.60,2.75,-1.34
32.6690,0.08,0.14,-0.99,3.42,2.50,-1.46
32.6850,0.08,0.15,-0.99,3.11,2.44,-0.73
32.7010,0.08,0.14,-0.99,3.05,2.20,0.43
32.7160,0.08,0.14,-0.99,3.66,1.83,1.04
32.7170,0.08,0.13,-0.99,3.66,2.08,1.34
32.7330,0.08,0.13,-1.00,3.91,1.89,1.16
32.7550,0.08,0.13,-0.99,3.42,2.20,0.85
32.7720,0.08,0.13,-0.99,3.66,2.14,0.43
32.7880,0.08,0.14,-0.99,3.05,2.38,-0.18
32.8040,0.08,0.14,-0.99,3.23,2.62,-0.43
32.8200,0.08,0.14,-0.99,3.30,2.44,-0.61
32.8360,0.08,0.14,-0.99,3.30,2.62,-0.31
32.8510,0.08,0.14,-0.99,3.91,2.50,0.43
32.8530,0.08,0.14,-0.99,3.54,2.20,1.28
32.8760,0.08,0.13,-0.99,3.66,2.44,1.28
32.8960,0.08,0.13,-0.99,3.36,2.38,0.00
32.9060,0.08,0.12,-0.99,3.48,2.56,-0.55
32.9230,0.08,0.13,-0.99,3.30,2.75,-1.65
32.9380,0.08,0.14,-0.99,4.33,2.20,-1.77
32.9570,0.08,0.15,-0.99,4.03,1.83,-0.55
32.9590,0.09,0.14,-0.99,4.52,1.22,0.31
32.9870,0.08,0.14,-1.00,3.23,1.89,0.12
32.9910,0.08,0.14,-0.99,2.81,1.83,0.31
33.0070,0.08,0.13,-0.99,3.85,2.14,0.18
33.0270,0.08,0.13,-0.99,3.23,1.95,0.61
33.0440,0.08,0.14,-0.99,3.54,2.08,0.79
33.0600,0.08,0.14,-0.99,3.30,2.01,0.73
33.0750,0.08,0.13,-0.99,2.75,2.50,0.73
33.0910,0.08,0.14,-0.99,2.44,2.44,0.31
33.1070,0.08,0.14,-0.99,3.23,2.44,0.79
33.1220,0.08,0.13,-0.99,3.42,2.08,0.18
33.1370,0.08,0.14,-0.99,3.48,2.44,0.06
33.1510,0.08,0.13,-0.99,4.03,2.32,0.31
33.1580,0.08,0.14,-0.99,3.91,2.44,0.24
33.1730,0.08,0.14,-0.99,3.54,2.32,0.06
33.1950,0.08,0.13,-0.99,3.48,1.77,0.18
33.2110,0.08,0.14,-0.99,3.23,2.50,0.73
33.2270,0.08,0.13,-1.00,3.78,2.08,1.34
33.2430,0.08,0.13,-0.99,3.54,2.38,0.61
33.2570,0.08,0.13,-0.99,3.17,2.38,0.12
33.2690,0.08,0.13,-0.99,3.11,2.87,-0.98
33.2760,0.08,0.13,-0.99,3.85,2.38,-0.67
33.2960,0.08,0.14,-0.99,3.36,2.26,0.24
33.3120,0.08,0.14,-0.99,4.03,2.56,0.06
33.3280,0.08,0.13,-0.99,3.66,2.38,0.00
33.3450,0.08,0.13,-0.99,3.85,2.44,-0.79
33.3610,0.08,0.14,-0.99,3.05,2.38,-0.49
33.3770,0.08,0.13,-0.99,3.91,2.62,0.43
33.3920,0.08,0.13,-0.99,3.72,2.44,-0.18
33.4070,0.08,0.13,-0.99,3.54,2.75,-0.24
33.4230,0.08,0.13,-1.00,3.72,2.93,-0.79
33.4370,0.09,0.13,-0.99,3.23,3.11,-0.92
33.4520,0.08,0.14,-0.99,3.78,2.99,-1.34
33.4660,0.08,0.13,-0.99,4.09,3.30,-2.14
33.4760,0.08,0.14,-0.99,3.42,2.99,-1.53
33.4960,0.08,0.15,-0.99,3.66,2.87,-0.92
33.5080,0.08,0.14,-1.00,4.33,2.14,0.24
33.5240,0.08,0.13,-0.99,3.60,2.56,0.49
33.5410,0.08,0.13,-0.99,3.36,2.93,0.55
33.5450,0.08,0.13,-0.99,3.66,2.93,0.43
33.5640,0.08,0.13,-0.99,3.42,2.56,-0.06
33.5850,0.08,0.14,-0.99,3.78,2.44,-0.18
33.5950,0.08,0.14,-0.99,3.48,2.20,0.79
33.6120,0.08,0.14,-0.99,3.17,2.01,1.10
33.6270,0.08,0.14,-0.99,3.30,1.95,1.34
33.6430,0.08,0.13,-0.99,3.66,2.14,1.46
33.6600,0.08,0.13,-0.99,3.78,2.01,0.92
33.6620,0.09,0.12,-1.00,3.78,2.38,-0.12
33.6770,0.08,0.13,-0.99,3.60,2.56,-1.28
33.7060,0.08,0.14,-0.99,3.54,2.87,-1.59
33.7090,0.08,0.14,-0.99,3.60,2.81,-0.37
33.7370,0.08,0.14,-0.99,3.66,2.44,0.12
33.7520,0.08,0.13,-0.99,3.54,2.14,0.73
33.7670,0.08,0.13,-0.99,2.81,2.38,0.31
33.7750,0.08,0.13,-0.99,3.17,2.44,-0.12
33.7910,0.07,0.14,-0.99,3.60,2.44,-0.43
33.8120,0.08,0.13,-0.99,4.09,2.32,-0.43
33.8270,0.08,0.13,-0.99,4.33,2.26,-0.67
33.8420,0.08,0.13,-0.99,3.66,2.26,-1.04
33.8570,0.08,0.13,-0.99,4.09,2.26,-1.28
33.8730,0.08,0.14,-1.00,4.21,2.75,-1.16
33.8880,0.08,0.14,-0.99,3.85,2.62,-0.49
33.8940,0.08,0.14,-0.99,3.60,2.44,-0.67
33.9090,0.08,0.14,-0.99,3.42,2.26,-0.24
33.9300,0.08,0.13,-0.99,4.09,2.38,-0.37
33.9480,0.08,0.14,-0.99,3.54,2.44,-0.37
33.9630,0.08,0.14,-1.00,3.91,2.56,-0.12
33.9790,0.08,0.13,-0.99,4.03,2.26,0.43
33.9940,0.08,0.13,-0.99,3.72,2.08,-0.31
34.0100,0.08,0.14,-0.99,3.17,2.26,-0.18
34.0240,0.08,0.14,-0.99,3.54,2.32,0.37
34.0400,0.08,0.13,-1.00,3.91,1.53,1.22
34.0450,0.08,0.13,-0.99,3.05,2.14,0.73
34.0610,0.08,0.13,-0.99,3.36,2.14,0.79
34.0800,0.08,0.13,-0.99,3.72,2.14,0.24
34.0960,0.08,0.13,-0.99,3.72,2.32,-0.06
34.1130,0.08,0.14,-0.99,3.72,2.32,0.06
34.1290,0.08,0.14,-0.99,3.60,2.38,0.61
34.1450,0.08,0.14,-0.99,3.54,2.20,1.53
34.1610,0.08,0.13,-0.99,3.60,2.14,1.59
34.1760,0.08,0.13,-0.99,3.54,2.38,1.22
34.1920,0.08,0.14,-0.99,3.42,2.32,1.16
34.2090,0.08,0.14,-0.99,4.03,2.32,0.98
34.2250,0.08,0.14,-0.99,4.03,1.83,1.10
34.2410,0.08,0.14,-0.99,4.15,1.83,1.16
34.2560,0.08,0.13,-1.00,3.48,2.32,1.10
34.2710,0.08,0.14,-0.99,2.87,1.89,1.28
34.2860,0.08,0.14,-0.99,3.60,2.75,1.77
34.3010,0.08,0.14,-0.99,3.78,2.32,2.01
34.3150,0.08,0.13,-0.99,4.33,1.89,1.53
34.3260,0.08,0.13,-0.99,4.15,2.20,1.34
34.3410,0.08,0.14,-0.98,3.42,2.01,0.67
34.3580,0.08,0.14,-0.99,3.11,2.26,1.10
34.3750,0.08,0.14,-1.00,2.99,2.44,1.16
34.3910,0.08,0.14,-0.99,3.23,2.08,1.46
34.4070,0.07,0.13,-0.99,4.15,2.01,2.01
34.4220,0.08,0.14,-1.00,3.97,2.14,1.71
34.4370,0.08,0.14,-0.99,3.78,2.08,1.71
34.4530,0.08,0.14,-0.99,3.78,2.08,1.59
34.4690,0.08,0.14,-0.99,3.78,1.77,1.34
34.4840,0.08,0.14,-0.99,3.42,1.89,1.28
34.5000,0.08,0.14,-0.99,3.66,2.32,1.46
34.5050,0.08,0.14,-0.99,4.39,2.56,1.95
34.5200,0.08,0.13,-0.99,4.27,1.89,1.71
34.5420,0.08,0.13,-0.99,4.03,1.83,1.77
34.5600,0.08,0.14,-0.99,3.97,2.14,2.20
34.5750,0.08,0.14,-0.99,4.39,1.83,2.14
34.5910,0.08,0.14,-0.99,3.72,2.08,2.08
34.5930,0.08,0.14,-0.99,3.36,2.20,1.95
34.6080,0.08,0.14,-0.99,3.97,1.95,1.95
34.6380,0.08,0.14,-0.99,3.72,2.32,2.01
34.6530,0.09,0.13,-0.99,3.48,2.20,1.83
34.6700,0.08,0.13,-0.99,3.66,2.26,1.83
34.6850,0.08,0.14,-0.99,3.60,2.69,1.89
34.7000,0.08,0.14,-0.99,3.78,2.75,1.71
34.7060,0.08,0.13,-0.99,3.17,2.81,0.43
34.7310,0.07,0.13,-0.99,2.75,3.05,-1.04
34.7430,0.08,0.14,-0.99,3.91,2.99,-0.98
34.7560,0.08,0.14,-0.99,3.91,2.99,0.18
34.7710,0.09,0.15,-1.00,3.91,2.81,0.61
34.7870,0.08,0.14,-1.00,4.03,2.32,1.53
34.8030,0.08,0.13,-0.99,3.54,2.38,1.59
34.8190,0.07,0.13,-0.99,3.05,2.01,0.85
34.8350,0.08,0.13,-0.99,3.66,1.83,1.34
34.8500,0.08,0.14,-0.99,4.03,2.08,1.59
34.8650,0.08,0.14,-0.99,3.91,2.01,1.10
34.8750,0.08,0.14,-0.99,3.72,2.14,1.22
34.8910,0.08,0.13,-0.99,3.36,2.14,1.04
34.9060,0.08,0.13,-0.99,3.17,2.44,0.49
34.9240,0.08,0.13,-1.00,3.42,2.32,0.12
34.9390,0.08,0.13,-0.99,3.54,2.20,-0.85
34.9550,0.07,0.14,-0.99,2.93,2.93,-1.16
34.9700,0.08,0.15,-0.99,3.48,2.99,-0.79
34.9850,0.08,0.14,-0.99,4.21,2.44,-0.37
34.9890,0.08,0.14,-0.99,3.78,2.20,0.31
35.0040,0.08,0.14,-0.99,3.78,2.08,0.67
35.0260,0.08,0.14,-0.99,4.03,2.20,1.10
35.0430,0.08,0.14,-0.99,4.09,2.75,1.04
35.0600,0.08,0.14,-0.99,3.60,2.20,0.98
35.0750,0.08,0.13,-0.99,4.03,2.32,0.67
35.0910,0.08,0.13,-0.99,3.78,2.38,0.06
35.1080,0.08,0.14,-0.99,3.85,2.14,-0.24
35.1230,0.08,0.14,-1.00,3.97,2.32,0.37
35.1380,0.08,0.14,-0.99,3.72,2.32,0.55
35.1530,0.08,0.13,-1.00,3.72,2.08,0.31
35.1680,0.08,0.14,-0.99,3.42,1.95,-0.37
35.1830,0.08,0.14,-0.99,3.72,2.14,-0.43
35.1970,0.08,0.14,-0.99,3.97,2.26,0.18
35.2060,0.08,0.14,-0.99,4.09,2.56,0.55
35.2220,0.08,0.15,-0.99,3.78,2.26,0.43
35.2420,0.08,0.14,-1.00,3.85,2.14,1.16
35.2460,0.08,0.13,-0.99,3.78,2.14,1.22
35.2730,0.08,0.13,-0.99,3.30,1.95,0.61
35.2890,0.08,0.14,-0.99,3.23,2.26,0.00
35.2950,0.08,0.14,-0.99,4.09,2.69,-0.31
35.3110,0.08,0.14,-0.99,3.78,2.81,-0.06
35.3320,0.08,0.14,-0.99,3.78,3.11,-0.31
35.3490,0.08,0.14,-0.99,3.91,2.32,-0.12
35.3510,0.08,0.14,-0.99,3.48,2.62,-0.98
35.3790,0.07,0.14,-0.98,2.99,2.26,-1.16
35.3830,0.08,0.14,-0.99,3.48,2.38,0.18
35.3990,0.08,0.14,-0.99,3.60,2.20,0.18
35.4230,0.08,0.13,-0.99,3.48,2.69,-0.12
35.4390,0.08,0.13,-0.99,3.97,2.93,0.00
35.4560,0.08,0.13,-0.99,3.91,2.75,-1.22
35.4710,0.08,0.14,-0.98,3.17,2.44,-1.59
35.4870,0.08,0.14,-0.99,4.21,2.56,-1.04
35.5030,0.08,0.14,-0.99,3.23,2.62,-1.16
35.5050,0.08,0.14,-0.99,4.15,2.32,-0.31
35.5340,0.08,0.14,-0.99,4.21,2.32,-1.16
35.5360,0.08,0.14,-0.99,4.03,2.32,-0.98
35.5520,0.08,0.13,-0.99,4.46,2.26,-1.22
35.5750,0.08,0.14,-0.99,4.03,2.38,-1.34
35.5910,0.08,0.15,-0.99,3.72,2.62,-0.98
35.6070,0.08,0.15,-0.99,3.91,2.32,-0.37
35.6240,0.08,0.15,-0.99,4.70,1.83,0.12
35.6290,0.08,0.15,-0.99,3.85,2.44,0.55
35.6460,0.08,0.14,-0.99,4.39,1.95,1.04
35.6680,0.08,0.13,-0.99,4.21,2.32,0.73
35.6790,0.08,0.13,-0.99,3.54,2.56,0.00
35.6940,0.08,0.14,-1.00,3.05,2.62,-1.77
35.7110,0.08,0.14,-0.99,3.54,2.62,-1.65
35.7270,0.08,0.15,-0.99,3.60,2.56,-0.61
35.7440,0.07,0.15,-0.99,3.72,2.08,0.06
35.7580,0.08,0.15,-0.99,3.66,1.77,0.18
35.7730,0.08,0.14,-0.99,3.30,2.44,0.37
35.7770,0.08,0.13,-0.99,3.60,1.89,0.61
35.7930,0.08,0.13,-0.99,3.17,2.14,-0.31
35.8090,0.08,0.14,-1.00,3.36,2.50,-1.22
35.8300,0.08,0.14,-0.99,3.78,2.50,-1.16
35.8470,0.08,0.14,-0.99,3.78,2.69,-1.40
35.8620,0.08,0.14,-0.99,3.23,2.62,-2.01
35.8790,0.08,0.14,-0.99,2.99,2.87,-1.59
35.8950,0.08,0.14,-0.99,3.42,2.44,-0.85
35.9110,0.08,0.14,-0.99,3.66,2.08,-0.67
35.9270,0.08,0.14,-0.99,3.97,2.32,-0.18
35.9420,0.08,0.14,-0.99,3.91,2.14,0.61
35.9440,0.08,0.14,-0.99,3.48,1.95,0.12
35.9600,0.08,0.14,-0.99,3.36,2.08,0.24
35.9830,0.08,0.14,-0.99,4.03,2.14,0.12
35.9990,0.08,0.13,-0.99,3.85,2.32,-0.79
36.0160,0.08,0.14,-0.99,3.60,2.38,-1.65
36.0320,0.08,0.14,-0.99,3.60,2.08,-1.65
36.0480,0.07,0.14,-0.99,3.36,2.50,-1.16
36.0640,0.08,0.15,-1.00,3.72,2.81,-0.61
36.0790,0.08,0.14,-0.99,4.27,2.38,0.37
36.0960,0.08,0.13,-0.99,3.97,2.01,-0.79
36.1110,0.08,0.12,-0.99,3.54,2.69,-2.93
36.1260,0.08,0.14,-0.99,3.66,2.93,-3.60
36.1300,0.08,0.15,-0.99,3.78,2.56,-3.17
36.1470,0.07,0.15,-0.99,3.85,2.26,-1.65
36.1720,0.08,0.15,-0.99,4.15,2.20,0.00
36.1870,0.08,0.14,-0.99,4.09,2.32,0.24
36.2020,0.08,0.13,-1.00,4.15,2.81,-0.73
36.2160,0.08,0.14,-0.99,2.44,3.17,-2.01
36.2280,0.08,0.15,-0.99,3.97,2.08,-0.92
36.2440,0.08,0.15,-0.99,4.09,1.89,-0.12
36.2610,0.07,0.14,-0.99,3.85,2.01,0.00
36.2620,0.08,0.15,-0.99,3.66,2.38,0.49
36.2920,0.07,0.13,-0.99,4.03,2.01,0.43
36.3080,0.08,0.13,-0.99,3.05,2.81,-0.55
36.3240,0.08,0.13,-0.99,2.87,2.81,-1.34
36.3270,0.08,0.14,-0.99,2.81,2.93,-1.28
36.3430,0.08,0.15,-0.99,3.48,2.26,0.12
36.3590,0.08,0.15,-0.99,3.91,1.95,0.85
36.3750,0.08,0.14,-0.99,3.72,2.32,0.92
36.3950,0.08,0.13,-0.99,3.42,2.14,0.61
36.4120,0.08,0.13,-0.99,3.23,2.81,-0.12
36.4280,0.08,0.14,-0.99,2.75,2.44,-0.61
36.4440,0.08,0.14,-1.00,3.05,2.44,0.00
36.4590,0.08,0.14,-0.99,3.72,2.32,0.31
36.4730,0.08,0.14,-0.99,3.66,2.69,0.24
36.4880,0.08,0.14,-0.99,3.91,2.44,0.24
36.5030,0.08,0.13,-1.00,3.91,2.69,-0.18
36.5200,0.08,0.13,-1.00,3.05,2.99,-1.34
36.5350,0.08,0.14,-0.99,2.99,2.56,-1.40
36.5500,0.08,0.15,-0.99,3.54,2.20,-1.04
36.5650,0.08,0.15,-0.99,4.03,2.08,-0.06
36.5750,0.08,0.14,-0.99,3.91,2.14,0.67
36.5920,0.08,0.13,-0.99,4.15,2.69,0.18
36.6080,0.08,0.13,-0.99,3.91,2.56,-0.49
36.6230,0.08,0.14,-0.99,3.54,2.75,-0.61
36.6380,0.08,0.15,-0.99,3.48,2.75,-0.67
36.6540,0.08,0.14,-0.99,4.15,2.56,0.24
36.6680,0.08,0.14,-0.99,3.72,2.62,0.12
36.6850,0.08,0.14,-0.99,2.75,2.50,-0.43
36.7000,0.08,0.13,-0.99,3.42,2.38,-0.43
36.7160,0.08,0.13,-1.00,3.54,2.87,-0.98
36.7220,0.08,0.14,-0.99,3.72,3.17,-0.92
36.7380,0.08,0.13,-0.99,4.03,3.17,-0.92
36.7610,0.07,0.13,-0.99,3.66,3.17,-1.95
36.7750,0.08,0.14,-0.99,3.05,3.23,-2.93
36.7900,0.07,0.14,-0.99,3.36,3.11,-2.38
36.8040,0.08,0.16,-0.99,3.42,2.87,-1.83
36.8190,0.08,0.15,-0.99,4.33,2.44,0.06
36.8340,0.08,0.13,-0.99,3.66,2.08,0.49
36.8440,0.08,0.14,-0.99,3.36,2.69,-0.12
36.8610,0.08,0.13,-0.99,3.54,2.44,-0.06
36.8760,0.08,0.13,-0.99,4.27,2.99,-0.85
36.8920,0.08,0.13,-0.99,3.72,3.36,-1.59
36.9070,0.08,0.14,-0.99,4.09,3.30,-1.77
36.9090,0.08,0.15,-1.00,4.70,2.75,-1.40
36.9260,0.08,0.15,-0.99,4.58,2.75,-1.22
36.9520,0.08,0.16,-0.98,4.52,2.26,-0.24
36.9670,0.08,0.14,-0.99,4.58,2.44,1.28
36.9810,0.08,0.13,-1.00,3.97,2.38,0.79
36.9920,0.08,0.13,-1.00,3.66,2.26,0.24
37.0080,0.08,0.14,-0.99,3.30,2.62,-1.10
37.0240,0.08,0.15,-0.99,3.05,2.50,-1.22
37.0390,0.07,0.15,-0.99,3.66,2.44,0.12
37.0550,0.08,0.14,-0.99,4.09,2.56,0.67
37.0690,0.08,0.13,-1.00,4.33,2.50,0.06
37.0840,0.07,0.14,-0.99,3.36,3.17,-1.22
37.0980,0.08,0.13,-0.99,3.91,3.23,-1.95
37.1140,0.08,0.14,-0.99,3.17,3.05,-2.32
37.1220,0.08,0.14,-0.99,3.17,3.30,-2.26
37.1390,0.08,0.15,-1.00,3.78,3.23,-1.83
37.1550,0.08,0.15,-0.99,3.72,2.50,-0.67
37.1720,0.08,0.15,-0.99,4.33,2.32,0.92
37.1870,0.08,0.14,-0.99,4.21,2.14,0.92
37.2030,0.08,0.14,-0.99,3.91,2.56,0.12
37.2170,0.08,0.14,-0.99,3.78,3.11,0.00
37.2320,0.08,0.14,-0.99,4.03,2.62,-0.31
37.2470,0.08,0.14,-0.99,2.87,2.81,-0.55
37.2610,0.07,0.15,-0.99,3.48,2.38,-0.06
37.2770,0.07,0.15,-0.99,3.60,2.44,0.37
37.2850,0.07,0.14,-0.99,3.85,2.56,1.16
37.3020,0.08,0.14,-0.99,3.36,2.87,0.37
37.3180,0.08,0.14,-0.99,3.54,2.26,0.06
37.3350,0.08,0.14,-0.99,3.78,2.69,0.12
37.3490,0.08,0.14,-0.99,3.66,2.44,0.12
37.3640,0.07,0.14,-0.99,3.66,2.44,0.55
37.3790,0.08,0.14,-0.99,3.30,2.50,0.37
37.3940,0.08,0.14,-0.99,2.87,3.11,-0.43
37.4090,0.08,0.14,-0.99,3.05,2.99,-0.85
37.4230,0.08,0.14,-0.99,3.36,2.93,-0.49
37.4320,0.08,0.15,-0.99,3.78,2.69,0.12
37.4490,0.08,0.14,-0.99,3.30,2.38,0.37
37.4650,0.08,0.14,-0.99,3.11,2.69,-0.43
37.4810,0.08,0.14,-0.99,3.23,2.44,-0.79
37.4970,0.08,0.14,-1.00,3.30,2.81,-0.92
37.5120,0.08,0.15,-0.99,3.42,3.05,0.18
37.5260,0.08,0.14,-0.99,4.21,2.32,1.28
37.5300,0.08,0.14,-0.99,4.21,2.44,1.16
37.5560,0.08,0.14,-0.99,3.30,2.38,0.92
37.5630,0.08,0.14,-0.99,3.05,2.75,-0.12
37.5800,0.08,0.14,-0.99,2.75,2.93,-0.67
37.5960,0.07,0.14,-0.99,2.99,2.75,-0.61
37.6120,0.08,0.15,-0.99,3.30,2.38,0.00
37.6280,0.08,0.14,-0.99,3.97,2.62,0.92
37.6440,0.08,0.13,-0.98,4.21,2.69,1.10
37.6440,0.08,0.13,-0.99,3.85,2.20,-0.18
37.6740,0.08,0.14,-0.99,3.60,2.75,-0.37
37.6890,0.08,0.15,-0.99,3.66,2.38,0.06
37.6950,0.08,0.15,-0.99,2.62,2.38,0.43
37.7110,0.08,0.14,-0.99,2.69,2.69,0.85
37.7320,0.08,0.14,-0.99,2.69,2.26,0.73
37.7490,0.07,0.14,-0.99,3.23,2.44,0.67
37.7650,0.08,0.14,-0.99,3.85,2.44,1.16
37.7810,0.08,0.14,-0.99,3.54,2.20,0.79
37.7870,0.08,0.14,-0.99,3.17,2.44,0.61
37.7980,0.08,0.14,-0.99,3.11,1.77,0.31
37.8150,0.08,0.14,-0.99,2.93,2.32,0.06
37.8430,0.08,0.14,-0.99,3.97,2.14,0.92
37.8580,0.08,0.13,-0.99,4.09,2.32,1.22
37.8640,0.08,0.13,-0.99,3.30,2.50,0.06
37.8850,0.08,0.14,-0.99,2.81,2.69,-0.73
37.8990,0.07,0.14,-0.99,3.11,2.81,-0.73
37.9160,0.08,0.15,-0.99,3.42,2.14,0.37
37.9330,0.08,0.14,-0.99,3.60,1.95,1.83
37.9480,0.07,0.14,-0.99,3.42,2.20,1.65
37.9500,0.08,0.13,-0.99,3.36,2.32,1.46
37.9790,0.08,0.13,-1.00,2.99,2.32,1.10
37.9940,0.08,0.13,-0.99,3.23,2.50,0.79
38.0100,0.08,0.13,-0.99,3.30,2.62,-0.12
38.0250,0.08,0.14,-0.99,2.87,2.69,-0.67
38.0410,0.07,0.14,-1.00,3.48,2.32,-0.61
38.0570,0.08,0.14,-0.99,4.15,2.38,-0.49
38.0630,0.08,0.14,-0.99,4.21,2.38,0.00
38.0810,0.08,0.13,-0.99,4.03,2.32,0.61
38.1010,0.08,0.13,-0.99,3.48,2.56,-0.24
38.1180,0.08,0.15,-0.99,3.05,2.44,-0.43
38.1330,0.08,0.14,-0.99,3.11,2.32,0.31
38.1490,0.07,0.14,-0.99,3.54,2.08,0.67
38.1650,0.07,0.14,-0.99,3.72,2.44,1.10
38.1810,0.08,0.14,-0.99,4.21,1.83,1.34
38.1960,0.08,0.13,-0.99,3.85,2.14,0.73
38.2100,0.08,0.13,-0.99,2.75,2.44,-0.37
38.2150,0.08,0.14,-0.99,2.62,2.44,-0.55
38.2400,0.07,0.14,-0.99,3.05,2.56,-0.31
38.2480,0.07,0.14,-0.99,3.48,2.62,0.37
38.2650,0.08,0.13,-0.99,4.33,2.38,1.28
38.2810,0.08,0.13,-0.99,3.85,2.38,0.61
38.2960,0.08,0.13,-0.99,3.91,2.38,0.18
38.3140,0.08,0.14,-1.00,3.17,3.11,-0.49
38.3290,0.08,0.13,-0.99,3.78,2.44,-1.04
38.3300,0.07,0.14,-0.99,3.48,2.62,-0.79
38.3580,0.07,0.14,-0.99,3.66,2.81,-0.24
38.3730,0.07,0.14,-1.00,4.09,2.62,-0.24
38.3880,0.07,0.13,-0.99,3.91,3.11,-0.31
38.4020,0.09,0.13,-1.02,5.49,3.42,-1.10
38.4110,0.07,0.16,-1.00,2.20,3.78,-2.62
38.4280,0.08,0.15,-0.99,3.66,3.11,-2.14
38.4450,0.07,0.16,-0.98,2.99,2.26,-0.73
38.4610,0.07,0.14,-0.99,3.48,2.08,0.31
38.4760,0.08,0.12,-1.00,3.72,2.38,0.06
38.4780,0.08,0.13,-0.99,2.99,3.36,-1.22
38.5080,0.08,0.13,-0.99,2.75,3.23,-2.14
38.5230,0.08,0.14,-0.99,3.23,3.23,-2.14
38.5380,0.07,0.15,-0.99,3.30,2.32,-1.22
38.5530,0.08,0.14,-0.99,4.33,2.32,-0.37
38.5680,0.08,0.15,-0.99,3.54,2.32,0.06
38.5820,0.08,0.14,-1.00,4.15,2.01,0.98
38.5970,0.08,0.14,-0.99,3.91,2.38,0.85
38.6090,0.08,0.14,-0.99,3.78,2.50,0.61
38.6230,0.07,0.14,-0.99,3.36,2.50,-0.12
38.6400,0.07,0.15,-0.99,3.91,1.95,0.85
38.6550,0.08,0.13,-0.99,4.39,2.01,1.83
38.6710,0.08,0.13,-0.99,4.33,1.71,1.83
38.6780,0.08,0.14,-0.99,2.99,2.20,0.43
38.7010,0.08,0.14,-0.99,2.62,2.26,-0.06
38.7110,0.08,0.14,-0.99,2.20,2.69,-0.06
38.7260,0.08,0.13,-0.99,2.38,2.38,-0.37
38.7480,0.07,0.13,-0.99,1.89,1.89,-1.16
38.7630,0.07,0.13,-0.98,2.08,2.14,-1.10
38.7680,0.07,0.14,-0.99,2.14,2.44,-0.85
38.7930,0.07,0.14,-0.99,3.23,1.95,0.18
38.8090,0.08,0.14,-0.99,3.54,2.26,1.34
38.8240,0.08,0.14,-0.99,3.78,2.26,1.16
38.8390,0.08,0.13,-0.99,4.21,2.08,1.34
38.8540,0.08,0.14,-0.99,3.36,1.83,1.16
38.8670,0.08,0.13,-0.99,3.05,2.38,1.22
38.8800,0.08,0.13,-1.00,3.30,2.14,0.73
38.8960,0.08,0.13,-0.99,2.56,2.44,0.67
38.9120,0.08,0.13,-0.99,3.42,2.75,0.43
38.9270,0.08,0.13,-0.99,3.66,2.87,0.31
38.9430,0.07,0.13,-0.99,4.03,2.75,0.55
38.9520,0.08,0.13,-0.99,3.48,2.75,0.12
38.9680,0.08,0.14,-1.00,3.30,3.60,-0.85
38.9840,0.07,0.15,-0.99,2.75,2.75,-0.37
39.0000,0.07,0.15,-0.99,3.23,2.01,1.22
39.0170,0.07,0.13,-0.99,3.72,1.95,1.53
39.0330,0.08,0.13,-0.99,3.85,2.14,1.53
39.0490,0.08,0.13,-0.99,4.21,2.32,1.34
39.0650,0.08,0.13,-0.99,3.78,2.32,0.79
39.0810,0.08,0.12,-0.99,3.36,2.87,-0.24
39.0970,0.07,0.14,-0.99,3.36,3.11,-1.16
39.1130,0.07,0.15,-0.99,3.78,2.56,-0.06
39.1150,0.08,0.14,-0.99,4.21,2.38,1.10
39.1310,0.08,0.14,-0.99,3.48,2.50,0.73
39.1590,0.08,0.13,-0.99,3.60,2.44,0.12
39.1690,0.08,0.12,-1.00,3.97,2.32,-0.67
39.1850,0.08,0.13,-0.99,3.11,2.75,-1.83
39.2000,0.07,0.13,-0.99,3.72,2.99,-2.26
39.2190,0.08,0.14,-1.00,4.70,2.87,-2.44
39.2340,0.07,0.15,-0.98,2.32,3.17,-2.01
39.2510,0.07,0.15,-0.99,4.33,2.38,-0.61
39.2660,0.08,0.15,-0.99,3.54,2.32,0.61
39.2670,0.08,0.14,-0.99,3.78,1.83,1.28
39.2970,0.07,0.13,-0.99,3.97,2.32,1.71
39.3120,0.08,0.13,-0.99,3.91,2.38,1.22
39.3270,0.08,0.13,-0.99,3.66,2.62,0.67
39.3330,0.08,0.13,-0.99,3.60,2.56,0.55
39.3590,0.08,0.13,-0.99,3.97,2.56,1.10
39.3740,0.08,0.13,-0.99,3.78,2.56,0.37
39.3820,0.08,0.13,-0.99,3.42,2.99,0.00
39.3990,0.07,0.13,-0.99,2.87,2.93,-1.04
39.4150,0.07,0.13,-0.99,3.78,2.87,-1.16
39.4300,0.08,0.14,-1.00,3.48,3.11,-1.59
39.4460,0.08,0.14,-1.00,3.66,2.99,-0.85
39.4560,0.08,0.15,-0.99,3.66,2.87,0.12
39.4780,0.08,0.14,-0.99,4.03,2.50,1.34
39.4880,0.08,0.13,-0.99,3.97,2.26,1.53
39.5040,0.08,0.13,-1.00,4.39,2.44,1.34
39.5210,0.08,0.13,-0.99,4.33,2.32,0.67
39.5370,0.08,0.13,-0.99,3.54,2.56,0.18
39.5540,0.08,0.11,-0.98,3.23,2.69,-0.73
39.5690,0.07,0.14,-0.99,2.81,3.11,-1.89
39.5710,0.07,0.14,-0.99,3.91,2.56,-0.85
39.6010,0.08,0.14,-0.99,3.17,2.62,-0.67
39.6170,0.08,0.14,-0.99,3.91,2.62,0.12
39.6320,0.08,0.13,-1.00,4.09,2.62,1.16
39.6460,0.08,0.14,-0.99,3.48,2.20,1.04
39.6620,0.08,0.13,-0.99,3.54,2.14,1.04
39.6770,0.08,0.13,-0.99,3.54,2.26,0.49
39.6930,0.08,0.14,-0.99,3.42,2.38,-0.12
39.7080,0.07,0.14,-0.99,3.85,2.32,0.79
39.7170,0.08,0.13,-0.99,3.42,2.32,1.22
39.7330,0.08,0.13,-0.99,3.11,2.32,0.73
39.7550,0.08,0.14,-1.01,3.85,2.62,0.24
39.7700,0.07,0.13,-0.99,2.87,2.81,-0.61
39.7850,0.07,0.14,-0.99,3.60,2.32,-0.61
39.7890,0.08,0.14,-0.99,3.42,2.44,0.79
39.8040,0.08,0.14,-0.99,2.81,2.87,0.85
39.8290,0.07,0.13,-0.99,2.81,2.20,0.67
39.8440,0.08,0.13,-0.99,3.17,2.81,0.49
39.8610,0.08,0.14,-0.99,3.36,2.20,0.37
39.8770,0.08,0.14,-0.99,3.54,2.20,0.37
39.8920,0.08,0.14,-0.99,3.54,2.75,0.49
39.8940,0.08,0.13,-0.99,3.91,2.81,0.98
39.9090,0.08,0.14,-0.99,3.97,2.93,0.55
39.9370,0.07,0.14,-0.99,3.66,2.75,0.37
39.9480,0.08,0.13,-0.99,3.78,2.38,0.24
39.9630,0.08,0.13,-0.99,3.66,2.87,-0.06
39.9800,0.08,0.13,-1.00,3.48,2.69,-0.73
39.9950,0.08,0.13,-0.99,3.36,3.23,-1.65
40.0110,0.09,0.13,-0.98,3.78,2.56,-0.79
40.0260,0.08,0.15,-0.99,3.11,2.50,-0.67
40.0400,0.07,0.14,-0.99,3.78,2.26,-0.06
40.0460,0.08,0.14,-0.99,4.27,2.62,0.18
40.0700,0.08,0.14,-0.99,3.97,2.50,0.12
40.0840,0.08,0.14,-0.99,3.66,2.50,0.49
40.0950,0.08,0.14,-0.99,4.03,2.75,0.55
40.1100,0.07,0.12,-0.98,4.03,2.26,0.55
40.1270,0.09,0.12,-1.00,5.74,2.69,-1.53
40.1430,0.07,0.16,-0.98,3.72,2.87,-2.08
40.1600,0.08,0.14,-0.99,4.52,2.75,-0.61
40.1750,0.07,0.14,-0.99,2.87,2.99,-0.92
40.1770,0.08,0.14,-0.99,3.23,2.93,-0.24
40.2040,0.08,0.13,-0.99,3.60,2.50,0.31
40.2090,0.07,0.14,-0.99,3.78,2.50,0.73
40.2340,0.08,0.14,-0.99,4.09,2.32,1.10
40.2480,0.08,0.14,-0.99,3.91,2.69,0.79
40.2640,0.08,0.13,-0.99,3.48,2.50,0.43
40.2740,0.06,0.13,-1.00,3.36,2.75,0.00
40.2910,0.07,0.12,-0.99,3.17,3.05,-0.92
40.3070,0.09,0.14,-0.98,3.60,2.75,-2.38
40.3230,0.09,0.13,-0.99,4.33,2.44,-2.44
40.3380,0.11,0.13,-0.99,4.21,3.42,-2.87
40.3530,0.07,0.15,-1.00,3.72,3.23,-2.81
40.3670,0.06,0.15,-1.01,3.97,3.30,-1.89
40.3820,0.03,0.15,-0.98,0.92,2.99,-2.87
40.3960,0.05,0.14,-0.97,2.62,2.08,0.49
40.4110,0.09,0.15,-0.98,4.03,1.28,0.55
40.4210,0.11,0.15,-1.00,6.10,1.77,0.37
40.4380,0.09,0.14,-0.99,3.05,2.32,0.49
40.4540,0.07,0.13,-1.00,3.36,3.23,1.28
40.4700,0.06,0.12,-0.99,3.60,3.17,0.85
40.4840,0.06,0.16,-0.98,3.36,1.95,0.37
40.4870,0.08,0.13,-0.99,4.94,1.46,1.46
40.5140,0.10,0.14,-0.99,3.23,2.75,0.85
40.5290,0.09,0.14,-0.99,3.91,2.50,0.92
40.5440,0.07,0.14,-1.00,3.97,2.69,0.85
40.5580,0.07,0.12,-1.00,2.01,3.36,0.06
40.5680,0.06,0.14,-0.99,2.75,2.32,0.12
40.5840,0.08,0.14,-0.99,5.49,1.95,1.40
40.6010,0.09,0.14,-0.99,4.94,1.77,0.43
40.6170,0.08,0.15,-0.99,3.36,2.56,0.31
40.6320,0.07,0.14,-0.99,3.36,2.50,0.85
40.6470,0.07,0.13,-0.99,3.60,2.99,1.59
40.6620,0.07,0.13,-0.99,2.99,2.26,1.28
40.6670,0.08,0.13,-0.99,3.42,2.14,1.22
40.6910,0.09,0.14,-0.99,3.97,2.14,0.85
40.7050,0.08,0.14,-0.99,3.48,2.38,0.37
40.7150,0.07,0.13,-1.00,3.05,2.81,0.37
40.7320,0.07,0.13,-1.00,2.81,2.87,0.12
40.7480,0.08,0.13,-1.00,3.91,2.50,-0.06
40.7640,0.07,0.14,-0.98,2.20,2.56,-1.95
40.7790,0.08,0.16,-0.99,4.03,2.69,-0.55
40.7940,0.08,0.15,-0.99,3.30,2.26,0.73
40.8090,0.07,0.14,-0.99,2.75,2.56,0.92
40.8230,0.07,0.13,-0.99,3.36,2.87,1.53
40.8300,0.07,0.13,-0.99,3.78,2.44,1.65
40.8520,0.08,0.14,-0.99,3.66,2.26,1.22
40.8630,0.08,0.14,-0.99,3.91,2.20,0.92
40.8780,0.08,0.13,-0.99,3.91,2.26,0.79
40.8950,0.08,0.13,-0.99,2.99,3.11,-0.31
40.9120,0.07,0.14,-0.99,2.44,3.11,-1.77
40.9120,0.07,0.14,-0.99,3.42,2.32,-1.22
40.9400,0.07,0.15,-0.99,3.48,1.83,-0.37
40.9550,0.08,0.14,-0.99,3.66,1.95,0.18
40.9700,0.09,0.15,-1.01,4.39,2.32,0.85
40.9850,0.07,0.14,-0.99,2.26,2.99,-0.49
40.9940,0.07,0.14,-0.99,3.30,2.62,-0.61
41.0170,0.07,0.15,-0.99,3.54,2.32,0.31
41.0310,0.07,0.15,-0.99,4.21,2.26,0.85
41.0420,0.08,0.14,-0.99,4.46,1.95,1.89
41.0600,0.08,0.14,-0.99,3.72,2.26,1.65
41.0750,0.08,0.14,-0.99,3.42,2.08,0.79
41.0750,0.08,0.13,-0.99,3.54,2.56,0.61
41.1050,0.08,0.13,-0.99,3.42,2.56,0.24
41.1190,0.07,0.13,-0.99,3.30,2.62,-0.37
41.1340,0.07,0.14,-0.99,3.42,2.38,-0.55
41.1500,0.08,0.13,-0.99,3.42,2.38,-0.61
41.1650,0.08,0.12,-1.01,3.60,2.50,-1.71
41.1800,0.08,0.14,-1.00,2.87,3.11,-2.81
41.1900,0.07,0.15,-0.99,3.66,2.87,-1.59
41.2080,0.07,0.16,-0.99,3.66,2.26,-0.43
41.2230,0.08,0.14,-0.99,3.91,2.14,1.40
41.2380,0.08,0.14,-1.00,4.03,2.14,1.46
41.2550,0.08,0.13,-0.99,3.48,1.77,1.16
41.2700,0.08,0.14,-0.99,3.48,2.38,1.10
41.2860,0.08,0.14,-0.99,2.99,2.26,0.98
41.3030,0.08,0.13,-0.99,3.42,2.26,1.04
41.3190,0.08,0.13,-0.99,3.66,2.26,0.67
41.3340,0.08,0.14,-0.99,3.17,2.75,0.00
41.3480,0.07,0.14,-0.99,3.30,2.56,-0.67
41.3530,0.07,0.14,-0.99,3.54,2.56,-0.18
41.3690,0.09,0.12,-0.98,4.39,2.20,0.18
41.3900,0.07,0.13,-0.98,1.46,2.75,-0.37
41.4060,0.07,0.14,-1.00,4.09,2.69,0.43
41.4220,0.08,0.14,-0.99,3.05,2.38,0.49
41.4390,0.07,0.14,-0.99,3.36,2.08,0.61
41.4550,0.08,0.13,-0.99,3.36,2.01,0.73
41.4560,0.08,0.13,-0.99,3.48,2.01,0.31
41.4720,0.08,0.14,-0.99,2.99,2.32,0.18
41.5010,0.07,0.14,-0.99,3.66,2.26,0.12
41.5160,0.07,0.13,-0.99,3.60,2.50,-0.06
41.5310,0.07,0.14,-0.99,3.30,2.75,-0.49
41.5460,0.08,0.14,-0.99,3.30,2.69,-0.24
41.5620,0.08,0.14,-1.00,3.78,2.56,0.12
41.5760,0.07,0.14,-0.99,3.17,2.14,0.31
41.5860,0.07,0.14,-0.99,3.97,2.44,0.85
41.6020,0.08,0.14,-1.01,4.46,2.62,0.49
41.6190,0.07,0.14,-0.99,3.17,2.44,0.06
41.6340,0.07,0.14,-0.99,3.72,2.26,0.12
41.6510,0.07,0.14,-0.99,3.11,2.26,0.18
41.6670,0.07,0.14,-0.99,3.11,2.44,0.67
41.6680,0.07,0.13,-0.99,3.48,1.95,1.10
41.6840,0.07,0.13,-0.99,3.42,2.38,0.49
41.7110,0.08,0.13,-0.99,3.48,2.62,-0.06
41.7170,0.08,0.13,-0.99,3.54,2.81,-0.43
41.7410,0.08,0.14,-0.99,3.60,2.69,0.06
41.7550,0.08,0.14,-0.99,3.91,2.44,1.10
41.7660,0.08,0.13,-0.99,3.78,2.50,1.28
41.7820,0.08,0.13,-0.99,3.17,2.38,0.37
41.7990,0.08,0.13,-0.99,2.99,2.50,-0.55
41.8160,0.07,0.13,-0.99,3.05,2.75,-1.16
41.8320,0.07,0.14,-0.99,3.48,2.87,-1.34
41.8470,0.09,0.15,-1.02,5.31,2.69,0.24
41.8620,0.06,0.15,-0.98,1.95,2.99,-0.18
41.8780,0.07,0.14,-1.00,4.27,1.89,0.98
41.8940,0.07,0.14,-0.99,2.87,2.32,0.92
41.9090,0.07,0.13,-0.99,3.66,2.32,1.10
41.9140,0.08,0.14,-1.00,4.21,1.71,1.28
41.9290,0.07,0.13,-0.99,3.48,2.20,0.55
41.9450,0.08,0.14,-1.00,3.48,2.20,0.61
41.9730,0.08,0.13,-0.99,3.66,2.81,0.79
41.9830,0.07,0.13,-0.99,3.66,2.87,0.61
41.9990,0.07,0.13,-1.00,4.03,2.75,-0.06
42.0160,0.07,0.15,-0.99,3.36,2.75,-0.73
42.0310,0.08,0.14,-0.99,3.72,1.77,0.61
42.0470,0.08,0.14,-0.99,4.03,1.71,1.40
42.0630,0.08,0.14,-0.99,3.97,1.77,1.46
42.0660,0.07,0.13,-0.99,4.03,2.08,1.65
42.0810,0.07,0.14,-1.00,3.85,2.01,1.28
42.1070,0.07,0.13,-0.99,3.85,1.83,0.73
42.1220,0.07,0.13,-0.99,3.42,2.14,0.12
42.1380,0.08,0.14,-0.99,3.72,2.08,0.37
42.1540,0.07,0.14,-0.99,3.66,1.83,0.67
42.1580,0.07,0.13,-0.99,3.85,2.32,1.16
42.1840,0.07,0.13,-0.99,3.54,2.26,0.31
42.1910,0.07,0.12,-1.00,3.54,2.26,-0.85
42.2070,0.08,0.14,-0.99,3.30,2.44,-1.22
42.2290,0.08,0.15,-0.99,4.03,2.08,0.00
42.2430,0.08,0.14,-0.99,3.97,2.32,0.55
42.2590,0.07,0.15,-0.99,3.17,2.26,1.53
42.2640,0.07,0.13,-0.99,3.30,2.50,2.08
42.2790,0.07,0.14,-0.99,3.23,2.32,2.20
42.3040,0.07,0.13,-0.99,3.42,1.89,1.95
42.3160,0.08,0.14,-0.99,3.42,2.08,1.53
42.3320,0.08,0.14,-0.99,3.36,2.81,1.53
42.3480,0.07,0.14,-0.99,3.97,2.50,1.34
42.3650,0.07,0.13,-0.99,3.78,2.69,1.16
42.3810,0.07,0.14,-0.99,3.42,2.44,0.61
42.3960,0.08,0.14,-0.99,3.66,2.44,0.31
42.4120,0.08,0.15,-0.99,3.54,2.08,0.61
42.4270,0.08,0.14,-0.99,3.11,2.20,1.10
42.4420,0.07,0.14,-0.99,3.42,2.14,1.34
42.4460,0.07,0.14,-0.99,4.03,2.38,1.89
42.4620,0.07,0.14,-0.99,4.09,2.26,1.95
42.4830,0.08,0.14,-0.99,3.60,1.65,1.53
42.5000,0.08,0.14,-0.99,3.60,2.08,1.22
42.5160,0.08,0.14,-0.99,3.60,1.89,1.40
42.5320,0.07,0.14,-0.99,3.11,2.32,1.65
42.5480,0.07,0.13,-0.99,3.42,1.95,1.77
42.5640,0.07,0.14,-0.99,3.36,1.89,1.53
42.5660,0.08,0.13,-0.99,3.54,2.01,1.22
42.5820,0.08,0.13,-1.00,3.54,2.50,0.43
42.6110,0.07,0.14,-0.99,3.11,3.05,-1.53
42.6150,0.07,0.15,-0.99,3.91,2.62,-0.06
42.6310,0.07,0.14,-0.99,3.91,2.56,0.73
42.6470,0.07,0.14,-0.99,3.48,2.01,0.79
42.6640,0.08,0.14,-0.99,3.17,2.26,0.85
42.6790,0.07,0.13,-0.99,3.54,2.44,0.37
42.6960,0.07,0.13,-0.99,3.36,2.56,-0.31
42.7150,0.07,0.13,-0.99,3.11,2.08,-0.79
42.7300,0.07,0.14,-0.99,3.85,2.38,0.18
42.7460,0.08,0.14,-0.99,3.42,2.38,0.55
42.7480,0.08,0.14,-0.99,3.42,2.01,0.85
42.7770,0.08,0.14,-0.99,3.36,2.38,0.61
42.7920,0.07,0.13,-0.99,3.42,2.56,0.37
42.8070,0.07,0.13,-0.99,4.64,2.14,0.18
42.8240,0.08,0.13,-1.00,4.64,2.38,-0.92
42.8290,0.07,0.16,-0.98,2.81,2.87,0.00
42.8550,0.07,0.15,-0.99,3.72,2.08,1.04
42.8710,0.07,0.14,-0.99,3.05,1.77,1.59
42.8790,0.07,0.14,-0.99,3.54,2.08,1.83
42.8940,0.07,0.13,-0.99,3.66,2.32,1.65
42.9100,0.07,0.14,-0.99,3.72,1.40,1.65
42.9290,0.08,0.13,-0.99,3.54,1.34,1.71
42.9450,0.08,0.14,-0.99,4.03,1.59,1.77
42.9630,0.07,0.14,-0.99,3.78,1.71,1.89
42.9780,0.07,0.14,-0.99,3.66,1.77,1.77
42.9940,0.07,0.14,-0.99,3.48,1.65,1.65
43.0100,0.07,0.14,-0.99,4.15,1.10,1.65
43.0110,0.08,0.14,-1.00,4.27,0.31,1.71
43.0410,0.07,0.15,-1.02,5.07,0.43,1.59
43.0570,0.08,0.14,-0.99,3.36,1.46,1.59
43.0730,0.08,0.14,-0.99,3.48,1.71,1.53
43.0750,0.07,0.14,-0.99,3.60,2.14,1.59
43.0910,0.08,0.14,-1.00,3.72,2.32,1.77
43.1140,0.08,0.14,-1.00,2.87,3.17,1.83
43.1300,0.11,0.15,-1.02,3.36,4.76,2.44
43.1460,0.07,0.15,-0.99,4.03,4.70,3.11
43.1620,0.06,0.14,-0.98,2.69,4.21,3.11
43.1630,0.07,0.13,-0.98,2.01,3.66,1.77
43.1930,0.07,0.12,-0.96,2.75,1.40,1.59
43.1950,0.07,0.15,-1.00,3.36,1.28,1.16
43.2110,0.07,0.13,-0.98,2.87,1.34,0.85
43.2330,0.07,0.13,-1.00,2.44,1.65,1.40
43.2500,0.07,0.13,-0.99,3.54,1.89,1.77
43.2670,0.07,0.14,-0.99,3.72,1.95,1.77
43.2830,0.08,0.14,-1.00,3.11,1.89,1.83
43.2860,0.07,0.14,-0.99,3.11,1.89,1.83
43.3140,0.07,0.13,-0.99,3.42,2.20,2.20
43.3290,0.07,0.13,-0.99,3.17,2.32,2.08
43.3440,0.07,0.14,-0.99,3.85,1.95,1.83
43.3600,0.07,0.14,-0.99,3.60,1.83,1.89
43.3650,0.07,0.13,-1.00,3.17,1.89,1.89
43.3900,0.07,0.14,-0.99,3.54,2.14,1.95
43.3980,0.07,0.14,-0.99,3.54,2.14,1.83
43.4130,0.07,0.14,-0.99,3.30,1.95,1.77
43.4310,0.07,0.14,-0.99,3.11,1.89,1.77
43.4460,0.07,0.13,-0.99,2.87,2.08,1.65
43.4640,0.07,0.13,-0.99,3.05,1.95,1.71
43.4790,0.07,0.13,-0.99,3.66,1.83,1.71
43.4830,0.08,0.13,-0.99,3.23,2.62,1.59
43.4950,0.08,0.14,-0.99,2.93,2.26,1.46
43.5230,0.07,0.13,-0.99,3.36,2.08,1.22
43.5370,0.07,0.14,-0.99,2.81,2.14,0.73
43.5520,0.07,0.13,-0.99,3.17,1.53,1.53
43.5670,0.07,0.14,-0.99,3.23,2.32,1.46
43.5810,0.07,0.13,-0.99,3.11,2.26,1.59
43.5930,0.07,0.13,-0.99,3.36,1.89,1.89
43.6110,0.07,0.13,-0.99,3.60,1.89,1.71
43.6260,0.07,0.13,-0.99,3.42,2.26,1.89
43.6400,0.07,0.13,-0.99,3.11,2.01,1.77
43.6430,0.07,0.13,-0.99,3.11,2.14,1.89
43.6720,0.07,0.13,-1.00,3.85,2.14,1.71
43.6870,0.08,0.14,-0.99,3.42,2.20,1.65
43.6920,0.07,0.13,-0.99,3.91,1.77,1.53
43.7080,0.07,0.14,-1.00,3.23,1.83,1.53
43.7230,0.07,0.14,-1.00,3.05,1.89,1.34
43.7440,0.07,0.14,-0.99,2.50,2.14,1.53
43.7610,0.08,0.14,-1.00,2.87,1.95,1.83
43.7760,0.07,0.14,-1.00,3.17,1.95,1.89
43.7930,0.07,0.14,-0.99,3.23,2.14,2.08
43.8090,0.06,0.13,-0.99,3.78,2.26,2.44
43.8250,0.08,0.12,-1.00,3.85,1.83,3.30
43.8270,0.09,0.13,-0.99,3.30,1.59,3.48
43.8420,0.08,0.16,-0.99,5.19,2.32,3.11
43.8570,0.07,0.15,-0.99,4.82,2.26,3.42
43.8800,0.07,0.13,-0.99,3.97,1.65,3.78
43.8970,0.07,0.11,-1.00,3.11,1.89,2.87
43.9130,0.08,0.14,-0.99,4.33,1.65,2.08
43.9300,0.08,0.14,-0.99,5.68,1.89,2.14
43.9450,0.07,0.13,-1.00,4.94,2.26,2.14
43.9480,0.07,0.13,-0.99,2.87,2.38,1.65
43.9740,0.08,0.15,-0.99,4.21,2.20,1.95
43.9910,0.08,0.13,-0.99,5.13,1.77,2.44
44.0050,0.07,0.13,-0.99,2.69,2.08,2.14
44.0160,0.07,0.14,-0.99,2.81,1.65,1.89
44.0320,0.08,0.15,-0.99,3.97,1.65,1.83
44.0490,0.07,0.14,-0.99,3.30,1.71,2.01
44.0650,0.07,0.13,-0.99,2.26,1.65,1.59
44.0820,0.08,0.14,-0.99,2.08,1.77,1.71
44.0970,0.08,0.14,-1.00,3.85,1.71,1.95
44.1140,0.07,0.12,-1.00,1.40,1.40,1.10
44.1300,0.07,0.13,-0.98,1.46,2.20,0.67
44.1450,0.05,0.12,-0.92,4.03,1.22,1.71
44.1600,0.08,0.19,-1.07,11.47,0.61,2.75
44.1750,0.06,0.10,-0.93,-0.85,2.20,3.85
44.1900,0.07,0.15,-0.99,2.75,2.50,2.62
44.2060,0.07,0.15,-1.00,2.14,1.83,2.20
44.2220,0.07,0.13,-0.99,2.69,2.14,1.95
44.2370,0.07,0.13,-0.99,1.46,1.83,1.53
44.2520,0.07,0.14,-0.99,2.44,1.95,1.77
44.2610,0.07,0.14,-0.99,2.56,2.14,1.77
44.2770,0.07,0.13,-1.00,2.81,2.81,2.14
44.2940,0.08,0.12,-1.00,2.44,2.38,2.01
44.3100,0.08,0.14,-0.99,2.62,1.16,4.09
44.3270,0.07,0.13,-0.99,2.62,2.01,3.60
44.3430,0.07,0.13,-0.99,1.46,1.65,3.17
44.3590,0.07,0.13,-0.99,1.46,1.53,3.72
44.3670,0.07,0.13,-0.99,1.89,1.53,3.54
44.3910,0.08,0.12,-0.99,2.50,1.34,3.36
44.4060,0.08,0.12,-1.00,3.85,1.71,3.60
44.4210,0.08,0.14,-0.99,4.33,2.44,4.27
44.4360,0.07,0.13,-0.99,3.17,2.26,4.09
44.4510,0.06,0.13,-0.99,5.37,3.60,4.09
44.4670,0.07,0.11,-0.96,1.59,1.89,3.66
44.4810,0.08,0.13,-1.00,2.32,2.01,4.39
44.4910,0.07,0.13,-0.99,3.30,1.65,3.85
44.5070,0.07,0.13,-0.99,4.39,2.14,3.05
44.5230,0.07,0.14,-1.00,4.39,1.83,3.72
44.5390,0.07,0.15,-0.99,3.66,2.44,3.30
44.5550,0.07,0.14,-0.99,3.23,2.56,2.26
44.5710,0.07,0.13,-0.99,3.23,2.20,2.14
44.5860,0.08,0.14,-1.00,3.78,1.65,3.30
44.6020,0.07,0.13,-0.99,3.30,1.89,2.32
44.6170,0.07,0.13,-0.99,3.11,2.14,2.32
44.6310,0.07,0.14,-0.99,3.60,1.65,3.23
44.6460,0.07,0.14,-0.99,3.72,1.46,4.46
44.6540,0.08,0.12,-0.99,3.54,1.77,4.58
44.6700,0.07,0.13,-0.99,3.91,1.95,2.38
44.6870,0.07,0.14,-0.99,4.15,2.08,1.95
44.7030,0.07,0.13,-0.99,4.76,2.38,2.69
44.7190,0.07,0.15,-1.00,4.94,1.71,4.76
44.7350,0.07,0.13,-0.99,3.54,1.10,6.71
44.7510,0.06,0.15,-0.97,3.48,0.98,6.47
44.7600,0.06,0.13,-0.99,2.99,-0.92,16.48
44.7830,0.10,0.11,-0.99,2.56,0.06,12.82
44.7980,0.08,0.13,-0.99,3.48,1.22,5.80
44.8130,0.06,0.15,-0.99,4.09,1.95,4.94
44.8180,0.07,0.14,-0.99,3.23,1.40,6.77
44.8340,0.07,0.13,-0.99,3.23,1.28,7.26
44.8580,0.09,0.18,-1.03,2.69,0.98,6.23
44.8720,0.06,0.07,-0.99,-2.75,1.22,1.10
44.8890,0.08,0.16,-1.02,6.23,0.73,1.83
44.9040,0.07,0.14,-1.00,2.32,2.14,1.83
44.9210,0.07,0.12,-0.98,1.34,2.32,1.65
44.9220,0.07,0.13,-0.99,3.72,1.65,1.83
44.9530,0.07,0.13,-0.99,3.36,1.77,1.83
44.9680,0.08,0.14,-0.99,3.97,1.83,2.01
44.9840,0.07,0.13,-0.99,3.05,2.08,1.83
44.9990,0.07,0.13,-0.99,2.87,2.14,2.01
45.0020,0.08,0.13,-0.99,2.50,1.46,1.71
45.0180,0.08,0.14,-0.99,4.70,1.89,1.89
45.0400,0.07,0.13,-0.99,4.09,2.38,1.95
45.0550,0.07,0.14,-1.00,4.46,2.14,1.89
45.0700,0.07,0.13,-0.99,4.09,1.89,1.77
45.0890,0.07,0.14,-0.99,3.78,1.83,1.83
45.0930,0.07,0.13,-0.99,3.42,2.01,1.89
45.1190,0.08,0.13,-0.99,3.85,1.71,1.83
45.1340,0.08,0.13,-0.99,3.78,1.65,1.89
45.1490,0.07,0.14,-0.99,3.85,1.53,1.71
45.1640,0.07,0.14,-0.99,3.60,2.20,1.95
45.1750,0.07,0.14,-0.99,2.81,1.77,1.77
45.1910,0.07,0.13,-0.99,2.99,1.83,1.65
45.2070,0.08,0.14,-0.99,2.99,1.95,1.65
45.2230,0.08,0.13,-0.99,2.75,2.08,1.83
45.2400,0.08,0.13,-0.99,2.38,2.44,1.71
45.2560,0.07,0.17,-0.99,5.31,2.62,2.08
45.2710,0.07,0.12,-0.97,2.08,2.14,1.83
45.2860,0.08,0.13,-0.99,4.33,1.89,1.89
45.3010,0.08,0.14,-1.00,4.33,1.83,1.89
45.3160,0.08,0.13,-0.99,3.17,2.14,1.77
45.3210,0.07,0.13,-0.99,3.54,1.95,1.77
45.3370,0.07,0.13,-0.99,3.36,1.89,1.77
45.3580,0.07,0.13,-0.99,3.60,2.32,1.83
45.3750,0.07,0.14,-0.99,3.66,2.01,2.01
45.3910,0.07,0.13,-0.99,3.48,1.77,1.89
45.4070,0.07,0.14,-0.99,4.15,1.77,2.14
45.4230,0.07,0.13,-0.99,3.36,1.77,1.71
45.4380,0.08,0.14,-0.99,3.48,1.77,1.59
45.4530,0.08,0.13,-0.99,2.62,2.38,1.77
45.4680,0.07,0.13,-0.99,2.87,2.20,1.77
45.4830,0.07,0.13,-0.99,3.30,2.01,1.83
45.4880,0.06,0.14,-1.00,4.09,1.34,3.54
45.5030,0.08,0.12,-0.99,4.09,1.04,4.27
45.5270,0.08,0.13,-0.99,5.07,1.65,2.44
45.5430,0.08,0.15,-1.00,4.39,2.32,2.01
45.5590,0.08,0.13,-0.99,1.77,1.65,1.46
45.5740,0.07,0.12,-0.99,2.20,2.08,1.65
45.5900,0.08,0.13,-1.00,4.09,1.65,1.83
45.5920,0.08,0.13,-0.99,4.39,1.89,1.89
45.6080,0.07,0.14,-1.00,4.64,2.26,1.95
45.6320,0.07,0.14,-0.99,3.85,1.95,1.95
45.6480,0.08,0.14,-0.99,3.60,1.83,1.95
45.6640,0.08,0.14,-0.99,3.30,1.83,1.95
45.6800,0.08,0.14,-0.99,3.23,1.40,1.77
45.6950,0.07,0.13,-0.99,3.48,1.46,1.83
45.7100,0.07,0.14,-0.99,3.05,1.89,1.89
45.7240,0.08,0.13,-0.98,1.53,2.08,1.89
45.7390,0.10,0.11,-0.98,3.48,2.08,1.65
45.7550,0.07,0.13,-0.98,2.62,2.56,1.83
45.7700,0.07,0.15,-1.00,6.53,2.08,2.01
45.7850,0.07,0.14,-0.99,6.71,1.59,1.89
45.7950,0.05,0.13,-0.99,3.11,2.44,-0.92
45.8110,0.07,0.14,-1.00,2.93,2.20,-0.12
45.8280,0.10,0.15,-0.99,1.65,1.89,1.95
45.8440,0.09,0.13,-0.99,0.92,1.83,1.71
45.8450,0.08,0.13,-0.99,1.10,2.62,1.59
45.8750,0.07,0.13,-0.99,2.20,3.42,1.83
45.8900,0.08,0.13,-0.99,2.56,3.60,2.01
45.9060,0.07,0.13,-0.99,3.05,2.93,2.20
45.9220,0.09,0.13,-0.99,2.75,2.14,2.99
45.9370,0.06,0.13,-0.99,2.81,1.89,4.09
45.9530,0.07,0.13,-0.99,2.75,1.89,2.44
45.9680,0.07,0.13,-0.99,2.69,2.08,1.89
45.9830,0.07,0.13,-0.99,2.99,2.20,1.89
45.9990,0.08,0.12,-1.00,3.48,2.32,2.69
46.0120,0.08,0.13,-0.99,4.46,1.89,1.89
46.0230,0.08,0.13,-0.99,4.88,2.08,2.01
46.0400,0.08,0.14,-0.99,4.46,2.01,1.77
46.0570,0.07,0.14,-1.00,2.99,2.44,1.77
46.0730,0.07,0.13,-0.99,2.69,2.38,1.77
46.0740,0.07,0.13,-0.99,2.62,2.69,1.71
46.1040,0.08,0.13,-0.99,2.87,2.44,1.83
46.1190,0.08,0.13,-1.00,3.48,2.44,1.83
46.1220,0.07,0.13,-1.00,3.60,2.38,1.89
46.1370,0.07,0.13,-0.99,3.85,2.69,1.95
46.1640,0.07,0.13,-0.99,3.60,2.56,1.83
46.1750,0.10,0.10,-1.00,2.93,3.23,0.79
46.1910,0.07,0.13,-0.99,2.56,3.66,-4.15
46.2080,0.07,0.14,-0.99,3.54,2.62,-1.77
46.2240,0.07,0.13,-1.00,3.11,2.81,-0.37
46.2400,0.07,0.13,-0.99,2.32,2.87,-0.49
46.2560,0.07,0.15,-0.99,2.26,2.99,0.37
46.2710,0.07,0.13,-1.00,1.71,2.44,1.34
46.2860,0.08,0.13,-1.00,1.04,2.14,1.65
46.2900,0.07,0.12,-0.99,1.28,2.01,1.53
46.3050,0.07,0.12,-0.99,2.69,2.20,1.65
46.3280,0.07,0.12,-0.99,3.78,1.89,1.77
46.3440,0.07,0.13,-1.00,4.76,1.77,1.77
46.3600,0.07,0.12,-1.00,2.93,2.14,1.10
46.3760,0.07,0.13,-0.99,1.95,2.62,-0.61
46.3920,0.08,0.14,-0.99,1.65,2.26,-0.31
46.3940,0.07,0.13,-0.99,1.40,2.01,1.83
46.4090,0.07,0.12,-0.99,1.22,2.56,1.71
46.4300,0.07,0.12,-0.99,1.53,2.50,1.83
46.4420,0.07,0.13,-0.99,2.99,2.20,2.32
46.4580,0.07,0.12,-0.99,2.93,2.01,1.83
46.4780,0.07,0.13,-0.99,3.05,2.08,1.40
46.4940,0.07,0.13,-1.00,2.87,2.75,0.92
46.5110,0.05,0.12,-1.00,2.99,3.11,-0.18
46.5270,0.07,0.12,-0.99,3.11,3.05,0.67
46.5280,0.07,0.13,-1.00,3.66,2.56,1.04
46.5570,0.08,0.13,-1.00,2.56,2.56,1.10
46.5730,0.07,0.13,-1.00,1.89,2.69,1.83
46.5870,0.07,0.12,-0.99,2.44,2.75,2.32
46.5930,0.07,0.12,-0.99,2.99,2.44,2.44
46.6100,0.07,0.12,-1.00,3.36,1.89,2.32
46.6260,0.08,0.12,-0.99,2.99,2.38,2.20
46.6460,0.07,0.12,-0.99,3.66,2.26,2.14
46.6620,0.07,0.13,-1.00,3.85,1.71,1.77
46.6770,0.06,0.13,-1.00,3.72,1.89,1.59
46.6920,0.08,0.12,-0.99,3.36,2.32,1.53
46.7080,0.07,0.13,-1.00,4.33,1.59,1.53
46.7230,0.07,0.13,-1.00,3.66,2.32,1.10
