Timestamp, AccX, AccY, AccZ, GyroX, GyroY, GyroZ
0.0110,0.08,0.12,-1.00,2.99,4.03,1.95
0.0270,0.08,0.12,-1.00,2.93,4.09,1.95
0.0410,0.08,0.11,-0.99,2.75,3.91,2.08
0.0570,0.08,0.11,-1.00,3.36,3.91,2.08
0.0720,0.08,0.11,-1.00,2.99,3.91,2.14
0.0830,0.08,0.11,-0.99,2.93,4.03,1.89
0.1000,0.08,0.11,-1.00,3.23,3.85,1.89
0.1170,0.08,0.12,-0.99,2.99,3.85,2.14
0.1310,0.08,0.12,-1.00,3.11,4.03,2.01
0.1480,0.08,0.12,-0.99,3.05,3.78,2.14
0.1620,0.08,0.12,-0.99,3.05,3.97,2.08
0.1770,0.08,0.12,-0.99,2.93,3.91,1.95
0.1920,0.10,0.15,-0.99,2.93,3.97,1.95
0.2080,0.08,0.14,-0.99,2.99,3.85,3.42
0.2220,0.10,0.16,-0.99,2.75,3.36,5.92
0.2330,0.09,0.13,-0.98,2.56,2.99,9.09
0.2500,0.08,0.16,-0.98,2.38,2.50,10.25
0.2660,0.09,0.14,-0.99,2.01,1.95,15.87
0.2830,0.09,0.11,-0.99,1.95,1.83,15.63
0.2970,0.09,0.12,-1.00,1.89,2.26,14.95
0.3120,0.10,0.11,-1.00,2.14,1.95,13.31
0.3270,0.08,0.09,-1.00,2.56,2.14,12.21
0.3420,0.08,0.11,-1.00,2.26,2.14,12.08
0.3570,0.09,0.11,-0.99,2.32,2.50,10.99
0.3730,0.08,0.11,-1.00,2.32,1.95,12.33
0.3830,0.08,0.10,-1.00,2.20,2.44,12.45
0.4000,0.08,0.10,-1.00,2.14,2.81,10.62
0.4170,0.09,0.10,-1.00,2.32,2.87,9.03
0.4320,0.07,0.08,-1.00,2.32,3.42,5.74
0.4480,0.07,0.09,-1.00,3.23,3.66,3.36
0.4620,0.07,0.10,-1.00,3.23,3.66,2.56
0.4770,0.06,0.12,-1.00,3.05,3.42,3.05
0.4930,0.05,0.09,-1.00,2.93,3.42,4.15
0.5000,0.05,0.08,-1.00,2.87,3.54,3.60
0.5160,0.06,0.09,-1.00,2.93,3.66,2.38
0.5320,0.07,0.11,-1.00,3.05,4.03,2.14
0.5530,0.08,0.12,-0.99,3.17,3.66,2.14
0.5680,0.08,0.12,-1.00,3.05,4.03,2.20
0.5820,0.08,0.12,-0.99,2.99,3.60,2.20
0.5980,0.08,0.12,-0.99,3.05,3.78,2.20
0.6140,0.08,0.12,-0.99,3.05,4.03,2.20
0.6300,0.08,0.11,-0.99,2.69,4.03,1.95
0.6440,0.08,0.11,-0.99,2.93,4.15,2.20
0.6530,0.08,0.11,-0.99,2.93,4.21,2.26
0.6700,0.08,0.10,-1.00,2.93,3.97,2.20
0.6910,0.07,0.05,-1.00,2.62,3.11,5.68
0.7060,0.06,0.10,-1.00,3.05,3.23,5.49
0.7210,0.07,0.10,-1.00,2.69,3.48,4.03
0.7360,0.06,0.09,-1.00,2.56,3.91,2.75
0.7510,0.05,0.09,-1.00,3.05,4.27,1.77
0.7670,0.06,0.09,-1.00,3.23,4.09,-0.79
0.7740,0.08,0.11,-1.00,3.54,4.82,-2.38
0.7920,0.08,0.12,-0.99,3.30,4.70,-2.14
0.8070,0.10,0.15,-0.99,3.36,4.39,-0.24
0.8250,0.12,0.18,-0.98,3.23,4.46,-0.49
0.8420,0.12,0.17,-0.98,3.23,3.91,0.61
0.8580,0.11,0.14,-0.99,3.05,4.09,1.53
0.8730,0.08,0.11,-0.99,2.62,3.66,2.08
0.8880,0.08,0.11,-0.99,3.48,3.91,2.01
0.8920,0.08,0.11,-0.99,3.36,3.72,2.08
0.9070,0.09,0.11,-0.99,3.72,3.78,2.32
0.9290,0.09,0.11,-0.99,3.11,3.91,2.87
0.9460,0.09,0.12,-0.99,3.05,3.66,3.66
0.9620,0.10,0.12,-0.99,3.11,3.66,1.89
0.9830,0.09,0.12,-0.99,3.17,4.03,0.49
0.9840,0.09,0.11,-0.99,3.11,4.33,-0.37
1.0140,0.08,0.12,-0.99,3.60,4.27,-0.61
1.0180,0.07,0.12,-1.00,3.23,4.27,-0.61
1.0350,0.07,0.12,-0.99,3.05,4.21,0.12
1.0510,0.06,0.11,-1.00,3.17,4.03,0.55
1.0700,0.06,0.11,-1.00,3.11,4.09,1.40
1.0850,0.08,0.11,-1.00,3.11,4.15,1.77
1.1000,0.08,0.12,-0.99,3.36,3.85,2.14
1.1200,0.06,0.11,-0.99,2.93,3.72,2.69
1.1360,0.08,0.11,-1.00,3.17,3.91,2.14
1.1530,0.08,0.12,-0.99,2.93,4.03,2.26
1.1680,0.03,0.12,-1.01,2.93,3.66,2.38
1.1840,0.08,0.12,-1.00,3.11,3.78,2.14
1.2000,0.08,0.12,-1.00,3.11,4.21,2.14
1.2160,0.08,0.12,-0.99,3.17,3.60,2.08
1.2320,0.08,0.12,-1.00,2.99,3.66,2.14
1.2360,0.08,0.12,-0.99,3.23,3.85,2.20
1.2520,0.08,0.12,-0.99,2.93,4.21,2.08
1.2740,0.08,0.12,-0.99,2.93,3.91,2.20
1.2910,0.08,0.11,-0.99,3.11,4.15,2.20
1.3070,0.08,0.11,-0.99,2.93,3.72,2.14
1.3240,0.08,0.12,-1.00,2.87,3.36,2.32
1.3400,0.08,0.11,-1.00,2.56,4.03,2.20
1.3550,0.08,0.11,-0.99,2.69,4.15,2.14
1.3710,0.08,0.11,-0.99,2.93,4.09,2.20
1.3870,-0.07,0.05,-1.02,3.17,3.85,0.67
1.4030,-0.03,0.03,-1.02,3.91,5.31,-7.39
1.4180,0.10,0.17,-0.98,3.60,6.04,-10.86
1.4340,0.13,0.13,-0.99,4.27,6.04,-10.74
1.4500,0.13,0.09,-1.00,4.21,4.94,-4.52
1.4660,0.14,0.10,-0.99,3.60,4.52,-0.67
1.4750,0.13,0.13,-0.99,3.48,4.33,0.06
1.4910,0.13,0.14,-0.99,3.30,4.52,-1.89
1.5060,0.11,0.14,-0.99,3.60,4.39,-1.95
1.5280,0.08,0.11,-1.00,3.36,4.70,-1.53
1.5440,0.07,0.11,-1.00,3.23,4.27,0.31
1.5580,0.07,0.12,-0.99,3.11,3.78,0.85
1.5760,0.09,0.14,-0.99,3.17,3.91,0.37
1.5910,0.09,0.13,-0.99,3.30,4.33,-0.73
1.6070,0.08,0.13,-0.99,2.99,4.33,0.43
1.6220,0.08,0.11,-0.99,2.99,4.09,1.65
1.6380,0.09,0.08,-1.00,2.87,3.78,2.14
1.6530,0.08,0.10,-1.00,3.23,4.03,0.67
1.6620,0.07,0.11,-1.00,3.36,4.52,-0.85
1.6780,0.07,0.11,-1.00,3.30,4.46,-0.06
1.6960,0.06,0.10,-1.00,3.30,4.58,-0.31
1.7110,0.09,0.09,-1.00,3.36,4.64,-0.73
1.7280,0.09,0.10,-0.99,3.36,4.64,-1.89
1.7430,0.09,0.11,-0.99,3.60,4.58,0.00
1.7570,0.08,0.13,-0.99,3.11,4.39,0.79
1.7730,0.07,0.14,-0.99,3.05,3.91,1.10
1.7880,0.08,0.14,-0.99,3.23,3.97,0.24
1.8030,0.08,0.15,-0.99,3.30,4.27,0.18
1.8180,0.09,0.13,-0.99,2.93,3.97,1.34
1.8330,0.08,0.11,-0.99,2.93,4.03,2.14
1.8460,0.06,0.12,-1.00,3.11,4.03,2.14
1.8620,0.08,0.11,-0.99,3.23,4.21,2.01
1.8770,0.08,0.11,-1.00,3.11,3.91,2.01
1.8920,0.08,0.11,-1.00,3.30,4.09,2.32
1.9070,0.09,0.12,-0.99,2.93,3.48,2.81
1.9220,0.07,0.12,-0.99,2.93,3.85,2.32
1.9380,0.08,0.11,-0.99,2.99,3.66,2.26
1.9530,0.07,0.11,-1.00,2.87,4.15,2.14
1.9680,0.08,0.11,-1.00,2.81,3.91,2.14
1.9780,0.10,0.13,-0.99,2.75,4.15,1.83
1.9940,0.09,0.12,-0.99,2.99,3.60,2.08
2.0120,0.08,0.12,-0.99,2.93,3.78,2.08
2.0270,0.07,0.11,-0.99,2.87,4.09,2.08
2.0420,0.07,0.11,-1.00,3.11,4.09,2.01
2.0570,0.08,0.11,-0.99,3.17,3.91,2.01
2.0730,0.08,0.12,-0.99,3.05,3.66,2.14
2.0870,0.08,0.12,-0.99,2.99,3.78,2.26
2.1030,0.08,0.12,-0.99,3.05,3.97,2.08
2.1170,0.08,0.12,-0.99,2.99,3.91,2.26
2.1280,0.08,0.12,-0.99,3.36,4.15,2.20
2.1460,0.08,0.12,-0.99,3.30,3.85,2.20
2.1620,0.08,0.12,-0.99,3.17,3.78,2.08
2.1770,0.08,0.12,-0.99,3.11,4.09,2.08
2.1930,0.08,0.12,-0.99,3.17,3.85,2.20
2.2080,0.08,0.11,-0.99,3.05,4.15,2.01
2.2220,0.08,0.11,-0.99,3.23,4.09,2.20
2.2370,0.08,0.12,-1.00,2.93,3.97,2.20
2.2530,0.08,0.11,-1.00,2.99,4.03,2.14
2.2680,0.08,0.11,-1.00,2.93,3.60,2.26
2.2830,0.08,0.11,-0.99,2.99,3.91,2.14
2.2950,0.08,0.11,-0.99,2.93,3.91,2.20
2.3120,0.08,0.11,-0.99,3.23,3.97,2.14
2.3290,0.08,0.12,-1.00,3.17,4.03,2.14
2.3450,0.08,0.12,-0.99,2.99,3.91,2.26
2.3600,0.08,0.12,-0.99,3.05,3.85,2.20
2.3760,0.08,0.12,-0.99,2.99,4.03,2.14
2.3910,0.08,0.12,-0.99,2.87,4.27,2.08
2.4060,0.08,0.12,-0.99,3.05,4.33,2.14
2.4120,0.08,0.12,-0.99,2.93,3.91,2.14
2.4270,0.08,0.12,-0.99,3.11,4.15,2.20
2.4500,0.08,0.11,-0.99,2.93,4.03,2.08
2.4670,0.08,0.11,-1.00,2.87,4.15,2.01
2.4830,0.08,0.11,-1.00,2.87,4.03,2.01
2.5000,0.08,0.11,-0.99,2.87,3.91,2.20
2.5150,0.08,0.11,-0.99,3.17,4.15,2.08
2.5300,0.08,0.11,-0.99,2.93,4.09,2.20
2.5460,0.08,0.11,-0.99,3.05,3.97,2.14
2.5500,0.08,0.12,-0.99,3.30,4.15,2.01
2.5780,0.08,0.11,-0.99,3.30,4.27,2.01
2.5920,0.08,0.11,-0.99,3.36,4.09,2.08
2.6080,0.08,0.12,-1.00,3.17,4.09,2.14
2.6170,0.08,0.11,-0.99,3.17,3.85,2.14
2.6350,0.08,0.11,-1.00,3.42,3.54,2.20
2.6510,0.08,0.12,-1.00,3.17,4.09,2.26
2.6670,0.08,0.12,-0.99,2.62,3.85,2.14
2.6850,0.08,0.12,-0.99,2.56,3.97,2.14
2.7000,0.08,0.12,-1.00,2.81,4.09,2.26
2.7170,0.09,0.12,-1.00,3.11,4.21,2.01
2.7180,0.08,0.12,-0.99,2.87,4.03,2.08
2.7340,0.08,0.12,-1.00,3.05,3.72,2.01
2.7510,0.07,0.11,-1.00,3.05,3.97,2.08
2.7800,0.07,0.11,-0.99,2.75,3.66,2.32
2.7950,0.08,0.11,-0.99,3.17,3.78,2.20
2.8000,0.08,0.11,-1.00,3.11,4.03,2.20
2.8160,0.08,0.11,-1.00,2.99,3.91,2.08
2.8430,0.08,0.11,-0.99,3.23,3.78,1.95
2.8530,0.08,0.12,-0.99,3.17,3.85,2.20
2.8700,0.08,0.12,-1.00,2.87,3.48,2.20
2.8860,0.08,0.12,-0.99,2.93,4.03,2.14
2.9030,0.08,0.12,-0.99,3.17,3.91,2.08
2.9180,0.08,0.12,-0.99,3.05,4.15,2.08
2.9330,0.08,0.12,-1.00,2.93,4.03,2.26
2.9490,0.08,0.12,-0.99,2.81,4.21,2.26
2.9530,0.08,0.11,-0.99,2.99,3.72,2.20
2.9730,0.08,0.11,-1.00,3.17,4.09,2.14
2.9900,0.08,0.11,-1.00,2.93,4.09,2.20
3.0070,0.08,0.11,-0.99,3.17,3.85,2.08
3.0230,0.08,0.11,-1.00,2.93,3.72,2.26
3.0440,0.08,0.11,-1.00,3.17,3.97,2.14
3.0590,0.08,0.11,-1.00,3.17,3.91,2.08
3.0740,0.08,0.12,-0.99,3.11,3.72,2.08
3.0900,0.08,0.12,-0.99,2.99,3.36,2.08
3.1040,0.08,0.12,-0.99,3.11,4.03,2.20
3.1200,0.08,0.12,-1.00,2.93,3.78,2.26
3.1350,0.08,0.12,-0.99,2.87,4.03,2.08
3.1500,0.08,0.12,-0.99,3.11,3.85,2.14
3.1610,0.08,0.12,-0.99,3.05,3.72,2.14
3.1770,0.08,0.11,-1.00,3.17,3.91,2.08
3.1930,0.08,0.11,-1.00,3.17,3.97,2.08
3.2100,0.08,0.11,-0.99,3.11,4.27,2.32
3.2250,0.08,0.11,-0.99,3.17,3.85,2.20
3.2410,0.08,0.11,-1.00,3.17,3.91,2.26
3.2560,0.08,0.11,-1.00,2.93,4.03,2.20
3.2720,0.08,0.11,-0.99,3.05,3.48,2.26
3.2890,0.08,0.12,-0.99,3.17,3.91,2.08
3.3040,0.08,0.12,-0.99,3.30,4.15,2.32
3.3200,0.08,0.12,-0.99,3.17,3.97,2.01
3.3270,0.08,0.12,-1.00,3.05,3.60,2.08
3.3430,0.08,0.12,-0.99,3.05,3.78,2.20
3.3670,0.08,0.12,-0.99,2.81,3.91,2.32
3.3770,0.08,0.12,-1.00,2.87,3.91,2.32
3.3930,0.08,0.11,-0.99,2.75,3.66,2.14
3.4110,0.08,0.11,-0.99,2.99,3.78,2.26
3.4270,0.08,0.11,-1.00,2.87,3.72,1.95
3.4430,0.08,0.11,-1.00,3.05,3.66,2.14
3.4590,0.08,0.11,-0.99,2.99,3.97,2.08
3.4730,0.08,0.11,-0.99,3.23,3.97,2.08
3.4900,0.08,0.11,-0.99,3.11,3.91,2.38
3.4940,0.08,0.12,-1.00,3.11,3.97,2.20
3.5220,0.08,0.12,-0.99,3.17,3.78,2.14
3.5360,0.08,0.12,-0.99,2.87,3.97,2.01
3.5520,0.08,0.12,-0.99,2.99,3.78,2.26
3.5640,0.08,0.12,-0.99,2.99,3.78,2.26
3.5800,0.08,0.12,-0.99,3.17,3.78,2.26
3.5960,0.08,0.12,-0.99,3.17,3.54,2.26
3.6130,0.08,0.11,-0.99,2.99,4.21,2.26
3.6300,0.08,0.11,-0.99,3.05,3.97,2.20
3.6460,0.08,0.11,-0.99,3.05,3.97,2.14
3.6620,0.08,0.11,-1.00,2.99,4.21,2.32
3.6780,0.08,0.11,-0.99,2.93,3.97,2.26
3.6940,0.08,0.11,-0.99,2.87,3.72,2.20
3.7090,0.08,0.11,-0.99,2.87,3.85,2.14
3.7240,0.08,0.12,-1.00,3.23,4.03,2.20
3.7400,0.08,0.12,-0.99,2.93,4.09,2.20
3.7560,0.08,0.12,-0.99,2.87,3.78,2.26
3.7720,0.08,0.12,-0.99,2.93,3.97,2.14
3.7870,0.08,0.12,-0.99,2.93,4.03,2.20
3.8030,0.08,0.12,-0.99,2.93,4.03,2.08
3.8140,0.08,0.12,-0.99,2.93,3.91,2.26
3.8300,0.08,0.12,-0.99,3.05,3.91,2.08
3.8470,0.08,0.17,-0.99,3.30,4.09,0.61
3.8630,0.08,0.11,-1.00,3.60,4.52,-2.20
3.8790,0.08,0.11,-1.00,3.30,4.21,-0.55
3.8960,0.07,0.10,-1.00,3.17,4.33,0.43
3.9120,0.08,0.11,-1.00,3.17,3.97,1.59
3.9280,0.08,0.11,-0.99,3.05,4.27,1.65
3.9440,0.08,0.12,-1.00,3.30,3.78,1.95
3.9600,0.08,0.12,-0.99,3.17,3.97,2.01
3.9740,0.08,0.13,-0.99,2.99,3.72,1.77
3.9900,0.08,0.13,-0.99,3.17,4.09,0.79
4.0060,0.08,0.12,-1.00,3.17,4.09,0.73
4.0220,0.08,0.12,-0.99,2.87,3.85,1.10
4.0370,0.08,0.12,-1.00,3.23,3.91,1.40
4.0460,0.08,0.12,-1.00,3.36,3.91,1.46
4.0630,0.08,0.11,-0.99,3.05,4.03,1.77
4.0800,0.08,0.11,-0.99,2.93,4.33,1.89
4.0970,0.08,0.11,-1.00,3.30,4.15,1.83
4.1120,0.08,0.11,-0.99,3.05,3.97,1.71
4.1290,0.08,0.11,-1.00,3.05,4.09,1.59
4.1440,0.08,0.11,-1.00,2.99,3.54,1.83
4.1580,0.08,0.11,-1.00,2.99,4.09,1.83
4.1680,0.08,0.11,-1.00,3.23,3.91,2.08
4.1830,0.08,0.11,-1.00,3.42,3.85,1.95
4.2050,0.08,0.12,-0.99,3.11,4.27,2.20
4.2210,0.08,0.12,-0.99,3.42,3.91,1.89
4.2360,0.08,0.12,-0.99,3.17,3.78,2.20
4.2520,0.08,0.12,-0.99,3.23,3.60,2.38
4.2680,0.08,0.12,-1.00,2.93,3.72,2.26
4.2840,0.08,0.11,-1.00,2.93,3.97,1.95
4.2990,0.08,0.11,-0.99,2.93,4.03,2.08
4.3060,0.08,0.12,-0.99,3.11,3.97,1.89
4.3220,0.08,0.11,-0.99,3.36,3.60,2.32
4.3440,0.08,0.12,-0.99,3.05,3.97,1.89
4.3620,0.08,0.12,-0.99,3.05,3.91,1.95
4.3760,0.08,0.12,-1.00,3.05,3.85,2.50
4.3920,0.08,0.11,-0.99,2.99,3.85,2.50
4.4060,0.08,0.11,-0.99,2.87,3.66,2.87
4.4210,0.08,0.11,-0.99,3.05,3.85,2.93
4.4370,0.08,0.11,-0.99,3.17,3.97,2.99
4.4510,0.08,0.12,-0.99,3.11,3.78,2.99
4.4660,0.08,0.12,-0.99,3.23,4.15,2.62
4.4780,0.08,0.12,-1.00,3.17,4.15,3.23
4.4950,0.08,0.12,-1.00,2.99,3.85,3.23
4.5100,0.08,0.12,-1.00,2.87,3.91,2.81
4.5270,0.08,0.11,-0.99,3.11,3.66,2.81
4.5290,0.08,0.11,-1.00,3.11,4.09,3.05
4.5570,0.08,0.11,-1.00,3.17,3.78,2.38
4.5610,0.08,0.12,-0.99,3.05,3.78,2.87
4.5760,0.07,0.12,-0.99,2.87,4.09,3.48
4.5960,0.08,0.12,-0.99,2.87,3.48,3.66
4.6130,0.09,0.12,-0.99,2.81,3.48,4.58
4.6290,0.09,0.12,-0.99,2.93,3.36,4.76
4.6460,0.08,0.11,-1.00,3.05,3.66,3.66
4.6630,0.08,0.11,-1.00,2.87,3.78,3.97
4.6790,0.08,0.11,-1.00,2.93,3.72,3.42
4.6960,0.07,0.10,-1.00,2.93,3.72,2.69
4.7120,0.08,0.11,-0.99,3.17,3.91,2.69
4.7270,0.08,0.12,-0.99,3.05,4.15,3.23
4.7300,0.08,0.13,-0.99,2.93,3.48,4.03
4.7460,0.08,0.12,-1.00,2.87,3.78,4.03
4.7750,0.08,0.11,-1.00,2.99,3.48,3.78
4.7850,0.08,0.11,-1.00,2.81,3.72,3.60
4.8010,0.08,0.11,-1.00,3.05,3.60,3.30
4.8170,0.08,0.12,-0.99,2.75,3.91,3.54
4.8260,0.08,0.12,-0.99,2.87,3.72,3.72
4.8490,0.08,0.12,-0.99,3.05,3.78,4.39
4.8600,0.08,0.12,-0.99,2.93,3.60,3.42
4.8770,0.08,0.12,-1.00,2.93,3.78,3.48
4.8930,0.08,0.11,-0.99,2.75,3.54,4.27
4.9100,0.08,0.12,-0.99,2.69,3.36,5.43
4.9260,0.08,0.11,-0.99,2.93,3.36,5.37
4.9420,0.08,0.11,-1.00,2.87,3.72,4.52
4.9570,0.08,0.11,-1.00,2.75,3.66,4.21
4.9720,0.08,0.11,-1.00,2.93,3.48,4.15
4.9770,0.08,0.12,-0.99,2.87,3.72,4.09
4.9920,0.08,0.12,-0.99,2.81,3.60,4.58
5.0150,0.08,0.12,-0.99,2.99,3.36,4.52
5.0320,0.08,0.11,-0.99,2.81,3.42,4.46
5.0490,0.08,0.11,-0.99,2.81,3.17,4.15
5.0650,0.08,0.12,-1.00,2.93,3.30,4.70
5.0810,0.07,0.11,-1.00,2.87,3.54,4.09
5.0980,0.08,0.12,-0.99,2.81,3.42,4.94
5.1130,0.08,0.12,-0.99,2.87,3.30,5.49
5.1300,0.08,0.11,-1.00,3.05,3.48,4.94
5.1460,0.08,0.12,-0.99,2.75,3.42,5.86
5.1620,0.08,0.12,-0.99,2.56,3.30,5.55
5.1770,0.07,0.12,-0.99,2.81,3.42,5.25
5.1930,0.08,0.12,-0.99,2.93,3.17,6.41
5.2070,0.08,0.11,-1.00,2.56,3.30,5.98
5.2230,0.08,0.10,-0.99,3.05,3.66,3.78
5.2320,0.08,0.11,-1.00,3.11,3.85,2.75
5.2480,0.08,0.13,-0.99,2.93,3.91,3.36
5.2650,0.08,0.13,-0.99,2.87,3.54,4.09
5.2810,0.08,0.14,-0.99,2.81,3.48,5.37
5.2980,0.08,0.13,-1.00,2.75,2.99,7.32
5.3150,0.09,0.11,-0.99,2.62,2.87,7.26
5.3310,0.08,0.09,-1.00,2.81,3.60,5.07
5.3460,0.08,0.11,-0.99,2.69,3.30,4.58
5.3540,0.08,0.11,-0.99,2.62,3.66,4.39
5.3770,0.08,0.11,-0.99,3.23,3.42,3.91
5.3920,0.08,0.12,-1.00,2.93,3.60,4.27
5.4030,0.08,0.13,-0.99,2.62,3.36,5.37
5.4190,0.08,0.12,-0.99,2.56,3.17,7.20
5.4370,0.08,0.12,-0.99,2.56,3.11,5.62
5.4530,0.08,0.12,-0.99,2.38,3.05,6.96
5.4690,0.08,0.11,-1.00,2.50,2.87,7.45
5.4860,0.08,0.10,-1.00,2.69,3.72,4.39
5.5020,0.08,0.11,-1.00,2.87,3.48,4.33
5.5180,0.08,0.12,-0.99,2.69,3.36,4.64
5.5340,0.08,0.11,-0.99,2.87,3.60,5.07
5.5500,0.08,0.11,-1.00,2.99,3.36,4.76
5.5660,0.08,0.11,-1.00,2.87,3.48,4.52
5.5820,0.08,0.11,-0.99,2.93,3.72,4.82
5.5980,0.08,0.13,-0.99,2.69,3.23,6.29
5.6140,0.09,0.12,-1.00,2.62,3.36,6.04
5.6200,0.08,0.12,-0.99,2.87,3.36,5.37
5.6360,0.08,0.12,-0.99,2.81,3.23,5.98
5.6590,0.08,0.12,-0.99,2.75,3.36,5.92
5.6760,0.08,0.12,-0.99,2.93,2.93,7.32
5.6920,0.08,0.11,-1.00,2.87,2.99,7.08
5.7090,0.08,0.11,-0.99,2.50,3.30,6.53
5.7250,0.08,0.10,-1.00,2.75,3.23,6.35
5.7400,0.08,0.10,-1.00,2.75,3.23,5.37
5.7560,0.08,0.09,-1.00,2.75,3.48,4.52
5.7720,0.08,0.11,-0.99,3.05,3.42,3.85
5.7870,0.08,0.13,-0.99,3.42,3.30,4.46
5.8030,0.08,0.13,-1.00,2.99,3.05,7.39
5.8180,0.08,0.11,-1.00,2.32,3.23,7.20
5.8260,0.07,0.11,-0.99,2.44,3.11,6.71
5.8420,0.08,0.11,-0.99,2.50,3.05,6.04
5.8660,0.08,0.10,-1.00,2.75,3.23,4.58
5.8810,0.09,0.13,-0.99,2.75,3.60,4.94
5.8960,0.08,0.14,-0.99,2.75,3.36,5.25
5.9120,0.09,0.15,-0.99,2.56,3.17,7.45
5.9280,0.08,0.12,-0.99,2.44,2.56,8.73
5.9440,0.06,0.09,-1.00,2.69,2.99,8.73
5.9600,0.08,0.08,-1.00,2.62,2.93,8.48
5.9750,0.08,0.08,-1.00,2.56,2.81,7.81
5.9900,0.08,0.07,-1.00,2.87,3.42,4.39
5.9970,0.07,0.11,-0.99,3.17,3.66,2.32
6.0200,0.08,0.12,-0.99,3.23,3.91,2.32
6.0350,0.08,0.13,-0.99,2.81,3.85,2.75
6.0470,0.08,0.13,-0.99,2.93,3.91,4.52
6.0630,0.09,0.14,-0.99,2.87,3.30,5.19
6.0800,0.09,0.13,-0.99,3.05,3.17,5.80
6.0980,0.09,0.12,-0.99,2.99,3.17,4.88
6.1140,0.08,0.11,-1.00,2.93,3.54,4.33
6.1300,0.07,0.12,-0.99,2.87,3.42,4.21
6.1460,0.08,0.12,-0.99,2.56,3.36,5.98
6.1620,0.08,0.11,-0.99,2.69,3.23,6.77
6.1780,0.08,0.10,-1.00,2.75,3.42,6.23
6.1940,0.08,0.11,-0.99,3.11,2.87,6.16
6.1970,0.07,0.11,-1.00,3.05,2.81,5.92
6.2120,0.07,0.11,-1.00,2.81,3.42,5.86
6.2370,0.07,0.11,-1.00,2.75,3.54,5.13
6.2540,0.08,0.12,-0.99,2.93,3.42,5.98
6.2540,0.08,0.12,-0.99,2.93,3.30,5.43
6.2770,0.08,0.12,-0.99,2.56,3.17,5.43
6.3000,0.08,0.12,-0.99,2.81,3.11,4.94
6.3160,0.08,0.13,-0.99,2.75,3.23,5.55
6.3320,0.08,0.14,-0.99,2.87,3.17,7.02
6.3370,0.08,0.12,-0.99,2.50,3.11,8.00
6.3520,0.08,0.11,-0.99,2.56,3.05,7.87
6.3790,0.08,0.11,-0.99,2.44,3.05,7.08
6.3900,0.08,0.12,-1.00,2.75,2.81,6.84
6.4060,0.09,0.10,-1.00,2.62,2.69,8.12
6.4230,0.07,0.08,-1.00,2.56,3.17,6.16
6.4390,0.08,0.11,-0.99,2.69,2.81,5.98
6.4540,0.08,0.11,-0.99,2.87,2.99,5.13
6.4580,0.08,0.11,-1.00,3.11,3.48,4.88
6.4770,0.08,0.11,-1.00,3.11,3.17,4.76
6.5010,0.08,0.12,-0.99,2.75,3.60,3.97
6.5120,0.08,0.11,-0.99,2.87,3.48,3.23
6.5280,0.08,0.12,-0.99,3.11,3.36,2.93
6.5450,0.08,0.13,-0.99,3.17,3.66,3.30
6.5470,0.08,0.13,-0.99,2.99,3.60,4.15
6.5760,0.08,0.13,-0.99,2.69,3.17,6.41
6.5910,0.08,0.11,-0.99,2.69,2.87,5.86
6.6060,0.09,0.11,-1.00,2.75,3.42,5.55
6.6220,0.08,0.10,-1.00,2.81,3.30,3.72
6.6370,0.07,0.11,-0.99,2.93,3.23,4.64
6.6530,0.08,0.12,-0.99,2.87,3.17,5.68
6.6680,0.07,0.11,-1.00,2.87,3.23,4.64
6.6800,0.08,0.13,-0.99,3.11,3.30,5.74
6.6960,0.09,0.12,-0.99,2.87,3.17,6.04
6.7120,0.07,0.12,-0.99,2.62,3.11,5.80
6.7300,0.08,0.13,-0.99,2.75,3.17,6.59
6.7440,0.08,0.13,-1.00,2.69,3.30,6.04
6.7600,0.08,0.12,-0.99,2.62,3.17,6.96
6.7760,0.08,0.11,-1.00,2.62,3.05,7.20
6.7910,0.08,0.12,-0.99,2.50,3.30,6.65
6.7960,0.09,0.13,-0.99,2.81,3.05,7.93
6.8120,0.08,0.11,-1.00,2.50,2.75,8.00
6.8350,0.08,0.11,-1.00,2.62,2.81,8.12
6.8500,0.08,0.10,-1.00,2.87,3.30,7.20
6.8660,0.08,0.09,-1.00,2.62,3.05,6.04
6.8820,0.08,0.10,-1.00,2.69,3.42,4.94
6.8980,0.08,0.10,-0.99,2.81,3.36,3.42
6.9140,0.08,0.12,-0.99,2.99,3.48,3.78
6.9290,0.08,0.13,-0.99,2.99,3.36,4.46
6.9350,0.08,0.12,-0.99,3.05,2.93,4.15
6.9510,0.08,0.12,-0.99,2.87,3.30,4.15
6.9740,0.08,0.12,-0.99,2.69,3.42,4.27
6.9900,0.08,0.11,-0.99,2.75,3.66,4.21
7.0060,0.08,0.11,-0.99,3.17,3.78,3.85
7.0080,0.08,0.11,-1.00,2.99,3.66,4.03
7.0240,0.08,0.12,-0.99,2.81,3.30,4.03
7.0530,0.08,0.12,-0.99,2.99,3.30,3.66
7.0670,0.08,0.12,-0.99,2.87,3.48,4.52
7.0790,0.08,0.12,-0.99,2.81,3.42,6.10
7.0950,0.08,0.10,-1.00,2.81,3.23,4.94
7.1120,0.08,0.11,-1.00,3.11,3.36,4.82
7.1290,0.08,0.11,-0.99,3.11,3.60,4.58
7.1460,0.08,0.11,-1.00,3.23,3.91,3.05
7.1620,0.08,0.12,-0.99,2.87,3.85,2.69
7.1780,0.08,0.13,-0.99,2.93,3.78,2.93
7.1940,0.08,0.13,-0.99,2.87,3.85,2.81
7.2090,0.08,0.12,-0.99,3.11,3.72,3.91
7.2120,0.08,0.12,-0.99,2.81,3.36,4.82
7.2280,0.08,0.12,-0.99,2.81,3.42,4.82
7.2520,0.08,0.13,-1.00,2.81,3.42,4.88
7.2690,0.08,0.12,-0.99,2.93,3.30,5.37
7.2850,0.08,0.10,-0.99,2.93,3.11,6.04
7.3020,0.08,0.11,-1.00,2.99,2.99,4.70
7.3180,0.08,0.12,-0.99,2.93,3.42,4.70
7.3330,0.08,0.12,-0.99,3.05,3.36,5.00
7.3500,0.08,0.12,-0.99,2.99,3.11,6.23
7.3660,0.08,0.11,-1.00,2.62,3.11,6.47
7.3820,0.07,0.11,-1.00,2.75,3.17,4.88
7.3970,0.08,0.12,-1.00,2.69,3.17,6.23
7.4140,0.08,0.11,-1.00,2.75,3.42,4.94
7.4300,0.08,0.12,-0.99,2.81,3.54,4.52
7.4460,0.08,0.12,-0.99,2.75,3.11,5.07
7.4620,0.09,0.12,-0.99,2.81,3.36,5.55
7.4780,0.08,0.12,-0.99,2.69,3.48,5.00
7.4870,0.09,0.12,-1.00,2.87,3.17,6.16
7.5020,0.08,0.11,-0.99,2.44,3.30,6.23
7.5250,0.08,0.12,-0.99,2.87,3.42,5.49
7.5400,0.08,0.12,-1.00,2.62,3.05,6.59
7.5560,0.08,0.10,-0.99,2.56,3.30,6.23
7.5720,0.08,0.11,-0.99,2.81,3.05,6.23
7.5880,0.08,0.11,-0.99,2.75,3.30,5.43
7.6040,0.08,0.11,-0.99,2.87,3.66,4.46
7.6200,0.08,0.12,-0.99,2.93,3.30,4.39
7.6260,0.08,0.13,-0.99,2.93,3.30,4.27
7.6410,0.08,0.13,-0.99,2.81,2.93,6.41
7.6640,0.08,0.11,-0.99,2.56,3.23,6.10
7.6800,0.08,0.11,-0.99,2.62,2.87,6.35
7.6970,0.08,0.11,-0.99,2.62,3.36,6.04
7.7140,0.08,0.12,-0.99,2.93,3.05,5.19
7.7310,0.08,0.12,-0.99,2.87,3.23,5.37
7.7470,0.08,0.11,-1.00,2.62,3.23,5.37
7.7630,0.08,0.11,-1.00,2.75,3.42,4.33
7.7790,0.08,0.12,-0.99,3.05,3.48,4.58
7.7940,0.08,0.12,-0.99,2.87,3.30,5.86
7.7970,0.08,0.13,-0.99,2.93,2.87,6.29
7.8260,0.08,0.12,-0.99,2.62,2.81,6.47
7.8420,0.08,0.09,-0.99,2.69,3.11,5.86
7.8520,0.08,0.10,-1.00,2.69,3.36,4.58
7.8680,0.08,0.11,-1.00,3.17,3.42,3.05
7.8850,0.08,0.13,-0.99,3.05,3.85,2.99
7.9010,0.08,0.13,-0.99,2.75,3.60,3.42
7.9170,0.08,0.12,-0.99,2.99,3.23,4.52
7.9350,0.08,0.12,-0.99,2.69,3.11,5.19
7.9510,0.08,0.12,-1.00,2.62,3.36,5.37
7.9680,0.08,0.11,-1.00,2.38,3.11,4.88
7.9830,0.08,0.10,-1.00,1.89,3.66,3.54
7.9850,0.08,0.11,-0.99,3.17,3.60,3.17
8.0150,0.08,0.12,-0.99,3.30,3.54,3.42
8.0190,0.08,0.13,-0.99,3.05,3.42,3.60
8.0460,0.08,0.12,-1.00,3.60,3.23,4.27
8.0510,0.09,0.13,-0.99,3.11,3.23,5.19
8.0680,0.09,0.11,-0.99,2.75,3.23,5.86
8.0850,0.08,0.10,-1.00,3.05,3.42,4.82
8.1000,0.08,0.11,-0.99,2.62,3.42,3.78
8.1220,0.08,0.12,-0.99,3.36,3.85,3.42
8.1390,0.08,0.13,-1.00,3.36,3.60,3.85
8.1540,0.08,0.13,-0.99,3.30,3.30,4.21
8.1700,0.08,0.14,-0.98,2.87,3.17,5.49
8.1860,0.09,0.13,-0.99,2.81,2.93,6.96
8.2020,0.09,0.12,-0.99,2.69,2.99,7.57
8.2180,0.08,0.11,-0.99,2.81,3.36,6.65
8.2340,0.08,0.11,-1.00,2.75,2.93,6.23
8.2390,0.08,0.11,-1.00,2.62,2.93,5.98
8.2550,0.07,0.12,-1.00,3.17,3.05,6.96
8.2790,0.09,0.11,-0.99,2.75,2.75,7.63
8.2940,0.09,0.11,-1.00,2.81,3.36,6.35
8.3090,0.08,0.11,-1.00,2.81,3.23,5.74
8.3260,0.08,0.10,-1.00,2.69,3.48,4.39
8.3400,0.08,0.11,-0.99,3.11,3.72,2.87
8.3440,0.08,0.11,-0.99,3.11,3.54,2.50
8.3590,0.08,0.13,-1.00,3.17,3.66,2.69
8.3820,0.09,0.13,-0.99,2.69,3.54,3.05
8.3990,0.08,0.13,-0.99,2.32,3.66,3.72
8.4160,0.09,0.12,-1.00,3.23,3.05,5.31
8.4330,0.08,0.10,-1.00,2.50,3.54,4.09
8.4490,0.08,0.10,-1.00,2.75,3.85,3.11
8.4650,0.08,0.10,-0.99,2.69,3.97,2.32
8.4820,0.08,0.11,-1.00,3.23,3.54,2.01
8.4980,0.08,0.12,-0.99,3.11,4.09,1.95
8.5130,0.08,0.12,-1.00,2.69,3.91,1.89
8.5290,0.09,0.13,-0.99,2.93,3.78,2.20
8.5320,0.08,0.13,-0.99,3.72,3.30,3.23
8.5480,0.09,0.13,-0.99,3.66,3.42,4.64
8.5760,0.09,0.12,-1.01,4.15,3.60,3.91
8.5870,0.08,0.11,-0.99,3.17,3.54,4.27
8.6020,0.07,0.09,-1.00,2.87,3.60,3.30
8.6240,0.08,0.11,-0.99,3.05,3.97,2.14
8.6390,0.09,0.12,-0.99,3.17,4.15,1.89
8.6550,0.08,0.12,-0.99,3.11,4.03,2.20
8.6580,0.08,0.12,-1.00,2.87,3.72,2.14
8.6800,0.08,0.11,-0.99,2.99,3.54,2.44
8.6950,0.08,0.11,-0.99,3.42,3.42,2.44
8.7120,0.08,0.12,-0.99,3.11,3.60,2.44
8.7290,0.08,0.12,-0.99,3.11,3.48,2.38
8.7450,0.08,0.12,-0.99,3.05,3.66,2.87
8.7630,0.08,0.11,-0.99,3.05,3.54,2.32
8.7780,0.08,0.11,-0.99,3.11,3.78,1.83
8.7940,0.08,0.11,-1.00,3.36,3.78,2.14
8.8100,0.08,0.12,-1.00,3.11,3.72,2.01
8.8250,0.08,0.11,-0.99,2.99,3.78,2.14
8.8400,0.08,0.12,-0.99,3.23,3.66,2.14
8.8560,0.08,0.12,-0.99,3.30,3.60,2.01
8.8700,0.08,0.11,-0.99,3.36,3.91,2.08
8.8820,0.08,0.12,-0.99,3.17,3.97,2.14
8.8980,0.08,0.12,-0.99,3.23,4.09,2.26
8.9150,0.08,0.12,-0.99,3.36,3.85,2.08
8.9310,0.08,0.12,-0.99,3.17,3.66,2.14
8.9480,0.08,0.12,-0.99,3.05,3.60,2.14
8.9630,0.08,0.12,-0.99,3.23,3.91,2.08
8.9800,0.08,0.12,-0.99,3.42,3.78,1.95
8.9960,0.09,0.11,-0.99,3.17,3.85,0.92
9.0120,0.08,0.12,-0.99,3.30,3.91,0.49
9.0280,0.08,0.12,-0.99,3.17,3.54,1.34
9.0310,0.08,0.12,-0.99,3.30,3.60,1.65
9.0580,0.08,0.11,-0.99,3.11,3.66,1.89
9.0700,0.08,0.12,-0.99,3.17,3.78,2.14
9.0860,0.08,0.12,-0.99,2.99,3.60,2.26
9.1030,0.08,0.12,-0.99,3.17,3.91,2.08
9.1210,0.08,0.12,-0.99,3.36,3.72,2.01
9.1370,0.08,0.12,-0.99,3.23,3.54,2.08
9.1540,0.08,0.12,-0.99,3.11,3.85,2.14
9.1700,0.08,0.12,-0.99,2.99,3.72,1.83
9.1860,0.08,0.12,-0.99,3.05,3.85,1.89
9.2020,0.08,0.12,-0.99,3.23,3.72,2.01
9.2180,0.08,0.12,-0.99,3.11,3.42,2.01
9.2200,0.08,0.12,-0.99,3.11,4.21,2.08
9.2360,0.08,0.12,-1.00,3.11,3.85,2.08
9.2600,0.08,0.12,-0.99,3.30,4.15,2.20
9.2760,0.08,0.12,-0.99,2.87,3.91,2.14
9.2930,0.08,0.12,-0.99,2.81,3.91,2.14
9.3100,0.08,0.12,-0.99,3.23,3.78,2.08
9.3260,0.08,0.12,-0.99,2.99,3.91,2.01
9.3420,0.08,0.12,-0.99,3.05,3.91,2.08
9.3570,0.08,0.12,-0.99,3.05,3.78,2.08
9.3720,0.08,0.12,-0.99,3.05,3.97,2.14
9.3800,0.08,0.12,-0.99,2.99,3.78,2.08
9.3920,0.08,0.12,-0.99,2.81,3.66,2.08
9.4150,0.08,0.12,-0.99,3.11,3.48,2.20
9.4320,0.08,0.12,-0.99,3.17,4.15,2.01
9.4480,0.08,0.12,-0.99,3.17,4.03,2.08
9.4650,0.08,0.12,-0.99,3.05,4.33,2.01
9.4810,0.08,0.12,-0.99,3.17,3.72,2.08
9.4970,0.08,0.12,-0.99,2.99,4.09,2.14
9.5140,0.08,0.12,-0.99,3.05,4.09,2.08
9.5290,0.08,0.12,-0.99,3.05,4.03,2.08
9.5460,0.08,0.12,-0.99,2.99,3.97,2.26
9.5610,0.08,0.12,-0.99,3.17,3.91,2.08
9.5760,0.08,0.12,-0.99,3.05,3.54,2.08
9.5910,0.08,0.12,-0.99,3.05,3.85,1.89
9.6060,0.08,0.12,-0.99,3.05,4.09,2.14
9.6200,0.08,0.12,-0.99,3.05,3.85,2.08
9.6320,0.08,0.12,-0.99,3.05,4.03,2.26
9.6490,0.08,0.12,-0.99,2.99,4.09,2.26
9.6650,0.08,0.12,-0.99,3.17,3.66,2.01
9.6810,0.08,0.12,-0.99,2.99,3.66,2.01
9.6980,0.08,0.12,-0.99,3.23,3.72,2.01
9.7150,0.08,0.12,-0.99,2.99,3.85,2.08
9.7310,0.08,0.12,-0.99,3.23,3.60,2.01
9.7470,0.08,0.12,-0.99,2.99,3.78,2.08
9.7630,0.08,0.12,-0.99,2.99,4.09,1.95
9.7800,0.08,0.12,-0.99,2.99,3.91,2.08
9.7960,0.08,0.12,-0.99,3.11,3.97,2.14
9.8120,0.08,0.12,-0.99,3.11,3.66,2.01
9.8270,0.08,0.12,-0.99,2.99,3.66,2.20
9.8430,0.08,0.12,-0.99,3.11,3.91,2.14
9.8580,0.08,0.12,-0.99,3.30,3.97,2.20
9.8720,0.08,0.12,-0.99,3.11,3.85,2.08
9.8870,0.08,0.12,-0.99,3.11,3.72,2.08
9.8990,0.08,0.12,-0.99,3.30,3.91,2.08
9.9140,0.08,0.12,-0.99,3.05,3.85,2.14
9.9300,0.08,0.11,-0.99,3.05,3.97,2.08
9.9470,0.08,0.12,-0.99,3.17,4.03,2.14
9.9620,0.08,0.12,-0.99,3.42,3.54,2.01
9.9730,0.08,0.12,-0.99,3.11,3.42,2.01
9.9900,0.08,0.12,-0.99,3.17,3.66,2.01
10.0060,0.08,0.12,-0.99,3.23,3.60,2.20
10.0230,0.08,0.12,-0.99,2.99,3.97,2.08
10.0390,0.08,0.12,-0.99,3.23,3.66,2.01
10.0550,0.08,0.12,-0.99,3.17,4.21,2.08
10.0710,0.08,0.12,-0.99,3.05,4.03,2.14
10.0880,0.08,0.12,-0.99,2.93,4.03,2.01
10.1030,0.08,0.12,-0.99,2.99,3.78,2.20
10.1190,0.08,0.11,-0.99,3.11,3.78,2.20
10.1350,0.08,0.12,-0.99,3.23,3.60,2.14
10.1510,0.08,0.12,-0.99,3.05,4.03,2.08
10.1570,0.08,0.11,-0.99,3.11,3.97,2.08
10.1810,0.08,0.12,-0.99,3.17,3.60,2.08
10.1940,0.08,0.12,-1.00,3.23,3.78,2.26
10.2120,0.08,0.12,-0.99,3.11,3.91,1.95
10.2270,0.08,0.12,-0.99,2.99,3.78,2.08
10.2420,0.08,0.12,-0.99,3.17,3.91,2.01
10.2580,0.08,0.12,-0.99,3.05,3.85,2.14
10.2740,0.08,0.12,-0.99,3.17,3.72,2.08
10.2810,0.08,0.12,-0.99,3.17,3.60,2.08
10.2930,0.08,0.12,-0.99,3.42,3.78,2.08
10.3150,0.08,0.12,-0.99,2.99,4.09,2.14
10.3320,0.08,0.12,-0.99,3.11,4.03,2.26
10.3480,0.08,0.12,-0.99,3.05,3.78,2.01
10.3650,0.08,0.12,-0.99,3.11,3.85,2.26
10.3820,0.08,0.12,-0.99,2.99,4.27,2.08
10.3980,0.08,0.12,-0.99,3.23,3.60,2.20
10.4150,0.08,0.12,-0.99,3.17,3.60,1.95
10.4310,0.08,0.12,-1.00,3.23,3.66,2.08
10.4480,0.08,0.12,-0.99,3.17,4.09,2.01
10.4630,0.08,0.12,-0.99,2.93,4.09,2.01
10.4790,0.08,0.12,-0.99,2.93,3.91,2.08
10.4960,0.08,0.12,-0.99,3.05,3.91,2.08
10.5110,0.08,0.12,-0.99,3.17,3.78,2.08
10.5260,0.08,0.12,-0.99,2.99,3.91,2.01
10.5420,0.08,0.12,-0.99,3.17,3.91,1.95
10.5560,0.08,0.12,-0.99,2.99,3.97,2.08
10.5710,0.08,0.12,-0.99,2.99,3.78,2.01
10.5820,0.08,0.12,-0.99,3.23,3.97,2.01
10.5980,0.08,0.12,-0.99,3.05,3.60,2.14
10.6150,0.08,0.12,-0.99,2.75,3.85,2.01
10.6320,0.08,0.12,-0.99,2.87,3.85,2.14
10.6480,0.08,0.12,-0.99,2.93,3.78,2.14
10.6640,0.08,0.12,-0.99,2.81,3.78,2.01
10.6810,0.08,0.12,-0.99,3.30,3.85,2.01
10.6970,0.08,0.12,-0.99,2.99,4.09,2.26
10.7130,0.08,0.12,-0.99,3.30,3.78,2.01
10.7290,0.08,0.12,-0.99,3.30,3.97,2.20
10.7440,0.08,0.12,-0.99,2.81,3.91,2.14
10.7490,0.08,0.12,-0.99,2.81,3.78,2.08
10.7640,0.08,0.12,-0.99,2.99,3.91,2.01
10.7870,0.08,0.12,-0.99,3.17,3.85,2.26
10.8040,0.08,0.12,-0.99,3.17,3.60,2.01
10.8060,0.08,0.12,-0.99,3.05,3.72,2.26
10.8210,0.08,0.12,-0.99,3.17,3.97,2.20
10.8520,0.08,0.12,-0.99,3.11,3.97,2.20
10.8680,0.08,0.12,-0.99,3.11,4.09,2.08
10.8810,0.08,0.12,-0.99,3.30,3.72,2.01
10.8860,0.08,0.12,-0.99,3.11,3.66,2.08
10.9080,0.08,0.12,-0.99,3.05,3.97,2.08
10.9240,0.08,0.12,-0.99,2.87,3.54,2.08
10.9420,0.08,0.12,-0.99,3.11,4.15,2.14
10.9580,0.08,0.12,-0.99,3.54,4.15,2.08
10.9730,0.08,0.12,-1.00,3.42,3.85,2.20
10.9880,0.08,0.12,-1.00,3.60,3.66,2.14
11.0030,0.08,0.12,-0.99,3.42,3.54,2.14
11.0190,0.08,0.12,-0.99,3.48,3.30,2.14
11.0350,0.08,0.12,-1.00,3.11,3.97,2.20
11.0500,0.08,0.11,-0.99,3.11,3.91,2.08
11.0570,0.08,0.12,-0.99,3.11,3.85,2.20
11.0730,0.08,0.12,-0.99,3.36,3.91,2.14
11.0890,0.08,0.12,-0.99,3.36,3.97,1.95
11.1050,0.08,0.12,-0.99,3.17,4.21,2.08
11.1270,0.08,0.12,-0.99,3.11,3.91,2.08
11.1430,0.08,0.12,-0.99,2.75,4.03,2.08
11.1590,0.08,0.12,-0.99,2.93,4.21,2.14
11.1750,0.08,0.12,-1.00,2.75,4.09,2.32
11.1830,0.08,0.12,-0.99,2.62,4.09,2.14
11.1980,0.08,0.12,-0.99,2.81,3.85,1.95
11.2150,0.08,0.12,-0.99,2.93,4.27,2.08
11.2310,0.08,0.12,-0.99,3.11,3.91,2.20
11.2470,0.08,0.11,-0.99,3.23,3.54,2.14
11.2640,0.08,0.12,-0.99,3.11,3.78,2.08
11.2810,0.08,0.12,-0.99,3.23,3.66,2.14
11.2960,0.08,0.12,-0.99,3.23,3.91,2.01
11.3130,0.08,0.12,-0.99,3.11,3.60,2.01
11.3300,0.08,0.12,-0.99,3.23,3.85,1.34
11.3450,0.08,0.12,-0.99,3.17,3.72,1.40
11.3610,0.08,0.12,-0.99,3.17,3.97,2.08
11.3770,0.08,0.12,-0.99,3.11,3.72,2.01
11.3920,0.08,0.12,-0.99,3.05,4.21,2.08
11.4080,0.08,0.12,-0.99,3.05,4.03,2.20
11.4250,0.08,0.12,-0.99,3.05,4.09,2.14
11.4410,0.08,0.12,-0.99,3.17,3.66,2.14
11.4570,0.08,0.12,-0.99,3.11,4.09,2.14
11.4710,0.08,0.12,-0.99,3.11,3.85,2.14
11.4860,0.08,0.12,-0.99,3.17,3.97,2.26
11.4980,0.08,0.12,-0.99,3.05,4.09,2.26
11.5150,0.08,0.12,-0.99,2.93,3.72,2.14
11.5310,0.08,0.12,-0.99,3.23,3.91,2.08
11.5490,0.08,0.12,-0.99,3.05,4.21,2.01
11.5650,0.08,0.12,-0.99,3.23,3.66,2.01
11.5800,0.08,0.12,-0.99,2.87,3.97,2.26
11.5960,0.08,0.12,-0.99,3.05,3.60,2.20
11.6120,0.08,0.12,-0.99,3.05,3.66,2.14
11.6270,0.08,0.12,-0.99,2.93,3.97,2.20
11.6420,0.08,0.12,-0.99,3.11,3.78,2.08
11.6570,0.08,0.12,-0.99,3.05,3.72,2.01
11.6730,0.08,0.12,-0.99,2.93,3.91,2.26
11.6870,0.08,0.12,-0.99,3.05,3.66,2.01
11.6980,0.08,0.12,-0.99,3.17,3.97,2.01
11.7140,0.08,0.12,-0.99,3.05,3.91,2.14
11.7340,0.08,0.12,-0.99,3.11,3.85,2.14
11.7490,0.08,0.12,-0.99,3.05,3.72,2.14
11.7520,0.08,0.12,-1.00,3.05,3.85,2.14
11.7670,0.08,0.12,-0.99,3.05,4.21,2.01
11.7950,0.08,0.12,-0.99,3.17,3.78,2.14
11.8050,0.08,0.12,-0.99,3.11,3.78,2.14
11.8220,0.08,0.12,-0.99,3.30,3.72,2.14
11.8380,0.08,0.12,-0.99,3.11,4.03,1.95
11.8560,0.08,0.12,-1.00,3.23,4.09,2.08
11.8700,0.08,0.12,-0.99,2.93,3.85,2.20
11.8860,0.08,0.12,-0.99,3.17,3.48,2.20
11.9010,0.08,0.12,-0.99,2.93,3.60,2.08
11.9160,0.08,0.12,-0.99,3.05,3.85,2.26
11.9320,0.09,0.12,-0.99,2.99,3.97,2.14
11.9440,0.08,0.12,-0.99,3.05,3.72,2.20
11.9600,0.08,0.12,-0.99,2.93,3.72,1.95
11.9770,0.08,0.12,-0.99,3.30,3.78,2.14
11.9920,0.08,0.11,-0.99,3.23,3.97,2.14
12.0080,0.08,0.12,-0.99,3.30,4.09,2.20
12.0230,0.08,0.12,-0.99,3.30,3.91,2.01
12.0270,0.09,0.11,-0.99,3.30,3.97,1.89
12.0420,0.14,0.13,-0.99,3.23,4.27,-0.06
12.0660,0.07,0.12,-0.99,3.54,4.70,-3.11
12.0820,0.06,0.11,-1.00,3.30,4.39,-1.16
12.0980,0.08,0.12,-0.99,3.30,4.33,-0.55
12.1150,0.08,0.12,-0.99,3.23,4.15,0.06
12.1320,0.09,0.12,-0.99,3.23,3.97,0.12
12.1470,0.08,0.12,-0.99,3.30,4.15,-0.37
12.1640,0.08,0.12,-0.99,3.23,4.09,-0.43
12.1800,0.07,0.11,-1.00,3.30,4.33,0.06
12.1960,0.08,0.11,-1.00,3.11,3.85,0.85
12.2110,0.09,0.11,-0.99,3.23,4.09,0.73
12.2270,0.08,0.11,-0.99,3.23,3.97,0.61
12.2420,0.08,0.11,-0.99,3.30,4.15,0.67
12.2570,0.08,0.11,-1.00,3.11,4.15,0.79
12.2650,0.08,0.11,-1.00,3.30,3.91,0.49
12.2880,0.08,0.12,-0.99,3.11,4.15,0.73
12.2990,0.08,0.12,-0.99,3.23,3.66,1.04
12.3160,0.08,0.12,-0.99,3.23,3.91,1.22
12.3320,0.08,0.12,-0.99,3.30,3.85,1.40
12.3480,0.09,0.12,-0.99,3.30,4.15,1.46
12.3640,0.10,0.12,-0.99,3.11,4.03,0.85
12.3810,0.09,0.12,-0.99,3.30,3.85,-0.12
12.3970,0.08,0.11,-0.99,3.30,3.91,-0.31
12.4130,0.08,0.11,-0.99,3.23,4.27,0.00
12.4290,0.08,0.11,-0.99,3.36,3.85,0.06
12.4450,0.07,0.11,-1.00,3.17,4.09,0.49
12.4610,0.07,0.11,-1.00,3.48,3.91,0.85
12.4650,0.08,0.11,-0.99,3.17,3.91,0.67
12.4820,0.08,0.11,-0.99,3.36,3.97,0.49
12.5060,0.08,0.12,-0.99,3.30,4.21,0.67
12.5220,0.08,0.12,-0.99,3.42,3.97,0.98
12.5370,0.08,0.12,-0.99,3.36,3.78,1.04
12.5530,0.08,0.12,-0.99,3.48,3.85,1.34
12.5690,0.08,0.12,-0.99,3.36,3.72,1.46
12.5850,0.08,0.12,-0.99,3.30,3.85,1.65
12.6010,0.10,0.12,-0.99,3.17,3.97,1.53
12.6160,0.09,0.11,-0.99,3.36,4.15,1.04
12.6310,0.08,0.12,-0.99,3.36,4.21,0.92
12.6400,0.08,0.12,-0.99,3.17,4.15,0.92
12.6550,0.08,0.12,-0.99,3.05,4.21,1.22
12.6750,0.09,0.11,-0.99,3.05,4.09,1.16
12.6910,0.07,0.11,-1.00,3.17,4.03,1.22
12.7070,0.08,0.11,-0.99,3.11,3.78,1.34
12.7230,0.08,0.12,-0.99,3.30,4.09,1.28
12.7390,0.09,0.12,-0.99,3.05,4.09,1.10
12.7540,0.10,0.12,-0.99,3.30,3.97,1.10
12.7700,0.09,0.13,-0.99,3.17,3.78,1.71
12.7850,0.08,0.13,-0.99,3.05,3.42,2.75
12.8010,0.07,0.12,-0.99,3.42,3.72,3.30
12.8170,0.08,0.11,-1.00,2.99,3.72,3.30
12.8330,0.08,0.11,-0.99,3.11,3.91,2.62
12.8470,0.09,0.11,-0.99,3.05,3.66,2.14
12.8580,0.09,0.11,-0.99,3.23,4.09,1.34
12.8740,0.09,0.11,-0.99,3.30,3.97,0.92
12.8910,0.08,0.12,-0.99,3.66,4.09,0.37
12.9070,0.07,0.12,-1.00,3.36,4.33,0.79
12.9230,0.07,0.12,-1.00,3.30,3.85,1.10
12.9390,0.06,0.12,-1.00,3.11,3.85,1.77
12.9550,0.09,0.12,-0.99,3.17,3.54,2.01
12.9700,0.09,0.11,-0.99,3.23,3.72,2.08
12.9840,0.09,0.12,-0.99,3.05,3.85,2.14
12.9990,0.09,0.12,-0.99,3.17,3.85,1.95
13.0140,0.09,0.12,-0.99,3.11,4.03,1.65
13.0250,0.08,0.12,-0.99,3.17,3.78,1.46
13.0410,0.09,0.11,-0.99,3.30,3.72,1.40
13.0620,0.08,0.12,-0.99,3.17,3.85,1.22
13.0770,0.07,0.12,-0.99,3.11,3.78,1.77
13.0940,0.08,0.12,-1.00,3.17,4.09,2.08
13.1080,0.06,0.12,-1.00,2.87,3.91,2.26
13.1230,0.08,0.12,-1.00,3.17,3.54,2.32
13.1390,0.10,0.12,-0.99,3.17,3.23,2.93
13.1540,0.08,0.12,-0.99,3.05,3.48,3.66
13.1620,0.09,0.12,-0.99,3.30,3.54,2.99
13.1830,0.09,0.11,-0.99,3.30,3.60,2.08
13.1980,0.07,0.12,-1.00,3.36,3.97,1.83
13.2150,0.07,0.12,-0.99,3.23,3.72,1.59
13.2310,0.09,0.12,-0.99,2.99,3.66,1.77
13.2470,0.08,0.12,-0.99,3.11,3.85,2.44
13.2630,0.07,0.12,-0.99,3.05,3.91,2.99
13.2790,0.07,0.11,-1.00,3.05,4.03,2.81
13.2830,0.09,0.12,-0.99,2.99,3.78,2.50
13.2970,0.09,0.12,-0.99,3.05,3.66,2.62
13.3240,0.08,0.11,-0.99,2.93,3.42,2.99
13.3360,0.08,0.12,-0.99,3.11,3.85,2.62
13.3520,0.09,0.12,-0.99,2.99,3.48,2.50
13.3700,0.08,0.12,-0.99,2.99,3.78,2.14
13.3850,0.08,0.12,-0.99,3.17,3.66,2.14
13.4020,0.09,0.12,-0.99,3.11,3.60,1.65
13.4030,0.09,0.12,-0.99,3.05,3.85,1.34
13.4330,0.07,0.12,-0.99,3.05,3.97,1.34
13.4490,0.07,0.12,-0.99,3.05,3.72,1.65
13.4530,0.08,0.12,-0.99,3.23,4.52,1.65
13.4810,0.09,0.12,-0.99,3.30,4.09,1.65
13.4970,0.09,0.12,-0.99,3.30,3.72,1.95
13.5130,0.09,0.12,-0.99,2.99,3.78,2.01
13.5290,0.08,0.12,-1.00,3.05,3.97,2.44
13.5430,0.08,0.12,-0.99,3.05,3.91,2.32
13.5540,0.09,0.12,-0.99,3.11,3.85,1.89
13.5690,0.09,0.12,-0.99,3.11,4.03,1.89
13.5860,0.08,0.12,-0.99,2.87,3.97,2.08
13.6020,0.07,0.12,-0.99,3.05,3.54,2.26
13.6190,0.05,0.11,-1.00,3.36,3.66,1.83
13.6330,0.07,0.12,-0.99,3.23,3.60,1.10
13.6490,0.09,0.12,-0.99,3.17,3.97,1.10
13.6530,0.09,0.12,-0.99,3.11,4.15,1.22
13.6700,0.10,0.12,-0.99,3.17,3.78,1.04
13.6860,0.10,0.12,-1.00,3.30,3.91,0.73
13.7040,0.09,0.12,-0.99,3.48,3.85,0.61
13.7190,0.09,0.12,-0.99,3.36,3.66,0.92
13.7370,0.08,0.11,-0.99,3.36,3.97,0.67
13.7540,0.10,0.12,-0.99,3.30,3.97,0.61
13.7690,0.08,0.11,-0.99,3.23,4.15,0.06
13.7850,0.09,0.12,-0.99,3.23,4.27,-0.24
13.8010,0.07,0.11,-0.99,3.42,4.21,-0.12
13.8170,0.09,0.11,-0.99,3.48,4.09,-0.06
13.8310,0.06,0.12,-1.00,2.93,3.97,0.24
13.8470,0.05,0.12,-1.00,3.23,3.85,1.40
13.8630,0.08,0.12,-0.99,3.36,3.54,1.95
13.8780,0.09,0.12,-0.99,3.11,3.54,1.89
13.8860,0.09,0.12,-0.99,3.30,3.78,1.77
13.9020,0.09,0.12,-0.99,3.36,3.97,1.71
13.9240,0.09,0.12,-0.99,3.23,3.91,1.16
13.9390,0.07,0.12,-0.99,3.23,3.78,0.79
13.9540,0.08,0.12,-0.99,3.17,3.85,1.16
13.9600,0.09,0.11,-0.99,3.05,3.91,0.85
13.9830,0.09,0.11,-1.00,2.81,3.85,0.98
13.9920,0.09,0.12,-0.99,2.87,4.03,0.98
14.0140,0.07,0.11,-1.00,3.30,3.72,1.10
14.0300,0.08,0.12,-0.99,3.05,3.91,1.10
14.0470,0.08,0.12,-1.00,3.36,4.03,0.61
14.0620,0.08,0.12,-0.99,3.17,4.27,-0.12
14.0780,0.08,0.12,-1.00,3.11,4.27,-0.37
14.0940,0.09,0.12,-0.99,3.23,4.03,-0.55
14.1080,0.09,0.12,-0.99,3.42,4.21,-0.92
14.1230,0.08,0.12,-0.99,3.42,3.97,-0.67
14.1310,0.08,0.12,-1.00,3.36,4.33,-0.12
14.1470,0.07,0.12,-0.99,3.23,3.97,0.43
14.1700,0.06,0.12,-1.00,2.87,4.27,0.18
14.1850,0.08,0.11,-0.99,3.17,3.78,0.00
14.2010,0.08,0.11,-1.00,3.42,4.09,-0.37
14.2170,0.08,0.12,-0.99,3.17,4.15,-0.31
14.2190,0.08,0.12,-0.99,3.48,4.33,0.12
14.2350,0.08,0.12,-0.99,3.30,4.15,0.55
14.2630,0.09,0.11,-0.99,3.30,3.91,0.98
14.2740,0.08,0.12,-0.99,3.23,3.78,1.04
14.2900,0.08,0.12,-0.99,3.36,4.03,0.85
14.3080,0.10,0.12,-0.99,3.17,3.91,0.67
14.3080,0.08,0.12,-1.00,3.36,3.85,0.55
14.3390,0.08,0.12,-0.99,3.42,4.09,0.55
14.3550,0.08,0.12,-0.99,3.23,4.09,0.61
14.3710,0.07,0.12,-0.99,3.48,4.21,0.37
14.3870,0.07,0.12,-1.00,3.23,4.03,0.79
14.4030,0.07,0.12,-0.99,3.30,3.97,1.46
14.4190,0.08,0.12,-0.99,3.36,3.72,1.71
14.4330,0.07,0.12,-0.99,2.93,3.85,1.83
14.4500,0.07,0.12,-0.99,3.17,3.72,1.95
14.4570,0.08,0.12,-0.99,3.11,4.21,2.01
14.4730,0.09,0.12,-0.99,2.99,3.60,1.89
14.4950,0.09,0.12,-0.99,3.05,4.15,1.46
14.5120,0.08,0.12,-0.99,3.11,4.15,1.10
14.5270,0.08,0.12,-0.99,2.99,3.78,0.98
14.5420,0.08,0.12,-0.99,3.05,4.03,1.28
14.5580,0.08,0.12,-0.99,3.23,3.42,1.22
14.5730,0.08,0.12,-0.99,2.99,3.72,1.16
14.5890,0.08,0.12,-0.99,2.93,3.54,1.16
14.6050,0.08,0.12,-0.99,2.99,4.03,1.10
14.6210,0.08,0.12,-0.99,3.05,3.85,1.04
14.6360,0.08,0.12,-0.99,2.93,3.72,1.16
14.6510,0.08,0.12,-0.99,3.23,3.72,1.40
14.6620,0.08,0.12,-0.99,3.05,3.54,1.65
14.6790,0.08,0.11,-0.99,3.17,3.78,1.83
14.6960,0.08,0.11,-0.99,3.11,3.48,1.83
14.7110,0.08,0.11,-0.99,3.11,3.78,1.77
14.7290,0.08,0.11,-0.99,3.05,3.60,2.01
14.7450,0.08,0.12,-0.99,3.17,3.48,2.01
14.7610,0.08,0.12,-0.99,3.36,3.60,1.77
14.7770,0.08,0.11,-0.99,3.30,3.48,1.59
14.7920,0.08,0.12,-0.99,3.30,3.54,1.59
14.7960,0.08,0.11,-0.99,3.42,3.97,1.59
14.8110,0.08,0.11,-0.99,3.30,3.72,1.53
14.8330,0.08,0.12,-1.00,3.42,3.60,1.83
14.8500,0.08,0.12,-0.99,3.23,3.54,2.01
14.8660,0.08,0.12,-1.00,3.11,3.91,2.14
14.8830,0.08,0.12,-0.99,3.05,3.91,2.01
14.9000,0.08,0.12,-0.99,2.75,3.54,2.26
14.9170,0.08,0.12,-1.00,2.56,3.66,2.08
14.9320,0.08,0.11,-0.99,2.69,3.91,2.14
14.9340,0.08,0.12,-1.00,3.23,4.03,2.08
14.9500,0.08,0.11,-0.99,2.81,3.97,2.08
14.9680,0.08,0.12,-1.00,3.05,3.91,2.14
14.9970,0.08,0.12,-1.00,3.30,3.72,2.20
15.0130,0.08,0.12,-0.99,2.93,4.03,2.20
15.0290,0.08,0.12,-0.99,3.23,3.78,2.14
15.0450,0.08,0.12,-0.99,3.23,3.72,2.14
15.0500,0.08,0.12,-0.99,3.30,3.85,2.14
15.0660,0.08,0.12,-0.99,3.30,3.85,2.08
15.0880,0.08,0.12,-0.99,3.54,3.30,2.08
15.1050,0.08,0.12,-0.99,3.36,3.42,2.20
15.1210,0.08,0.12,-0.99,2.99,3.72,2.01
15.1370,0.08,0.12,-0.99,2.99,3.91,2.08
15.1540,0.08,0.12,-0.99,2.87,3.91,2.14
15.1690,0.08,0.12,-1.00,2.99,3.78,2.14
15.1860,0.08,0.12,-0.99,3.05,3.60,2.01
15.2020,0.08,0.12,-0.99,2.93,3.66,2.14
15.2180,0.08,0.12,-0.99,3.05,3.85,2.01
15.2340,0.08,0.12,-0.99,3.11,3.72,2.08
15.2380,0.08,0.12,-0.99,2.99,4.09,2.08
15.2530,0.08,0.12,-0.99,2.99,3.54,2.01
15.2770,0.08,0.12,-0.99,2.93,3.48,1.95
15.2930,0.08,0.12,-0.99,3.17,3.60,2.01
15.3100,0.08,0.12,-0.99,2.87,3.42,2.08
15.3270,0.08,0.12,-0.99,2.75,4.09,2.20
15.3440,0.08,0.12,-0.99,2.87,3.97,2.14
15.3590,0.08,0.12,-0.99,3.17,3.78,2.14
15.3760,0.08,0.12,-0.99,3.05,3.85,2.08
15.3920,0.08,0.12,-0.99,2.93,3.60,2.01
15.4070,0.08,0.12,-0.99,2.87,3.60,2.08
15.4220,0.08,0.12,-0.99,2.81,3.72,2.08
15.4370,0.08,0.12,-0.99,3.05,3.72,2.14
15.4540,0.08,0.12,-0.99,2.99,3.91,2.01
15.4690,0.08,0.12,-0.99,3.11,3.78,2.14
15.4850,0.08,0.12,-0.99,3.17,3.85,2.01
15.5000,0.08,0.12,-0.99,2.87,3.66,2.08
15.5100,0.08,0.12,-0.99,2.93,3.78,2.08
15.5270,0.08,0.12,-0.99,2.99,3.85,2.01
15.5450,0.08,0.12,-0.99,2.99,3.78,2.20
15.5610,0.08,0.12,-0.99,3.17,3.48,2.14
15.5770,0.08,0.12,-0.99,3.17,3.66,2.20
15.5940,0.08,0.12,-0.99,3.17,3.72,2.01
15.6100,0.08,0.12,-0.99,2.99,3.91,2.26
15.6250,0.08,0.12,-0.99,3.17,3.66,2.08
15.6400,0.08,0.12,-0.99,3.11,3.78,2.01
15.6560,0.08,0.12,-0.99,3.05,3.78,2.01
15.6720,0.08,0.12,-0.99,3.23,3.66,2.20
15.6880,0.08,0.12,-0.99,3.30,3.54,2.01
15.7040,0.08,0.12,-0.99,3.23,3.72,1.95
15.7190,0.08,0.12,-0.99,3.17,3.78,2.20
15.7280,0.08,0.12,-0.99,2.93,3.60,1.89
15.7430,0.08,0.12,-0.99,2.75,3.91,1.95
15.7650,0.08,0.12,-0.99,3.17,3.78,2.14
15.7810,0.08,0.12,-0.99,3.17,3.66,2.20
15.7960,0.08,0.12,-0.99,3.05,4.03,2.20
15.8000,0.08,0.12,-0.99,3.17,3.72,2.08
15.8160,0.08,0.12,-0.99,3.42,3.66,1.95
15.8400,0.08,0.12,-0.99,3.23,3.48,2.01
15.8570,0.08,0.12,-0.99,3.05,3.78,1.95
15.8720,0.08,0.12,-0.99,2.99,3.36,2.01
15.8890,0.08,0.12,-0.99,3.05,3.78,2.01
15.9050,0.08,0.12,-0.99,3.36,3.54,2.01
15.9210,0.08,0.12,-0.99,3.17,3.78,2.20
15.9370,0.08,0.12,-0.99,2.99,3.78,2.01
15.9520,0.08,0.12,-1.00,2.99,3.36,1.89
15.9690,0.08,0.12,-0.99,2.93,3.60,2.01
15.9840,0.08,0.12,-0.99,3.11,3.17,1.95
15.9900,0.08,0.12,-0.99,3.05,3.54,2.01
16.0060,0.08,0.12,-0.99,3.05,3.78,2.14
16.0280,0.08,0.12,-0.99,3.05,3.60,2.01
16.0450,0.08,0.11,-0.99,2.69,3.91,1.95
16.0620,0.08,0.12,-0.99,2.93,3.97,2.14
16.0780,0.08,0.12,-0.99,3.30,3.72,2.14
16.0930,0.08,0.12,-0.99,3.11,3.78,2.14
16.1090,0.08,0.12,-0.99,3.23,3.66,2.14
16.1110,0.08,0.12,-0.99,3.11,3.78,2.20
16.1270,0.08,0.12,-0.99,3.05,3.54,2.01
16.1490,0.08,0.12,-0.99,3.30,3.54,2.01
16.1660,0.08,0.12,-0.99,3.17,3.48,2.20
16.1840,0.08,0.12,-0.99,3.30,3.66,2.08
16.1860,0.08,0.12,-1.00,3.05,4.03,2.08
16.2160,0.08,0.12,-0.99,2.69,3.72,2.20
16.2310,0.08,0.12,-0.99,2.87,3.78,2.14
16.2320,0.09,0.11,-0.99,3.11,3.48,1.71
16.2490,0.13,0.15,-0.98,3.17,4.39,-1.83
16.2670,0.10,0.16,-0.98,3.85,5.25,-8.06
16.2860,0.08,0.13,-0.99,3.91,6.04,-11.35
16.3100,0.07,0.10,-1.00,4.27,6.04,-11.78
16.3200,0.07,0.09,-1.00,3.72,5.37,-8.24
16.3370,0.05,0.08,-1.00,3.72,4.70,-4.15
16.3540,0.06,0.09,-1.00,3.17,3.97,-0.31
16.3700,0.07,0.11,-1.00,3.17,3.66,1.10
16.3870,0.08,0.12,-0.99,3.05,3.97,2.20
16.4040,0.08,0.12,-0.99,3.17,3.60,2.08
16.4180,0.08,0.12,-0.99,3.11,3.72,2.20
16.4340,0.08,0.12,-0.99,3.30,3.85,2.26
16.4370,0.06,0.11,-1.00,3.30,3.85,2.44
16.4520,0.08,0.12,-0.99,2.93,3.36,3.78
16.4790,0.09,0.12,-0.99,2.93,3.30,3.60
16.4900,0.08,0.12,-0.99,2.81,3.30,2.87
16.5060,0.08,0.12,-1.00,2.93,3.60,3.11
16.5250,0.07,0.11,-1.00,2.87,3.60,3.17
16.5400,0.08,0.11,-1.00,3.05,3.66,3.36
16.5560,0.08,0.12,-0.99,2.81,3.48,3.48
16.5710,0.07,0.11,-1.00,2.81,3.66,3.72
16.5860,0.08,0.12,-0.99,2.81,3.60,4.27
16.6010,0.09,0.12,-0.99,2.87,3.17,4.33
16.6120,0.09,0.12,-0.99,3.11,3.30,4.03
16.6290,0.08,0.12,-0.99,3.05,3.60,3.23
16.6450,0.08,0.12,-0.99,3.05,3.78,2.99
16.6610,0.08,0.12,-0.99,3.05,3.91,2.87
16.6780,0.08,0.12,-0.99,3.30,3.54,2.62
16.6950,0.08,0.11,-0.99,3.05,3.97,2.93
16.7110,0.08,0.11,-1.00,2.99,3.54,3.11
16.7260,0.08,0.11,-0.99,2.75,3.54,3.30
16.7420,0.08,0.12,-0.99,2.87,3.23,3.23
16.7560,0.08,0.12,-0.99,2.81,3.48,2.93
16.7720,0.08,0.12,-0.99,3.05,3.48,2.56
16.7860,0.08,0.12,-0.99,2.99,3.60,2.26
16.7960,0.08,0.12,-0.99,3.11,3.54,2.20
16.8180,0.08,0.12,-0.99,3.05,3.36,2.14
16.8340,0.08,0.12,-0.99,3.11,3.85,2.14
16.8490,0.08,0.12,-0.99,3.42,3.48,2.26
16.8650,0.08,0.12,-0.99,3.48,3.42,2.14
16.8810,0.08,0.12,-0.99,3.36,3.11,2.14
16.8860,0.08,0.12,-0.99,3.11,3.42,2.01
16.8990,0.08,0.12,-0.99,3.30,3.48,1.95
16.9240,0.08,0.12,-0.99,3.11,3.60,1.95
16.9400,0.08,0.12,-0.99,2.87,3.60,2.08
16.9560,0.08,0.12,-0.99,2.93,3.66,2.01
16.9720,0.08,0.12,-0.99,3.23,3.78,2.08
16.9870,0.09,0.12,-1.01,3.05,3.78,2.14
17.0020,0.08,0.12,-0.99,2.69,3.91,2.14
17.0170,0.08,0.11,-0.99,2.81,4.09,2.08
17.0330,0.08,0.12,-0.99,3.23,3.85,2.08
17.0500,0.08,0.12,-0.99,3.11,3.36,1.95
17.0650,0.08,0.12,-0.99,3.17,3.54,1.83
17.0800,0.08,0.12,-0.99,3.05,3.72,2.01
17.0900,0.08,0.12,-1.00,2.99,3.72,2.08
17.1070,0.08,0.12,-0.99,3.05,3.60,2.14
17.1230,0.08,0.12,-0.99,3.11,3.66,2.08
17.1400,0.08,0.12,-0.99,3.23,3.66,2.08
17.1560,0.08,0.12,-0.99,3.23,3.42,2.20
17.1720,0.08,0.12,-0.99,3.11,3.97,2.01
17.1880,0.08,0.12,-0.99,3.11,3.48,2.01
17.1900,0.08,0.12,-0.99,2.99,3.66,2.14
17.2060,0.08,0.12,-0.99,3.17,3.72,2.08
17.2290,0.08,0.12,-0.99,3.36,4.15,2.08
17.2450,0.08,0.12,-0.99,3.42,4.09,2.08
17.2610,0.08,0.12,-0.99,3.23,3.78,2.14
17.2780,0.08,0.12,-0.99,2.99,3.60,2.08
17.2870,0.08,0.12,-0.99,3.17,3.72,2.14
17.3090,0.08,0.12,-0.99,3.42,3.54,2.14
17.3240,0.08,0.12,-0.99,3.42,3.54,2.08
17.3400,0.08,0.12,-0.99,3.11,3.66,2.08
17.3480,0.08,0.12,-0.99,3.17,3.60,1.89
17.3660,0.08,0.12,-0.99,2.93,3.66,2.14
17.3820,0.08,0.12,-0.99,3.11,3.91,2.14
17.3980,0.08,0.12,-0.99,3.23,3.85,2.26
17.4150,0.08,0.12,-0.99,3.17,3.66,2.20
17.4300,0.08,0.12,-0.99,2.99,3.91,2.20
17.4470,0.08,0.10,-0.99,3.05,3.42,2.87
17.4620,0.08,0.12,-0.99,2.93,3.23,4.09
17.4780,0.08,0.12,-0.99,2.87,3.36,3.66
17.4930,0.08,0.12,-0.99,3.05,3.48,2.93
17.5110,0.08,0.11,-1.00,3.30,3.42,2.75
17.5250,0.08,0.10,-1.00,2.93,3.78,2.81
17.5310,0.08,0.10,-1.00,3.11,3.17,3.60
17.5470,0.10,0.11,-0.99,2.93,3.30,3.91
17.5690,0.09,0.11,-0.99,2.99,2.93,3.97
17.5860,0.08,0.12,-0.99,3.11,3.05,4.03
17.6010,0.08,0.12,-0.99,2.99,3.23,4.70
17.6040,0.08,0.14,-0.99,2.62,3.54,3.78
17.6320,0.08,0.13,-0.99,3.23,3.48,2.44
17.6470,0.08,0.13,-0.99,3.05,3.72,2.81
17.6620,0.08,0.12,-0.99,3.05,3.48,2.99
17.6690,0.08,0.12,-0.99,3.17,3.72,2.81
17.6880,0.08,0.12,-0.99,3.11,3.54,2.81
17.7070,0.08,0.12,-0.99,3.17,3.36,2.38
17.7220,0.08,0.12,-0.99,3.17,3.72,1.71
17.7380,0.08,0.12,-0.99,3.17,3.91,1.16
17.7530,0.08,0.11,-1.00,3.11,3.85,1.04
17.7680,0.08,0.11,-0.99,3.11,4.03,0.73
17.7830,0.08,0.11,-1.00,3.11,3.97,0.49
17.7910,0.08,0.12,-0.99,3.30,3.72,1.10
17.8080,0.08,0.12,-0.99,3.17,3.72,1.10
17.8250,0.08,0.12,-0.99,3.17,3.85,0.98
17.8420,0.08,0.11,-1.00,2.93,3.91,1.71
17.8580,0.09,0.12,-0.99,3.11,3.54,2.01
17.8750,0.09,0.11,-0.99,3.30,3.72,1.04
17.8910,0.08,0.12,-0.99,3.54,4.09,-1.22
17.9070,0.08,0.12,-0.99,3.36,3.60,0.85
17.9220,0.08,0.12,-1.00,2.99,3.72,1.53
17.9370,0.08,0.12,-0.99,3.05,3.48,1.65
17.9520,0.08,0.12,-0.99,3.11,3.66,3.11
17.9690,0.08,0.11,-1.00,2.87,3.54,3.23
17.9840,0.08,0.12,-0.99,2.93,3.36,3.05
17.9990,0.08,0.12,-0.99,3.30,3.36,1.83
18.0140,0.08,0.11,-1.00,3.42,3.60,0.98
18.0250,0.08,0.11,-0.99,3.17,3.60,1.83
18.0410,0.08,0.12,-0.99,2.87,3.66,2.32
18.0580,0.08,0.11,-0.99,2.93,3.54,1.89
18.0740,0.08,0.12,-0.99,3.23,3.78,1.04
18.0890,0.08,0.11,-0.99,3.48,3.85,0.24
18.1040,0.08,0.10,-1.00,3.30,4.09,0.31
18.1190,0.07,0.12,-1.00,3.05,4.21,0.43
18.1350,0.08,0.11,-0.99,3.11,3.78,1.46
18.1500,0.08,0.12,-0.99,3.23,3.66,1.28
18.1650,0.08,0.12,-0.99,3.23,3.78,0.79
18.1750,0.08,0.12,-0.99,3.30,4.09,1.28
18.1900,0.08,0.12,-0.99,3.36,3.78,0.43
18.2100,0.08,0.12,-1.00,3.05,3.78,-0.31
18.2250,0.08,0.12,-1.00,3.05,3.48,2.20
18.2330,0.09,0.13,-0.99,2.93,3.42,3.17
18.2490,0.09,0.12,-0.99,3.11,3.85,1.65
18.2640,0.08,0.10,-1.00,3.23,3.97,0.49
18.2850,0.08,0.11,-0.99,3.23,3.91,0.00
18.3010,0.08,0.12,-0.99,3.30,4.09,-0.49
18.3200,0.08,0.13,-0.99,3.48,4.09,0.67
18.3200,0.08,0.12,-0.99,3.36,4.15,-0.61
18.3500,0.08,0.12,-0.99,3.36,4.03,-0.12
18.3660,0.08,0.11,-1.00,3.42,4.15,0.24
18.3700,0.08,0.11,-0.99,3.42,4.27,-1.10
18.3990,0.08,0.11,-1.00,3.60,4.58,-2.56
18.4020,0.08,0.12,-0.99,3.60,4.39,-2.08
18.4300,0.08,0.12,-0.99,3.60,3.66,0.12
18.4360,0.08,0.13,-0.99,3.23,3.97,0.67
18.4510,0.09,0.12,-0.99,3.48,4.21,0.37
18.4780,0.08,0.12,-0.99,3.30,4.09,0.18
18.4910,0.08,0.12,-0.99,3.17,3.78,0.37
18.5060,0.08,0.12,-0.99,3.30,3.48,0.73
18.5230,0.07,0.11,-1.00,3.17,3.78,0.61
18.5390,0.08,0.10,-1.00,3.36,3.85,0.98
18.5550,0.08,0.11,-1.00,3.48,3.85,0.85
18.5700,0.08,0.11,-0.99,3.30,4.09,-1.59
18.5850,0.09,0.12,-0.99,3.42,4.21,-1.53
18.6000,0.09,0.12,-0.99,3.72,4.09,-2.56
18.6160,0.08,0.13,-0.99,3.60,4.33,-2.20
18.6310,0.08,0.13,-0.99,3.36,3.60,-0.18
18.6460,0.08,0.12,-0.99,3.11,3.78,0.79
18.6570,0.08,0.11,-1.00,3.36,3.54,0.73
18.6720,0.07,0.10,-1.00,3.17,3.97,0.12
18.6930,0.09,0.11,-0.99,3.23,3.72,0.67
18.7080,0.09,0.12,-1.00,3.48,3.78,-1.04
18.7230,0.08,0.12,-0.99,3.78,4.21,-3.42
18.7390,0.07,0.12,-0.99,3.66,4.21,-2.08
18.7540,0.08,0.13,-0.99,3.48,3.85,-0.31
18.7700,0.08,0.13,-0.99,3.17,3.78,0.37
18.7790,0.08,0.12,-0.99,3.23,3.78,0.92
18.7940,0.08,0.11,-0.99,3.30,3.72,1.22
18.8160,0.08,0.12,-0.99,3.23,3.60,1.10
18.8320,0.08,0.11,-1.00,3.30,4.03,1.16
18.8470,0.07,0.11,-1.00,3.23,4.09,1.34
18.8510,0.08,0.11,-1.00,3.05,3.91,1.28
18.8670,0.09,0.12,-0.99,3.48,4.03,-0.61
18.8930,0.09,0.12,-0.99,3.42,3.97,-0.43
18.8930,0.08,0.12,-0.99,3.30,4.21,-0.12
18.9220,0.08,0.12,-0.99,3.36,3.72,1.04
18.9380,0.08,0.12,-0.99,3.11,3.42,1.10
18.9520,0.08,0.13,-0.99,3.23,3.60,1.34
18.9680,0.08,0.11,-0.99,3.11,3.66,2.32
18.9830,0.08,0.10,-1.00,2.99,3.91,1.89
18.9930,0.08,0.10,-0.99,3.30,3.72,1.59
19.0100,0.08,0.11,-0.99,3.48,3.97,0.67
19.0270,0.08,0.11,-1.00,3.42,3.78,0.67
19.0420,0.09,0.13,-0.99,3.17,4.27,0.79
19.0580,0.09,0.13,-0.99,3.30,3.72,-0.18
19.0730,0.08,0.11,-0.99,3.54,4.03,-0.85
19.0880,0.08,0.11,-1.00,3.36,3.85,-0.12
19.1050,0.08,0.12,-1.00,3.23,3.78,0.55
19.1210,0.08,0.13,-0.99,3.05,3.85,2.01
19.1370,0.08,0.13,-0.99,2.99,3.78,1.71
19.1520,0.08,0.12,-0.99,3.05,3.66,1.71
19.1590,0.08,0.11,-0.99,3.23,3.72,1.65
19.1750,0.09,0.10,-1.00,3.11,3.66,1.10
19.1980,0.08,0.12,-1.00,3.17,3.85,1.16
19.2130,0.08,0.12,-0.99,3.23,3.60,1.34
19.2290,0.08,0.11,-0.99,3.36,3.78,1.34
19.2440,0.09,0.11,-1.00,3.36,4.15,1.28
19.2490,0.08,0.11,-0.99,3.11,3.97,0.98
19.2660,0.08,0.12,-0.99,3.23,3.85,0.43
19.2840,0.07,0.13,-0.99,3.11,3.85,1.04
19.3000,0.08,0.12,-0.99,3.23,3.42,2.01
19.3160,0.08,0.11,-0.99,2.99,3.60,2.14
19.3330,0.09,0.11,-0.99,2.99,3.54,2.14
19.3490,0.09,0.11,-0.99,3.17,3.78,1.04
19.3650,0.08,0.11,-0.99,3.17,3.85,0.61
19.3820,0.08,0.12,-0.99,3.23,3.72,1.53
19.3970,0.08,0.12,-0.99,3.11,3.85,1.65
19.4130,0.08,0.11,-1.00,3.30,3.42,1.71
19.4290,0.08,0.11,-0.99,3.23,3.72,1.22
19.4450,0.08,0.11,-1.00,3.17,3.60,0.31
19.4500,0.08,0.11,-1.00,3.42,4.15,-0.12
19.4660,0.08,0.11,-0.99,3.30,4.39,-0.79
19.4910,0.08,0.12,-1.00,3.30,4.15,0.24
19.4970,0.08,0.12,-0.99,3.11,3.91,0.61
19.5220,0.08,0.11,-0.99,3.17,4.09,-0.79
19.5370,0.08,0.11,-0.99,3.23,3.97,0.18
19.5540,0.08,0.11,-0.99,3.17,4.15,-0.37
19.5690,0.08,0.11,-1.00,3.60,4.33,-1.77
19.5840,0.08,0.10,-1.00,3.60,4.15,-1.65
19.6010,0.08,0.12,-0.99,3.30,3.66,-0.37
19.6170,0.07,0.11,-1.00,3.42,4.21,-0.85
19.6230,0.08,0.12,-0.99,3.17,4.15,-0.61
19.6470,0.08,0.12,-1.00,3.42,4.39,-1.83
19.6620,0.08,0.12,-0.99,3.36,4.15,-1.83
19.6770,0.08,0.12,-0.99,3.30,4.09,-1.53
19.6910,0.08,0.12,-0.99,3.36,4.46,-2.08
19.7070,0.09,0.11,-0.99,3.42,3.78,-1.22
19.7070,0.08,0.11,-1.00,3.42,4.27,-1.77
19.7360,0.08,0.12,-0.99,3.11,4.15,-1.83
19.7520,0.08,0.12,-0.99,3.36,4.09,-0.79
19.7670,0.09,0.12,-0.99,2.99,4.09,0.61
19.7820,0.08,0.11,-1.00,3.17,4.46,-1.59
19.7980,0.07,0.12,-0.99,3.30,3.91,-0.24
19.8130,0.08,0.12,-0.99,3.36,4.15,0.49
19.8290,0.08,0.11,-0.99,3.17,3.97,0.24
19.8390,0.09,0.11,-0.99,3.11,3.72,0.67
19.8550,0.08,0.11,-0.99,3.48,4.33,-1.65
19.8720,0.08,0.11,-1.00,3.78,4.52,-2.93
19.8880,0.08,0.11,-0.99,3.48,4.46,-2.69
19.9060,0.08,0.13,-0.99,3.36,4.46,-2.20
19.9210,0.08,0.12,-0.99,3.36,4.52,-2.32
19.9370,0.08,0.12,-0.99,3.42,3.72,-0.31
19.9520,0.08,0.12,-0.99,3.23,3.54,0.18
19.9570,0.08,0.11,-0.99,3.17,4.21,0.31
19.9720,0.08,0.10,-1.00,3.60,3.91,-1.46
19.9960,0.08,0.09,-1.00,3.85,4.03,-3.11
20.0130,0.08,0.11,-0.99,3.72,4.82,-3.97
20.0290,0.08,0.13,-0.99,3.42,4.21,-2.14
20.0450,0.08,0.14,-0.99,3.23,4.03,-1.10
20.0470,0.08,0.12,-0.99,3.42,3.91,-0.06
20.0760,0.08,0.11,-0.99,3.30,4.39,-1.83
20.0920,0.08,0.12,-0.99,3.17,4.64,-1.59
20.1080,0.08,0.12,-0.99,3.60,4.27,-1.16
20.1230,0.08,0.11,-0.99,3.42,4.46,-1.34
20.1380,0.08,0.11,-1.00,3.36,4.03,-0.98
20.1470,0.07,0.11,-1.00,3.42,4.21,-1.22
20.1690,0.08,0.10,-1.00,3.42,4.21,-2.20
20.1810,0.09,0.12,-1.00,3.60,4.15,-2.62
20.1980,0.08,0.13,-0.99,3.23,4.21,-1.89
20.2140,0.08,0.13,-0.99,3.36,3.72,-0.55
20.2310,0.08,0.13,-0.99,3.36,3.48,0.61
20.2460,0.08,0.12,-0.99,3.36,3.72,0.67
20.2610,0.08,0.11,-0.99,3.17,3.54,0.92
20.2760,0.08,0.11,-1.00,3.17,3.97,0.24
20.2910,0.08,0.11,-1.00,3.23,4.21,-0.85
20.3040,0.07,0.11,-1.00,3.42,3.85,-1.34
20.3200,0.08,0.12,-0.99,3.48,4.09,-0.24
20.3350,0.08,0.12,-0.99,3.36,3.97,0.37
20.3510,0.09,0.13,-0.99,3.23,3.78,1.04
20.3680,0.08,0.11,-0.99,3.36,4.39,0.06
20.3840,0.08,0.11,-0.99,3.54,3.78,-0.49
20.4000,0.08,0.12,-0.99,3.60,4.21,-0.67
20.4030,0.08,0.11,-0.99,3.36,4.03,0.24
20.4320,0.08,0.11,-0.99,3.30,4.03,1.04
20.4360,0.08,0.11,-1.00,3.30,3.66,0.43
20.4630,0.08,0.11,-1.00,3.23,3.97,-0.61
20.4780,0.08,0.11,-1.00,3.36,4.15,-0.49
20.4930,0.08,0.11,-0.99,3.23,3.85,-0.61
20.5080,0.08,0.11,-1.00,3.54,4.09,-1.16
20.5190,0.08,0.12,-0.99,3.30,4.21,-0.49
20.5370,0.07,0.12,-0.99,3.48,4.21,-0.79
20.5520,0.08,0.12,-0.99,3.23,3.72,0.24
20.5700,0.09,0.12,-0.99,3.11,3.97,0.79
20.5850,0.08,0.12,-0.99,3.48,3.97,-0.31
20.6000,0.07,0.12,-0.99,3.42,4.09,-1.53
20.6160,0.08,0.12,-0.99,3.42,3.85,0.92
20.6310,0.08,0.12,-0.99,3.17,4.09,1.34
20.6470,0.08,0.11,-0.99,3.36,3.97,0.37
20.6530,0.08,0.11,-0.99,3.42,3.91,-0.49
20.6700,0.08,0.11,-1.00,3.54,4.03,-0.31
20.6910,0.08,0.11,-1.00,3.17,4.21,0.12
20.7010,0.08,0.11,-1.00,3.23,3.78,0.18
20.7250,0.08,0.12,-1.00,3.23,4.21,0.00
20.7270,0.08,0.11,-1.00,2.93,4.27,-15.38
20.7560,0.07,0.11,-1.00,3.42,3.85,-0.24
20.7720,0.08,0.12,-0.99,3.23,3.97,0.49
20.7870,0.08,0.11,-0.99,3.54,4.09,-0.49
20.8020,0.08,0.11,-0.99,3.30,4.03,-1.22
20.8180,0.08,0.11,-1.00,3.60,4.33,-1.95
20.8330,0.08,0.11,-1.00,3.42,4.27,-1.65
20.8430,0.09,0.12,-0.99,3.23,4.15,-0.61
20.8600,0.08,0.10,-0.99,3.23,4.58,-1.83
20.8770,0.07,0.11,-1.00,3.42,4.64,-2.20
20.8930,0.08,0.13,-0.99,3.05,3.72,0.24
20.9090,0.08,0.13,-0.99,3.36,3.97,0.49
20.9250,0.08,0.14,-0.99,3.23,3.91,0.49
20.9400,0.08,0.14,-0.99,3.23,4.09,0.98
20.9550,0.08,0.12,-0.99,2.93,3.72,1.65
20.9700,0.08,0.11,-0.99,3.11,3.66,1.46
20.9770,0.08,0.11,-0.99,3.23,3.85,1.16
21.0000,0.08,0.11,-0.99,3.30,3.91,0.98
21.0150,0.08,0.11,-0.99,3.36,3.42,1.16
21.0260,0.08,0.12,-0.99,3.30,3.78,0.85
21.0430,0.08,0.11,-1.00,3.36,3.91,0.12
21.0600,0.08,0.10,-1.00,3.42,3.91,-0.85
21.0760,0.07,0.11,-0.99,3.30,3.97,-1.28
21.0910,0.08,0.11,-0.99,3.54,3.97,-0.55
21.1060,0.08,0.11,-0.99,3.42,3.97,-0.49
21.1210,0.08,0.11,-1.00,3.66,4.27,-1.83
21.1360,0.08,0.12,-1.00,3.48,3.85,-0.61
21.1520,0.08,0.12,-0.99,3.05,4.03,-0.61
21.1670,0.08,0.12,-0.99,3.36,4.33,-1.22
21.1820,0.08,0.11,-0.99,3.54,4.27,-1.04
21.1930,0.08,0.12,-0.99,3.48,4.21,0.24
21.2100,0.08,0.12,-1.00,3.48,4.03,-0.06
21.2270,0.08,0.07,-1.00,3.36,3.85,-0.67
21.2420,0.08,0.10,-1.00,3.17,4.15,-0.73
21.2580,0.07,0.11,-1.00,3.72,4.33,-2.75
21.2720,0.08,0.14,-0.99,3.11,3.97,0.55
21.2880,0.08,0.14,-0.99,3.11,4.09,0.67
21.3040,0.08,0.14,-0.99,3.30,4.15,0.85
21.3190,0.08,0.14,-0.99,3.30,3.91,1.22
21.3270,0.08,0.12,-0.99,3.05,3.78,1.40
21.3420,0.08,0.12,-0.99,3.11,4.15,0.98
21.3650,0.08,0.11,-0.99,3.36,3.72,1.28
21.3800,0.08,0.11,-1.00,3.05,3.66,1.34
21.3960,0.08,0.12,-0.99,3.17,3.85,1.22
21.3990,0.08,0.11,-0.99,3.30,3.91,0.73
21.4260,0.08,0.10,-1.00,3.42,3.97,0.18
21.4340,0.08,0.11,-0.99,3.17,4.21,0.12
21.4490,0.08,0.10,-1.00,3.30,4.09,-0.37
21.4700,0.08,0.11,-1.00,3.66,4.52,-1.53
21.4870,0.08,0.11,-1.00,3.60,4.46,-0.92
21.5030,0.08,0.12,-0.99,3.48,4.03,-1.22
21.5200,0.08,0.12,-1.00,3.17,4.52,-1.10
21.5350,0.08,0.12,-0.99,3.23,4.09,-0.12
21.5500,0.08,0.11,-1.00,3.48,3.97,-0.98
21.5660,0.08,0.11,-1.00,3.91,4.09,-2.01
21.5710,0.09,0.11,-0.99,3.66,4.21,-2.14
21.5980,0.08,0.12,-0.99,3.42,4.64,-1.65
21.6140,0.08,0.12,-0.99,3.42,4.52,-2.08
21.6300,0.08,0.12,-0.99,3.54,3.97,-1.34
21.6470,0.08,0.11,-1.00,3.60,4.27,-1.16
21.6620,0.08,0.10,-1.00,3.48,4.03,-1.28
21.6710,0.08,0.12,-0.99,3.54,4.39,-2.93
21.6920,0.08,0.13,-0.99,3.36,4.39,-1.83
21.7040,0.08,0.13,-0.99,3.11,4.09,-0.43
21.7200,0.08,0.11,-1.00,2.93,4.33,0.31
21.7360,0.08,0.12,-0.99,3.30,4.52,-0.12
21.7520,0.08,0.13,-0.99,3.54,4.03,0.24
21.7680,0.08,0.13,-0.99,3.30,4.15,0.92
21.7840,0.08,0.12,-0.99,3.36,3.66,1.10
21.7920,0.08,0.12,-0.99,3.36,3.85,1.40
21.8030,0.08,0.11,-1.00,3.48,3.66,0.92
21.8190,0.08,0.11,-1.00,3.60,3.54,0.67
21.8410,0.07,0.10,-1.00,3.36,3.91,0.18
21.8580,0.08,0.10,-1.00,3.30,3.91,-0.31
21.8740,0.08,0.10,-1.00,3.36,4.03,-2.01
21.8900,0.08,0.11,-1.00,3.54,4.82,-2.69
21.9060,0.09,0.12,-0.99,3.48,4.39,-2.44
21.9220,0.08,0.12,-0.99,3.42,4.15,-2.26
21.9380,0.08,0.13,-0.99,3.54,4.21,-1.65
21.9540,0.07,0.13,-0.99,3.48,4.03,-0.61
21.9580,0.08,0.12,-0.99,3.60,3.91,0.73
21.9740,0.08,0.11,-0.99,3.36,3.85,0.85
21.9970,0.08,0.11,-1.00,3.11,4.09,0.37
22.0150,0.08,0.11,-1.00,3.30,3.91,0.12
22.0310,0.07,0.10,-1.00,3.48,4.09,-0.12
22.0470,0.08,0.11,-1.00,3.36,4.58,-1.28
22.0630,0.08,0.12,-0.99,3.42,4.09,-1.04
22.0800,0.08,0.12,-0.99,3.54,4.21,-1.10
22.0950,0.08,0.12,-0.99,3.36,4.09,0.18
22.1100,0.08,0.12,-0.99,3.36,3.91,0.73
22.1250,0.08,0.11,-0.99,3.17,4.15,0.49
22.1400,0.08,0.11,-0.99,3.42,4.09,-0.12
22.1560,0.08,0.11,-0.99,3.17,4.03,-0.06
22.1640,0.08,0.11,-0.99,3.23,4.09,0.18
22.1810,0.08,0.11,-0.99,3.23,4.03,-0.12
22.1970,0.07,0.11,-1.00,3.23,4.39,-1.16
22.2140,0.08,0.11,-0.99,3.23,4.27,-0.61
22.2310,0.08,0.12,-0.99,3.30,4.15,-0.06
22.2470,0.08,0.13,-0.99,3.30,3.91,1.34
22.2480,0.08,0.13,-0.99,3.23,3.91,1.71
22.2760,0.08,0.12,-0.99,2.93,3.72,2.14
22.2910,0.08,0.11,-1.00,2.99,3.85,2.08
22.3070,0.08,0.11,-0.99,3.17,3.78,2.14
22.3220,0.08,0.11,-1.00,3.17,3.97,1.77
22.3310,0.08,0.11,-1.00,3.17,4.21,1.71
22.3490,0.08,0.10,-1.00,3.23,4.09,-0.06
22.3640,0.08,0.10,-1.00,3.42,3.91,-0.18
22.3820,0.07,0.11,-1.00,3.60,4.21,-1.40
22.3970,0.07,0.12,-0.99,3.42,4.46,-0.37
22.4140,0.08,0.15,-0.99,3.11,4.15,0.79
22.4290,0.08,0.12,-0.99,2.93,3.78,2.14
22.4440,0.08,0.12,-0.99,2.81,3.91,2.14
22.4470,0.08,0.11,-0.99,2.75,3.66,2.14
22.4630,0.08,0.11,-0.99,3.17,3.72,2.14
22.4850,0.08,0.11,-0.99,2.93,3.91,2.20
22.5020,0.08,0.11,-1.00,3.23,3.72,2.20
22.5170,0.08,0.11,-0.99,3.11,3.66,2.08
22.5360,0.08,0.12,-0.99,3.17,3.48,2.20
22.5520,0.08,0.11,-0.99,3.23,3.91,2.14
22.5700,0.08,0.11,-0.98,3.48,3.85,2.20
22.5740,0.08,0.11,-0.99,3.30,4.09,2.08
22.5930,0.08,0.12,-1.00,3.05,3.66,1.95
22.6060,0.08,0.12,-0.99,3.30,3.72,1.89
22.6300,0.08,0.12,-0.99,2.81,4.33,2.20
22.6460,0.08,0.12,-1.00,2.75,3.85,2.20
22.6630,0.08,0.11,-0.99,2.75,4.03,2.08
22.6800,0.08,0.11,-0.99,2.93,3.85,2.01
22.6950,0.08,0.11,-0.99,2.87,3.72,2.20
22.6970,0.08,0.11,-1.00,3.23,4.15,2.20
22.7260,0.08,0.11,-0.99,2.99,3.72,2.08
22.7300,0.08,0.11,-1.00,3.30,4.09,2.20
22.7560,0.08,0.11,-1.00,3.11,3.72,2.14
22.7710,0.08,0.12,-0.99,2.99,3.78,2.08
22.7800,0.08,0.12,-1.00,2.93,3.97,2.20
22.7960,0.08,0.12,-1.00,2.87,3.60,2.14
22.8130,0.08,0.11,-0.99,3.17,3.42,2.14
22.8290,0.08,0.11,-1.00,3.17,3.78,2.14
22.8460,0.08,0.11,-0.99,3.11,3.48,2.20
22.8610,0.08,0.11,-0.99,2.75,3.97,2.01
22.8770,0.08,0.11,-0.99,3.05,4.03,2.08
22.8940,0.08,0.12,-0.99,2.99,3.78,2.14
22.8960,0.08,0.11,-0.99,2.93,3.97,2.20
22.9120,0.08,0.11,-0.99,3.05,4.03,2.26
22.9350,0.08,0.11,-1.00,3.36,3.60,2.01
22.9510,0.08,0.12,-0.99,3.05,3.72,2.01
22.9690,0.08,0.11,-0.99,3.17,3.72,2.01
22.9690,0.08,0.12,-0.99,2.93,4.03,2.14
23.0000,0.08,0.11,-0.99,2.99,3.91,2.14
23.0020,0.08,0.11,-0.99,3.11,3.72,2.08
23.0320,0.08,0.12,-0.99,2.99,4.03,2.14
23.0470,0.08,0.11,-0.99,3.05,3.66,2.14
23.0510,0.08,0.12,-0.99,3.17,3.60,2.14
23.0670,0.08,0.11,-0.99,2.99,3.91,2.14
23.0940,0.07,0.11,-1.00,2.99,3.91,1.95
23.1090,0.07,0.11,-1.00,3.17,4.09,1.46
23.1250,0.08,0.11,-0.99,3.23,3.97,1.16
23.1390,0.07,0.11,-1.00,3.17,3.91,1.46
23.1550,0.07,0.12,-0.99,3.11,3.85,1.40
23.1700,0.06,0.13,-0.99,3.30,3.60,1.65
23.1850,0.06,0.12,-0.99,3.30,4.03,1.46
23.2010,0.08,0.11,-0.99,3.30,4.09,0.92
23.2150,0.10,0.11,-0.99,3.17,3.97,1.22
23.2310,0.09,0.11,-1.00,2.99,3.66,1.22
23.2420,0.09,0.11,-0.99,3.05,3.97,1.28
23.2580,0.08,0.11,-0.99,2.99,4.03,1.53
23.2780,0.08,0.11,-0.99,3.05,3.60,1.46
23.2810,0.08,0.11,-0.99,3.11,3.78,1.59
23.2990,0.07,0.12,-0.99,2.81,4.15,1.83
23.3150,0.07,0.11,-0.99,3.11,3.66,1.77
23.3310,0.07,0.12,-0.99,3.05,3.85,1.65
23.3490,0.07,0.12,-0.99,2.99,4.03,1.34
23.3650,0.09,0.12,-0.99,3.17,4.15,1.22
23.3820,0.09,0.12,-0.99,3.11,4.03,1.53
23.3940,0.08,0.11,-1.00,2.99,3.97,1.46
23.3980,0.07,0.12,-0.99,3.17,3.60,1.46
23.4280,0.08,0.11,-1.00,3.17,3.91,1.40
23.4310,0.07,0.11,-0.99,3.05,3.97,0.79
23.4490,0.08,0.11,-1.00,3.05,3.72,0.79
23.4650,0.08,0.11,-1.00,3.36,3.85,1.22
23.4870,0.08,0.11,-0.99,3.17,4.03,1.46
23.5040,0.05,0.11,-1.00,3.11,3.97,1.95
23.5190,0.05,0.11,-1.00,3.17,3.72,1.95
23.5220,0.10,0.12,-0.99,2.99,3.66,2.14
23.5370,0.10,0.12,-0.99,2.69,3.72,2.38
23.5660,0.09,0.12,-0.99,2.93,3.60,2.32
23.5810,0.07,0.13,-0.99,2.99,3.85,1.65
23.5940,0.08,0.12,-0.99,2.99,3.91,1.10
23.6030,0.08,0.11,-1.00,3.23,4.21,0.55
23.6280,0.08,0.11,-1.00,3.11,4.03,0.67
23.6440,0.08,0.11,-1.00,3.36,3.72,1.22
23.6600,0.08,0.11,-0.99,3.05,3.85,1.65
23.6760,0.09,0.11,-1.00,3.23,3.97,1.83
23.6910,0.07,0.12,-0.99,2.87,4.09,2.62
23.7070,0.06,0.12,-1.00,2.99,3.85,3.11
23.7220,0.08,0.11,-1.00,3.05,3.60,2.93
23.7370,0.08,0.11,-0.99,3.23,3.36,2.75
23.7510,0.08,0.11,-1.00,3.17,3.60,3.17
23.7670,0.08,0.12,-0.99,3.17,3.30,3.17
23.7770,0.08,0.11,-0.99,2.93,3.60,2.99
23.7940,0.06,0.12,-0.99,3.17,3.60,2.44
23.8100,0.06,0.12,-1.00,3.11,3.66,2.38
23.8270,0.07,0.11,-0.99,3.05,3.60,2.87
23.8420,0.11,0.11,-0.99,3.23,3.60,2.56
23.8580,0.09,0.11,-0.99,3.23,3.85,1.95
23.8610,0.07,0.11,-0.99,3.11,4.03,1.95
23.8880,0.07,0.11,-1.00,2.99,4.15,1.95
23.8950,0.07,0.11,-1.00,3.05,3.97,1.89
23.9100,0.09,0.11,-0.99,2.93,3.36,2.32
23.9320,0.08,0.11,-0.99,2.93,3.66,2.87
23.9490,0.08,0.11,-1.00,3.11,3.60,2.87
23.9640,0.08,0.11,-1.00,2.99,3.42,2.99
23.9800,0.08,0.11,-1.00,2.93,3.66,2.87
23.9950,0.10,0.12,-0.99,3.11,3.85,2.75
23.9980,0.08,0.12,-0.99,3.11,4.09,2.20
24.0220,0.07,0.11,-1.00,2.93,3.78,2.14
24.0380,0.07,0.11,-0.99,2.99,3.54,2.38
24.0550,0.08,0.11,-0.99,3.23,3.78,2.50
24.0710,0.08,0.11,-1.00,3.05,3.85,2.38
24.0870,0.08,0.11,-0.99,3.30,3.66,2.26
24.1010,0.08,0.11,-0.99,3.23,3.97,2.50
24.1180,0.07,0.11,-1.00,3.30,4.03,2.20
24.1330,0.08,0.10,-1.00,3.23,3.54,2.81
24.1490,0.08,0.12,-0.99,3.05,3.48,3.54
24.1650,0.08,0.12,-0.99,2.87,3.60,3.60
24.1720,0.07,0.12,-1.00,2.69,3.72,3.78
24.1950,0.09,0.13,-0.99,2.93,2.93,3.54
24.2060,0.08,0.12,-0.99,2.69,3.54,2.69
24.2230,0.09,0.12,-0.99,3.05,3.91,2.44
24.2380,0.08,0.12,-0.99,3.05,3.60,2.44
24.2570,0.08,0.12,-0.99,3.05,3.60,2.50
24.2720,0.07,0.12,-0.99,3.11,3.54,2.87
24.2790,0.08,0.12,-0.99,2.93,3.72,2.50
24.3010,0.08,0.12,-0.99,2.87,3.48,1.95
24.3130,0.07,0.12,-0.99,3.23,3.85,1.59
24.3290,0.08,0.12,-0.99,3.30,3.85,1.40
24.3460,0.07,0.12,-0.99,2.93,4.39,1.34
24.3620,0.08,0.11,-1.00,3.36,4.03,1.22
24.3780,0.09,0.11,-1.00,3.05,4.15,1.83
24.3950,0.08,0.12,-0.99,3.05,3.48,1.83
24.3960,0.08,0.11,-1.00,3.23,3.85,1.65
24.4250,0.08,0.11,-1.00,3.17,3.85,1.59
24.4400,0.07,0.11,-0.99,3.17,3.78,1.65
24.4550,0.06,0.12,-1.00,3.30,3.97,1.40
24.4690,0.08,0.11,-0.99,3.05,4.15,1.22
24.4850,0.08,0.11,-0.99,3.42,4.15,1.34
24.4960,0.07,0.11,-1.00,3.11,3.85,1.40
24.5110,0.07,0.11,-1.00,3.05,4.09,0.79
24.5300,0.11,0.12,-0.99,3.17,4.03,0.73
24.5300,0.10,0.11,-0.99,3.36,4.03,1.89
24.5590,0.10,0.12,-0.99,3.17,3.60,2.32
24.5750,0.08,0.12,-0.99,3.05,3.91,2.14
24.5790,0.06,0.12,-0.99,3.05,4.15,1.89
24.6050,0.07,0.12,-1.00,3.17,3.91,1.89
24.6200,0.07,0.12,-1.00,3.11,3.78,2.08
24.6340,0.09,0.11,-0.99,2.81,4.03,2.20
24.6450,0.08,0.11,-0.99,3.05,3.78,2.20
24.6630,0.08,0.12,-0.99,3.11,3.78,2.08
24.6780,0.08,0.12,-0.99,3.11,4.15,1.77
24.6960,0.07,0.12,-0.99,2.93,3.85,1.65
24.7110,0.07,0.11,-1.00,3.30,3.78,1.53
24.7270,0.08,0.11,-1.00,3.05,3.85,1.53
24.7430,0.09,0.11,-0.99,3.30,4.03,1.46
24.7580,0.08,0.12,-0.99,3.11,3.72,2.01
24.7730,0.08,0.12,-0.99,2.93,3.91,2.14
24.7880,0.07,0.12,-0.99,3.23,3.60,2.08
24.8020,0.06,0.11,-0.99,3.05,3.78,2.20
24.8180,0.08,0.11,-1.00,3.42,3.85,2.01
24.8290,0.08,0.11,-0.99,3.05,3.85,2.44
24.8460,0.09,0.12,-0.99,3.05,3.78,2.38
24.8620,0.09,0.12,-0.99,3.23,3.85,2.26
24.8780,0.08,0.12,-0.99,2.93,4.03,2.32
24.8940,0.07,0.12,-0.99,2.75,3.66,2.26
24.9100,0.07,0.12,-1.00,2.87,3.60,2.01
24.9260,0.07,0.11,-0.99,3.05,3.72,1.95
24.9300,0.08,0.11,-0.99,3.23,3.97,1.65
24.9580,0.08,0.11,-1.00,3.54,3.85,1.59
24.9730,0.08,0.12,-0.99,3.30,3.91,1.77
24.9790,0.08,0.12,-0.99,3.30,3.97,1.65
24.9960,0.08,0.12,-0.99,3.30,4.03,1.59
25.0190,0.08,0.11,-1.00,3.11,3.97,1.59
25.0190,0.09,0.11,-0.99,3.11,4.15,1.95
25.0350,0.09,0.12,-0.99,2.99,4.21,2.14
25.0510,0.08,0.12,-0.99,2.87,3.66,2.20
25.0680,0.07,0.11,-1.00,3.23,3.72,2.08
25.0840,0.07,0.11,-1.00,3.17,3.97,1.89
25.1070,0.07,0.11,-0.99,3.17,3.78,1.53
25.1240,0.08,0.12,-0.99,3.11,3.54,1.65
25.1400,0.07,0.11,-1.00,3.17,3.97,1.28
25.1570,0.08,0.12,-0.99,3.17,3.78,1.10
25.1720,0.08,0.12,-0.99,3.30,4.03,0.73
25.1870,0.08,0.12,-0.99,3.30,3.97,0.92
25.2020,0.08,0.12,-0.99,2.93,3.78,1.16
25.2080,0.07,0.12,-0.99,2.81,3.78,1.34
25.2230,0.08,0.12,-0.99,2.87,4.09,1.16
25.2470,0.07,0.11,-1.00,3.11,4.15,0.85
25.2480,0.08,0.11,-0.99,2.93,4.15,0.79
25.2650,0.08,0.11,-0.99,3.05,3.97,1.40
25.2810,0.08,0.11,-0.99,2.75,3.91,1.89
25.2990,0.09,0.11,-0.99,3.05,3.91,1.83
25.3160,0.08,0.12,-0.99,3.05,3.48,1.71
25.3320,0.08,0.11,-0.99,3.11,3.85,1.89
25.3470,0.08,0.12,-0.99,3.11,3.42,1.95
25.3690,0.08,0.12,-0.99,2.87,4.27,1.83
25.3830,0.09,0.11,-0.99,2.87,3.72,1.71
25.4000,0.08,0.12,-0.99,2.87,3.60,1.83
25.4010,0.07,0.12,-0.99,3.11,3.72,1.28
25.4320,0.07,0.12,-0.99,3.17,3.72,0.92
25.4470,0.08,0.11,-1.00,3.36,4.15,0.67
25.4630,0.08,0.11,-1.00,3.42,3.91,1.22
25.4680,0.08,0.11,-0.99,3.42,3.48,1.77
25.4840,0.08,0.12,-0.99,2.99,3.36,1.95
25.5060,0.08,0.11,-0.99,2.87,3.36,2.20
25.5230,0.08,0.11,-1.00,3.23,3.48,2.08
25.5400,0.08,0.11,-0.99,2.93,3.85,2.01
25.5410,0.08,0.11,-0.99,2.87,4.03,1.95
25.5690,0.08,0.12,-0.99,2.93,4.03,2.20
25.5740,0.07,0.12,-1.00,2.99,3.60,2.08
25.6010,0.07,0.12,-0.99,3.11,3.91,1.89
25.6160,0.09,0.11,-0.99,3.05,3.85,1.95
25.6320,0.09,0.11,-0.99,3.17,3.85,1.89
25.6480,0.08,0.11,-0.99,3.23,3.78,1.77
25.6630,0.08,0.11,-0.99,3.30,3.72,1.89
25.6730,0.08,0.11,-0.99,3.30,3.97,1.83
25.6900,0.08,0.11,-1.00,2.99,4.03,1.89
25.7070,0.08,0.11,-0.99,3.05,3.66,1.89
25.7230,0.08,0.11,-0.99,3.23,3.85,1.83
25.7380,0.08,0.11,-0.99,3.36,3.60,1.95
25.7530,0.08,0.11,-1.00,2.99,3.60,1.89
25.7680,0.08,0.11,-0.99,3.11,3.54,1.95
25.7840,0.08,0.11,-0.99,3.11,3.72,2.14
25.8000,0.07,0.11,-1.00,2.99,3.54,2.14
25.8160,0.08,0.11,-1.00,3.17,3.72,2.14
25.8310,0.08,0.11,-0.99,3.36,3.54,2.32
25.8460,0.08,0.11,-0.99,3.30,3.60,2.20
25.8560,0.07,0.11,-0.99,3.11,3.48,2.44
25.8730,0.06,0.11,-1.00,3.23,3.48,2.56
25.8890,0.08,0.12,-0.99,3.05,3.97,2.75
25.9050,0.08,0.12,-1.00,2.87,3.78,2.50
25.9210,0.05,0.10,-1.00,2.99,3.91,2.50
25.9380,0.08,0.11,-1.00,2.87,3.48,3.60
25.9530,0.09,0.12,-0.99,2.87,3.72,2.81
25.9700,0.08,0.11,-1.00,3.17,4.21,2.62
25.9850,0.09,0.12,-0.99,3.30,3.91,2.56
25.9970,0.09,0.12,-0.99,2.93,3.42,2.26
26.0050,0.08,0.12,-0.99,2.99,3.66,2.20
26.0290,0.08,0.12,-0.99,2.93,3.97,2.32
26.0460,0.07,0.11,-1.00,2.99,3.60,2.26
26.0620,0.08,0.12,-0.99,3.05,3.78,2.38
26.0790,0.08,0.12,-0.99,2.99,3.91,2.38
26.0960,0.08,0.12,-0.99,2.99,3.72,2.26
26.1120,0.08,0.12,-0.99,3.05,3.78,2.14
26.1280,0.07,0.11,-0.99,2.81,3.54,2.20
26.1450,0.08,0.12,-0.99,3.23,3.48,2.32
26.1600,0.08,0.12,-0.99,2.81,3.85,2.44
26.1760,0.08,0.11,-0.99,3.05,3.85,2.44
26.1910,0.07,0.11,-0.99,3.11,3.66,2.44
26.1980,0.07,0.11,-1.00,3.05,3.60,2.62
26.2120,0.06,0.11,-1.00,2.93,3.72,2.69
26.2370,0.06,0.11,-1.00,3.23,3.72,2.62
26.2530,0.08,0.11,-0.99,3.11,3.85,2.20
26.2710,0.08,0.11,-0.99,3.05,3.72,2.20
26.2860,0.08,0.12,-1.00,3.11,3.85,2.01
26.3010,0.08,0.12,-0.99,3.11,3.72,2.32
26.3030,0.08,0.11,-0.99,3.23,3.48,2.01
26.3330,0.08,0.12,-0.99,3.17,3.54,1.83
26.3480,0.09,0.12,-0.99,3.30,4.21,1.65
26.3640,0.09,0.12,-0.99,3.05,3.85,1.53
26.3800,0.09,0.12,-0.99,2.93,3.72,1.65
26.3960,0.08,0.12,-0.99,3.11,3.60,1.95
26.4030,0.08,0.12,-0.99,3.23,3.91,2.01
26.4270,0.08,0.12,-0.99,3.05,3.66,2.20
26.4420,0.08,0.12,-0.99,2.87,3.91,2.01
26.4540,0.08,0.12,-0.99,3.11,4.03,1.77
26.4700,0.08,0.12,-1.00,3.17,3.91,1.71
26.4900,0.08,0.12,-0.99,3.11,3.85,1.53
26.5060,0.08,0.12,-0.99,3.05,4.09,1.04
26.5210,0.08,0.12,-0.99,3.05,4.03,0.49
26.5360,0.08,0.13,-0.99,3.05,3.97,0.06
26.5450,0.08,0.11,-0.99,3.30,4.15,-1.22
26.5600,0.08,0.13,-0.99,3.60,4.27,-1.22
26.5830,0.07,0.12,-0.99,3.30,4.46,-1.71
26.5980,0.08,0.12,-0.99,3.42,4.64,-2.81
26.6020,0.08,0.12,-0.99,3.36,4.39,-2.87
26.6180,0.08,0.12,-0.99,3.42,4.70,-2.20
26.6360,0.08,0.11,-1.00,3.42,4.33,-2.01
26.6620,0.08,0.10,-0.99,3.30,4.52,-1.28
26.6690,0.07,0.11,-1.00,3.30,4.03,-0.43
26.6930,0.07,0.10,-1.00,3.36,4.15,-0.06
26.7080,0.08,0.11,-1.00,3.05,3.91,0.73
26.7190,0.08,0.11,-1.00,2.99,3.91,1.59
26.7340,0.08,0.11,-0.99,3.11,3.66,1.95
26.7560,0.08,0.11,-0.99,3.17,3.97,2.08
26.7710,0.08,0.11,-0.99,3.54,3.72,2.26
26.7760,0.08,0.11,-0.99,3.36,3.78,2.26
26.7980,0.08,0.11,-0.99,3.30,3.97,2.08
26.8130,0.08,0.11,-1.00,3.11,3.85,2.32
26.8290,0.07,0.10,-1.00,3.11,3.60,2.75
26.8470,0.08,0.12,-0.99,2.93,3.48,4.58
26.8630,0.08,0.11,-0.99,2.81,3.42,4.27
26.8790,0.08,0.12,-0.99,2.93,3.30,3.97
26.8940,0.08,0.11,-1.00,2.87,3.60,3.78
26.9100,0.08,0.10,-1.00,2.93,3.23,4.15
26.9250,0.08,0.11,-1.00,3.05,3.11,5.25
26.9400,0.08,0.12,-1.00,2.75,3.30,5.13
26.9550,0.08,0.12,-0.99,2.75,3.54,4.15
26.9630,0.08,0.11,-1.00,2.81,3.48,3.48
26.9780,0.08,0.11,-1.00,3.05,3.42,3.11
27.0000,0.08,0.12,-0.99,2.81,3.66,3.72
27.0160,0.08,0.11,-1.00,2.99,3.60,3.60
27.0180,0.07,0.12,-0.99,2.93,3.17,3.78
27.0480,0.07,0.12,-0.99,2.93,3.66,3.66
27.0520,0.08,0.11,-1.00,2.87,3.60,3.36
27.0800,0.08,0.13,-0.99,2.99,3.54,2.75
27.0850,0.08,0.13,-0.99,2.93,3.85,2.62
27.1120,0.08,0.12,-0.99,2.81,3.54,2.01
27.1190,0.07,0.11,-0.99,2.56,3.91,2.08
27.1430,0.06,0.12,-0.99,3.05,3.66,2.32
27.1570,0.08,0.12,-0.99,2.93,3.48,2.44
27.1680,0.08,0.11,-1.00,2.87,3.78,2.08
27.1870,0.08,0.11,-0.99,3.23,3.91,1.65
27.2020,0.08,0.11,-0.99,2.93,3.78,1.40
27.2180,0.08,0.11,-0.99,3.11,3.85,1.53
27.2190,0.08,0.11,-1.00,2.99,3.97,1.65
27.2500,0.08,0.11,-0.99,3.17,3.91,1.89
27.2520,0.07,0.12,-1.00,3.17,4.03,1.95
27.2820,0.08,0.12,-0.99,2.93,4.33,1.95
27.2980,0.08,0.12,-0.99,3.17,3.72,0.98
27.3140,0.08,0.11,-0.99,3.23,3.91,0.73
27.3180,0.08,0.11,-0.99,3.23,3.54,0.98
27.3340,0.07,0.12,-0.99,3.05,4.21,1.34
27.3590,0.07,0.12,-1.00,3.05,4.15,1.22
27.3760,0.08,0.11,-1.00,3.11,3.66,1.28
27.3920,0.09,0.11,-0.99,3.05,4.09,1.59
27.4060,0.08,0.11,-0.99,3.30,4.15,2.14
27.4090,0.08,0.12,-0.99,3.05,3.91,2.50
27.4250,0.08,0.12,-0.99,3.11,3.66,2.56
27.4500,0.07,0.12,-0.99,3.17,3.48,2.56
27.4650,0.07,0.12,-0.99,2.99,3.72,2.50
27.4810,0.09,0.12,-0.99,3.05,3.66,2.38
27.4980,0.09,0.11,-0.99,3.11,4.03,2.38
27.4990,0.08,0.11,-0.99,3.17,3.72,2.20
27.5300,0.08,0.11,-1.00,3.11,3.66,2.20
27.5450,0.08,0.11,-1.00,2.81,3.66,2.38
27.5490,0.07,0.12,-1.00,2.87,3.66,2.20
27.5650,0.07,0.12,-0.99,2.99,3.91,2.26
27.5810,0.07,0.12,-0.99,3.11,3.72,2.20
27.5990,0.07,0.12,-0.99,3.05,3.85,2.01
27.6170,0.08,0.11,-0.99,3.05,3.72,1.83
27.6340,0.09,0.11,-0.99,3.17,3.97,1.77
27.6520,0.09,0.11,-0.99,2.81,3.72,1.89
27.6670,0.07,0.11,-0.99,3.05,3.78,1.95
27.6830,0.08,0.11,-0.99,2.93,4.09,2.20
27.6990,0.08,0.11,-1.00,3.11,3.66,2.32
27.7140,0.09,0.11,-0.99,2.87,3.85,2.26
27.7300,0.08,0.11,-0.99,2.81,3.91,2.14
27.7460,0.08,0.11,-0.99,2.99,3.85,2.26
27.7500,0.08,0.11,-0.99,2.93,3.66,2.26
27.7660,0.08,0.11,-0.99,2.99,4.09,2.14
27.7910,0.08,0.11,-0.99,3.11,3.78,2.32
27.8070,0.08,0.12,-0.99,3.17,3.85,2.01
27.8230,0.08,0.12,-1.00,3.11,3.48,2.08
27.8390,0.08,0.12,-0.99,3.30,3.85,2.14
27.8420,0.08,0.11,-1.00,3.23,3.60,2.14
27.8710,0.08,0.12,-0.99,2.99,3.66,2.14
27.8740,0.08,0.11,-0.99,3.30,3.60,2.01
27.8990,0.08,0.11,-0.99,2.99,3.85,1.95
27.9120,0.08,0.12,-0.99,3.30,3.66,2.01
27.9290,0.08,0.11,-1.00,2.99,3.66,2.08
27.9450,0.08,0.11,-0.99,2.99,3.60,2.08
27.9610,0.08,0.11,-0.99,3.30,3.66,2.14
27.9780,0.08,0.12,-0.99,2.99,3.85,2.14
27.9940,0.08,0.12,-1.00,3.05,3.78,2.01
28.0110,0.08,0.12,-1.00,2.87,3.85,2.08
28.0280,0.08,0.12,-0.99,2.99,3.60,2.08
28.0430,0.08,0.12,-0.99,2.93,3.66,2.01
28.0600,0.08,0.11,-0.99,2.87,3.85,2.20
28.0770,0.08,0.11,-0.99,2.87,3.97,2.08
28.0920,0.08,0.11,-1.00,3.17,3.85,2.20
28.0990,0.08,0.11,-1.00,3.23,3.48,2.01
28.1110,0.08,0.11,-0.99,2.93,4.15,2.20
28.1370,0.08,0.11,-0.99,3.30,3.91,2.20
28.1530,0.08,0.11,-0.99,3.36,3.54,2.14
28.1690,0.08,0.11,-0.99,3.30,3.60,2.08
28.1840,0.08,0.12,-1.00,3.23,4.03,2.08
28.2000,0.08,0.12,-0.99,2.99,3.85,2.26
28.2160,0.08,0.12,-0.99,3.17,3.91,2.32
28.2320,0.08,0.11,-1.00,3.17,3.66,2.20
28.2370,0.08,0.12,-0.99,2.99,3.72,2.08
28.2530,0.08,0.12,-1.00,3.05,4.09,2.20
28.2780,0.08,0.12,-1.00,3.17,3.72,2.08
28.2930,0.08,0.11,-0.99,2.99,3.66,2.08
28.3090,0.08,0.12,-0.99,3.11,3.48,2.08
28.3110,0.08,0.11,-0.99,2.99,4.03,2.26
28.3280,0.08,0.12,-1.00,2.93,3.78,1.89
28.3540,0.08,0.12,-0.99,2.99,3.78,2.08
28.3610,0.08,0.12,-0.99,3.05,3.60,2.01
28.3780,0.08,0.12,-0.99,3.17,3.60,2.14
28.3950,0.08,0.12,-0.99,2.99,3.78,2.01
28.4120,0.08,0.11,-0.99,3.17,3.54,1.95
28.4280,0.08,0.11,-0.99,3.23,3.72,2.08
28.4440,0.08,0.11,-0.99,2.99,3.72,1.83
28.4590,0.08,0.11,-1.00,3.17,3.91,2.08
28.4740,0.08,0.12,-0.99,2.93,3.72,2.14
28.4890,0.08,0.11,-0.99,3.05,3.91,2.20
28.5040,0.08,0.11,-0.99,2.87,3.78,2.14
28.5120,0.08,0.11,-0.99,2.93,4.09,1.89
28.5340,0.08,0.11,-0.99,2.93,3.48,2.14
28.5460,0.08,0.12,-1.00,3.36,3.85,2.14
28.5610,0.08,0.12,-0.99,3.30,4.15,2.20
28.5790,0.08,0.11,-0.99,3.17,3.78,2.20
28.5940,0.08,0.11,-0.99,2.93,3.66,2.08
28.6000,0.08,0.12,-1.00,2.62,3.78,2.08
28.6260,0.08,0.11,-0.99,3.36,3.78,2.08
28.6290,0.08,0.11,-0.99,3.60,3.60,2.08
28.6560,0.07,0.11,-0.99,3.97,3.54,2.01
28.6640,0.08,0.11,-0.99,2.69,4.09,2.14
28.6800,0.08,0.11,-1.00,3.05,3.97,2.08
28.7000,0.08,0.11,-0.99,3.17,3.60,2.14
28.7150,0.08,0.12,-0.99,2.99,3.91,2.14
28.7300,0.08,0.12,-0.99,3.05,3.97,2.14
28.7300,0.08,0.12,-0.99,3.17,3.72,2.14
28.7480,0.08,0.12,-1.00,3.17,3.78,2.08
28.7650,0.08,0.12,-0.99,3.17,3.72,2.08
28.7820,0.08,0.12,-0.99,2.99,3.97,2.14
28.8000,0.08,0.12,-0.99,3.05,3.72,2.26
28.8140,0.08,0.12,-0.99,3.11,3.97,2.01
28.8300,0.08,0.12,-0.99,3.11,3.97,2.20
28.8460,0.08,0.12,-0.99,3.17,3.48,2.08
28.8660,0.08,0.12,-1.00,3.05,3.91,2.26
28.8820,0.08,0.12,-0.99,2.99,3.66,2.20
28.8850,0.08,0.11,-0.99,3.23,3.97,2.08
28.9010,0.08,0.12,-1.00,3.05,3.72,2.26
28.9170,0.08,0.12,-1.00,3.17,3.42,2.08
28.9400,0.08,0.12,-1.00,3.17,3.85,2.01
28.9570,0.08,0.12,-0.99,3.11,3.97,2.26
28.9740,0.08,0.12,-1.00,3.05,3.91,2.32
28.9900,0.08,0.11,-0.99,3.11,3.91,2.08
29.0050,0.08,0.11,-0.99,3.23,3.78,2.20
29.0220,0.08,0.11,-1.00,3.05,3.72,2.20
29.0370,0.08,0.11,-1.00,3.17,3.66,2.14
29.0410,0.07,0.11,-0.99,3.17,3.78,2.20
29.0560,0.07,0.11,-1.00,3.05,3.97,2.38
29.0810,0.08,0.11,-1.00,3.05,3.97,2.20
29.0990,0.08,0.11,-0.99,3.17,3.85,2.20
29.1140,0.08,0.12,-0.99,2.93,3.78,2.14
29.1300,0.08,0.12,-0.99,3.23,3.97,2.20
29.1310,0.08,0.12,-0.99,2.93,3.60,2.08
29.1620,0.08,0.12,-0.99,2.87,3.60,2.14
29.1640,0.08,0.12,-0.99,3.05,3.97,2.26
29.1940,0.08,0.12,-1.00,2.81,4.03,2.14
29.2010,0.08,0.11,-0.99,2.69,3.97,2.14
29.2140,0.08,0.11,-0.99,2.69,3.85,2.08
29.2400,0.08,0.11,-1.00,2.75,4.03,2.08
29.2480,0.08,0.11,-1.00,2.87,3.54,2.01
29.2650,0.08,0.11,-0.99,2.75,3.78,1.95
29.2820,0.08,0.11,-1.00,2.93,3.91,2.08
29.3010,0.07,0.11,-0.99,2.87,4.09,2.01
29.3160,0.08,0.11,-1.00,3.30,3.60,2.20
29.3310,0.08,0.11,-1.00,2.99,4.03,2.14
29.3470,0.08,0.11,-0.99,2.93,3.48,2.08
29.3640,0.07,0.11,-0.99,2.81,3.48,2.08
29.3800,0.07,0.12,-1.00,3.05,3.60,2.20
29.3820,0.08,0.11,-0.99,2.99,3.85,2.20
29.4120,0.08,0.11,-0.99,3.17,3.60,2.26
29.4150,0.08,0.12,-1.00,2.99,3.85,2.01
29.4440,0.07,0.11,-0.99,2.87,3.85,2.01
29.4540,0.07,0.11,-0.99,3.23,3.72,2.14
29.4710,0.07,0.11,-1.00,3.05,3.54,2.14
29.4870,0.08,0.11,-1.00,2.87,3.72,2.20
29.5050,0.08,0.11,-0.99,2.87,3.72,2.01
29.5090,0.08,0.11,-0.99,2.99,3.78,2.01
29.5350,0.07,0.11,-1.00,3.05,3.72,2.20
29.5420,0.07,0.11,-0.99,2.75,3.97,2.26
29.5660,0.08,0.11,-0.99,3.17,3.60,2.20
29.5810,0.08,0.11,-0.99,3.23,3.78,2.26
29.5910,0.08,0.11,-1.00,2.93,3.78,2.26
29.6070,0.08,0.11,-0.99,3.36,3.78,2.14
29.6270,0.08,0.12,-0.99,2.99,3.85,2.26
29.6310,0.08,0.12,-1.00,2.99,3.85,2.20
29.6570,0.08,0.12,-1.00,2.93,3.60,2.01
29.6650,0.08,0.11,-0.99,2.99,3.72,2.20
29.6810,0.08,0.11,-1.00,3.23,3.91,2.01
29.7010,0.08,0.11,-0.99,2.99,3.78,2.14
29.7170,0.08,0.11,-0.99,3.05,4.03,2.08
29.7320,0.07,0.11,-1.00,2.75,4.09,2.20
29.7490,0.08,0.11,-1.00,3.05,3.91,2.26
29.7650,0.08,0.11,-0.99,2.87,4.09,2.26
29.7810,0.08,0.11,-0.99,3.23,3.60,2.14
29.7820,0.08,0.11,-1.00,2.93,4.03,2.20
29.8130,0.08,0.11,-1.00,3.05,3.72,2.20
29.8290,0.08,0.12,-0.99,2.99,3.66,2.08
29.8320,0.08,0.11,-0.99,2.87,3.91,1.95
29.8480,0.08,0.11,-1.00,2.93,3.60,2.14
29.8720,0.08,0.11,-0.99,2.93,3.85,2.14
29.8880,0.08,0.11,-0.99,2.99,3.60,2.14
29.9050,0.08,0.11,-1.00,3.23,3.91,2.01
29.9210,0.08,0.11,-0.99,3.05,3.72,2.01
29.9360,0.08,0.11,-1.00,3.05,4.09,2.26
29.9520,0.08,0.11,-0.99,3.05,3.54,2.26
29.9550,0.08,0.11,-0.99,2.99,3.97,2.20
29.9710,0.08,0.11,-1.00,2.93,3.72,2.26
29.9950,0.08,0.11,-0.99,3.36,3.85,2.20
30.0110,0.08,0.11,-1.00,2.99,3.54,2.26
30.0290,0.08,0.11,-0.99,2.99,3.85,2.14
30.0450,0.08,0.11,-0.99,3.17,3.97,2.08
30.0610,0.08,0.11,-1.00,3.11,4.21,2.08
30.0780,0.08,0.12,-1.00,3.17,3.72,2.08
30.0930,0.08,0.12,-0.99,3.30,4.39,2.20
30.1090,0.08,0.11,-0.99,2.87,3.91,2.20
30.1250,0.08,0.11,-0.99,3.05,3.72,2.20
30.1280,0.08,0.11,-0.99,3.11,3.60,2.20
30.1440,0.08,0.11,-0.99,3.05,3.54,2.01
30.1700,0.07,0.11,-0.99,3.11,3.66,2.08
30.1860,0.07,0.11,-1.00,2.99,3.72,2.32
30.2030,0.08,0.11,-1.00,2.93,4.09,2.26
30.2040,0.08,0.11,-0.99,3.05,3.85,1.95
30.2350,0.08,0.11,-0.99,3.17,3.91,2.20
30.2510,0.08,0.12,-0.99,2.99,4.03,2.08
30.2670,0.08,0.12,-1.00,3.05,3.72,2.08
30.2830,0.08,0.12,-0.99,3.05,3.72,2.32
30.2870,0.08,0.12,-0.99,2.87,3.78,2.26
30.3150,0.08,0.11,-0.99,2.99,3.91,2.14
30.3310,0.08,0.11,-0.99,2.99,4.03,2.14
30.3360,0.08,0.11,-0.99,2.87,3.91,2.32
30.3530,0.08,0.11,-1.00,3.17,3.78,2.14
30.3700,0.08,0.11,-1.00,2.99,3.85,2.14
30.3860,0.08,0.11,-0.99,2.93,3.42,2.08
30.4070,0.08,0.11,-1.00,3.11,3.54,1.95
30.4220,0.08,0.11,-0.99,3.23,3.60,2.14
30.4370,0.08,0.11,-0.99,2.99,3.97,2.14
30.4530,0.08,0.11,-1.00,3.05,3.66,2.20
30.4690,0.08,0.12,-0.99,3.11,3.54,2.20
30.4840,0.08,0.12,-0.99,3.05,3.78,2.01
30.5000,0.08,0.11,-0.99,2.99,3.85,2.08
30.5150,0.08,0.11,-1.00,2.69,3.85,2.20
30.5250,0.08,0.12,-0.99,3.11,3.72,2.08
30.5420,0.08,0.11,-0.99,3.05,3.97,2.08
30.5580,0.08,0.11,-0.99,3.05,3.97,2.14
30.5750,0.08,0.11,-1.00,3.05,3.66,2.26
30.5920,0.08,0.11,-1.00,3.05,3.91,2.20
30.6070,0.08,0.11,-1.00,2.99,4.03,2.26
30.6230,0.08,0.11,-1.00,2.87,3.91,2.14
30.6380,0.08,0.11,-0.99,3.36,3.91,2.14
30.6420,0.08,0.11,-1.00,3.11,3.60,2.14
30.6570,0.08,0.11,-0.99,3.11,3.60,2.20
30.6810,0.08,0.12,-0.99,2.99,3.72,2.14
30.6990,0.08,0.12,-0.99,3.11,3.54,2.14
30.7130,0.08,0.12,-1.00,2.99,3.85,2.01
30.7310,0.08,0.12,-0.99,3.05,3.85,2.20
30.7470,0.08,0.12,-0.99,2.99,3.60,2.14
30.7620,0.08,0.11,-0.99,3.30,3.66,2.20
30.7640,0.08,0.11,-1.00,3.05,3.78,2.01
30.7810,0.08,0.11,-0.99,3.17,3.91,2.20
30.8020,0.08,0.11,-1.00,3.05,3.85,2.14
30.8140,0.08,0.11,-1.00,2.93,3.72,2.20
30.8370,0.08,0.11,-1.00,2.99,3.78,2.01
30.8540,0.08,0.11,-1.00,3.17,3.48,2.14
30.8700,0.08,0.11,-1.00,3.11,3.97,2.20
30.8860,0.08,0.11,-0.99,2.99,3.85,2.01
30.9020,0.08,0.12,-0.99,3.17,3.66,2.08
30.9180,0.08,0.12,-0.99,3.17,3.78,2.14
30.9340,0.08,0.12,-1.00,2.99,3.30,2.08
30.9500,0.08,0.12,-1.00,3.05,3.85,2.08
30.9660,0.08,0.12,-0.99,3.30,3.97,2.20
30.9830,0.08,0.12,-0.99,3.11,3.72,2.14
30.9980,0.08,0.11,-1.00,2.93,3.72,2.08
31.0140,0.08,0.11,-0.99,2.87,4.21,2.08
31.0210,0.08,0.11,-1.00,3.17,3.78,2.14
31.0440,0.08,0.11,-1.00,3.11,3.66,2.26
31.0540,0.07,0.11,-1.00,3.17,3.85,2.20
31.0710,0.08,0.11,-0.99,3.05,4.03,1.95
31.0860,0.08,0.11,-0.99,3.23,3.36,2.01
31.1050,0.08,0.11,-0.99,3.23,3.54,2.08
31.1080,0.08,0.11,-0.99,3.11,3.66,2.20
31.1360,0.08,0.12,-0.99,2.87,4.15,2.14
31.1520,0.08,0.12,-1.00,3.11,4.03,2.14
31.1580,0.08,0.12,-1.00,3.11,3.78,2.14
31.1740,0.08,0.12,-0.99,2.81,4.03,2.08
31.1940,0.08,0.12,-1.00,2.99,3.91,2.20
31.2110,0.08,0.12,-0.99,3.05,3.72,2.20
31.2260,0.08,0.11,-1.00,3.11,3.78,2.14
31.2440,0.08,0.11,-1.00,3.11,3.91,2.08
31.2600,0.08,0.11,-1.00,3.11,3.66,2.08
31.2610,0.08,0.11,-1.00,2.87,3.97,2.08
31.2920,0.08,0.11,-1.00,3.17,3.78,2.20
31.3030,0.08,0.11,-1.00,3.11,3.48,2.26
31.3240,0.08,0.11,-0.99,3.11,3.78,2.26
31.3270,0.08,0.12,-1.00,2.81,4.09,2.20
31.3430,0.08,0.12,-1.00,2.81,3.85,2.20
31.3670,0.08,0.12,-0.99,3.17,3.60,2.14
31.3830,0.08,0.12,-0.99,2.93,3.85,2.01
31.4010,0.08,0.12,-0.99,2.99,4.09,2.14
31.4170,0.08,0.12,-0.99,2.99,3.66,2.14
31.4340,0.08,0.11,-0.99,2.93,3.91,2.08
31.4490,0.08,0.11,-0.99,3.05,3.78,2.14
31.4660,0.08,0.11,-1.00,3.11,3.78,2.08
31.4820,0.08,0.11,-1.00,3.05,3.91,2.26
31.4980,0.08,0.11,-0.99,3.11,3.60,2.14
31.5140,0.08,0.11,-0.99,3.23,3.78,2.26
31.5290,0.08,0.11,-0.99,2.93,3.60,2.14
31.5450,0.08,0.11,-0.99,3.17,3.85,2.20
31.5600,0.08,0.11,-0.99,3.11,3.97,2.20
31.5670,0.08,0.11,-0.99,3.23,3.91,2.20
31.5820,0.08,0.12,-0.99,3.05,3.66,2.32
31.6060,0.08,0.12,-0.99,3.17,3.78,2.14
31.6220,0.08,0.12,-0.99,2.99,4.15,2.08
31.6370,0.08,0.11,-1.00,3.17,3.66,2.14
31.6530,0.08,0.11,-1.00,2.99,4.09,2.14
31.6550,0.08,0.11,-0.99,2.87,3.60,2.20
31.6710,0.08,0.11,-0.99,2.99,3.48,2.26
31.6950,0.08,0.11,-1.00,3.11,3.66,2.26
31.7120,0.08,0.11,-0.99,3.11,3.97,2.14
31.7280,0.08,0.11,-0.99,2.99,3.72,2.01
31.7450,0.08,0.11,-1.00,3.36,3.72,2.14
31.7610,0.08,0.11,-1.00,3.05,3.78,2.14
31.7760,0.08,0.12,-0.99,3.11,3.91,2.26
31.7920,0.08,0.12,-0.99,3.05,3.72,2.26
31.8040,0.08,0.12,-0.99,2.99,3.85,2.20
31.8100,0.08,0.12,-0.99,2.99,3.72,2.14
31.8340,0.08,0.11,-0.99,3.05,3.78,2.20
31.8510,0.08,0.11,-1.00,2.99,4.15,2.14
31.8680,0.08,0.11,-0.99,2.99,3.97,2.14
31.8850,0.08,0.11,-0.99,2.75,3.91,2.20
31.9010,0.08,0.11,-0.99,2.99,3.85,2.32
31.9170,0.08,0.11,-0.99,3.11,3.91,2.20
31.9330,0.08,0.11,-0.99,2.99,3.78,2.14
31.9350,0.08,0.11,-0.99,3.17,3.60,2.14
31.9640,0.08,0.11,-0.99,3.11,3.66,2.14
31.9670,0.08,0.11,-0.99,3.05,3.91,2.32
31.9970,0.08,0.11,-0.99,2.93,4.21,2.32
32.0140,0.08,0.11,-0.99,3.23,3.72,2.14
32.0280,0.08,0.11,-0.99,3.17,3.78,2.14
32.0440,0.08,0.11,-0.99,3.11,3.85,2.14
32.0520,0.08,0.12,-1.00,2.99,3.72,2.14
32.0670,0.08,0.11,-0.99,3.11,3.72,2.08
32.0900,0.08,0.11,-1.00,2.93,3.97,2.01
32.1060,0.08,0.11,-0.99,3.05,3.66,2.14
32.1210,0.08,0.11,-0.99,3.05,3.78,2.26
32.1350,0.08,0.11,-0.99,3.05,3.72,2.20
32.1520,0.08,0.11,-1.00,3.23,3.66,2.26
32.1670,0.08,0.11,-0.99,3.11,3.78,2.14
32.1830,0.08,0.11,-1.00,3.11,3.66,2.08
32.1920,0.08,0.11,-0.99,3.17,4.03,2.26
32.2080,0.08,0.11,-0.99,3.23,3.66,2.08
32.2280,0.08,0.11,-1.00,2.87,4.03,2.20
32.2310,0.08,0.11,-0.99,2.99,3.78,2.08
32.2480,0.08,0.11,-0.99,3.05,3.72,2.08
32.2640,0.08,0.11,-0.99,3.05,3.78,2.20
32.2790,0.08,0.11,-0.99,2.93,4.21,2.26
32.3060,0.08,0.11,-0.99,2.81,3.72,2.20
32.3170,0.08,0.11,-0.99,3.17,3.72,2.08
32.3340,0.08,0.11,-0.99,2.99,3.91,2.14
32.3500,0.08,0.11,-1.00,2.99,3.78,2.14
32.3670,0.08,0.11,-0.99,3.11,3.91,2.14
32.3830,0.08,0.11,-0.99,2.99,3.66,2.20
32.3990,0.08,0.11,-1.00,3.23,3.42,2.14
32.4040,0.08,0.11,-0.99,3.11,3.85,2.14
32.4170,0.08,0.11,-1.00,3.05,3.78,2.20
32.4340,0.08,0.11,-0.99,3.17,3.54,2.14
32.4500,0.08,0.11,-0.99,3.11,3.78,2.20
32.4660,0.08,0.11,-0.99,3.05,4.15,2.01
32.4930,0.08,0.11,-0.99,3.11,3.85,2.08
32.5050,0.08,0.11,-1.00,3.11,3.91,2.20
32.5200,0.08,0.11,-1.00,2.99,3.91,2.08
32.5370,0.08,0.11,-0.99,2.93,3.97,2.14
32.5540,0.08,0.11,-0.99,3.05,3.66,2.08
32.5690,0.08,0.11,-0.99,3.23,4.03,2.01
32.5710,0.08,0.11,-1.00,3.05,3.97,2.08
32.6000,0.08,0.11,-1.00,3.11,3.97,2.26
32.6160,0.08,0.11,-1.00,3.17,3.78,2.14
32.6310,0.08,0.11,-0.99,3.23,4.03,2.20
32.6480,0.08,0.11,-0.99,2.93,3.91,2.20
32.6540,0.08,0.11,-0.99,3.11,3.17,2.14
32.6700,0.08,0.11,-0.99,2.87,3.85,2.20
32.6860,0.08,0.11,-1.00,3.05,3.78,2.20
32.7050,0.08,0.11,-0.99,3.11,3.91,2.08
32.7170,0.08,0.11,-1.00,2.99,3.66,2.26
32.7360,0.08,0.11,-0.99,2.99,4.03,2.01
32.7530,0.08,0.11,-1.00,2.99,3.72,2.08
32.7700,0.08,0.11,-0.99,3.17,3.91,2.20
32.7860,0.08,0.11,-1.00,2.81,3.85,2.14
32.8010,0.08,0.11,-1.00,2.99,4.09,2.08
32.8170,0.08,0.11,-0.99,2.99,3.72,2.20
32.8340,0.08,0.11,-0.99,3.23,3.97,2.26
32.8490,0.08,0.11,-0.99,2.99,3.85,2.20
32.8540,0.08,0.11,-0.99,2.93,3.36,2.20
32.8690,0.08,0.11,-0.99,3.11,3.60,2.01
32.8940,0.08,0.11,-0.99,3.17,3.72,2.08
32.9090,0.08,0.11,-0.99,3.17,3.85,2.26
32.9260,0.08,0.11,-0.99,3.17,3.78,2.08
32.9420,0.08,0.11,-0.99,3.17,3.66,2.20
32.9580,0.08,0.11,-1.00,3.30,3.78,2.32
32.9750,0.08,0.11,-0.99,3.05,3.85,2.20
32.9900,0.08,0.11,-0.99,2.99,3.66,2.26
33.0060,0.08,0.11,-0.99,3.05,3.66,2.26
33.0210,0.08,0.11,-1.00,3.11,3.97,2.20
33.0270,0.08,0.11,-1.00,3.23,3.97,2.20
33.0500,0.08,0.11,-0.99,3.05,3.97,2.08
33.0610,0.08,0.11,-1.00,3.11,3.85,2.01
33.0770,0.08,0.11,-1.00,3.17,3.72,2.14
33.0940,0.08,0.11,-0.99,2.93,3.85,2.14
33.1110,0.08,0.11,-0.99,3.05,4.03,2.14
33.1280,0.08,0.12,-0.99,3.05,3.91,2.32
33.1430,0.08,0.11,-0.99,3.05,3.60,2.08
33.1590,0.08,0.11,-1.00,3.17,3.91,2.14
33.1740,0.08,0.11,-0.99,3.05,4.03,2.14
33.1890,0.08,0.11,-0.99,3.05,4.03,2.20
33.2030,0.08,0.11,-0.99,3.11,3.78,2.20
33.2180,0.08,0.11,-1.00,3.11,3.54,2.26
33.2270,0.08,0.11,-1.00,3.11,3.85,2.26
33.2430,0.08,0.11,-0.99,3.17,3.72,2.14
33.2650,0.08,0.11,-0.99,2.87,4.09,2.14
33.2670,0.08,0.11,-0.99,3.17,3.78,2.20
33.2960,0.08,0.11,-0.99,3.17,3.91,2.38
33.3050,0.08,0.11,-0.99,3.11,3.85,2.14
33.3180,0.08,0.12,-1.00,2.99,3.91,2.01
33.3350,0.08,0.11,-0.99,2.99,3.66,2.32
33.3510,0.08,0.11,-0.99,2.93,3.85,2.01
33.3670,0.08,0.11,-0.99,3.05,3.60,2.01
33.3850,0.08,0.11,-0.99,3.23,4.09,2.20
33.4000,0.08,0.11,-1.00,2.93,3.97,2.01
33.4180,0.08,0.11,-0.99,3.17,4.09,2.20
33.4340,0.08,0.11,-0.99,3.05,3.91,2.08
33.4490,0.08,0.11,-0.99,3.05,3.60,2.26
33.4660,0.08,0.11,-0.99,2.99,3.97,2.14
33.4670,0.08,0.11,-1.00,2.99,3.66,2.14
33.4980,0.08,0.11,-0.99,3.05,3.60,2.01
33.5060,0.08,0.11,-1.00,2.99,3.78,2.20
33.5160,0.08,0.11,-1.00,2.87,3.85,2.14
33.5310,0.08,0.11,-0.99,3.05,3.72,2.20
33.5470,0.08,0.11,-0.99,3.05,4.03,2.26
33.5750,0.08,0.11,-0.99,2.99,3.97,2.14
33.5790,0.08,0.11,-1.00,3.05,3.72,2.20
33.6060,0.08,0.11,-0.99,2.99,3.54,2.32
33.6110,0.08,0.11,-1.00,3.17,3.72,2.14
33.6340,0.08,0.11,-1.00,2.99,4.03,2.14
33.6510,0.08,0.11,-1.00,3.17,3.78,2.08
33.6680,0.08,0.11,-0.99,2.99,3.91,2.01
33.6850,0.08,0.11,-1.00,2.93,3.97,2.26
33.7010,0.08,0.11,-0.99,2.93,3.91,2.26
33.7160,0.08,0.11,-1.00,3.17,3.72,2.14
33.7330,0.08,0.11,-0.99,2.99,3.72,2.14
33.7490,0.08,0.11,-1.00,3.11,3.91,2.26
33.7500,0.08,0.11,-0.99,3.23,3.78,2.14
33.7810,0.08,0.11,-0.99,2.99,3.91,2.08
33.7830,0.08,0.11,-1.00,2.93,3.78,2.14
33.8060,0.08,0.11,-1.00,2.93,3.72,2.08
33.8230,0.08,0.11,-1.00,3.11,4.09,2.20
33.8400,0.08,0.11,-0.99,3.17,3.66,2.14
33.8560,0.08,0.11,-1.00,2.93,3.78,2.20
33.8730,0.08,0.11,-1.00,2.99,3.78,2.08
33.8900,0.08,0.11,-0.99,2.87,3.54,2.08
33.9050,0.08,0.11,-0.99,2.99,3.85,2.14
33.9200,0.08,0.12,-1.00,2.99,3.85,2.38
33.9360,0.08,0.11,-0.99,3.05,3.66,2.26
33.9400,0.08,0.11,-1.00,2.99,3.85,2.08
33.9550,0.08,0.11,-0.99,3.17,3.72,2.20
33.9800,0.08,0.11,-0.99,2.93,3.85,2.20
33.9980,0.08,0.11,-0.99,3.05,3.91,2.26
34.0130,0.08,0.11,-0.99,2.99,3.72,2.08
34.0300,0.08,0.11,-1.00,3.23,3.91,2.20
34.0310,0.08,0.11,-0.99,3.17,3.48,2.01
34.0610,0.08,0.11,-0.99,3.17,3.91,2.01
34.0640,0.08,0.11,-1.00,3.11,3.72,2.01
34.0800,0.07,0.11,-1.00,3.11,3.60,2.14
34.1070,0.08,0.11,-0.99,3.11,3.60,2.20
34.1190,0.08,0.11,-0.99,2.99,3.85,2.14
34.1360,0.08,0.11,-0.99,3.05,3.72,2.20
34.1530,0.08,0.11,-0.99,3.11,4.09,2.14
34.1680,0.08,0.11,-0.99,2.99,3.60,2.08
34.1850,0.08,0.12,-1.00,2.93,3.72,2.01
34.2010,0.08,0.11,-0.99,3.05,3.66,2.01
34.2180,0.08,0.11,-0.99,2.99,3.85,2.08
34.2340,0.08,0.11,-1.00,3.23,3.42,2.01
34.2360,0.08,0.11,-0.99,3.11,3.42,2.08
34.2520,0.08,0.11,-1.00,3.05,3.85,2.14
34.2690,0.08,0.11,-0.99,3.11,3.91,2.08
34.2850,0.08,0.11,-1.00,3.17,3.66,2.08
34.3080,0.08,0.11,-0.99,2.99,3.72,2.20
34.3180,0.08,0.11,-0.99,3.23,3.54,2.01
34.3420,0.08,0.11,-1.00,3.17,3.97,2.01
34.3570,0.08,0.11,-1.00,3.11,3.66,2.20
34.3750,0.08,0.12,-0.99,2.99,3.72,2.26
34.3910,0.08,0.11,-0.99,3.11,3.60,2.20
34.4080,0.08,0.11,-0.99,2.99,3.91,2.32
34.4240,0.08,0.11,-0.99,3.05,3.78,2.14
34.4400,0.08,0.11,-0.99,3.30,3.60,2.08
34.4540,0.08,0.11,-0.99,2.93,3.72,2.20
34.4580,0.08,0.11,-1.00,3.17,3.78,2.08
34.4730,0.08,0.11,-0.99,3.11,3.66,2.08
34.4970,0.08,0.11,-1.00,3.17,3.85,2.32
34.5140,0.08,0.11,-1.00,3.11,3.60,2.38
34.5310,0.08,0.11,-0.99,3.11,3.78,1.95
34.5460,0.08,0.11,-1.00,3.42,3.60,2.14
34.5630,0.08,0.11,-1.00,3.17,4.21,2.14
34.5640,0.08,0.11,-0.99,2.99,3.78,2.01
34.5810,0.08,0.11,-0.99,2.99,3.66,2.20
34.6100,0.08,0.11,-1.00,2.99,3.66,2.14
34.6130,0.08,0.12,-0.99,2.93,3.66,2.32
34.6310,0.08,0.12,-0.99,3.11,4.03,2.14
34.6470,0.08,0.11,-0.99,3.17,3.97,2.08
34.6710,0.08,0.11,-0.99,3.23,3.91,1.89
34.6800,0.08,0.11,-0.99,3.23,3.85,2.08
34.6960,0.08,0.11,-0.99,3.17,3.85,2.08
34.7190,0.08,0.11,-0.99,3.11,4.15,2.20
34.7350,0.08,0.11,-1.00,3.17,4.03,2.14
34.7510,0.08,0.11,-0.99,3.30,4.21,2.26
34.7530,0.08,0.11,-0.99,3.05,3.85,2.26
34.7830,0.08,0.11,-0.99,3.30,3.60,2.20
34.7870,0.08,0.11,-0.99,3.17,3.72,2.20
34.8150,0.08,0.12,-0.99,3.23,3.30,2.08
34.8310,0.08,0.12,-0.99,3.17,4.03,2.26
34.8360,0.08,0.12,-0.99,3.23,4.09,2.08
34.8520,0.08,0.11,-0.99,3.17,4.09,2.08
34.8760,0.08,0.11,-1.00,3.11,3.85,2.08
34.8920,0.08,0.11,-0.99,3.05,3.54,2.26
34.9090,0.08,0.11,-0.99,3.05,4.09,2.14
34.9240,0.08,0.11,-0.99,3.17,3.78,2.20
34.9420,0.08,0.11,-1.00,3.11,3.54,2.20
34.9580,0.08,0.11,-0.99,3.17,4.15,2.01
34.9730,0.08,0.11,-1.00,3.11,3.97,2.20
34.9890,0.08,0.12,-1.00,3.05,3.72,2.01
35.0040,0.08,0.12,-0.99,3.23,3.91,2.20
35.0190,0.08,0.12,-0.99,3.05,3.85,2.01
35.0350,0.08,0.12,-0.99,3.11,3.78,2.20
35.0410,0.08,0.12,-0.99,3.11,3.78,2.20
35.0570,0.08,0.12,-0.99,2.87,3.66,2.08
35.0780,0.08,0.12,-0.99,3.23,3.85,2.14
35.0950,0.08,0.11,-1.00,2.93,3.72,2.08
35.1110,0.08,0.11,-0.99,3.17,3.78,2.26
35.1280,0.08,0.11,-1.00,3.30,3.48,2.26
35.1290,0.08,0.11,-1.00,2.99,3.66,2.26
35.1600,0.08,0.11,-1.00,3.23,3.97,2.14
35.1760,0.08,0.11,-1.00,3.36,3.66,2.20
35.1790,0.08,0.11,-1.00,2.93,3.78,2.01
35.1950,0.08,0.11,-1.00,3.17,3.97,2.20
35.2190,0.08,0.11,-0.99,2.93,3.85,2.14
35.2350,0.08,0.12,-0.99,2.99,3.54,2.14
35.2520,0.08,0.12,-0.99,3.11,3.54,2.20
35.2690,0.08,0.12,-0.99,3.23,3.85,2.26
35.2700,0.08,0.12,-0.99,3.23,3.72,2.14
35.3010,0.08,0.12,-1.00,3.05,3.91,2.20
35.3090,0.08,0.11,-0.99,3.17,3.97,2.01
35.3200,0.08,0.11,-1.00,3.05,3.85,2.14
35.3360,0.08,0.11,-1.00,2.99,3.85,2.08
35.3650,0.08,0.11,-1.00,3.11,3.85,2.14
35.3690,0.08,0.11,-1.00,3.05,3.78,2.01
35.3960,0.08,0.11,-0.99,3.05,3.85,2.14
35.4110,0.08,0.11,-0.99,3.17,3.91,2.08
35.4180,0.08,0.11,-0.99,3.30,3.72,2.26
35.4340,0.08,0.12,-0.99,3.36,3.54,2.14
35.4580,0.08,0.12,-0.99,3.11,3.72,2.08
35.4730,0.08,0.12,-1.00,3.17,3.97,2.26
35.4880,0.08,0.12,-0.99,3.17,4.03,2.26
35.5040,0.08,0.12,-0.99,2.81,3.54,2.08
35.5180,0.08,0.12,-0.99,2.87,3.85,2.20
35.5270,0.08,0.11,-0.99,3.05,3.72,2.08
35.5430,0.08,0.11,-1.00,3.42,3.72,2.14
35.5590,0.08,0.11,-1.00,2.81,3.78,2.14
35.5820,0.08,0.11,-1.00,2.99,3.72,2.20
35.5840,0.08,0.11,-1.00,3.05,3.72,2.20
35.6110,0.08,0.11,-1.00,3.05,3.85,2.08
35.6260,0.08,0.11,-1.00,3.30,3.42,2.08
35.6330,0.08,0.11,-0.99,3.17,4.03,1.95
35.6500,0.08,0.12,-0.99,3.11,3.66,2.14
35.6690,0.08,0.12,-0.99,3.36,3.78,2.14
35.6830,0.08,0.12,-1.00,3.17,3.91,2.14
35.7000,0.08,0.12,-0.99,2.99,4.03,2.26
35.7180,0.08,0.12,-0.99,2.99,3.78,2.20
35.7330,0.08,0.12,-1.00,3.17,3.48,2.08
35.7500,0.08,0.11,-1.00,3.11,3.66,2.08
35.7510,0.08,0.11,-0.99,2.99,3.97,2.26
35.7670,0.08,0.11,-1.00,3.05,4.15,2.14
35.7830,0.08,0.11,-1.00,3.05,3.72,2.26
35.8100,0.08,0.11,-0.99,2.87,3.72,2.14
35.8170,0.08,0.11,-1.00,3.30,3.66,2.20
35.8340,0.08,0.11,-1.00,3.23,3.72,2.08
35.8490,0.08,0.11,-1.00,3.30,3.78,2.14
35.8720,0.08,0.11,-1.00,3.30,3.72,2.14
35.8890,0.08,0.12,-0.99,2.99,4.09,2.26
35.9050,0.08,0.12,-0.99,2.99,3.85,2.20
35.9230,0.08,0.12,-0.99,2.87,4.03,2.14
35.9380,0.08,0.12,-0.99,3.05,4.03,2.20
35.9540,0.08,0.12,-0.99,3.05,3.78,2.14
35.9550,0.08,0.12,-0.99,3.17,4.03,2.08
35.9710,0.08,0.11,-0.99,3.17,3.60,2.20
35.9860,0.08,0.11,-0.99,2.81,3.54,2.01
36.0130,0.08,0.11,-0.99,3.05,3.78,2.14
36.0290,0.08,0.11,-1.00,2.99,3.97,2.08
36.0310,0.08,0.11,-1.00,3.11,3.48,2.08
36.0610,0.08,0.11,-0.99,2.99,3.78,2.20
36.0640,0.08,0.11,-1.00,2.99,3.23,2.08
36.0800,0.08,0.11,-0.99,3.05,3.72,2.14
36.0960,0.08,0.12,-0.99,3.17,3.78,2.14
36.1210,0.08,0.12,-0.99,3.30,3.97,2.26
36.1370,0.08,0.12,-0.99,3.05,3.54,2.08
36.1530,0.08,0.12,-0.99,3.11,3.48,2.26
36.1680,0.08,0.12,-1.00,3.11,3.72,2.20
36.1850,0.08,0.11,-0.99,2.99,3.42,2.01
36.2010,0.08,0.11,-1.00,3.11,3.85,2.14
36.2170,0.08,0.11,-1.00,3.17,3.72,2.26
36.2330,0.08,0.11,-1.00,3.05,3.48,2.08
36.2490,0.08,0.11,-1.00,3.23,3.42,2.14
36.2650,0.08,0.11,-1.00,3.11,3.91,2.08
36.2810,0.08,0.11,-1.00,3.05,3.91,2.32
36.2870,0.08,0.11,-1.00,3.05,3.97,2.20
36.3110,0.08,0.12,-1.00,2.99,3.54,2.08
36.3190,0.08,0.12,-0.99,3.11,3.60,2.08
36.3350,0.08,0.12,-1.00,3.11,3.85,2.20
36.3500,0.08,0.12,-0.99,3.11,3.66,2.08
36.3720,0.08,0.12,-0.99,3.05,3.66,2.26
36.3890,0.08,0.12,-1.00,3.17,3.85,2.08
36.4040,0.08,0.11,-0.99,3.05,3.66,2.08
36.4210,0.08,0.11,-1.00,3.11,3.85,2.32
36.4360,0.08,0.11,-1.00,3.11,3.36,2.26
36.4380,0.08,0.11,-0.99,3.30,3.78,2.20
36.4540,0.08,0.11,-1.00,3.23,3.42,2.08
36.4770,0.08,0.11,-1.00,3.23,3.78,2.14
36.4940,0.08,0.11,-0.99,2.93,3.66,2.20
36.5120,0.07,0.11,-1.00,3.11,4.15,2.20
36.5280,0.07,0.12,-1.00,3.05,3.66,2.26
36.5440,0.08,0.12,-0.99,3.11,3.54,2.01
36.5600,0.08,0.12,-0.99,3.05,3.85,2.14
36.5760,0.08,0.12,-0.99,3.11,3.66,2.08
36.5920,0.08,0.12,-0.99,3.05,3.72,2.01
36.6080,0.07,0.12,-0.99,2.99,3.60,2.14
36.6120,0.08,0.12,-1.00,3.05,3.66,2.14
36.6260,0.08,0.11,-1.00,3.05,3.54,2.01
36.6510,0.08,0.11,-0.99,2.99,3.85,2.20
36.6680,0.08,0.11,-0.99,3.05,3.42,2.14
36.6840,0.08,0.11,-1.00,3.11,3.54,2.14
36.7010,0.07,0.11,-1.00,3.05,3.72,2.08
36.7120,0.08,0.11,-0.99,3.17,3.66,2.20
36.7180,0.08,0.11,-0.99,2.75,3.72,2.14
36.7350,0.08,0.11,-0.99,3.05,3.60,1.95
36.7660,0.08,0.11,-0.99,3.11,3.72,2.14
36.7680,0.08,0.12,-1.00,2.93,3.91,2.20
36.7850,0.08,0.12,-0.99,3.05,3.66,2.14
36.8120,0.08,0.12,-0.99,3.05,3.85,2.08
36.8180,0.08,0.11,-0.99,2.93,4.03,2.08
36.8350,0.08,0.11,-0.99,3.17,3.78,2.14
36.8620,0.08,0.11,-1.00,2.99,3.36,2.14
36.8770,0.08,0.11,-1.00,3.17,3.66,2.20
36.8930,0.08,0.11,-1.00,3.05,3.60,2.14
36.9010,0.08,0.11,-1.00,2.99,3.66,2.20
36.9180,0.08,0.11,-0.99,2.93,3.85,2.20
36.9350,0.08,0.11,-1.00,2.93,3.72,2.01
36.9500,0.08,0.11,-1.00,3.17,3.66,2.01
36.9670,0.08,0.11,-0.99,2.93,3.91,2.08
36.9830,0.08,0.12,-0.99,3.11,3.66,1.89
37.0000,0.08,0.12,-1.00,2.99,3.97,2.08
37.0160,0.08,0.12,-0.99,3.11,3.60,2.14
37.0310,0.08,0.12,-1.00,3.05,3.91,2.20
37.0470,0.08,0.12,-1.00,2.99,3.91,2.08
37.0510,0.08,0.12,-1.00,2.99,3.48,2.08
37.0660,0.08,0.11,-1.00,3.11,3.66,2.01
37.0880,0.08,0.11,-0.99,3.11,3.85,2.14
37.1070,0.08,0.11,-1.00,2.87,3.72,2.32
37.1210,0.08,0.11,-0.99,2.99,3.60,2.14
37.1380,0.08,0.11,-0.99,3.11,3.78,2.14
37.1530,0.08,0.11,-1.00,2.99,3.97,2.08
37.1700,0.08,0.11,-0.99,2.99,3.48,2.14
37.1860,0.08,0.11,-0.99,2.87,4.15,2.26
37.1890,0.08,0.12,-0.99,3.05,3.78,2.26
37.2130,0.08,0.12,-0.99,3.05,4.09,2.20
37.2280,0.08,0.12,-0.99,3.05,3.97,2.20
37.2440,0.08,0.12,-0.99,2.93,3.60,2.08
37.2610,0.08,0.12,-1.00,3.17,3.78,2.08
37.2770,0.08,0.12,-0.99,3.05,3.91,2.14
37.2950,0.08,0.11,-0.99,3.17,3.78,1.95
37.3110,0.08,0.11,-0.99,3.11,4.03,2.32
37.3270,0.08,0.11,-1.00,3.05,3.97,2.20
37.3430,0.08,0.11,-0.99,3.17,3.85,2.26
37.3590,0.08,0.11,-0.99,3.30,3.72,2.08
37.3760,0.08,0.11,-0.99,3.11,4.03,2.08
37.3920,0.08,0.11,-1.00,2.99,3.91,2.08
37.4080,0.08,0.11,-1.00,3.17,4.09,2.14
37.4230,0.08,0.11,-0.99,3.17,4.21,2.14
37.4380,0.08,0.12,-0.99,3.17,4.03,1.95
37.4530,0.08,0.12,-1.00,3.17,3.72,2.32
37.4670,0.08,0.12,-0.99,3.17,3.60,2.08
37.4780,0.08,0.12,-0.99,3.17,3.66,2.08
37.4950,0.08,0.12,-0.99,3.36,3.66,2.26
37.5100,0.07,0.12,-1.00,2.99,3.85,2.20
37.5280,0.08,0.11,-1.00,3.05,3.72,2.01
37.5440,0.08,0.11,-0.99,3.23,3.78,2.32
37.5610,0.08,0.11,-1.00,3.05,3.66,2.20
37.5770,0.08,0.11,-1.00,2.99,4.21,2.08
37.5930,0.08,0.11,-0.99,2.81,3.72,2.32
37.6080,0.07,0.11,-1.00,3.23,3.78,2.20
37.6240,0.08,0.11,-1.00,3.17,3.85,1.95
37.6280,0.08,0.11,-0.99,3.11,3.60,2.14
37.6430,0.08,0.12,-0.99,3.11,3.66,2.14
37.6680,0.08,0.12,-0.99,2.93,3.91,2.14
37.6850,0.08,0.12,-0.99,3.05,3.72,2.08
37.7010,0.08,0.12,-0.99,3.05,3.66,2.14
37.7140,0.08,0.12,-1.00,3.17,3.60,2.14
37.7310,0.08,0.11,-0.99,3.11,3.85,2.20
37.7350,0.08,0.11,-0.99,2.99,3.91,2.14
37.7520,0.08,0.11,-1.00,3.11,3.78,2.14
37.7680,0.07,0.11,-1.00,2.99,3.91,2.20
37.7910,0.07,0.11,-1.00,2.93,4.09,2.32
37.8070,0.07,0.11,-1.00,2.99,3.66,1.95
37.8230,0.08,0.11,-0.99,3.17,3.78,2.08
37.8400,0.08,0.11,-0.99,3.23,4.03,2.08
37.8560,0.08,0.12,-0.99,2.99,3.54,1.95
37.8720,0.08,0.12,-0.99,3.11,3.54,2.14
37.8870,0.08,0.12,-0.99,3.11,3.72,2.14
37.8910,0.08,0.12,-0.99,3.23,3.78,2.20
37.9140,0.08,0.12,-0.99,3.11,3.78,2.26
37.9320,0.08,0.12,-0.99,3.05,3.85,2.20
37.9470,0.08,0.12,-0.99,3.11,3.85,2.01
37.9490,0.08,0.11,-1.00,2.93,4.09,2.14
37.9800,0.08,0.11,-1.00,2.99,4.09,2.14
37.9820,0.07,0.11,-1.00,3.05,3.97,2.08
37.9990,0.08,0.11,-1.00,3.05,3.78,2.08
38.0140,0.08,0.11,-1.00,3.05,3.66,2.14
38.0420,0.07,0.11,-1.00,3.11,3.78,2.14
38.0580,0.07,0.11,-1.00,2.87,4.09,2.08
38.0660,0.08,0.12,-0.99,3.17,3.91,2.14
38.0810,0.08,0.12,-0.99,3.17,4.03,2.20
38.0970,0.08,0.12,-0.99,2.99,3.60,2.14
38.1200,0.08,0.12,-0.99,2.99,3.66,2.26
38.1350,0.08,0.12,-0.99,3.17,4.09,2.26
38.1510,0.08,0.12,-0.99,3.17,3.85,2.14
38.1680,0.08,0.12,-0.99,3.17,3.97,2.14
38.1830,0.08,0.12,-1.00,2.99,3.60,2.20
38.1980,0.08,0.11,-0.99,3.11,3.48,1.89
38.2140,0.08,0.11,-0.99,2.93,3.66,2.14
38.2300,0.08,0.11,-1.00,3.05,4.03,2.01
38.2450,0.07,0.11,-1.00,2.69,3.91,2.08
38.2600,0.07,0.11,-1.00,3.17,3.66,2.08
38.2700,0.08,0.11,-0.99,2.99,3.78,2.01
38.2870,0.08,0.11,-0.99,3.05,3.72,2.08
38.3030,0.08,0.12,-0.99,3.36,3.66,2.20
38.3200,0.08,0.12,-0.99,2.93,4.09,2.20
38.3350,0.08,0.12,-0.99,3.23,4.03,2.20
38.3370,0.08,0.12,-0.99,3.23,3.78,2.20
38.3670,0.08,0.12,-0.99,3.11,3.72,2.14
38.3830,0.08,0.12,-0.99,3.05,3.72,2.20
38.3990,0.08,0.12,-0.99,2.99,3.78,2.20
38.4150,0.08,0.11,-1.00,2.99,3.91,2.14
38.4300,0.08,0.11,-1.00,3.05,3.85,2.20
38.4450,0.08,0.11,-0.99,2.99,3.54,2.08
38.4600,0.08,0.11,-1.00,2.99,3.72,2.26
38.4700,0.08,0.11,-1.00,3.05,3.91,2.20
38.4870,0.08,0.11,-1.00,2.99,3.60,2.14
38.5030,0.08,0.11,-1.00,3.05,3.85,2.14
38.5210,0.08,0.11,-0.99,2.99,3.78,2.08
38.5360,0.08,0.12,-0.99,3.17,3.91,2.08
38.5520,0.08,0.12,-0.99,3.42,4.03,2.14
38.5680,0.08,0.12,-0.99,3.11,3.85,2.08
38.5710,0.08,0.12,-0.99,3.11,3.54,2.26
38.6000,0.08,0.12,-0.99,3.36,3.85,2.26
38.6160,0.08,0.12,-0.99,2.81,4.03,2.08
38.6320,0.08,0.11,-0.99,3.17,3.85,2.08
38.6480,0.08,0.11,-1.00,2.99,3.97,2.20
38.6640,0.08,0.11,-1.00,2.93,3.60,2.14
38.6800,0.07,0.11,-1.00,3.11,3.60,2.20
38.6960,0.07,0.11,-1.00,3.05,3.72,2.14
38.7110,0.08,0.11,-1.00,3.05,3.72,2.20
38.7270,0.08,0.11,-0.99,3.23,3.60,2.20
38.7420,0.08,0.11,-0.99,3.30,3.72,2.08
38.7530,0.08,0.12,-0.99,3.05,3.91,2.20
38.7700,0.08,0.12,-0.99,3.11,3.60,2.20
38.7860,0.08,0.12,-0.99,2.87,3.66,2.20
38.8030,0.08,0.12,-0.99,2.99,3.78,2.14
38.8190,0.08,0.12,-0.99,2.93,3.72,2.14
38.8350,0.08,0.12,-0.99,2.81,3.97,2.01
38.8510,0.08,0.11,-1.00,2.87,3.60,2.14
38.8680,0.08,0.11,-1.00,3.11,3.91,2.08
38.8830,0.08,0.11,-1.00,3.23,3.91,1.95
38.9000,0.08,0.11,-1.00,2.93,3.60,2.14
38.9150,0.08,0.11,-0.99,2.93,3.36,2.08
38.9190,0.08,0.11,-1.00,3.17,3.72,2.20
38.9450,0.08,0.11,-0.99,3.11,3.78,2.26
38.9610,0.08,0.11,-0.99,3.23,3.66,2.01
38.9770,0.08,0.12,-0.99,2.81,3.72,2.20
38.9930,0.08,0.12,-1.00,2.93,4.03,2.08
39.0090,0.08,0.12,-0.99,2.93,3.78,2.26
39.0150,0.08,0.12,-0.99,3.05,3.78,2.20
39.0270,0.08,0.12,-0.99,3.05,3.60,2.20
39.0520,0.08,0.12,-0.99,3.11,3.78,2.01
39.0680,0.08,0.11,-0.99,2.99,4.09,2.01
39.0850,0.08,0.11,-0.99,3.11,3.85,2.08
39.1010,0.08,0.11,-0.99,2.99,4.09,2.01
39.1170,0.08,0.11,-0.99,3.30,4.21,2.26
39.1180,0.07,0.13,-1.00,4.52,4.09,3.54
39.1500,0.07,0.12,-0.99,2.26,2.56,8.12
39.1520,0.09,0.10,-1.00,2.08,2.81,10.19
39.1670,0.08,0.10,-1.00,2.50,3.42,5.13
39.1920,0.07,0.11,-0.99,2.81,3.48,2.32
39.2080,0.08,0.12,-0.99,3.17,3.72,2.26
39.2240,0.08,0.12,-0.99,3.17,3.66,2.08
39.2410,0.08,0.12,-1.00,2.93,3.78,2.26
39.2580,0.08,0.12,-0.99,3.05,3.97,2.01
39.2740,0.07,0.12,-0.99,2.93,3.72,2.20
39.2900,0.08,0.12,-1.00,3.11,4.03,2.20
39.3060,0.08,0.11,-0.99,2.99,4.03,2.14
39.3200,0.08,0.11,-1.00,3.11,3.91,2.14
39.3250,0.08,0.11,-1.00,2.93,3.85,2.26
39.3410,0.07,0.11,-0.99,3.05,3.66,2.14
39.3650,0.07,0.11,-1.00,3.17,3.85,2.14
39.3810,0.08,0.11,-1.00,3.05,3.97,2.20
39.3970,0.08,0.11,-0.99,2.99,3.78,2.20
39.4130,0.08,0.11,-0.99,3.23,4.27,2.01
39.4290,0.08,0.12,-1.00,3.11,4.09,2.26
39.4310,0.08,0.12,-0.99,2.99,3.78,2.26
39.4610,0.08,0.12,-0.99,3.11,3.54,2.08
39.4770,0.08,0.12,-0.99,3.11,4.03,2.32
39.4930,0.08,0.12,-0.99,3.05,3.85,2.08
39.4980,0.08,0.12,-0.99,3.17,3.85,2.26
39.5150,0.08,0.11,-0.99,3.05,3.72,2.08
39.5300,0.08,0.11,-0.99,3.17,3.78,2.26
39.5520,0.08,0.12,-1.00,3.17,3.72,2.26
39.5690,0.08,0.11,-1.00,3.05,3.72,2.20
39.5850,0.08,0.11,-1.00,3.05,4.15,2.26
39.5860,0.08,0.11,-0.99,2.81,3.66,2.26
39.6170,0.08,0.11,-1.00,3.11,3.91,2.20
39.6330,0.08,0.11,-0.99,3.05,3.66,2.26
39.6490,0.08,0.12,-0.99,3.05,3.60,2.14
39.6650,0.08,0.12,-0.99,3.05,3.54,2.14
39.6810,0.08,0.12,-0.99,2.75,3.72,2.14
39.6860,0.08,0.12,-0.99,2.62,3.66,2.20
39.7020,0.08,0.12,-0.99,2.62,3.72,2.08
39.7240,0.08,0.12,-0.99,2.99,3.60,2.01
39.7410,0.08,0.11,-0.99,2.99,3.85,2.14
39.7570,0.08,0.11,-0.99,3.05,3.91,2.14
39.7720,0.08,0.11,-1.00,3.30,3.91,2.32
39.7870,0.08,0.11,-0.99,3.05,3.85,2.14
39.8020,0.08,0.11,-0.99,2.93,3.85,2.26
39.8180,0.08,0.11,-1.00,3.11,3.66,2.08
39.8330,0.08,0.11,-0.99,3.17,3.48,2.14
39.8490,0.08,0.11,-0.99,3.11,3.72,2.01
39.8640,0.08,0.12,-0.99,3.11,3.36,2.01
39.8740,0.08,0.12,-0.99,2.93,3.66,1.95
39.8900,0.08,0.12,-0.99,2.99,4.27,2.14
39.9100,0.08,0.12,-0.99,3.05,3.54,2.20
39.9260,0.08,0.12,-0.99,2.81,3.97,2.08
39.9310,0.08,0.12,-0.99,3.30,3.85,2.08
39.9570,0.08,0.11,-1.00,3.17,3.66,2.01
39.9640,0.08,0.11,-1.00,2.99,4.03,1.95
39.9800,0.08,0.11,-1.00,3.05,3.78,2.14
39.9970,0.08,0.11,-0.99,3.17,4.21,2.14
40.0160,0.08,0.11,-1.00,2.99,4.03,2.20
40.0330,0.08,0.11,-0.99,3.23,3.91,2.20
40.0510,0.08,0.11,-0.99,3.11,3.72,2.32
40.0660,0.08,0.11,-0.99,2.99,4.15,2.08
40.0820,0.08,0.12,-1.00,2.93,3.91,2.20
40.0830,0.08,0.12,-1.00,2.99,3.66,2.20
40.1130,0.08,0.12,-0.99,3.11,3.72,1.95
40.1160,0.08,0.12,-0.99,2.93,3.78,2.14
40.1330,0.08,0.11,-0.99,2.93,3.91,2.26
40.1490,0.08,0.11,-0.99,2.81,4.15,2.20
40.1730,0.08,0.11,-1.00,3.11,3.85,2.20
40.1890,0.08,0.11,-0.99,3.11,3.72,2.08
40.2060,0.08,0.11,-1.00,2.99,4.03,2.08
40.2220,0.08,0.11,-1.00,2.93,3.91,2.14
40.2380,0.08,0.11,-1.00,3.17,4.33,2.01
40.2530,0.08,0.11,-0.99,2.99,3.78,2.26
40.2700,0.08,0.11,-1.00,2.81,3.78,2.01
40.2720,0.08,0.12,-0.99,2.87,3.78,1.95
40.2880,0.08,0.12,-1.00,3.17,3.72,2.08
40.3120,0.08,0.12,-0.99,3.05,3.97,2.26
40.3280,0.08,0.12,-0.99,3.11,3.97,2.20
40.3440,0.08,0.12,-0.99,3.11,3.97,2.01
40.3610,0.08,0.11,-0.99,2.99,3.78,2.20
40.3780,0.08,0.11,-0.99,3.42,3.60,2.14
40.3950,0.07,0.11,-1.00,2.99,3.72,2.20
40.4110,0.08,0.11,-1.00,3.05,3.66,2.20
40.4270,0.08,0.11,-0.99,2.75,3.85,2.26
40.4430,0.08,0.11,-0.99,2.81,3.91,2.14
40.4590,0.08,0.11,-0.99,3.05,3.78,2.08
40.4750,0.08,0.11,-0.99,3.05,3.91,1.95
40.4900,0.08,0.11,-1.00,2.99,3.48,2.08
40.4950,0.08,0.12,-1.00,2.93,3.85,2.14
40.5170,0.08,0.12,-0.99,2.93,4.03,2.20
40.5350,0.08,0.12,-0.99,2.99,3.85,2.01
40.5510,0.08,0.12,-0.99,3.11,3.91,2.01
40.5660,0.08,0.12,-0.99,2.87,3.85,2.08
40.5720,0.08,0.11,-1.00,3.05,3.78,2.20
40.5870,0.08,0.11,-1.00,2.81,3.97,2.08
40.6120,0.08,0.11,-0.99,2.93,4.09,2.20
40.6280,0.08,0.11,-0.99,2.99,3.60,2.08
40.6460,0.08,0.11,-1.00,2.93,3.85,2.20
40.6620,0.08,0.11,-0.99,3.05,3.60,2.14
40.6770,0.08,0.11,-1.00,2.87,3.66,2.08
40.6790,0.08,0.11,-0.99,2.87,3.91,2.14
40.7090,0.08,0.11,-0.99,3.11,4.27,2.20
40.7170,0.08,0.12,-0.99,3.17,3.97,2.08
40.7300,0.08,0.12,-0.99,3.11,3.91,2.26
40.7450,0.08,0.12,-0.99,2.93,4.15,2.20
40.7680,0.08,0.12,-0.99,3.05,3.97,2.14
40.7850,0.08,0.12,-0.99,2.93,3.48,1.95
40.8010,0.08,0.11,-0.99,2.93,3.85,2.14
40.8170,0.08,0.11,-0.99,3.17,3.66,2.01
40.8340,0.08,0.11,-1.00,2.93,3.60,2.08
40.8490,0.08,0.11,-0.99,2.99,3.72,2.08
40.8640,0.08,0.11,-0.99,2.99,3.72,2.08
40.8810,0.08,0.11,-0.99,2.99,4.09,2.20
40.8960,0.08,0.11,-0.99,3.17,3.66,2.08
40.9030,0.08,0.11,-0.99,3.17,3.78,2.14
40.9190,0.08,0.11,-1.00,3.42,4.09,2.26
40.9410,0.08,0.11,-1.00,3.30,3.85,2.08
40.9570,0.08,0.12,-0.99,2.99,3.97,2.14
40.9720,0.08,0.12,-0.99,3.05,3.97,2.20
40.9870,0.08,0.11,-0.99,2.99,3.78,2.14
41.0030,0.08,0.11,-0.99,3.05,3.54,2.26
41.0170,0.08,0.11,-0.99,3.17,3.91,1.95
41.0320,0.08,0.11,-0.99,3.11,3.91,2.20
41.0430,0.08,0.11,-1.00,3.48,4.03,2.14
41.0590,0.08,0.11,-1.00,3.11,3.78,2.14
41.0780,0.08,0.11,-0.99,3.05,3.91,2.26
41.0830,0.08,0.11,-1.00,3.05,3.91,2.20
41.1090,0.08,0.11,-1.00,2.93,3.91,2.08
41.1230,0.08,0.11,-0.99,2.99,3.85,2.26
41.1330,0.08,0.11,-0.99,3.05,3.85,2.08
41.1500,0.08,0.11,-0.99,3.23,4.15,2.08
41.1680,0.08,0.11,-0.99,2.99,4.15,2.32
41.1830,0.08,0.12,-0.99,3.17,3.72,2.26
41.2000,0.08,0.11,-0.99,3.05,3.91,2.14
41.2000,0.08,0.11,-0.99,2.87,3.72,2.08
41.2170,0.08,0.11,-0.99,3.23,4.09,2.01
41.2470,0.08,0.11,-1.00,3.11,3.72,2.14
41.2500,0.08,0.11,-0.99,3.30,3.72,2.01
41.2680,0.08,0.11,-1.00,2.99,4.03,2.20
41.2830,0.08,0.11,-0.99,2.99,3.97,2.14
41.3070,0.08,0.11,-0.99,3.11,3.85,2.20
41.3230,0.08,0.11,-0.99,3.17,3.85,2.08
41.3390,0.08,0.11,-0.99,3.36,3.54,1.95
41.3540,0.08,0.11,-1.00,3.11,3.78,2.14
41.3570,0.07,0.11,-0.99,3.11,3.66,2.20
41.3730,0.08,0.12,-1.00,3.30,3.48,2.20
41.3970,0.09,0.12,-1.00,2.75,3.85,2.08
41.4150,0.08,0.12,-0.99,2.69,4.03,1.95
41.4310,0.07,0.11,-1.00,2.99,4.03,2.08
41.4470,0.07,0.11,-1.00,3.23,3.91,2.14
41.4630,0.08,0.11,-0.99,2.99,3.72,2.14
41.4650,0.08,0.11,-0.99,2.93,3.85,2.14
41.4960,0.08,0.11,-1.00,2.99,3.78,2.14
41.4980,0.07,0.11,-1.00,3.05,3.91,2.14
41.5170,0.07,0.11,-0.99,3.30,3.72,1.95
41.5410,0.08,0.12,-1.00,2.93,3.97,2.26
41.5520,0.08,0.11,-1.00,3.17,4.09,2.01
41.5680,0.08,0.11,-0.99,2.99,3.66,2.08
41.5860,0.08,0.11,-0.99,3.11,3.78,2.08
41.6020,0.08,0.12,-0.99,3.23,3.85,2.26
41.6180,0.08,0.12,-1.00,3.17,3.54,2.14
41.6200,0.08,0.11,-0.99,3.17,3.78,2.01
41.6490,0.08,0.11,-0.99,3.17,3.72,2.26
41.6530,0.08,0.11,-1.00,2.93,3.72,2.08
41.6820,0.08,0.11,-1.00,2.99,3.72,2.08
41.6980,0.08,0.11,-1.00,3.17,3.85,2.08
41.7140,0.08,0.11,-0.99,3.17,3.54,2.08
41.7190,0.08,0.11,-1.00,3.05,3.78,2.26
41.7350,0.08,0.11,-0.99,2.99,3.91,2.20
41.7600,0.08,0.11,-0.99,3.23,3.97,2.08
41.7760,0.08,0.11,-1.00,2.99,3.48,2.01
41.7910,0.08,0.11,-1.00,2.99,3.78,2.14
41.8070,0.08,0.12,-1.00,2.99,3.60,2.26
41.8220,0.08,0.12,-0.99,3.11,3.85,2.20
41.8360,0.08,0.11,-0.99,3.05,3.91,2.20
41.8520,0.08,0.11,-1.00,3.23,3.42,2.20
41.8670,0.08,0.11,-0.99,2.99,4.15,2.08
41.8770,0.08,0.11,-0.99,3.11,3.97,2.14
41.8930,0.08,0.11,-0.99,3.05,3.66,2.08
41.9130,0.08,0.11,-1.00,2.93,3.91,2.08
41.9280,0.08,0.11,-0.99,3.05,3.85,2.20
41.9430,0.08,0.12,-0.99,3.23,3.72,2.08
41.9590,0.08,0.11,-0.99,3.17,3.42,2.08
41.9660,0.08,0.11,-0.99,3.17,3.66,2.08
41.9810,0.08,0.11,-0.99,3.05,3.85,2.08
42.0040,0.08,0.11,-0.99,2.93,3.60,2.20
42.0170,0.08,0.11,-1.00,3.23,4.21,2.01
42.0240,0.08,0.11,-0.99,2.99,3.97,2.20
42.0500,0.08,0.11,-1.00,3.05,3.72,2.26
42.0670,0.08,0.11,-1.00,3.23,3.97,2.01
42.0820,0.08,0.11,-0.99,3.11,3.78,2.08
42.0910,0.08,0.11,-0.99,3.23,3.78,2.01
42.1070,0.08,0.12,-1.00,3.17,3.60,2.14
42.1240,0.08,0.11,-1.00,3.11,3.72,2.01
42.1400,0.08,0.11,-0.99,2.99,3.72,2.08
42.1580,0.08,0.11,-0.99,3.05,3.97,2.08
42.1730,0.09,0.15,-0.99,3.05,3.78,1.83
42.1900,0.07,0.10,-0.99,3.42,4.64,-2.20
42.2060,0.07,0.10,-1.00,3.42,4.39,-0.98
42.2220,0.08,0.11,-0.99,3.17,4.09,0.61
42.2360,0.08,0.11,-1.00,3.23,4.15,0.98
42.2520,0.08,0.11,-0.99,3.11,3.78,1.53
42.2680,0.08,0.11,-1.00,3.05,4.21,1.40
42.2840,0.08,0.11,-0.99,3.36,4.15,1.34
42.2910,0.08,0.11,-0.99,3.05,3.85,1.65
42.3140,0.08,0.11,-1.00,2.93,4.03,1.95
42.3240,0.08,0.11,-1.00,3.23,4.03,1.95
42.3420,0.08,0.11,-0.99,3.11,4.21,2.08
42.3570,0.08,0.11,-0.99,2.99,3.85,2.20
42.3740,0.08,0.11,-0.99,2.93,3.48,2.01
42.3910,0.08,0.11,-0.99,2.93,3.91,2.20
42.4060,0.08,0.11,-0.99,2.99,4.15,2.14
42.4220,0.08,0.11,-0.99,3.23,3.91,2.01
42.4250,0.08,0.11,-0.99,2.93,3.97,2.08
42.4530,0.08,0.11,-1.00,2.87,3.78,2.01
42.4690,0.08,0.11,-0.99,3.05,3.85,2.01
42.4740,0.08,0.11,-1.00,3.05,3.42,2.01
42.4890,0.08,0.11,-0.99,3.11,3.91,2.08
42.5120,0.08,0.11,-0.99,3.17,3.85,2.14
42.5280,0.08,0.11,-0.99,3.11,4.03,2.20
42.5440,0.08,0.11,-0.99,2.99,3.85,2.14
42.5630,0.08,0.11,-0.99,3.05,3.91,2.08
42.5780,0.08,0.11,-0.99,2.93,3.85,2.14
42.5840,0.08,0.11,-0.99,2.99,3.97,2.14
42.5990,0.08,0.11,-0.99,3.11,4.15,2.08
42.6220,0.08,0.11,-0.99,2.99,4.15,2.14
42.6380,0.08,0.11,-0.99,3.17,4.03,1.95
42.6530,0.08,0.11,-0.99,2.99,4.03,2.14
42.6690,0.08,0.11,-0.99,3.17,3.72,2.14
42.6720,0.08,0.11,-0.99,2.93,4.21,2.14
42.6880,0.08,0.11,-0.99,2.93,3.60,2.26
42.7130,0.08,0.11,-0.99,2.99,3.66,2.08
42.7300,0.08,0.12,-0.99,3.05,3.60,2.08
42.7450,0.08,0.11,-0.99,2.99,3.66,2.14
42.7610,0.08,0.11,-1.00,2.93,4.03,2.14
42.7630,0.08,0.11,-0.99,3.11,4.15,2.14
42.7930,0.08,0.12,-0.99,3.11,3.85,2.26
42.7950,0.08,0.11,-0.99,3.05,3.78,2.14
42.8180,0.08,0.11,-1.00,2.99,3.66,2.01
42.8290,0.08,0.11,-0.99,2.99,3.97,2.20
42.8460,0.08,0.11,-0.99,3.05,3.97,2.20
42.8610,0.08,0.11,-1.00,3.11,4.03,2.26
42.8850,0.08,0.11,-1.00,3.05,3.66,2.01
42.9010,0.08,0.11,-0.99,3.17,3.66,2.01
42.9170,0.08,0.11,-1.00,3.05,3.97,2.01
42.9340,0.08,0.11,-0.99,2.99,4.09,2.14
42.9490,0.08,0.11,-0.99,2.99,4.03,2.20
42.9510,0.08,0.11,-0.99,2.99,3.60,2.14
42.9820,0.08,0.11,-0.99,3.11,4.15,2.20
42.9990,0.08,0.11,-0.99,3.11,4.03,2.08
43.0010,0.08,0.11,-0.99,2.81,3.66,2.14
43.0300,0.08,0.11,-1.00,2.93,3.54,2.01
43.0450,0.08,0.11,-0.99,3.23,3.97,2.01
43.0510,0.08,0.11,-0.99,3.11,3.97,2.01
43.0680,0.08,0.11,-1.00,2.81,3.78,2.14
43.0850,0.08,0.11,-1.00,2.93,3.85,2.14
43.1000,0.08,0.11,-0.99,3.17,3.85,2.14
43.1200,0.08,0.11,-0.99,2.93,4.03,2.26
43.1250,0.08,0.11,-0.99,3.11,4.03,2.14
43.1500,0.08,0.11,-0.99,3.17,3.85,2.20
43.1570,0.08,0.11,-0.99,3.23,4.15,2.08
43.1740,0.08,0.11,-0.99,3.30,3.66,2.01
43.1900,0.08,0.11,-0.99,3.36,3.78,2.08
43.2070,0.08,0.11,-1.00,2.93,3.85,2.14
43.2230,0.08,0.11,-0.99,2.87,3.85,2.20
43.2420,0.08,0.11,-0.99,2.99,3.97,2.26
43.2590,0.08,0.11,-1.00,3.17,4.09,2.20
43.2750,0.08,0.11,-1.00,3.17,3.78,2.14
43.2900,0.08,0.11,-0.99,3.23,3.85,2.20
43.3060,0.08,0.11,-1.00,3.11,4.03,2.20
43.3190,0.08,0.11,-0.99,2.99,4.15,2.20
43.3270,0.08,0.11,-0.99,2.99,3.66,2.08
43.3510,0.08,0.11,-0.99,3.23,3.72,2.14
43.3670,0.08,0.11,-1.00,3.11,3.66,2.14
43.3830,0.08,0.11,-1.00,3.05,3.91,1.95
43.3850,0.08,0.11,-0.99,3.23,3.85,2.14
43.4150,0.08,0.11,-1.00,3.11,4.03,2.14
43.4190,0.08,0.11,-0.99,2.87,3.85,2.14
43.4480,0.08,0.11,-0.99,2.93,4.03,2.14
43.4640,0.08,0.11,-0.99,2.99,3.78,2.08
43.4680,0.08,0.11,-1.00,2.99,4.09,2.14
43.4840,0.08,0.11,-1.00,3.30,3.66,2.08
43.5090,0.08,0.11,-1.00,3.11,3.97,2.14
43.5250,0.08,0.11,-1.00,2.93,3.97,2.14
43.5270,0.08,0.11,-0.99,3.05,4.09,2.20
43.5430,0.08,0.11,-0.99,2.93,3.85,2.08
43.5650,0.08,0.11,-0.99,3.05,3.91,2.14
43.5830,0.08,0.11,-0.99,2.99,4.03,2.08
43.5990,0.08,0.11,-1.00,3.17,3.85,2.14
43.6150,0.08,0.11,-0.99,2.99,3.91,2.26
43.6330,0.08,0.11,-1.00,2.99,3.85,2.26
43.6480,0.08,0.11,-0.99,3.05,3.66,2.14
43.6650,0.08,0.11,-0.99,2.81,4.03,2.08
43.6800,0.08,0.11,-1.00,2.93,3.85,2.20
43.6960,0.08,0.11,-0.99,3.17,3.48,2.20
43.7120,0.08,0.11,-0.99,2.99,4.21,2.20
43.7190,0.08,0.11,-0.99,3.05,4.09,2.01
43.7300,0.08,0.11,-0.99,3.17,3.91,2.20
43.7540,0.08,0.11,-0.99,3.23,3.97,1.95
43.7700,0.08,0.11,-1.00,3.11,4.09,2.14
43.7870,0.08,0.11,-0.99,3.11,3.91,2.14
43.8040,0.08,0.11,-0.99,3.23,3.91,2.14
43.8180,0.08,0.11,-1.00,2.87,3.72,2.14
43.8350,0.08,0.11,-0.99,3.11,3.91,2.20
43.8490,0.08,0.11,-0.99,3.17,3.72,2.14
43.8540,0.08,0.11,-1.00,2.99,3.85,2.08
43.8700,0.08,0.11,-0.99,3.17,3.85,2.20
43.8930,0.08,0.11,-0.99,2.93,3.91,2.08
43.9090,0.08,0.11,-1.00,3.05,3.91,2.08
43.9270,0.08,0.11,-0.99,3.30,3.85,2.08
43.9420,0.08,0.11,-0.99,3.17,3.85,2.14
43.9580,0.08,0.11,-1.00,3.30,3.85,2.08
43.9750,0.08,0.11,-0.99,3.17,3.85,2.14
43.9910,0.08,0.11,-0.99,3.17,3.91,2.08
44.0060,0.08,0.12,-0.99,3.23,4.09,2.20
44.0210,0.08,0.11,-1.00,2.99,3.85,2.14
44.0370,0.08,0.11,-0.99,3.05,4.09,2.08
44.0430,0.08,0.11,-0.99,3.17,3.91,2.08
44.0670,0.08,0.11,-0.99,3.05,3.78,2.01
44.0760,0.08,0.11,-0.99,3.05,3.91,2.26
44.0920,0.08,0.11,-0.99,2.99,3.97,2.01
44.1130,0.08,0.11,-1.00,2.81,3.97,2.14
44.1280,0.08,0.11,-0.99,3.05,3.85,2.20
44.1320,0.08,0.11,-0.99,3.05,3.36,2.20
44.1480,0.08,0.11,-1.00,3.30,3.72,2.20
44.1630,0.08,0.11,-0.99,3.11,4.03,2.14
44.1870,0.08,0.11,-0.99,3.17,3.78,2.32
44.2040,0.08,0.11,-0.99,2.99,4.15,2.14
44.2200,0.08,0.11,-0.99,2.93,3.85,2.14
44.2360,0.08,0.11,-0.99,3.17,3.85,2.08
44.2510,0.08,0.11,-0.99,3.17,3.97,2.08
44.2660,0.08,0.12,-0.99,2.87,3.85,2.20
44.2760,0.08,0.11,-0.99,2.87,3.91,2.08
44.2930,0.08,0.11,-0.99,3.05,3.78,2.08
44.3090,0.08,0.11,-0.99,3.05,4.39,2.14
44.3260,0.08,0.11,-0.99,2.99,3.72,2.01
44.3430,0.08,0.11,-1.00,2.81,3.78,2.14
44.3590,0.08,0.11,-0.99,3.11,3.72,2.26
44.3750,0.08,0.11,-1.00,3.11,3.85,2.14
44.3910,0.08,0.11,-0.99,3.05,3.85,2.20
44.3920,0.08,0.11,-0.99,3.05,3.60,2.20
44.4240,0.08,0.11,-0.99,3.11,3.72,2.20
44.4400,0.08,0.11,-1.00,3.11,3.97,2.14
44.4550,0.08,0.11,-1.00,3.17,3.72,2.26
44.4590,0.08,0.11,-0.99,3.11,4.15,2.20
44.4750,0.08,0.11,-0.99,3.11,3.91,2.14
44.5000,0.08,0.11,-1.00,3.17,3.72,2.20
44.5010,0.08,0.11,-0.99,3.11,3.91,2.14
44.5310,0.08,0.11,-0.99,3.05,4.03,2.14
44.5340,0.08,0.12,-0.99,3.11,3.78,1.89
44.5640,0.08,0.11,-0.99,3.23,3.97,0.92
44.5800,0.08,0.11,-0.99,3.11,4.09,1.16
44.5950,0.08,0.12,-0.99,3.11,4.03,1.34
44.6100,0.08,0.11,-1.00,3.42,4.15,1.16
44.6200,0.08,0.11,-1.00,3.11,4.03,1.22
44.6320,0.08,0.11,-0.99,3.36,4.03,1.16
44.6560,0.08,0.11,-1.00,3.23,3.72,1.28
44.6710,0.08,0.11,-0.99,3.36,3.72,1.40
44.6860,0.08,0.12,-0.99,3.23,3.85,1.34
44.6910,0.08,0.11,-0.99,3.30,4.03,1.22
44.7070,0.08,0.12,-0.99,3.36,3.91,1.10
44.7300,0.08,0.11,-0.99,3.23,3.91,0.61
44.7470,0.08,0.11,-0.99,2.93,4.21,0.79
44.7620,0.08,0.12,-0.99,3.11,4.03,0.79
44.7630,0.08,0.12,-0.99,3.42,4.46,0.24
44.7940,0.08,0.11,-0.99,3.30,4.15,-0.31
44.8110,0.08,0.11,-0.99,3.11,4.09,0.43
44.8210,0.07,0.11,-1.00,3.30,4.27,0.92
44.8290,0.08,0.11,-1.00,3.11,3.97,1.71
44.8530,0.08,0.11,-0.99,3.05,4.03,1.53
44.8690,0.08,0.11,-0.99,2.75,4.03,1.95
44.8860,0.08,0.11,-0.99,2.93,4.15,2.01
44.9030,0.08,0.12,-0.99,3.05,3.78,2.01
44.9180,0.08,0.11,-0.99,3.05,4.15,2.01
44.9350,0.08,0.11,-0.99,2.69,3.66,2.20
44.9500,0.08,0.11,-0.99,3.05,4.03,1.95
44.9650,0.08,0.11,-0.99,3.23,3.97,1.77
44.9700,0.08,0.11,-1.00,3.36,3.97,2.01
44.9850,0.08,0.11,-0.99,3.23,3.66,2.01
45.0110,0.08,0.11,-0.99,3.11,3.85,2.14
45.0280,0.08,0.11,-1.00,3.42,3.85,2.14
45.0440,0.08,0.11,-0.99,3.17,4.21,2.01
45.0600,0.08,0.11,-1.00,3.11,3.78,2.14
45.0760,0.08,0.11,-1.00,3.23,3.91,2.20
45.0920,0.08,0.11,-1.00,3.17,4.09,2.08
45.0940,0.08,0.11,-0.99,3.11,4.03,2.08
45.1210,0.08,0.11,-0.99,2.99,4.03,2.01
45.1340,0.08,0.12,-0.99,3.23,3.97,1.89
45.1490,0.08,0.12,-1.00,3.11,3.91,1.46
45.1670,0.08,0.12,-0.99,3.23,3.97,0.85
45.1830,0.07,0.11,-1.00,3.17,4.09,0.55
45.1990,0.09,0.12,-0.99,3.17,4.09,0.98
45.2000,0.09,0.12,-0.99,3.05,4.15,0.49
45.2300,0.07,0.11,-1.00,2.99,4.21,0.24
45.2460,0.06,0.11,-1.00,3.42,4.03,0.92
45.2620,0.07,0.11,-0.99,3.05,3.72,1.77
45.2780,0.08,0.11,-0.99,2.99,3.66,1.95
45.2930,0.08,0.11,-0.99,3.11,3.72,2.14
45.3090,0.10,0.12,-0.99,3.05,3.97,2.01
45.3210,0.10,0.12,-0.99,3.05,3.66,-0.12
45.3390,0.08,0.12,-0.99,3.17,4.09,-0.43
45.3510,0.07,0.11,-1.00,3.42,4.27,-0.31
45.3660,0.07,0.11,-1.00,3.30,4.15,0.73
45.3820,0.07,0.11,-1.00,3.05,3.91,1.53
45.3930,0.08,0.11,-0.99,3.36,3.91,1.89
45.4110,0.08,0.11,-0.99,3.17,4.03,1.89
45.4270,0.08,0.11,-0.99,3.23,4.21,1.65
45.4430,0.07,0.11,-1.00,3.05,4.03,1.65
45.4600,0.08,0.11,-0.99,3.05,3.85,2.01
45.4760,0.08,0.11,-0.99,3.17,3.85,2.01
45.4920,0.08,0.11,-0.99,3.05,3.60,2.08
45.5070,0.08,0.11,-1.00,3.36,3.72,2.01
45.5220,0.08,0.11,-0.99,3.11,3.78,1.95
45.5260,0.08,0.11,-0.99,3.05,3.78,2.14
45.5420,0.08,0.11,-0.99,3.05,4.09,1.95
45.5660,0.08,0.11,-0.99,3.17,3.78,2.14
45.5840,0.08,0.11,-0.99,3.36,3.48,2.01
45.5980,0.08,0.11,-0.99,3.17,3.54,2.20
45.6150,0.08,0.11,-1.00,3.17,3.60,2.14
45.6310,0.07,0.11,-1.00,3.11,3.78,2.56
45.6470,0.07,0.11,-1.00,2.87,3.66,3.60
45.6490,0.08,0.12,-0.99,2.69,3.17,3.72
45.6650,0.08,0.11,-0.99,2.99,3.60,3.36
45.6820,0.08,0.11,-0.99,3.05,3.60,3.05
45.6990,0.08,0.11,-0.99,2.87,3.97,2.62
45.7210,0.08,0.12,-0.99,3.17,3.48,2.75
45.7390,0.08,0.11,-0.99,2.99,3.60,2.38
45.7550,0.08,0.11,-0.99,3.05,3.78,2.44
45.7710,0.08,0.11,-1.00,2.99,3.72,2.62
45.7880,0.07,0.11,-1.00,3.05,3.91,2.87
45.8040,0.08,0.12,-0.99,3.11,3.78,3.05
45.8190,0.09,0.12,-0.99,3.11,3.66,2.99
45.8340,0.08,0.12,-1.00,3.54,3.85,2.56
45.8500,0.08,0.11,-0.99,3.11,4.03,2.26
45.8650,0.06,0.11,-1.00,3.05,4.03,2.26
45.8720,0.05,0.11,-1.00,2.87,3.72,2.93
45.8880,0.08,0.11,-0.99,2.99,3.48,2.69
45.9100,0.08,0.11,-0.99,2.99,3.60,2.56
45.9280,0.12,0.11,-0.99,3.30,3.78,2.69
45.9430,0.08,0.11,-0.99,3.11,4.09,2.38
45.9590,0.08,0.11,-0.99,3.23,3.54,2.26
45.9760,0.08,0.11,-0.99,2.99,3.48,2.44
45.9910,0.08,0.11,-1.00,3.23,3.36,2.14
45.9940,0.08,0.11,-0.99,2.99,4.03,1.95
46.0220,0.08,0.11,-0.99,2.93,4.09,2.14
46.0340,0.08,0.12,-0.99,3.05,3.78,2.08
46.0510,0.08,0.11,-0.99,3.05,3.66,2.20
46.0670,0.08,0.12,-0.99,2.93,3.60,2.08
46.0830,0.08,0.12,-0.99,3.11,3.78,2.01
46.0850,0.09,0.13,-0.99,3.42,3.91,1.46
46.1150,0.08,0.12,-0.99,3.17,3.78,0.61
46.1320,0.08,0.12,-0.99,3.42,3.54,0.61
46.1480,0.09,0.12,-0.99,3.23,4.21,0.37
46.1630,0.09,0.13,-0.99,3.23,4.21,-0.49
46.1680,0.07,0.10,-1.00,3.54,4.09,-0.79
46.1830,0.07,0.10,-1.00,2.99,4.21,0.67
46.2090,0.08,0.11,-0.99,3.17,4.21,1.34
46.2250,0.08,0.12,-0.99,3.42,3.91,1.34
46.2260,0.08,0.12,-0.99,3.30,4.21,1.28
46.2550,0.07,0.11,-1.00,3.11,3.91,1.28
46.2690,0.07,0.11,-1.00,3.17,4.15,1.16
46.2850,0.07,0.10,-1.00,3.11,3.72,1.22
46.2930,0.07,0.11,-1.00,2.93,3.97,1.77
46.3090,0.08,0.12,-0.99,2.87,3.85,1.95
46.3320,0.08,0.12,-0.99,2.93,4.09,1.65
46.3330,0.07,0.11,-0.99,3.11,3.97,1.83
46.3640,0.08,0.11,-1.00,3.17,3.66,2.14
46.3660,0.08,0.11,-0.99,3.30,3.91,2.01
46.3830,0.08,0.12,-0.99,3.17,3.66,1.89
46.4120,0.08,0.12,-1.00,3.17,3.85,1.95
46.4220,0.08,0.12,-0.99,3.36,4.09,1.65
46.4420,0.08,0.11,-0.99,3.17,3.91,1.77
46.4570,0.08,0.11,-0.99,3.36,4.15,1.89
46.4660,0.08,0.11,-0.99,3.05,3.60,2.01
46.4810,0.08,0.12,-0.99,3.23,4.09,1.83
46.4990,0.08,0.12,-0.99,3.11,3.72,1.40
46.5140,0.09,0.12,-0.99,3.05,3.97,1.28
46.5340,0.08,0.12,-0.99,3.23,3.85,1.46
46.5500,0.07,0.11,-1.00,2.99,3.78,2.32
46.5650,0.07,0.11,-1.00,3.11,3.97,2.44
46.5820,0.07,0.11,-1.00,3.11,3.72,2.50
46.5970,0.08,0.12,-0.99,3.05,4.03,2.26
46.6120,0.08,0.12,-0.99,3.11,3.60,2.38
46.6220,0.08,0.12,-0.99,3.42,3.23,2.69
46.6380,0.08,0.12,-0.99,2.93,3.48,4.15
46.6550,0.07,0.11,-1.00,2.87,3.30,4.21
46.6720,0.07,0.10,-1.00,2.87,3.30,3.17
46.6870,0.07,0.10,-1.00,3.30,3.54,2.38
46.7030,0.08,0.11,-1.00,3.17,3.66,2.62
46.7190,0.08,0.11,-0.99,3.11,3.54,2.62
46.7340,0.08,0.11,-0.99,3.05,3.78,2.32
46.7390,0.08,0.11,-0.99,3.17,3.91,2.14
46.7550,0.08,0.11,-0.99,3.05,3.85,1.95
46.7780,0.08,0.11,-0.99,2.81,3.91,2.01
46.7940,0.08,0.12,-0.99,3.05,3.78,1.71
46.8100,0.08,0.11,-0.99,3.30,3.91,1.77
46.8250,0.08,0.12,-0.99,3.11,3.78,1.89
46.8280,0.08,0.12,-0.99,3.17,3.91,1.65
46.8450,0.08,0.12,-0.99,3.11,4.03,1.53
46.8720,0.08,0.12,-0.99,3.30,4.03,1.40
46.8870,0.08,0.12,-0.99,3.17,3.97,1.04
46.9020,0.08,0.12,-0.99,3.42,3.78,1.34
46.9110,0.08,0.11,-0.99,3.23,3.72,1.71
46.9280,0.08,0.11,-0.99,3.11,3.78,1.34
46.9460,0.07,0.11,-1.00,2.93,3.85,1.22
46.9610,0.08,0.12,-0.99,2.99,4.03,1.34
46.9770,0.07,0.11,-0.99,3.11,3.91,1.34
46.9920,0.07,0.10,-1.00,2.99,3.72,1.77
47.0080,0.07,0.11,-1.00,3.17,3.66,2.20
47.0230,0.08,0.11,-1.00,2.99,3.85,2.26
47.0280,0.08,0.12,-0.99,2.87,3.72,2.26
47.0570,0.08,0.12,-0.99,2.81,3.85,2.62
47.0710,0.09,0.12,-0.99,3.23,3.60,3.17
47.0780,0.08,0.12,-0.99,3.05,3.36,2.93
47.0970,0.07,0.11,-1.00,2.99,3.60,3.05
47.1110,0.07,0.11,-1.00,3.11,3.85,3.78
47.1290,0.07,0.12,-1.00,2.81,3.23,3.78
47.1440,0.07,0.11,-0.99,2.93,3.54,4.15
47.1610,0.08,0.11,-1.00,2.81,3.17,5.62
47.1770,0.08,0.12,-0.99,2.75,3.23,5.13
47.1780,0.08,0.12,-0.99,2.81,3.23,5.07
47.2070,0.08,0.11,-1.00,2.81,3.36,5.31
47.2220,0.07,0.11,-1.00,2.56,2.99,5.37
47.2290,0.08,0.12,-0.99,2.32,3.30,6.47
47.2530,0.08,0.11,-1.00,2.81,3.23,5.31
47.2620,0.08,0.11,-0.99,2.99,3.42,5.43
47.2780,0.08,0.11,-1.00,2.75,3.48,5.55
47.2950,0.08,0.11,-1.00,2.93,3.42,5.00
47.3110,0.07,0.10,-1.00,2.87,3.54,3.85
47.3280,0.08,0.11,-1.00,3.05,3.78,3.17
47.3440,0.08,0.11,-1.00,2.75,3.91,3.11
47.3450,0.08,0.11,-0.99,2.87,3.97,2.87
47.3750,0.08,0.12,-0.99,3.11,3.72,2.75
47.3790,0.08,0.12,-0.99,3.11,3.66,3.36
47.3950,0.08,0.11,-0.99,2.99,3.66,3.60
47.4210,0.07,0.11,-1.00,3.05,3.66,2.93
47.4270,0.08,0.11,-0.99,2.93,4.15,2.62
47.4460,0.08,0.11,-1.00,3.05,3.85,2.75
47.4620,0.08,0.11,-0.99,2.99,3.85,2.75
47.4770,0.08,0.12,-0.99,3.17,3.85,2.87
47.4980,0.08,0.11,-1.00,2.93,3.60,3.23
47.5130,0.08,0.11,-1.00,2.93,3.91,2.69
47.5290,0.08,0.12,-0.99,2.93,3.48,2.62
47.5340,0.08,0.11,-0.99,3.05,3.85,2.44
47.5500,0.08,0.11,-1.00,3.23,3.60,2.26
47.5650,0.08,0.12,-0.99,3.17,3.97,1.83
47.5880,0.09,0.12,-0.99,3.17,4.21,1.65
47.6040,0.08,0.12,-0.99,3.36,4.03,1.83
47.6210,0.08,0.12,-0.99,3.30,3.60,2.32
47.6370,0.08,0.12,-0.99,2.93,3.78,2.38
47.6520,0.08,0.11,-0.99,3.17,3.85,1.40
47.6680,0.07,0.10,-1.00,3.11,3.97,1.28
47.6840,0.07,0.10,-1.00,3.11,3.85,1.71
47.7000,0.08,0.12,-0.99,2.93,4.15,1.89
47.7150,0.07,0.11,-0.99,3.30,3.78,2.08
47.7310,0.07,0.11,-1.00,2.99,3.78,2.20
47.7460,0.07,0.11,-1.00,2.99,4.09,2.14
47.7610,0.08,0.12,-0.99,3.11,3.91,2.08
47.7710,0.08,0.11,-0.99,2.87,3.66,2.50
