Timestamp, AccX, AccY, AccZ, GyroX, GyroY, GyroZ
0.0110,0.09,0.12,-0.98,2.93,3.30,1.95
0.0170,0.08,0.12,-0.98,2.81,3.36,1.83
0.0340,0.09,0.12,-0.98,2.99,3.30,1.95
0.0560,0.09,0.12,-0.98,2.93,3.48,1.89
0.0670,0.08,0.12,-0.98,3.23,3.36,1.71
0.0840,0.09,0.12,-0.98,2.87,3.17,1.95
0.1000,0.08,0.12,-0.98,3.30,3.36,1.95
0.1160,0.08,0.12,-0.98,3.17,3.48,2.01
0.1310,0.08,0.12,-0.98,3.05,3.05,1.83
0.1460,0.09,0.12,-0.98,2.93,3.30,1.83
0.1620,0.09,0.12,-0.98,2.93,2.99,1.83
0.1770,0.09,0.12,-0.98,2.93,3.66,1.77
0.1920,0.09,0.12,-0.98,3.17,2.99,1.77
0.2070,0.09,0.12,-0.98,3.05,3.30,1.95
0.2220,0.09,0.12,-0.98,3.05,3.30,1.89
0.2330,0.09,0.12,-0.98,2.81,3.36,1.89
0.2510,0.08,0.12,-0.98,2.81,3.36,1.83
0.2670,0.08,0.12,-0.98,3.23,3.30,1.89
0.2680,0.08,0.12,-0.98,2.99,3.11,2.01
0.2970,0.09,0.12,-0.98,2.75,2.81,1.89
0.3120,0.09,0.12,-0.98,3.05,3.05,1.89
0.3160,0.09,0.12,-0.98,3.30,2.93,1.89
0.3320,0.08,0.12,-0.98,3.17,3.23,1.95
0.3510,0.08,0.12,-0.98,3.17,3.23,1.95
0.3680,0.09,0.12,-0.98,3.11,3.05,1.95
0.3850,0.08,0.12,-0.98,2.99,2.93,1.95
0.4010,0.08,0.12,-0.98,3.11,3.42,1.89
0.4180,0.09,0.12,-0.98,3.17,3.23,2.01
0.4340,0.09,0.12,-0.98,3.17,3.36,2.01
0.4490,0.09,0.12,-0.98,3.05,2.99,1.95
0.4640,0.09,0.12,-0.98,3.23,3.17,1.89
0.4790,0.08,0.12,-0.98,3.05,3.11,1.95
0.4950,0.08,0.12,-0.98,3.17,3.36,1.89
0.5090,0.09,0.12,-0.98,3.05,3.23,2.01
0.5240,0.08,0.12,-0.98,3.17,3.42,1.83
0.5350,0.08,0.12,-0.98,3.17,3.17,1.83
0.5520,0.09,0.12,-0.98,2.93,3.17,1.83
0.5700,0.09,0.12,-0.98,3.11,3.17,1.95
0.5700,0.09,0.12,-0.98,3.11,3.17,1.89
0.5990,0.08,0.12,-0.98,3.05,3.30,1.89
0.6150,0.09,0.12,-0.98,3.30,3.30,1.83
0.6300,0.08,0.12,-0.98,3.11,3.17,1.95
0.6350,0.09,0.12,-0.98,3.05,3.17,1.83
0.6510,0.09,0.12,-0.98,3.05,3.11,1.95
0.6720,0.09,0.12,-0.98,3.11,3.17,1.77
0.6890,0.09,0.12,-0.98,3.05,3.05,1.83
0.7050,0.08,0.12,-0.98,3.23,3.23,1.89
0.7240,0.09,0.12,-0.98,3.11,2.99,1.89
0.7400,0.08,0.12,-0.98,3.17,2.99,2.01
0.7550,0.08,0.12,-0.98,3.17,3.23,1.95
0.7700,0.08,0.12,-0.98,2.99,3.36,1.95
0.7850,0.08,0.12,-0.98,2.87,3.42,1.83
0.7990,0.08,0.12,-0.98,3.17,3.42,1.95
0.8150,0.08,0.12,-0.98,3.11,3.23,1.71
0.8270,0.08,0.12,-0.98,3.17,3.36,1.95
0.8440,0.09,0.12,-0.98,3.11,3.36,1.95
0.8600,0.08,0.12,-0.98,3.11,3.11,1.89
0.8760,0.08,0.12,-0.98,3.05,3.36,1.95
0.8930,0.09,0.12,-0.98,2.99,3.30,2.01
0.9090,0.09,0.12,-0.98,3.17,3.42,1.83
0.9240,0.09,0.12,-0.98,2.99,2.87,1.89
0.9270,0.08,0.12,-0.98,3.17,3.23,1.89
0.9430,0.08,0.12,-0.98,3.05,3.11,2.01
0.9650,0.09,0.12,-0.98,3.05,3.36,1.89
0.9810,0.09,0.12,-0.98,3.05,3.66,1.83
0.9980,0.08,0.12,-0.98,3.05,3.60,2.01
1.0150,0.08,0.12,-0.98,3.17,3.17,1.89
1.0300,0.09,0.12,-0.98,3.11,3.23,1.83
1.0450,0.08,0.12,-0.98,3.23,3.17,1.71
1.0610,0.08,0.12,-0.98,3.17,3.17,1.95
1.0770,0.09,0.12,-0.98,3.30,3.30,2.01
1.0820,0.08,0.12,-0.98,3.17,2.87,1.89
1.0980,0.08,0.12,-0.98,3.36,3.11,1.89
1.1200,0.08,0.12,-0.98,2.81,3.23,1.89
1.1360,0.08,0.12,-0.98,2.99,3.11,1.89
1.1540,0.08,0.12,-0.98,3.17,3.11,1.89
1.1700,0.08,0.12,-0.98,2.93,2.99,1.95
1.1860,0.09,0.12,-0.98,3.05,3.42,1.77
1.2020,0.08,0.12,-0.98,2.99,3.11,1.95
1.2180,0.08,0.12,-0.98,3.23,2.93,1.89
1.2200,0.09,0.12,-0.98,2.93,3.05,2.01
1.2360,0.08,0.12,-0.98,3.05,2.99,1.71
1.2640,0.09,0.12,-0.98,3.17,3.48,1.95
1.2750,0.08,0.12,-0.98,3.11,3.23,1.95
1.2910,0.09,0.12,-0.98,2.93,3.11,1.95
1.3070,0.08,0.12,-0.98,3.11,3.36,1.89
1.3260,0.08,0.12,-0.98,3.05,3.36,1.83
1.3410,0.09,0.12,-0.98,3.11,3.30,1.89
1.3580,0.09,0.12,-0.98,3.05,3.42,1.95
1.3590,0.08,0.12,-0.98,2.87,3.23,1.89
1.3750,0.09,0.12,-0.98,3.11,2.93,1.83
1.4060,0.08,0.12,-0.98,3.05,2.75,1.77
1.4210,0.09,0.12,-0.98,2.87,3.17,1.83
1.4370,0.08,0.12,-0.98,3.11,3.11,1.83
1.4410,0.08,0.12,-0.98,2.93,3.30,1.83
1.4570,0.09,0.12,-0.98,2.99,3.30,1.83
1.4780,0.09,0.12,-0.98,3.11,3.23,1.89
1.4950,0.08,0.12,-0.98,3.17,3.05,1.89
1.5110,0.09,0.12,-0.98,3.17,3.11,1.95
1.5280,0.08,0.12,-0.98,3.11,3.17,1.77
1.5420,0.08,0.12,-0.98,3.11,2.81,1.71
1.5590,0.09,0.12,-0.98,2.93,3.11,1.71
1.5740,0.08,0.12,-0.98,3.11,2.93,1.83
1.5910,0.09,0.12,-0.98,3.11,2.99,1.71
1.6060,0.09,0.12,-0.98,3.23,3.17,1.71
1.6220,0.08,0.12,-0.98,3.23,2.99,1.83
1.6290,0.09,0.12,-0.98,3.05,3.42,1.89
1.6440,0.08,0.12,-0.98,3.11,2.99,1.89
1.6670,0.09,0.12,-0.98,2.75,3.17,1.83
1.6830,0.08,0.12,-0.98,3.11,3.23,1.83
1.6990,0.08,0.12,-0.98,3.11,3.23,1.77
1.7160,0.09,0.12,-0.98,3.23,3.36,1.83
1.7330,0.08,0.12,-0.98,2.93,3.54,2.08
1.7480,0.09,0.12,-0.98,3.23,2.81,1.95
1.7640,0.09,0.12,-0.98,2.99,3.17,1.95
1.7790,0.08,0.12,-0.98,3.05,3.30,1.95
1.7940,0.08,0.12,-0.98,3.11,3.23,1.95
1.8100,0.09,0.12,-0.98,3.11,3.36,1.83
1.8240,0.08,0.12,-0.98,3.17,3.23,1.83
1.8400,0.08,0.12,-0.98,3.30,3.42,1.89
1.8550,0.09,0.12,-0.98,3.23,3.36,1.89
1.8660,0.09,0.12,-0.98,3.05,3.23,1.95
1.8830,0.08,0.12,-0.98,3.17,3.17,1.89
1.9010,0.08,0.12,-0.98,3.11,3.23,1.77
1.9170,0.09,0.12,-0.98,3.11,3.11,1.89
1.9330,0.08,0.12,-0.98,3.30,3.05,1.95
1.9500,0.08,0.12,-0.98,3.17,3.05,1.95
1.9660,0.09,0.12,-0.98,3.05,3.30,1.83
1.9810,0.09,0.12,-0.98,3.05,2.99,1.89
1.9970,0.08,0.12,-0.98,3.05,3.17,1.77
2.0120,0.08,0.12,-0.98,2.93,3.72,1.89
2.0280,0.08,0.12,-0.98,3.30,3.36,1.83
2.0440,0.09,0.12,-0.98,3.17,3.36,1.89
2.0500,0.09,0.12,-0.98,3.11,3.11,1.89
2.0660,0.08,0.12,-0.98,3.11,3.36,1.89
2.0900,0.09,0.12,-0.98,3.17,3.11,1.89
2.1040,0.08,0.12,-0.98,3.11,3.23,1.77
2.1220,0.09,0.12,-0.98,2.87,3.36,1.89
2.1380,0.09,0.12,-0.98,2.99,3.48,1.89
2.1540,0.08,0.12,-0.98,2.93,3.36,1.89
2.1710,0.09,0.12,-0.98,2.99,2.93,1.71
2.1870,0.08,0.12,-0.98,3.17,3.11,1.83
2.2030,0.09,0.12,-0.98,3.05,3.36,1.95
2.2150,0.09,0.12,-0.98,3.05,3.23,1.71
2.2210,0.08,0.12,-0.98,3.11,3.17,1.95
2.2430,0.09,0.12,-0.98,3.05,3.30,1.83
2.2600,0.08,0.12,-0.98,3.17,3.17,1.95
2.2760,0.08,0.12,-0.98,3.11,3.17,1.83
2.2940,0.08,0.12,-0.98,3.17,3.30,1.95
2.2970,0.08,0.12,-0.98,2.99,3.36,1.89
2.3240,0.08,0.12,-0.98,3.11,3.05,1.89
2.3400,0.08,0.12,-0.98,3.23,2.99,2.01
2.3550,0.08,0.12,-0.98,3.11,3.17,1.83
2.3700,0.08,0.12,-0.98,3.17,3.30,2.01
2.3810,0.08,0.12,-0.98,2.99,3.54,1.83
2.3960,0.08,0.12,-0.98,3.17,3.42,1.83
2.4140,0.08,0.12,-0.98,2.99,3.17,1.89
2.4190,0.09,0.12,-0.98,2.99,3.30,1.95
2.4450,0.08,0.12,-0.98,3.05,3.05,1.89
2.4600,0.08,0.12,-0.98,3.17,3.23,1.83
2.4690,0.09,0.12,-0.98,3.05,3.30,1.83
2.4850,0.09,0.12,-0.98,3.05,3.17,1.89
2.5030,0.08,0.12,-0.98,3.05,3.11,1.77
2.5200,0.09,0.12,-0.98,3.11,2.99,1.89
2.5350,0.08,0.12,-0.98,3.17,3.17,1.89
2.5510,0.09,0.12,-0.98,2.99,3.30,1.83
2.5670,0.08,0.12,-0.98,3.23,3.36,1.83
2.5830,0.09,0.12,-0.98,3.11,3.36,1.89
2.5990,0.09,0.12,-0.98,3.05,3.17,1.83
2.6140,0.09,0.12,-0.98,2.93,3.23,1.77
2.6290,0.09,0.12,-0.98,3.11,3.23,1.77
2.6370,0.09,0.12,-0.98,3.23,3.23,1.83
2.6520,0.09,0.12,-0.98,3.11,3.17,2.01
2.6740,0.09,0.12,-0.98,3.05,3.48,2.01
2.6910,0.08,0.12,-0.98,3.05,3.17,1.77
2.7080,0.08,0.12,-0.98,3.17,3.23,1.83
2.7230,0.09,0.12,-0.98,3.11,3.23,1.83
2.7400,0.08,0.12,-0.98,2.99,3.60,2.14
2.7550,0.09,0.12,-0.98,2.99,3.36,2.01
2.7720,0.08,0.12,-0.98,3.05,3.30,1.89
2.7870,0.08,0.12,-0.98,2.99,3.05,1.83
2.7910,0.08,0.12,-0.98,3.11,3.54,1.95
2.8160,0.08,0.12,-0.98,3.17,2.87,1.77
2.8300,0.09,0.12,-0.98,3.11,3.17,1.83
2.8460,0.09,0.12,-0.98,2.93,3.11,1.95
2.8630,0.08,0.12,-0.98,2.87,3.36,1.83
2.8790,0.09,0.12,-0.98,3.11,3.17,1.89
2.8940,0.09,0.12,-0.98,3.17,3.23,1.95
2.9090,0.09,0.12,-0.98,3.05,3.23,1.83
2.9240,0.08,0.12,-0.98,3.23,3.23,1.95
2.9410,0.08,0.12,-0.98,2.93,3.23,1.95
2.9460,0.08,0.12,-0.98,2.93,3.23,1.95
2.9620,0.09,0.12,-0.98,3.11,3.05,1.83
2.9830,0.09,0.12,-0.98,2.99,3.05,1.77
2.9990,0.08,0.12,-0.98,2.99,2.81,1.95
3.0160,0.09,0.12,-0.98,3.11,3.23,1.95
3.0330,0.08,0.12,-0.98,3.11,3.23,1.83
3.0490,0.09,0.12,-0.98,3.17,3.42,1.83
3.0650,0.08,0.12,-0.98,3.30,2.93,1.83
3.0810,0.08,0.12,-0.98,3.05,3.17,2.01
3.0960,0.08,0.12,-0.98,3.11,2.99,1.95
3.1110,0.08,0.12,-0.98,3.11,3.72,1.89
3.1270,0.08,0.12,-0.98,3.17,3.36,1.83
3.1420,0.08,0.12,-0.98,3.11,3.42,1.95
3.1570,0.08,0.12,-0.98,2.99,2.99,1.89
3.1720,0.08,0.12,-0.98,3.11,3.11,1.95
3.1830,0.08,0.12,-0.98,3.30,3.23,1.95
3.1990,0.09,0.12,-0.98,3.05,3.36,1.89
3.2170,0.08,0.12,-0.98,2.87,3.30,1.83
3.2320,0.09,0.12,-0.98,2.93,3.30,1.95
3.2490,0.08,0.12,-0.98,3.23,3.36,1.95
3.2660,0.09,0.12,-0.98,3.11,3.17,1.89
3.2810,0.08,0.12,-0.98,3.05,3.17,1.95
3.2970,0.08,0.12,-0.98,3.11,3.42,2.01
3.3120,0.08,0.12,-0.98,2.93,3.23,1.95
3.3280,0.09,0.12,-0.98,2.99,3.36,1.83
3.3330,0.09,0.12,-0.98,2.99,3.78,1.77
3.3480,0.09,0.12,-0.98,2.99,3.11,1.77
3.3710,0.08,0.12,-0.98,3.30,3.17,1.95
3.3870,0.08,0.12,-0.98,3.05,3.05,1.83
3.4050,0.09,0.12,-0.98,3.11,3.72,1.95
3.4210,0.09,0.12,-0.98,3.30,3.23,2.01
3.4370,0.08,0.12,-0.98,3.11,3.48,1.95
3.4380,0.09,0.12,-0.98,3.23,3.05,1.89
3.4700,0.08,0.12,-0.98,3.11,3.30,1.89
3.4710,0.08,0.12,-0.98,3.17,3.05,1.95
3.4890,0.09,0.12,-0.98,2.99,3.48,1.95
3.5170,0.08,0.12,-0.98,3.17,3.17,2.01
3.5210,0.09,0.12,-0.98,2.99,2.99,2.01
3.5380,0.08,0.12,-0.98,3.05,3.05,1.83
3.5540,0.09,0.12,-0.98,3.17,3.11,1.83
3.5710,0.08,0.12,-0.98,3.11,3.54,2.08
3.5880,0.09,0.12,-0.98,3.23,2.87,1.83
3.6050,0.09,0.12,-0.98,3.05,3.17,1.89
3.6210,0.09,0.12,-0.98,3.30,3.42,1.95
3.6400,0.08,0.12,-0.98,3.17,3.23,1.83
3.6560,0.09,0.12,-0.98,3.17,2.81,1.89
3.6720,0.08,0.12,-0.98,3.23,3.17,1.83
3.6880,0.08,0.12,-0.98,3.23,2.99,1.83
3.6900,0.09,0.12,-0.98,3.17,3.05,2.01
3.7170,0.08,0.12,-0.98,3.30,2.81,1.83
3.7340,0.08,0.12,-0.98,2.93,2.99,1.77
3.7450,0.08,0.12,-0.98,2.87,2.93,1.77
3.7610,0.09,0.12,-0.98,3.42,2.99,1.83
3.7770,0.08,0.12,-0.98,3.17,3.30,1.89
3.7950,0.08,0.12,-0.98,3.30,3.30,1.95
3.8110,0.09,0.12,-0.98,3.11,2.99,1.83
3.8170,0.09,0.12,-0.98,3.05,3.23,1.77
3.8420,0.08,0.12,-0.98,3.05,3.23,1.89
3.8570,0.08,0.12,-0.98,3.17,3.54,1.89
3.8650,0.09,0.12,-0.98,3.17,3.17,1.95
3.8800,0.09,0.12,-0.98,3.23,3.17,1.95
3.9000,0.08,0.12,-0.98,3.17,3.23,2.01
3.9170,0.09,0.12,-0.98,3.30,3.17,1.83
3.9320,0.09,0.12,-0.98,3.30,3.11,1.77
3.9490,0.08,0.12,-0.98,2.87,3.11,1.77
3.9650,0.09,0.12,-0.98,3.30,2.99,1.77
3.9810,0.08,0.12,-0.98,3.17,3.11,1.83
3.9970,0.08,0.12,-0.98,2.99,3.54,1.89
4.0120,0.09,0.12,-0.98,2.99,3.36,1.77
4.0180,0.09,0.12,-0.98,2.99,3.17,1.71
4.0320,0.09,0.12,-0.98,3.23,2.93,1.77
4.0550,0.08,0.12,-0.98,3.30,3.17,1.89
4.0730,0.08,0.12,-0.98,2.93,3.23,1.83
4.0890,0.09,0.12,-0.98,3.36,3.11,1.77
4.1060,0.08,0.12,-0.98,3.17,2.93,1.95
4.1220,0.09,0.12,-0.98,3.17,3.17,1.89
4.1370,0.08,0.12,-0.98,3.11,2.75,1.77
4.1530,0.09,0.12,-0.98,3.30,2.69,1.95
4.1700,0.08,0.12,-0.98,3.05,3.30,1.83
4.1870,0.09,0.12,-0.98,3.17,3.30,1.89
4.2030,0.08,0.12,-0.98,3.11,3.17,1.95
4.2190,0.09,0.12,-0.98,3.05,3.17,1.95
4.2350,0.09,0.12,-0.98,3.11,2.69,1.71
4.2500,0.08,0.12,-0.98,3.11,3.17,1.83
4.2660,0.09,0.12,-0.98,3.05,3.17,1.89
4.2810,0.09,0.12,-0.98,3.30,2.93,1.83
4.2980,0.08,0.12,-0.98,2.99,3.36,1.83
4.3130,0.09,0.12,-0.98,2.99,3.23,1.89
4.3280,0.08,0.12,-0.98,3.17,3.48,1.77
4.3390,0.09,0.12,-0.98,2.99,3.11,1.83
4.3560,0.09,0.12,-0.98,2.99,3.17,1.83
4.3720,0.08,0.12,-0.98,3.17,2.75,1.83
4.3880,0.08,0.12,-0.98,3.17,3.17,1.89
4.4050,0.09,0.12,-0.98,2.99,3.72,1.89
4.4220,0.08,0.12,-0.98,3.11,3.42,1.89
4.4380,0.08,0.12,-0.98,3.11,3.05,1.77
4.4540,0.08,0.12,-0.98,3.11,2.99,1.89
4.4700,0.09,0.12,-0.98,3.11,3.42,1.89
4.4850,0.09,0.12,-0.98,3.11,3.23,1.77
4.4880,0.09,0.12,-0.98,3.23,2.93,1.89
4.5040,0.08,0.12,-0.98,3.30,3.17,1.95
4.5270,0.08,0.12,-0.98,3.23,3.05,1.83
4.5440,0.08,0.12,-0.98,3.11,3.23,1.89
4.5600,0.09,0.12,-0.98,3.11,3.05,2.01
4.5610,0.08,0.12,-0.98,3.17,3.11,1.89
4.5780,0.09,0.12,-0.98,3.23,3.42,1.95
4.5950,0.09,0.12,-0.98,2.93,3.42,1.77
4.6240,0.09,0.12,-0.98,3.30,3.11,1.77
4.6400,0.09,0.12,-0.98,3.17,3.36,1.89
4.6570,0.08,0.12,-0.98,3.23,2.87,1.77
4.6730,0.09,0.12,-0.98,3.30,3.17,1.89
4.6890,0.09,0.12,-0.98,3.11,3.17,1.95
4.6950,0.09,0.12,-0.98,3.11,3.17,1.95
4.7190,0.09,0.12,-0.98,3.11,3.05,1.83
4.7330,0.09,0.12,-0.98,3.05,3.23,1.89
4.7490,0.09,0.12,-0.98,3.11,3.30,1.95
4.7660,0.09,0.12,-0.98,3.11,3.30,2.01
4.7820,0.09,0.12,-0.98,3.17,3.23,1.95
4.8000,0.08,0.12,-0.98,3.48,2.69,1.83
4.8150,0.08,0.12,-0.98,3.23,3.30,1.89
4.8310,0.08,0.12,-0.98,3.05,3.48,1.95
4.8470,0.08,0.12,-0.98,3.05,3.11,1.83
4.8630,0.08,0.12,-0.98,3.05,3.54,2.01
4.8790,0.09,0.12,-0.98,2.93,3.17,1.83
4.8940,0.09,0.12,-0.98,3.23,3.23,1.95
4.9090,0.09,0.12,-0.98,2.99,3.30,1.95
4.9240,0.09,0.12,-0.98,3.11,3.17,1.89
4.9380,0.09,0.12,-0.98,3.05,3.30,2.01
4.9500,0.09,0.12,-0.98,3.17,3.17,1.83
4.9660,0.09,0.12,-0.98,3.48,3.30,1.83
4.9830,0.08,0.12,-0.98,3.05,3.17,1.89
4.9990,0.09,0.12,-0.98,3.11,3.30,2.01
5.0160,0.09,0.12,-0.98,3.23,3.17,1.89
5.0330,0.09,0.12,-0.98,2.99,3.36,1.95
5.0480,0.08,0.12,-0.98,2.99,3.36,1.95
5.0650,0.09,0.12,-0.98,3.23,3.17,1.77
5.0800,0.09,0.12,-0.98,3.30,3.17,1.83
5.0960,0.09,0.12,-0.98,3.17,3.17,1.89
5.1110,0.08,0.12,-0.98,3.17,3.11,2.01
5.1190,0.09,0.12,-0.98,3.30,3.36,2.08
5.1310,0.09,0.12,-0.98,3.11,3.05,1.89
5.1540,0.09,0.12,-0.98,3.23,3.36,1.89
5.1710,0.08,0.12,-0.98,3.23,3.36,1.95
5.1880,0.08,0.12,-0.98,3.17,3.54,1.71
5.2040,0.09,0.12,-0.98,3.05,3.05,1.83
5.2200,0.09,0.12,-0.98,3.17,2.99,1.83
5.2220,0.09,0.12,-0.98,3.17,2.81,1.89
5.2370,0.08,0.12,-0.98,3.11,3.30,1.83
5.2550,0.09,0.12,-0.98,3.11,2.75,1.83
5.2710,0.08,0.12,-0.98,3.30,3.05,1.83
5.3000,0.08,0.12,-0.98,3.05,3.17,2.01
5.3150,0.09,0.12,-0.98,3.17,3.17,1.89
5.3310,0.09,0.12,-0.98,3.11,3.17,2.01
5.3460,0.09,0.12,-0.98,3.17,3.54,1.95
5.3560,0.08,0.12,-0.98,3.42,2.99,1.95
5.3730,0.08,0.12,-0.98,3.23,2.99,1.83
5.3910,0.08,0.12,-0.98,3.05,3.23,1.89
5.4060,0.09,0.12,-0.98,3.05,3.05,2.08
5.4230,0.08,0.12,-0.98,3.11,3.17,1.95
5.4380,0.08,0.12,-0.98,3.17,2.87,1.89
5.4540,0.08,0.12,-0.98,3.11,3.11,1.95
5.4710,0.09,0.12,-0.98,3.11,3.36,1.95
5.4870,0.08,0.12,-0.98,3.23,3.42,1.89
5.4900,0.08,0.12,-0.98,3.23,3.17,1.95
5.5190,0.08,0.12,-0.98,3.05,3.36,1.89
5.5230,0.08,0.12,-0.98,2.93,2.99,1.95
5.5390,0.09,0.12,-0.98,3.11,3.36,1.95
5.5600,0.09,0.12,-0.98,3.36,3.11,1.89
5.5770,0.09,0.12,-0.98,3.05,3.36,1.83
5.5940,0.08,0.12,-0.98,3.23,3.11,1.77
5.6100,0.09,0.12,-0.98,3.17,3.17,1.89
5.6270,0.09,0.12,-0.98,3.11,3.42,1.95
5.6420,0.09,0.12,-0.98,3.17,3.42,1.89
5.6570,0.09,0.12,-0.98,3.05,3.36,1.95
5.6740,0.08,0.12,-0.98,3.05,3.36,1.89
5.6890,0.08,0.12,-0.98,3.23,3.30,1.89
5.7040,0.09,0.12,-0.98,3.11,3.36,2.01
5.7200,0.09,0.12,-0.98,3.11,3.42,1.77
5.7260,0.09,0.12,-0.98,3.11,3.48,1.83
5.7490,0.09,0.12,-0.98,2.99,3.23,1.89
5.7660,0.08,0.12,-0.98,3.17,3.05,1.83
5.7820,0.08,0.12,-0.98,2.93,3.05,1.77
5.7980,0.08,0.12,-0.98,3.11,3.30,1.83
5.8000,0.08,0.12,-0.98,2.93,3.42,1.89
5.8300,0.09,0.12,-0.98,3.30,3.30,1.95
5.8450,0.09,0.12,-0.98,3.11,3.11,1.77
5.8600,0.08,0.12,-0.98,3.23,3.05,1.71
5.8770,0.09,0.12,-0.98,3.11,3.30,1.95
5.8930,0.09,0.12,-0.98,3.17,3.23,1.95
5.9090,0.08,0.12,-0.98,2.93,3.54,1.83
5.9240,0.09,0.12,-0.98,2.99,3.30,1.95
5.9400,0.09,0.12,-0.98,3.11,3.17,1.95
5.9550,0.08,0.12,-0.98,3.17,2.99,1.95
5.9700,0.09,0.12,-0.98,2.99,3.05,1.83
5.9820,0.09,0.12,-0.98,3.05,3.23,1.89
6.0000,0.08,0.12,-0.98,3.11,3.30,1.65
6.0150,0.09,0.12,-0.98,3.05,3.60,1.89
6.0320,0.08,0.12,-0.98,2.87,3.11,1.77
6.0490,0.09,0.12,-0.98,3.23,3.36,1.89
6.0650,0.09,0.12,-0.98,3.11,3.05,1.89
6.0820,0.08,0.12,-0.98,3.11,3.23,2.01
6.0970,0.08,0.12,-0.98,3.23,2.93,1.83
6.1120,0.09,0.12,-0.98,3.23,2.99,1.95
6.1270,0.09,0.12,-0.98,3.11,3.42,1.89
6.1320,0.09,0.12,-0.98,3.17,3.42,1.89
6.1480,0.09,0.12,-0.98,3.05,3.17,1.89
6.1710,0.08,0.12,-0.98,3.11,3.17,1.89
6.1870,0.09,0.12,-0.98,3.23,2.93,1.83
6.2040,0.09,0.12,-0.98,3.05,3.30,1.83
6.2210,0.08,0.12,-0.98,2.99,3.17,1.89
6.2370,0.09,0.12,-0.98,3.11,3.05,1.83
6.2380,0.09,0.12,-0.98,3.17,3.23,1.95
6.2690,0.08,0.12,-0.98,3.05,3.05,1.77
6.2860,0.09,0.12,-0.98,3.11,3.11,1.95
6.2890,0.09,0.12,-0.98,3.23,3.36,1.95
6.3040,0.09,0.12,-0.98,3.05,3.60,1.83
6.3320,0.09,0.12,-0.98,3.11,3.48,1.83
6.3430,0.09,0.12,-0.98,3.05,3.23,1.83
6.3590,0.08,0.12,-0.98,3.11,3.17,1.95
6.3760,0.08,0.12,-0.98,3.11,3.54,1.95
6.3930,0.09,0.12,-0.98,2.99,3.48,1.89
6.4090,0.09,0.12,-0.98,3.17,2.93,1.95
6.4260,0.09,0.12,-0.98,3.17,3.23,1.95
6.4410,0.08,0.12,-0.98,3.17,3.23,1.89
6.4570,0.09,0.12,-0.98,3.17,2.93,1.71
6.4730,0.09,0.12,-0.98,3.05,3.23,1.89
6.4890,0.08,0.12,-0.98,3.11,3.36,1.83
6.5050,0.08,0.12,-0.98,3.36,3.17,1.83
6.5090,0.08,0.12,-0.98,3.11,3.17,1.83
6.5250,0.08,0.12,-0.98,3.30,2.99,1.77
6.5500,0.09,0.12,-0.98,3.30,3.05,1.83
6.5650,0.08,0.12,-0.98,3.11,3.30,2.01
6.5820,0.09,0.12,-0.98,3.23,2.93,1.77
6.5980,0.09,0.12,-0.98,2.99,3.30,2.01
6.6140,0.08,0.12,-0.98,3.17,3.11,1.83
6.6300,0.08,0.12,-0.98,2.99,3.23,1.77
6.6440,0.09,0.12,-0.98,2.99,3.54,2.01
6.6600,0.09,0.12,-0.98,3.23,3.23,1.83
6.6660,0.08,0.12,-0.98,3.11,3.17,1.65
6.6810,0.09,0.12,-0.98,3.05,3.11,1.71
6.7080,0.08,0.12,-0.98,3.23,3.36,1.89
6.7220,0.09,0.12,-0.98,2.99,3.05,1.95
6.7360,0.08,0.12,-0.98,2.93,3.23,1.83
6.7510,0.09,0.12,-0.98,3.11,3.05,2.01
6.7680,0.08,0.12,-0.98,3.05,3.30,1.83
6.7850,0.09,0.12,-0.98,3.11,3.05,1.83
6.8010,0.09,0.12,-0.98,2.93,3.48,1.89
6.8170,0.09,0.12,-0.98,2.93,3.42,1.83
6.8320,0.09,0.12,-0.98,3.30,2.99,1.77
6.8480,0.09,0.12,-0.98,3.05,3.23,1.89
6.8640,0.08,0.12,-0.98,3.17,2.93,2.01
6.8690,0.08,0.12,-0.98,2.99,3.17,2.01
6.8840,0.09,0.12,-0.98,3.17,2.99,1.95
6.9070,0.08,0.12,-0.98,3.23,2.93,1.83
6.9250,0.08,0.12,-0.98,3.30,3.17,1.95
6.9410,0.08,0.12,-0.98,3.23,2.93,1.95
6.9570,0.09,0.12,-0.98,3.17,3.23,1.89
6.9740,0.08,0.12,-0.98,3.30,2.87,1.83
6.9900,0.09,0.12,-0.98,3.36,3.11,1.95
7.0050,0.08,0.12,-0.98,3.05,3.11,1.95
7.0080,0.08,0.12,-0.98,3.23,2.81,1.83
7.0370,0.09,0.12,-0.98,3.23,3.11,1.83
7.0530,0.08,0.12,-0.98,3.23,3.17,1.89
7.0690,0.09,0.12,-0.98,3.23,3.23,2.01
7.0730,0.09,0.12,-0.98,2.93,3.54,1.89
7.0890,0.09,0.12,-0.98,3.05,3.36,1.89
7.1130,0.08,0.12,-0.98,2.93,3.11,1.89
7.1290,0.08,0.12,-0.98,3.17,3.36,1.89
7.1460,0.08,0.12,-0.98,3.05,3.23,1.83
7.1620,0.09,0.12,-0.98,3.17,3.60,1.95
7.1770,0.08,0.12,-0.98,3.30,3.11,1.83
7.1950,0.09,0.12,-0.98,3.11,3.42,1.95
7.2110,0.09,0.12,-0.98,2.81,3.17,1.89
7.2270,0.09,0.12,-0.98,3.30,2.99,1.83
7.2420,0.09,0.12,-0.98,3.30,3.30,1.89
7.2580,0.09,0.12,-0.98,3.11,3.23,1.83
7.2620,0.08,0.12,-0.98,3.05,3.42,1.89
7.2780,0.09,0.12,-0.98,3.17,3.11,1.89
7.3010,0.09,0.12,-0.98,3.05,3.42,1.77
7.3170,0.09,0.12,-0.98,2.87,3.23,1.95
7.3350,0.08,0.12,-0.98,3.11,3.17,1.89
7.3520,0.09,0.12,-0.98,3.05,3.11,2.01
7.3660,0.09,0.12,-0.98,3.05,3.11,1.95
7.3820,0.08,0.12,-0.98,3.11,3.05,1.83
7.3960,0.08,0.12,-0.98,3.11,3.30,1.77
7.4110,0.09,0.12,-0.98,3.30,3.23,1.95
7.4260,0.09,0.12,-0.98,3.11,3.23,1.77
7.4410,0.09,0.12,-0.98,3.05,3.42,1.89
7.4570,0.09,0.12,-0.98,3.11,3.05,1.77
7.4680,0.09,0.12,-0.98,2.87,3.30,1.83
7.4850,0.09,0.12,-0.98,2.93,3.23,1.89
7.5020,0.09,0.12,-0.98,3.05,3.17,1.89
7.5180,0.09,0.12,-0.98,3.30,3.11,1.95
7.5330,0.09,0.12,-0.98,3.23,3.42,2.01
7.5490,0.08,0.12,-0.98,3.17,3.11,1.89
7.5660,0.09,0.12,-0.98,2.99,3.48,2.01
7.5820,0.09,0.12,-0.98,3.30,3.36,2.01
7.5980,0.09,0.12,-0.98,3.11,3.48,1.83
7.6130,0.09,0.12,-0.98,3.23,2.69,1.89
7.6280,0.09,0.12,-0.98,3.17,3.11,1.89
7.6420,0.09,0.12,-0.98,3.17,3.42,1.89
7.6580,0.09,0.12,-0.98,3.23,3.05,1.89
7.6680,0.08,0.12,-0.98,3.05,3.17,1.83
7.6840,0.09,0.12,-0.98,3.23,3.17,1.89
7.7050,0.08,0.12,-0.98,3.05,3.36,1.83
7.7210,0.09,0.12,-0.98,3.30,3.23,1.95
7.7370,0.09,0.12,-0.98,3.11,3.17,1.89
7.7530,0.08,0.12,-0.98,3.05,3.30,2.01
7.7680,0.09,0.12,-0.98,3.05,3.17,1.77
7.7850,0.08,0.12,-0.98,3.17,3.54,1.95
7.8000,0.08,0.12,-0.98,3.23,3.72,1.77
7.8160,0.09,0.12,-0.98,3.36,3.05,1.89
7.8320,0.08,0.12,-0.98,3.11,3.54,2.01
7.8490,0.08,0.12,-0.98,3.36,3.48,1.95
7.8640,0.09,0.12,-0.98,3.23,3.42,1.95
7.8730,0.09,0.12,-0.98,3.05,3.42,1.89
7.8900,0.08,0.12,-0.98,3.17,3.23,1.77
7.9060,0.09,0.12,-0.98,3.17,3.42,1.89
7.9230,0.09,0.12,-0.98,3.05,3.36,2.01
7.9390,0.08,0.12,-0.98,2.99,3.36,1.77
7.9540,0.09,0.12,-0.98,3.11,3.48,1.83
7.9570,0.09,0.12,-0.98,3.11,3.23,1.77
7.9860,0.08,0.12,-0.98,3.17,3.30,1.95
7.9900,0.09,0.12,-0.98,3.11,2.93,1.83
8.0050,0.08,0.12,-0.98,3.11,3.30,1.89
8.0340,0.09,0.12,-0.98,3.17,3.30,1.83
8.0490,0.09,0.12,-0.98,2.99,3.17,1.77
8.0600,0.08,0.12,-0.98,2.75,3.23,1.77
8.0770,0.08,0.12,-0.98,2.99,3.30,1.89
8.0930,0.09,0.12,-0.98,3.11,3.11,1.89
8.1100,0.08,0.12,-0.98,3.17,3.23,1.89
8.1250,0.09,0.12,-0.98,3.23,3.23,1.83
8.1420,0.09,0.12,-0.98,3.23,3.17,1.95
8.1580,0.08,0.12,-0.98,3.05,3.11,2.01
8.1600,0.09,0.12,-0.98,2.99,3.23,1.65
8.1760,0.08,0.12,-0.98,2.93,3.42,1.95
8.1980,0.09,0.12,-0.98,3.11,3.30,2.01
8.2160,0.09,0.12,-0.98,3.05,3.11,1.89
8.2320,0.09,0.12,-0.98,3.11,3.36,1.83
8.2480,0.09,0.12,-0.98,3.17,3.23,1.77
8.2630,0.08,0.12,-0.98,3.11,3.42,1.83
8.2790,0.09,0.12,-0.98,3.05,3.36,1.95
8.2940,0.08,0.12,-0.98,3.11,3.05,1.83
8.3100,0.08,0.12,-0.98,3.11,3.17,1.83
8.3240,0.09,0.12,-0.98,3.11,3.54,1.95
8.3310,0.08,0.12,-0.98,3.17,3.05,1.89
8.3510,0.08,0.12,-0.98,3.30,3.23,1.83
8.3680,0.08,0.12,-0.98,3.30,3.30,1.71
8.3850,0.09,0.12,-0.98,3.17,3.17,1.95
8.4010,0.09,0.12,-0.98,3.23,3.17,1.77
8.4180,0.09,0.12,-0.98,2.93,3.17,1.83
8.4350,0.09,0.12,-0.98,3.05,3.48,1.77
8.4510,0.09,0.12,-0.98,2.99,3.48,1.83
8.4670,0.08,0.12,-0.98,3.11,3.17,1.89
8.4840,0.08,0.12,-0.98,2.99,3.36,1.95
8.5000,0.08,0.12,-0.98,2.93,3.42,1.95
8.5160,0.09,0.12,-0.98,3.11,3.36,1.95
8.5310,0.09,0.12,-0.98,3.05,3.42,1.83
8.5470,0.08,0.12,-0.98,3.05,3.36,1.95
8.5630,0.09,0.12,-0.98,3.17,3.23,1.95
8.5780,0.08,0.12,-0.98,3.23,3.17,2.08
8.5930,0.08,0.12,-0.98,2.99,3.17,1.83
8.6090,0.09,0.12,-0.98,2.99,3.42,1.89
8.6240,0.08,0.12,-0.98,3.17,3.66,1.89
8.6350,0.09,0.12,-0.98,2.93,3.36,1.95
8.6500,0.08,0.12,-0.98,3.11,3.30,1.77
8.6710,0.09,0.12,-0.98,3.23,3.17,1.83
8.6870,0.09,0.12,-0.98,3.11,3.17,1.95
8.7040,0.08,0.12,-0.98,3.17,3.17,1.89
8.7200,0.09,0.12,-0.98,3.11,3.36,1.89
8.7350,0.09,0.12,-0.98,3.11,3.54,1.89
8.7510,0.08,0.12,-0.98,2.99,3.54,1.83
8.7670,0.09,0.12,-0.98,2.99,3.30,1.95
8.7720,0.09,0.12,-0.98,3.17,3.23,1.89
8.7880,0.08,0.12,-0.98,3.11,3.42,1.83
8.8110,0.08,0.12,-0.98,3.11,3.23,1.89
8.8280,0.09,0.12,-0.98,3.17,3.05,1.77
8.8430,0.09,0.12,-0.98,3.23,3.17,1.89
8.8600,0.08,0.12,-0.98,3.11,3.23,1.95
8.8760,0.09,0.12,-0.98,3.23,3.36,1.89
8.8920,0.09,0.12,-0.98,3.11,3.11,1.95
8.8950,0.09,0.12,-0.98,3.30,2.99,1.89
8.9110,0.09,0.12,-0.98,3.30,3.42,2.08
8.9330,0.09,0.12,-0.98,3.05,3.54,2.01
8.9510,0.09,0.12,-0.98,3.11,3.42,1.83
8.9670,0.09,0.12,-0.98,3.17,3.42,1.95
8.9840,0.09,0.12,-0.98,3.23,2.99,2.08
9.0000,0.09,0.12,-0.98,3.30,3.05,1.89
9.0180,0.09,0.12,-0.98,3.05,3.11,1.89
9.0330,0.08,0.12,-0.98,3.05,3.54,1.95
9.0490,0.09,0.12,-0.98,3.17,3.36,2.01
9.0660,0.09,0.12,-0.98,3.23,3.05,1.83
9.0820,0.09,0.12,-0.98,2.93,3.48,2.08
9.0980,0.09,0.12,-0.98,3.11,3.85,1.95
9.1130,0.09,0.12,-0.98,2.99,3.30,1.95
9.1280,0.09,0.12,-0.98,3.11,3.11,1.89
9.1440,0.09,0.12,-0.98,3.05,3.54,1.95
9.1500,0.08,0.12,-0.98,3.30,3.17,1.95
9.1660,0.09,0.12,-0.98,3.30,3.36,1.95
9.1880,0.09,0.12,-0.98,3.17,3.17,2.01
9.2050,0.09,0.12,-0.98,3.05,3.36,1.89
9.2220,0.08,0.12,-0.98,3.05,3.11,1.65
9.2390,0.09,0.12,-0.98,3.05,3.30,1.77
9.2550,0.08,0.12,-0.98,3.17,3.48,1.95
9.2710,0.09,0.12,-0.98,3.17,3.42,2.08
9.2870,0.08,0.12,-0.98,2.99,3.48,1.83
9.3030,0.08,0.12,-0.98,3.23,3.11,1.77
9.3190,0.09,0.12,-0.98,3.17,3.30,1.77
9.3240,0.08,0.12,-0.98,3.11,3.17,1.89
9.3370,0.09,0.12,-0.98,3.05,3.48,1.95
9.3650,0.09,0.12,-0.98,3.17,3.36,1.89
9.3750,0.08,0.12,-0.98,3.11,3.42,2.01
9.3920,0.08,0.12,-0.98,3.23,3.30,1.95
9.4080,0.09,0.12,-0.98,3.17,3.36,1.83
9.4250,0.08,0.12,-0.98,3.05,3.48,1.89
9.4410,0.09,0.12,-0.98,3.30,3.36,2.01
9.4570,0.08,0.12,-0.98,3.23,3.36,1.83
9.4730,0.08,0.12,-0.98,3.05,3.42,1.89
9.4900,0.08,0.12,-0.98,3.05,3.30,1.77
9.5060,0.08,0.12,-0.98,3.23,3.17,2.08
9.5220,0.09,0.12,-0.98,3.17,3.48,1.89
9.5380,0.08,0.12,-0.98,3.30,3.42,2.14
9.5540,0.09,0.12,-0.98,3.11,3.17,1.89
9.5700,0.08,0.12,-0.98,3.05,3.11,2.08
9.5760,0.09,0.12,-0.98,3.05,3.30,2.01
9.5910,0.08,0.12,-0.98,3.11,3.23,1.95
9.6140,0.09,0.12,-0.98,3.05,3.42,1.95
9.6300,0.09,0.12,-0.98,2.99,3.17,1.83
9.6460,0.09,0.12,-0.98,3.17,3.36,1.89
9.6640,0.09,0.12,-0.98,2.75,3.66,1.83
9.6800,0.09,0.12,-0.98,3.11,3.48,2.01
9.6960,0.09,0.12,-0.98,3.23,3.23,2.01
9.7110,0.09,0.12,-0.98,3.05,3.48,1.95
9.7270,0.09,0.12,-0.98,3.11,3.60,1.89
9.7420,0.08,0.12,-0.98,3.05,3.23,1.83
9.7580,0.09,0.12,-0.98,3.17,3.11,1.77
9.7730,0.09,0.12,-0.98,3.23,3.17,1.95
9.7800,0.08,0.12,-0.98,3.17,3.23,1.89
9.8040,0.08,0.12,-0.98,3.23,3.05,1.95
9.8140,0.09,0.12,-0.98,3.17,3.11,1.89
9.8290,0.09,0.12,-0.98,3.17,3.05,1.89
9.8500,0.08,0.12,-0.98,3.30,2.99,1.77
9.8660,0.09,0.12,-0.98,3.36,2.87,1.89
9.8820,0.09,0.12,-0.98,3.36,3.23,1.83
9.8990,0.08,0.12,-0.98,3.11,2.81,2.01
9.9140,0.09,0.12,-0.98,3.11,3.30,2.01
9.9310,0.08,0.12,-0.98,3.11,3.42,1.89
9.9460,0.08,0.12,-0.98,3.11,3.36,1.89
9.9610,0.08,0.12,-0.98,3.17,3.05,1.77
9.9760,0.08,0.12,-0.98,3.17,2.75,1.83
9.9910,0.09,0.12,-0.98,3.23,2.93,1.83
10.0070,0.09,0.12,-0.98,3.30,3.23,1.71
10.0170,0.09,0.12,-0.98,3.36,3.05,1.83
10.0340,0.08,0.12,-0.98,3.17,3.17,1.83
10.0500,0.09,0.12,-0.98,3.23,3.11,1.89
10.0660,0.09,0.12,-0.98,3.23,3.23,1.71
10.0840,0.08,0.12,-0.98,3.30,2.87,1.83
10.1000,0.08,0.12,-0.98,3.11,3.30,1.95
10.1160,0.08,0.12,-0.98,3.30,2.99,1.83
10.1320,0.09,0.12,-0.98,2.99,3.11,1.89
10.1490,0.09,0.12,-0.98,3.17,3.17,1.77
10.1650,0.09,0.12,-0.98,3.17,3.48,1.95
10.1800,0.09,0.12,-0.98,3.05,3.23,1.89
10.1950,0.09,0.12,-0.98,3.05,3.17,1.77
10.2140,0.09,0.12,-0.98,3.05,2.75,1.83
10.2280,0.08,0.12,-0.98,3.17,3.30,1.95
10.2440,0.09,0.12,-0.98,3.11,3.36,1.95
10.2510,0.08,0.12,-0.98,3.11,3.11,1.71
10.2660,0.09,0.12,-0.98,3.23,3.23,1.83
10.2880,0.09,0.12,-0.98,2.93,3.23,1.95
10.3050,0.08,0.12,-0.98,3.05,3.23,1.65
10.3210,0.08,0.12,-0.98,2.87,3.42,1.77
10.3380,0.09,0.12,-0.98,3.23,2.99,1.95
10.3540,0.08,0.12,-0.98,3.23,2.93,1.83
10.3690,0.09,0.12,-0.98,2.99,3.17,1.89
10.3840,0.08,0.12,-0.98,2.87,3.05,1.83
10.3880,0.09,0.12,-0.98,3.23,3.17,1.83
10.4140,0.08,0.12,-0.98,3.05,3.42,1.77
10.4240,0.08,0.12,-0.98,3.11,3.23,1.83
10.4390,0.09,0.12,-0.98,3.17,3.11,1.89
10.4560,0.09,0.12,-0.98,3.05,3.11,1.83
10.4730,0.08,0.12,-0.98,3.05,3.36,1.83
10.4880,0.09,0.12,-0.98,3.23,3.23,1.89
10.5050,0.09,0.12,-0.98,3.17,3.48,1.83
10.5220,0.08,0.12,-0.98,3.11,3.48,1.95
10.5380,0.09,0.12,-0.98,3.17,3.42,1.83
10.5540,0.09,0.12,-0.98,3.11,3.23,2.01
10.5700,0.09,0.12,-0.98,3.11,3.48,1.89
10.5860,0.08,0.12,-0.98,3.23,3.23,1.89
10.6020,0.08,0.12,-0.98,3.05,3.30,1.89
10.6180,0.08,0.12,-0.98,3.05,3.42,2.01
10.6340,0.09,0.12,-0.98,3.05,3.11,1.95
10.6500,0.08,0.12,-0.98,2.93,3.23,1.77
10.6550,0.08,0.12,-0.98,3.05,2.87,1.89
10.6710,0.08,0.12,-0.98,3.05,3.17,1.95
10.6940,0.08,0.12,-0.98,3.23,3.30,1.95
10.7100,0.09,0.12,-0.98,3.05,3.11,1.77
10.7260,0.09,0.12,-0.98,3.11,3.36,1.95
10.7420,0.09,0.12,-0.98,3.11,3.23,1.89
10.7560,0.09,0.12,-0.98,3.17,3.36,1.77
10.7710,0.09,0.12,-0.98,2.93,3.23,1.77
10.7870,0.09,0.12,-0.98,2.99,3.42,1.83
10.7940,0.09,0.12,-0.98,3.11,3.17,1.95
10.8170,0.09,0.12,-0.98,3.17,3.05,1.71
10.8270,0.09,0.12,-0.98,3.17,3.17,1.83
10.8440,0.08,0.12,-0.98,3.05,2.99,1.95
10.8600,0.09,0.12,-0.98,3.11,2.99,1.83
10.8780,0.09,0.12,-0.98,3.05,3.36,1.83
10.8820,0.08,0.12,-0.98,3.17,3.23,1.89
10.8990,0.09,0.12,-0.98,3.05,3.05,2.01
10.9150,0.08,0.12,-0.98,3.17,3.48,2.08
10.9310,0.08,0.12,-0.98,3.05,3.54,1.83
10.9470,0.08,0.12,-0.98,2.99,3.42,1.95
10.9630,0.09,0.12,-0.98,3.30,2.81,1.89
10.9830,0.09,0.12,-0.98,3.17,3.05,1.77
10.9990,0.09,0.12,-0.98,3.11,3.23,1.83
11.0160,0.09,0.12,-0.98,3.23,3.05,1.89
11.0330,0.08,0.12,-0.98,3.23,3.42,1.89
11.0490,0.09,0.12,-0.98,3.11,3.17,1.83
11.0650,0.09,0.12,-0.98,2.93,3.30,1.89
11.0670,0.09,0.12,-0.98,3.23,3.48,1.77
11.0830,0.09,0.12,-0.98,3.05,3.17,1.89
11.1060,0.09,0.12,-0.98,3.05,3.11,1.95
11.1240,0.09,0.12,-0.98,3.30,3.05,1.83
11.1390,0.09,0.12,-0.98,3.17,3.17,1.83
11.1560,0.09,0.12,-0.98,3.11,3.36,1.77
11.1730,0.08,0.12,-0.98,3.30,2.93,1.95
11.1890,0.09,0.12,-0.98,2.87,3.17,2.08
11.2060,0.09,0.12,-0.98,2.99,3.11,1.83
11.2210,0.08,0.12,-0.98,3.11,3.42,1.83
11.2360,0.09,0.12,-0.98,3.05,3.05,1.95
11.2400,0.09,0.12,-0.98,3.36,3.05,1.89
11.2550,0.08,0.12,-0.98,2.99,3.17,1.89
11.2790,0.09,0.12,-0.98,3.36,2.93,1.83
11.2950,0.08,0.12,-0.98,3.23,3.54,1.89
11.3120,0.08,0.12,-0.98,3.05,3.23,1.89
11.3270,0.08,0.12,-0.98,2.99,3.11,1.95
11.3450,0.08,0.12,-0.98,3.17,3.23,1.95
11.3600,0.08,0.12,-0.98,3.17,3.23,1.89
11.3660,0.09,0.12,-0.98,3.05,2.99,1.77
11.3820,0.09,0.12,-0.98,3.17,3.05,1.77
11.4050,0.08,0.12,-0.98,3.17,3.11,2.08
11.4210,0.09,0.12,-0.98,3.36,2.99,2.01
11.4380,0.08,0.12,-0.98,3.05,3.17,1.95
11.4540,0.09,0.12,-0.98,3.30,3.30,1.95
11.4700,0.09,0.12,-0.98,3.11,3.30,1.95
11.4850,0.08,0.12,-0.98,3.11,3.17,1.89
11.5000,0.09,0.12,-0.98,2.99,3.17,1.83
11.5060,0.08,0.12,-0.98,3.30,2.87,1.83
11.5250,0.09,0.12,-0.98,3.17,2.81,1.95
11.5440,0.08,0.12,-0.98,3.05,3.42,1.71
11.5600,0.08,0.12,-0.98,3.05,3.17,2.08
11.5760,0.09,0.12,-0.98,3.11,3.23,1.89
11.5780,0.09,0.12,-0.98,3.11,2.99,1.95
11.5940,0.08,0.12,-0.98,3.30,2.99,1.83
11.6220,0.08,0.12,-0.98,3.36,3.11,1.77
11.6320,0.08,0.12,-0.98,2.93,3.17,1.89
11.6490,0.09,0.12,-0.98,3.11,3.11,1.89
11.6650,0.08,0.12,-0.98,3.36,2.75,1.83
11.6820,0.09,0.12,-0.98,3.11,3.42,1.83
11.6990,0.08,0.12,-0.98,3.42,3.05,1.89
11.7150,0.09,0.12,-0.98,2.99,3.48,1.83
11.7310,0.08,0.12,-0.98,3.11,2.93,1.89
11.7470,0.09,0.12,-0.98,3.30,3.17,1.83
11.7630,0.08,0.12,-0.98,2.99,3.36,1.95
11.7780,0.08,0.12,-0.98,3.05,3.23,1.83
11.7930,0.09,0.12,-0.98,3.05,3.36,1.89
11.8100,0.09,0.12,-0.98,3.17,3.36,1.95
11.8160,0.09,0.12,-0.98,3.05,3.30,1.95
11.8310,0.08,0.12,-0.98,3.23,3.17,1.83
11.8540,0.09,0.12,-0.98,3.17,3.30,1.89
11.8700,0.09,0.12,-0.98,3.05,3.48,1.89
11.8860,0.09,0.12,-0.98,3.23,3.17,1.89
11.9020,0.09,0.12,-0.98,3.05,3.48,1.83
11.9180,0.08,0.12,-0.98,2.99,3.54,1.89
11.9340,0.09,0.12,-0.98,3.05,3.30,1.83
11.9490,0.08,0.12,-0.98,3.05,2.99,1.77
11.9530,0.09,0.12,-0.98,3.23,2.99,1.89
11.9690,0.08,0.12,-0.98,3.17,3.36,1.95
11.9910,0.09,0.12,-0.98,3.23,3.17,1.83
12.0080,0.09,0.12,-0.98,3.05,3.11,1.89
12.0250,0.08,0.12,-0.98,3.05,3.36,1.77
12.0410,0.08,0.12,-0.98,3.23,3.17,2.08
12.0570,0.08,0.12,-0.98,3.23,3.23,1.89
12.0740,0.09,0.12,-0.98,3.17,3.36,2.01
12.0900,0.08,0.12,-0.98,3.23,3.36,1.89
12.1060,0.09,0.12,-0.98,3.17,2.87,1.89
12.1220,0.09,0.12,-0.98,3.17,2.93,1.83
12.1370,0.09,0.12,-0.98,3.05,3.11,1.95
12.1410,0.09,0.12,-0.98,2.99,3.17,1.83
12.1570,0.09,0.12,-0.98,3.05,3.42,2.01
12.1780,0.08,0.12,-0.98,3.05,3.17,1.95
12.1950,0.09,0.12,-0.98,3.05,3.17,1.95
12.2120,0.08,0.12,-0.98,2.99,2.87,1.95
12.2270,0.08,0.12,-0.98,3.11,3.23,2.08
12.2460,0.09,0.12,-0.98,3.23,3.17,1.83
12.2620,0.09,0.12,-0.98,3.11,3.23,1.83
12.2760,0.08,0.12,-0.98,3.17,3.30,1.89
12.2920,0.08,0.12,-0.98,3.05,3.05,1.89
12.3080,0.09,0.12,-0.98,3.23,3.11,1.95
12.3230,0.09,0.12,-0.98,3.05,3.60,1.95
12.3380,0.09,0.12,-0.98,3.11,3.30,2.01
12.3490,0.09,0.12,-0.98,3.05,3.17,1.95
12.3660,0.09,0.12,-0.98,3.05,3.72,1.95
12.3830,0.09,0.12,-0.98,2.93,3.11,1.83
12.3990,0.09,0.12,-0.98,2.93,3.30,1.89
12.4160,0.09,0.12,-0.98,3.05,3.48,1.95
12.4310,0.08,0.12,-0.98,3.17,3.23,1.83
12.4480,0.09,0.12,-0.98,3.23,3.36,1.77
12.4500,0.08,0.12,-0.98,3.11,3.30,1.89
12.4660,0.09,0.12,-0.98,3.23,3.05,1.95
12.4870,0.08,0.12,-0.98,3.11,3.23,1.89
12.5050,0.09,0.12,-0.98,3.05,3.36,1.89
12.5210,0.08,0.12,-0.98,2.93,3.36,1.89
12.5380,0.09,0.12,-0.98,3.05,3.05,1.83
12.5540,0.09,0.12,-0.98,3.11,3.23,1.83
12.5710,0.08,0.12,-0.98,3.23,3.17,2.01
12.5870,0.08,0.12,-0.98,2.93,3.48,1.77
12.6040,0.08,0.12,-0.98,3.17,3.17,1.89
12.6050,0.09,0.12,-0.98,3.23,2.81,1.77
12.6360,0.09,0.12,-0.98,3.11,3.30,1.77
12.6380,0.09,0.12,-0.98,3.17,3.36,1.95
12.6650,0.09,0.12,-0.98,3.17,3.42,2.01
12.6800,0.08,0.12,-0.98,3.11,3.42,1.95
12.6960,0.09,0.12,-0.98,3.05,3.23,1.83
12.7040,0.09,0.12,-0.98,3.23,3.36,1.77
12.7260,0.08,0.12,-0.98,3.30,2.93,1.95
12.7370,0.08,0.12,-0.98,3.23,2.81,1.83
12.7530,0.08,0.12,-0.98,3.42,3.11,1.89
12.7740,0.09,0.12,-0.98,3.05,2.75,1.89
12.7910,0.09,0.12,-0.98,3.23,3.30,1.95
12.8060,0.08,0.12,-0.98,3.11,3.30,1.95
12.8220,0.09,0.12,-0.98,3.11,3.23,1.95
12.8380,0.09,0.12,-0.98,2.99,3.36,1.83
12.8550,0.08,0.12,-0.98,2.93,3.17,1.77
12.8710,0.08,0.12,-0.98,3.11,3.11,1.95
12.8860,0.09,0.12,-0.98,3.11,3.30,1.95
12.9020,0.09,0.12,-0.98,3.05,3.23,1.95
12.9160,0.09,0.12,-0.98,3.05,3.23,1.77
12.9260,0.09,0.12,-0.98,3.17,3.17,1.83
12.9400,0.09,0.12,-0.98,3.05,3.11,1.89
12.9610,0.08,0.12,-0.98,3.11,3.48,1.77
12.9780,0.08,0.12,-0.98,2.99,3.17,1.77
12.9930,0.09,0.12,-0.98,2.99,3.30,1.83
13.0080,0.08,0.12,-0.98,3.17,3.11,1.89
13.0230,0.08,0.12,-0.98,3.05,3.23,1.83
13.0390,0.09,0.12,-0.98,3.11,3.30,1.71
13.0460,0.09,0.12,-0.98,3.17,2.93,1.83
13.0610,0.08,0.12,-0.98,3.11,3.42,1.95
13.0830,0.08,0.12,-0.98,3.11,3.48,1.95
13.0990,0.08,0.12,-0.98,3.17,2.87,1.83
13.1150,0.09,0.12,-0.98,2.99,3.42,1.77
13.1320,0.09,0.12,-0.98,3.17,3.36,1.89
13.1480,0.08,0.12,-0.98,2.99,2.93,1.83
13.1640,0.09,0.12,-0.98,2.99,3.17,1.95
13.1790,0.09,0.12,-0.98,3.11,3.17,1.89
13.1830,0.08,0.12,-0.98,3.05,2.93,1.83
13.1980,0.08,0.12,-0.98,2.99,3.54,2.01
13.2200,0.09,0.12,-0.98,3.17,3.23,1.95
13.2370,0.09,0.12,-0.98,3.11,3.42,1.83
13.2540,0.08,0.12,-0.98,3.05,3.30,1.89
13.2700,0.08,0.12,-0.98,2.99,3.05,1.95
13.2870,0.08,0.12,-0.98,3.05,3.54,1.89
13.3030,0.08,0.12,-0.98,3.11,2.93,1.89
13.3190,0.08,0.12,-0.98,3.11,3.17,1.77
13.3350,0.08,0.12,-0.98,3.36,3.30,1.95
13.3520,0.09,0.12,-0.98,2.99,3.42,1.89
13.3680,0.09,0.12,-0.98,3.23,3.17,1.77
13.3700,0.09,0.12,-0.98,3.17,3.11,1.89
13.3860,0.08,0.12,-0.98,3.30,2.99,1.83
13.4140,0.09,0.12,-0.98,3.17,2.87,1.95
13.4260,0.09,0.12,-0.98,3.23,3.23,1.89
13.4410,0.09,0.12,-0.98,3.11,3.36,1.95
13.4580,0.09,0.12,-0.98,3.17,3.23,1.89
13.4740,0.08,0.12,-0.98,3.17,3.42,2.01
13.4890,0.08,0.12,-0.98,2.93,3.36,1.89
13.5060,0.09,0.12,-0.98,3.17,3.42,2.01
13.5220,0.08,0.12,-0.98,3.05,3.17,1.83
13.5380,0.09,0.12,-0.98,3.17,3.17,1.71
13.5540,0.09,0.12,-0.98,3.11,3.36,1.95
13.5580,0.09,0.12,-0.98,3.23,3.23,1.83
13.5730,0.09,0.12,-0.98,3.23,3.42,1.77
13.5960,0.08,0.12,-0.98,3.11,3.23,1.89
13.6140,0.08,0.12,-0.98,2.99,3.23,1.89
13.6290,0.08,0.12,-0.98,3.11,3.23,1.95
13.6450,0.08,0.12,-0.98,3.23,3.36,1.83
13.6600,0.09,0.12,-0.98,3.17,3.48,1.89
13.6760,0.09,0.12,-0.98,2.99,2.99,1.83
13.6920,0.09,0.12,-0.98,3.23,3.11,1.95
13.7070,0.09,0.12,-0.98,3.42,3.48,1.77
13.7240,0.08,0.12,-0.98,3.17,3.30,2.08
13.7390,0.09,0.12,-0.98,3.05,3.05,1.77
13.7550,0.09,0.12,-0.98,3.17,3.60,1.95
13.7700,0.09,0.12,-0.98,3.05,3.23,1.77
13.7790,0.09,0.12,-0.98,3.11,3.36,1.89
13.7960,0.08,0.12,-0.98,3.17,3.11,1.89
13.8120,0.09,0.12,-0.98,3.11,3.23,1.83
13.8290,0.09,0.12,-0.98,3.23,3.05,1.83
13.8460,0.09,0.12,-0.98,2.99,3.36,1.95
13.8620,0.08,0.12,-0.98,3.11,3.05,1.89
13.8780,0.08,0.12,-0.98,3.17,3.36,1.83
13.8940,0.09,0.12,-0.98,3.17,3.66,1.89
13.9090,0.09,0.12,-0.98,3.11,3.11,1.83
13.9240,0.09,0.12,-0.98,3.05,3.30,1.89
13.9400,0.08,0.12,-0.98,2.93,3.30,2.01
13.9560,0.08,0.12,-0.98,3.05,3.30,1.89
13.9720,0.08,0.12,-0.98,3.05,3.11,1.77
13.9880,0.09,0.12,-0.98,2.99,3.30,1.95
14.0030,0.08,0.12,-0.98,3.11,3.30,1.95
14.0170,0.09,0.12,-0.98,3.05,3.30,1.83
14.0290,0.09,0.12,-0.98,3.23,3.17,1.83
14.0460,0.08,0.12,-0.98,3.11,3.66,2.01
14.0620,0.08,0.12,-0.98,3.17,3.54,1.83
14.0780,0.08,0.12,-0.98,3.11,3.91,1.83
14.0940,0.08,0.12,-0.98,2.99,3.78,1.95
14.1100,0.09,0.12,-0.98,2.93,3.36,1.95
14.1260,0.09,0.12,-0.98,3.11,3.11,2.01
14.1410,0.09,0.12,-0.98,3.30,3.23,1.89
14.1470,0.09,0.12,-0.98,3.17,3.17,1.77
14.1620,0.08,0.12,-0.98,2.99,3.23,1.95
14.1850,0.08,0.12,-0.98,3.11,3.23,1.95
14.2020,0.08,0.12,-0.98,2.99,3.23,1.95
14.2170,0.09,0.12,-0.98,3.23,3.17,1.83
14.2340,0.08,0.12,-0.98,2.99,3.36,1.83
14.2500,0.09,0.12,-0.98,3.17,3.42,1.77
14.2660,0.08,0.12,-0.98,3.11,3.17,1.89
14.2820,0.09,0.12,-0.98,3.23,3.48,1.89
14.2840,0.08,0.12,-0.98,2.93,3.60,1.89
14.3000,0.09,0.12,-0.98,3.17,3.36,1.89
14.3280,0.09,0.12,-0.98,2.99,3.11,1.83
14.3380,0.08,0.12,-0.98,3.17,3.11,1.89
14.3550,0.09,0.12,-0.98,3.05,3.23,1.83
14.3710,0.09,0.12,-0.98,3.11,3.48,1.83
14.3890,0.09,0.12,-0.98,3.23,3.42,1.89
14.4050,0.08,0.12,-0.98,3.17,3.36,1.89
14.4200,0.08,0.12,-0.98,3.05,3.11,1.95
14.4360,0.08,0.12,-0.98,2.93,3.11,1.89
14.4380,0.08,0.12,-0.98,2.99,3.48,1.83
14.4660,0.08,0.12,-0.98,3.17,3.23,1.95
14.4810,0.08,0.12,-0.98,3.05,3.36,1.83
14.4960,0.09,0.12,-0.98,3.05,3.42,1.83
14.5110,0.08,0.12,-0.98,3.11,3.23,1.95
14.5210,0.08,0.12,-0.98,2.99,3.60,1.83
14.5390,0.08,0.12,-0.98,3.11,3.54,1.83
14.5550,0.09,0.12,-0.98,3.17,3.17,1.77
14.5720,0.09,0.12,-0.98,2.99,3.11,1.89
14.5880,0.08,0.12,-0.98,3.23,3.42,1.89
14.6050,0.09,0.12,-0.98,2.99,3.11,1.83
14.6210,0.09,0.12,-0.98,3.17,3.42,1.89
14.6370,0.09,0.12,-0.98,2.99,3.30,1.95
14.6540,0.08,0.12,-0.98,3.05,3.30,1.89
14.6700,0.08,0.12,-0.98,3.05,3.42,1.95
14.6850,0.08,0.12,-0.98,3.05,3.30,1.95
14.6880,0.08,0.12,-0.98,2.93,3.36,1.83
14.7040,0.09,0.12,-0.98,3.05,3.30,1.83
14.7280,0.08,0.12,-0.98,3.11,3.36,1.83
14.7450,0.09,0.12,-0.98,3.05,3.05,1.83
14.7610,0.09,0.12,-0.98,3.17,3.05,1.89
14.7760,0.08,0.12,-0.98,3.11,3.23,1.77
14.7920,0.09,0.12,-0.98,3.11,3.17,1.65
14.8080,0.08,0.12,-0.98,3.11,3.23,1.71
14.8240,0.08,0.12,-0.98,2.81,3.11,2.01
14.8390,0.09,0.12,-0.98,3.30,3.17,1.65
14.8560,0.08,0.12,-0.98,2.99,3.60,1.95
14.8720,0.09,0.12,-0.98,3.17,3.05,1.83
14.8890,0.09,0.12,-0.98,3.23,3.36,1.83
14.9050,0.09,0.12,-0.98,2.99,3.60,1.95
14.9200,0.09,0.12,-0.98,3.17,3.36,1.95
14.9290,0.09,0.12,-0.98,3.05,3.48,1.95
14.9440,0.09,0.12,-0.98,3.36,3.17,1.83
14.9650,0.09,0.12,-0.98,3.30,3.23,1.89
14.9820,0.09,0.12,-0.98,3.11,3.48,2.01
14.9970,0.09,0.12,-0.98,2.81,3.78,1.89
15.0140,0.08,0.12,-0.98,2.99,3.72,1.89
15.0290,0.08,0.12,-0.98,3.11,3.23,1.83
15.0320,0.09,0.12,-0.98,3.05,3.23,2.01
15.0470,0.09,0.12,-0.98,3.17,3.60,2.01
15.0700,0.09,0.12,-0.98,3.05,3.48,1.95
15.0880,0.09,0.12,-0.98,3.17,2.87,1.89
15.1040,0.08,0.12,-0.98,3.11,3.23,1.95
15.1210,0.09,0.12,-0.98,3.48,3.23,1.95
15.1380,0.09,0.12,-0.98,3.36,3.23,1.95
15.1540,0.09,0.12,-0.98,3.05,3.54,2.01
15.1690,0.08,0.12,-0.98,3.11,3.30,1.89
15.1860,0.09,0.12,-0.98,2.99,3.60,2.01
15.2020,0.09,0.12,-0.98,2.99,3.54,1.77
15.2180,0.09,0.12,-0.98,2.99,3.54,1.95
15.2350,0.08,0.12,-0.98,3.11,3.36,1.89
15.2510,0.09,0.12,-0.98,2.99,3.36,1.83
15.2680,0.09,0.12,-0.98,3.11,3.48,1.89
15.2840,0.09,0.12,-0.98,3.11,3.48,1.83
15.3000,0.08,0.12,-0.98,2.99,3.23,1.83
15.3160,0.09,0.12,-0.98,3.36,2.75,1.83
15.3320,0.08,0.12,-0.98,2.99,3.23,1.89
15.3370,0.08,0.12,-0.98,3.05,3.42,1.77
15.3530,0.09,0.12,-0.98,3.17,3.36,1.95
15.3730,0.08,0.12,-0.98,3.17,3.66,2.08
15.3900,0.09,0.12,-0.98,3.05,3.48,1.95
15.4070,0.08,0.12,-0.98,3.23,3.17,1.83
15.4240,0.09,0.12,-0.98,3.11,3.30,1.95
15.4400,0.09,0.12,-0.98,3.17,3.36,1.77
15.4570,0.09,0.12,-0.98,3.11,3.17,1.83
15.4730,0.09,0.12,-0.98,3.17,2.99,1.89
15.4900,0.08,0.12,-0.98,3.11,3.23,1.89
15.5060,0.08,0.12,-0.98,3.23,2.75,1.77
15.5220,0.09,0.12,-0.98,3.23,3.17,2.01
15.5370,0.09,0.12,-0.98,2.87,3.23,1.89
15.5540,0.08,0.12,-0.98,3.17,3.36,1.95
15.5700,0.09,0.12,-0.98,3.05,3.60,1.95
15.5860,0.09,0.12,-0.98,3.36,3.48,2.01
15.5910,0.08,0.12,-0.98,2.99,3.60,2.01
15.6070,0.08,0.12,-0.98,3.11,3.54,1.83
15.6290,0.09,0.12,-0.98,2.99,3.54,1.89
15.6450,0.09,0.12,-0.98,3.23,2.93,1.95
15.6610,0.08,0.12,-0.98,3.17,3.11,1.83
15.6780,0.09,0.12,-0.98,3.23,3.48,1.83
15.6930,0.09,0.12,-0.98,2.99,3.48,1.83
15.7100,0.09,0.12,-0.98,3.05,3.11,1.95
15.7260,0.08,0.12,-0.98,3.11,3.30,2.01
15.7400,0.09,0.12,-0.98,3.11,3.42,2.01
15.7560,0.09,0.12,-0.98,3.11,3.23,1.83
15.7720,0.09,0.12,-0.98,3.17,3.11,1.89
15.7880,0.09,0.12,-0.98,3.11,3.42,1.95
15.8040,0.08,0.12,-0.98,3.23,3.30,1.89
15.8190,0.08,0.12,-0.98,2.87,3.48,1.89
15.8290,0.09,0.12,-0.98,2.87,3.36,2.01
15.8430,0.09,0.12,-0.98,3.05,3.54,1.89
15.8650,0.08,0.12,-0.98,3.36,3.17,1.83
15.8810,0.08,0.12,-0.98,3.11,3.36,1.89
15.8980,0.08,0.12,-0.98,3.05,2.87,1.77
15.9130,0.08,0.12,-0.98,3.05,3.30,2.01
15.9300,0.08,0.12,-0.98,3.30,2.87,1.89
15.9450,0.08,0.12,-0.98,3.05,3.11,1.89
15.9600,0.09,0.12,-0.98,3.30,3.23,2.01
15.9760,0.08,0.12,-0.98,2.87,3.05,1.83
15.9900,0.09,0.12,-0.98,3.17,3.36,1.95
15.9980,0.09,0.12,-0.98,3.05,3.11,1.89
16.0150,0.09,0.12,-0.98,3.11,3.60,1.95
16.0310,0.09,0.12,-0.98,3.17,3.17,1.95
16.0530,0.08,0.12,-0.98,3.23,3.05,1.83
16.0700,0.09,0.12,-0.98,3.23,3.11,1.71
16.0870,0.08,0.12,-0.98,3.11,3.30,1.83
16.1020,0.09,0.12,-0.98,3.23,3.66,1.77
16.1180,0.09,0.12,-0.98,3.17,3.36,1.83
16.1300,0.09,0.12,-0.98,2.99,3.05,1.89
16.1360,0.09,0.12,-0.98,2.99,3.17,1.89
16.1600,0.09,0.12,-0.98,3.11,3.60,2.01
16.1760,0.08,0.12,-0.98,3.17,3.23,1.89
16.1930,0.09,0.12,-0.98,3.23,3.11,1.83
16.2090,0.08,0.12,-0.98,3.11,3.11,1.89
16.2260,0.08,0.12,-0.98,3.05,3.23,1.83
16.2410,0.09,0.12,-0.98,3.17,3.17,1.95
16.2580,0.09,0.12,-0.98,2.99,2.99,1.83
16.2740,0.08,0.12,-0.98,3.17,3.17,1.77
16.2890,0.09,0.12,-0.98,3.23,3.17,1.83
16.3060,0.09,0.12,-0.98,2.87,3.42,1.89
16.3210,0.09,0.12,-0.98,3.11,3.30,1.77
16.3390,0.09,0.12,-0.98,3.05,3.05,1.89
16.3540,0.09,0.12,-0.98,3.11,3.48,1.95
16.3690,0.08,0.12,-0.98,3.05,3.11,1.77
16.3830,0.09,0.12,-0.98,3.11,3.17,1.95
16.3950,0.09,0.12,-0.98,3.17,3.23,1.89
16.4110,0.08,0.12,-0.98,3.23,3.36,1.95
16.4280,0.08,0.12,-0.98,3.05,3.17,1.95
16.4450,0.08,0.12,-0.98,3.05,2.99,1.83
16.4600,0.09,0.12,-0.98,3.11,2.99,1.77
16.4760,0.09,0.12,-0.98,3.23,3.11,1.83
16.4920,0.08,0.12,-0.98,3.17,3.23,1.89
16.5070,0.08,0.12,-0.98,3.11,2.99,1.77
16.5220,0.09,0.12,-0.98,2.99,3.30,1.89
16.5340,0.09,0.12,-0.98,3.23,3.11,1.89
16.5490,0.09,0.12,-0.98,2.99,3.30,1.89
16.5660,0.09,0.12,-0.98,3.11,3.42,1.95
16.5830,0.09,0.12,-0.98,3.36,3.30,1.95
16.6000,0.09,0.12,-0.98,3.17,3.11,1.83
16.6150,0.09,0.12,-0.98,3.05,3.48,2.01
16.6320,0.08,0.12,-0.98,3.17,2.99,1.83
16.6480,0.08,0.12,-0.98,3.11,3.48,1.83
16.6640,0.08,0.12,-0.98,3.05,3.42,1.89
16.6660,0.08,0.12,-0.98,2.99,3.36,2.01
16.6820,0.09,0.12,-0.98,3.11,3.23,1.83
16.7100,0.09,0.12,-0.98,2.99,3.17,2.01
16.7210,0.09,0.12,-0.98,2.99,3.48,1.83
16.7370,0.09,0.12,-0.98,3.11,3.48,1.95
16.7550,0.09,0.12,-0.98,3.42,2.99,1.83
16.7710,0.09,0.12,-0.98,3.11,3.36,2.08
16.7880,0.09,0.12,-0.98,3.36,3.36,1.83
16.8040,0.08,0.12,-0.98,3.30,3.11,1.95
16.8200,0.08,0.12,-0.98,3.05,3.23,1.89
16.8370,0.08,0.12,-0.98,3.36,3.23,1.77
16.8520,0.08,0.12,-0.98,3.11,3.60,1.83
16.8680,0.09,0.12,-0.98,3.05,3.30,1.95
16.8840,0.08,0.12,-0.98,3.05,3.30,1.83
16.8870,0.08,0.12,-0.98,3.48,2.99,1.95
16.9030,0.08,0.12,-0.98,3.23,3.17,1.89
16.9260,0.09,0.12,-0.98,2.99,3.17,1.77
16.9420,0.09,0.12,-0.98,2.93,3.54,1.95
16.9590,0.08,0.12,-0.98,3.11,3.11,1.95
16.9760,0.09,0.12,-0.98,3.11,3.42,1.83
16.9900,0.08,0.12,-0.98,3.05,3.66,1.95
17.0060,0.08,0.12,-0.98,2.87,3.42,1.95
17.0210,0.09,0.12,-0.98,3.11,3.23,1.89
17.0370,0.08,0.12,-0.98,2.99,3.05,2.01
17.0410,0.09,0.12,-0.98,3.23,3.17,1.83
17.0570,0.09,0.12,-0.98,3.17,2.93,1.71
17.0810,0.08,0.12,-0.98,3.05,3.36,1.89
17.0970,0.09,0.12,-0.98,3.11,3.36,1.83
17.1130,0.09,0.12,-0.98,2.99,3.42,1.95
17.1290,0.08,0.12,-0.98,2.99,3.23,1.77
17.1450,0.09,0.12,-0.98,3.05,3.23,1.89
17.1610,0.09,0.12,-0.98,3.05,3.30,1.89
17.1770,0.09,0.12,-0.98,3.36,3.30,1.95
17.1920,0.08,0.12,-0.98,3.30,2.99,1.77
17.1960,0.09,0.12,-0.98,3.17,3.36,1.95
17.2110,0.09,0.12,-0.98,3.30,2.87,1.83
17.2350,0.09,0.12,-0.98,3.36,3.11,1.89
17.2510,0.09,0.12,-0.98,2.99,3.11,1.77
17.2680,0.09,0.12,-0.98,3.23,3.05,1.71
17.2840,0.09,0.12,-0.98,3.17,3.05,2.01
17.3010,0.09,0.12,-0.98,3.05,3.30,2.01
17.3160,0.09,0.12,-0.98,3.05,3.23,1.95
17.3320,0.08,0.12,-0.98,2.99,3.23,1.77
17.3480,0.09,0.12,-0.98,3.05,3.11,1.89
17.3640,0.09,0.12,-0.98,3.11,2.99,1.95
17.3670,0.08,0.12,-0.98,3.05,3.54,1.89
17.3830,0.08,0.12,-0.98,3.05,3.54,1.71
17.4110,0.08,0.12,-0.98,2.99,3.17,1.77
17.4210,0.08,0.12,-0.98,2.99,3.30,1.83
17.4380,0.09,0.12,-0.98,2.93,3.48,1.95
17.4540,0.08,0.12,-0.98,3.05,3.23,1.89
17.4710,0.08,0.12,-0.98,3.11,3.30,2.01
17.4880,0.08,0.12,-0.98,3.11,3.54,1.95
17.5040,0.09,0.12,-0.98,3.11,2.99,1.89
17.5200,0.09,0.12,-0.98,3.11,3.05,1.83
17.5360,0.09,0.12,-0.98,2.93,3.85,1.77
17.5510,0.09,0.12,-0.98,3.11,3.23,1.95
17.5680,0.09,0.12,-0.98,3.11,3.30,1.89
17.5830,0.09,0.12,-0.98,3.05,3.23,1.89
17.5880,0.08,0.12,-0.98,3.11,3.48,1.83
17.6030,0.09,0.12,-0.98,3.11,3.11,1.71
17.6260,0.10,0.16,-0.97,3.30,2.99,1.71
17.6420,0.08,0.12,-0.98,3.23,3.54,1.89
17.6580,0.08,0.11,-0.98,3.05,2.99,2.08
17.6730,0.08,0.10,-0.98,2.99,3.30,2.01
17.6890,0.08,0.10,-0.98,3.17,3.05,2.01
17.7050,0.08,0.11,-0.98,3.17,3.05,1.77
17.7210,0.09,0.12,-0.98,3.36,2.81,1.83
17.7370,0.09,0.12,-0.98,3.30,2.69,1.65
17.7520,0.09,0.12,-0.98,3.23,3.05,1.71
17.7590,0.09,0.12,-0.98,3.30,2.81,1.77
17.7830,0.09,0.12,-0.98,3.11,3.23,1.89
17.7980,0.08,0.11,-0.98,2.99,3.23,2.08
17.8100,0.09,0.12,-0.98,2.93,2.81,2.20
17.8260,0.09,0.12,-0.98,3.17,3.23,2.44
17.8430,0.09,0.13,-0.98,2.62,3.54,2.50
17.8580,0.09,0.13,-0.98,2.81,2.69,2.99
17.8740,0.09,0.12,-0.98,3.11,2.69,3.17
17.8900,0.08,0.11,-0.98,2.99,3.11,3.05
17.9060,0.08,0.11,-0.98,2.93,3.05,2.50
17.9220,0.08,0.11,-0.98,2.99,3.30,1.95
17.9380,0.09,0.12,-0.98,3.11,3.23,1.89
17.9550,0.08,0.12,-0.98,3.05,3.17,2.20
17.9700,0.08,0.12,-0.98,3.23,3.05,2.38
17.9860,0.08,0.12,-0.98,2.99,2.81,2.56
18.0020,0.08,0.12,-0.98,3.05,2.87,2.69
18.0180,0.08,0.12,-0.98,3.05,3.17,2.44
18.0330,0.08,0.12,-0.98,2.87,3.54,2.62
18.0430,0.08,0.12,-0.98,3.05,3.30,2.87
18.0600,0.08,0.12,-0.98,2.93,3.11,3.60
18.0760,0.08,0.11,-0.98,3.05,3.17,3.48
18.0920,0.08,0.11,-0.98,2.93,2.99,3.30
18.1080,0.09,0.12,-0.98,3.17,2.99,2.87
18.1240,0.09,0.13,-0.98,2.87,3.05,2.87
18.1390,0.09,0.12,-0.98,3.05,3.17,3.48
18.1550,0.08,0.12,-0.98,3.17,2.81,3.60
18.1700,0.08,0.11,-0.98,2.99,3.30,3.36
18.1770,0.07,0.11,-0.98,2.81,3.17,3.60
18.1920,0.09,0.12,-0.98,2.56,2.62,6.10
18.2150,0.08,0.11,-0.98,2.81,3.23,3.66
18.2310,0.08,0.11,-0.98,2.99,3.11,3.85
18.2470,0.09,0.12,-0.98,3.11,2.81,4.46
18.2630,0.09,0.11,-0.98,2.99,2.87,4.27
18.2800,0.09,0.11,-0.98,2.69,2.99,3.30
18.2950,0.09,0.11,-0.98,2.81,3.17,2.93
18.3110,0.09,0.12,-0.98,3.05,3.23,2.32
18.3260,0.08,0.12,-0.98,2.99,3.42,2.50
18.3410,0.08,0.12,-0.98,3.11,3.05,2.69
18.3480,0.09,0.12,-0.98,3.11,3.05,2.69
18.3640,0.09,0.13,-0.98,2.99,3.11,3.17
18.3870,0.09,0.12,-0.98,2.81,3.05,4.15
18.4020,0.09,0.12,-0.98,2.75,3.30,4.27
18.4190,0.08,0.12,-0.98,2.75,2.62,4.33
18.4360,0.09,0.12,-0.98,3.05,2.69,4.46
18.4520,0.08,0.12,-0.98,2.87,2.87,4.46
18.4530,0.08,0.12,-0.98,2.81,2.87,4.52
18.4690,0.08,0.11,-0.98,2.87,2.99,4.70
18.4870,0.08,0.11,-0.98,2.81,3.05,4.46
18.5160,0.09,0.11,-0.98,2.93,2.93,3.42
18.5190,0.09,0.11,-0.98,3.23,3.54,2.81
18.5360,0.08,0.12,-0.98,2.99,3.11,2.87
18.5510,0.09,0.12,-0.98,3.17,3.11,2.99
18.5750,0.09,0.12,-0.98,3.05,2.69,2.99
18.5920,0.09,0.12,-0.98,3.05,3.05,3.42
18.6070,0.09,0.11,-0.98,2.93,2.87,2.99
18.6250,0.09,0.12,-0.98,3.05,3.23,2.50
18.6410,0.08,0.12,-0.98,2.99,3.11,2.99
18.6560,0.09,0.13,-0.98,3.11,3.17,3.48
18.6710,0.09,0.12,-0.98,2.99,2.75,4.21
18.6870,0.09,0.12,-0.98,2.99,2.99,4.03
18.6920,0.09,0.12,-0.98,2.99,2.87,3.60
18.7080,0.08,0.12,-0.98,3.05,2.99,3.48
18.7290,0.09,0.12,-0.98,2.99,3.23,3.30
18.7460,0.09,0.12,-0.98,3.05,3.05,3.17
18.7620,0.08,0.13,-0.98,3.05,2.99,3.66
18.7790,0.09,0.12,-0.98,2.93,2.93,4.82
18.7960,0.08,0.11,-0.98,2.75,3.23,4.64
18.8110,0.08,0.11,-0.98,2.93,2.81,4.03
18.8270,0.08,0.11,-0.98,3.05,3.11,3.54
18.8420,0.08,0.11,-0.98,3.11,2.99,3.30
18.8580,0.08,0.12,-0.98,3.05,2.87,3.17
18.8720,0.09,0.12,-0.98,2.75,2.93,3.60
18.8890,0.08,0.13,-0.98,2.87,2.87,3.91
18.8960,0.09,0.12,-0.98,2.81,3.05,4.46
18.9120,0.09,0.11,-0.98,2.75,2.99,4.03
18.9330,0.08,0.11,-0.98,2.75,3.23,3.54
18.9480,0.09,0.12,-0.98,3.11,2.75,3.48
18.9640,0.09,0.12,-0.98,2.99,3.05,3.97
18.9790,0.09,0.12,-0.98,3.05,2.75,4.27
18.9950,0.08,0.12,-0.98,2.81,2.62,3.97
18.9990,0.08,0.12,-0.98,2.99,2.81,3.66
19.0150,0.09,0.11,-0.98,2.93,2.81,3.66
19.0390,0.08,0.12,-0.98,2.93,3.23,3.78
19.0550,0.09,0.12,-0.98,2.75,2.75,4.52
19.0710,0.09,0.11,-0.98,2.62,2.81,4.58
19.0860,0.08,0.11,-0.98,2.81,2.87,4.09
19.0890,0.09,0.11,-0.98,2.99,3.05,3.91
19.1040,0.08,0.11,-0.98,3.11,3.54,3.23
19.1330,0.08,0.12,-0.98,3.23,2.93,2.75
19.1480,0.09,0.12,-0.98,3.11,3.17,2.93
19.1590,0.09,0.13,-0.98,2.93,2.38,3.36
19.1770,0.09,0.13,-0.98,3.11,2.56,3.72
19.1920,0.09,0.12,-0.98,2.87,2.44,4.21
19.2080,0.08,0.11,-0.98,2.87,3.05,3.78
19.2240,0.08,0.12,-0.98,2.93,3.17,3.17
19.2410,0.08,0.12,-0.98,3.30,2.99,3.42
19.2550,0.09,0.12,-0.98,2.87,2.93,3.72
19.2710,0.09,0.12,-0.98,2.87,2.93,3.60
19.2870,0.09,0.12,-0.98,2.87,2.81,3.66
19.3020,0.09,0.12,-0.98,2.99,3.17,3.97
19.3180,0.09,0.11,-0.98,2.93,2.87,3.72
19.3340,0.08,0.11,-0.98,3.05,3.05,3.11
19.3510,0.09,0.12,-0.98,3.30,2.93,2.75
19.3660,0.09,0.12,-0.98,3.11,2.99,3.48
19.3810,0.09,0.12,-0.98,3.11,3.05,3.97
19.3930,0.09,0.12,-0.98,2.99,2.93,4.03
19.4090,0.09,0.11,-0.98,2.99,3.11,3.66
19.4260,0.08,0.12,-0.98,2.93,2.99,3.48
19.4420,0.08,0.12,-0.98,2.93,3.23,3.91
19.4570,0.09,0.12,-0.98,2.93,2.56,4.64
19.4710,0.09,0.12,-0.98,2.81,2.62,4.46
19.4770,0.09,0.12,-0.98,2.93,3.23,4.03
19.5010,0.08,0.11,-0.98,2.81,2.93,3.85
19.5160,0.09,0.12,-0.98,2.93,2.75,3.72
19.5320,0.08,0.12,-0.98,3.05,2.75,3.78
19.5430,0.09,0.12,-0.98,2.93,3.11,3.72
19.5600,0.09,0.13,-0.98,3.17,2.75,3.54
19.5760,0.09,0.12,-0.98,3.05,2.87,4.39
19.5930,0.08,0.12,-0.98,2.93,2.99,4.76
19.6100,0.08,0.11,-0.98,2.93,2.81,4.52
19.6250,0.08,0.11,-0.98,2.81,2.50,3.91
19.6410,0.08,0.12,-0.98,3.05,2.99,4.03
19.6550,0.09,0.12,-0.98,2.99,2.56,4.15
19.6710,0.09,0.11,-0.98,2.93,2.81,4.33
19.6860,0.09,0.11,-0.98,2.99,2.75,3.97
19.7020,0.09,0.13,-0.98,3.11,2.87,3.66
19.7180,0.08,0.13,-0.98,2.99,2.62,4.52
19.7330,0.08,0.13,-0.98,2.99,2.81,5.74
19.7480,0.09,0.12,-0.98,2.81,2.87,5.98
19.7590,0.09,0.11,-0.98,2.75,2.62,5.92
19.7760,0.09,0.11,-0.98,2.81,2.50,5.13
19.7920,0.08,0.11,-0.98,2.69,3.36,4.52
19.8100,0.09,0.11,-0.98,3.11,3.05,4.33
19.8250,0.08,0.11,-0.98,2.99,2.87,4.03
19.8410,0.09,0.12,-0.98,2.93,3.05,3.78
19.8570,0.08,0.13,-0.98,2.87,3.11,3.85
19.8730,0.08,0.12,-0.98,2.99,2.75,4.88
19.8880,0.09,0.11,-0.98,2.81,2.69,5.19
19.9040,0.08,0.11,-0.98,2.93,2.87,4.21
19.9200,0.08,0.11,-0.98,2.87,3.17,3.91
19.9360,0.08,0.11,-0.98,2.99,3.11,3.72
19.9510,0.08,0.12,-0.98,2.87,3.23,3.72
19.9600,0.09,0.12,-0.98,2.81,2.81,3.97
19.9760,0.09,0.12,-0.98,2.99,2.81,3.78
19.9970,0.09,0.11,-0.98,3.05,3.11,3.36
20.0150,0.08,0.12,-0.98,2.99,2.99,3.17
20.0300,0.09,0.11,-0.98,3.11,3.05,3.05
20.0470,0.08,0.12,-0.98,3.05,3.11,2.81
20.0620,0.08,0.12,-0.98,2.99,3.17,3.30
20.0780,0.09,0.13,-0.98,2.99,3.05,3.54
20.0930,0.09,0.12,-0.98,2.87,2.99,4.15
20.1070,0.09,0.11,-0.98,2.93,2.99,3.60
20.1230,0.09,0.12,-0.98,3.05,2.93,4.27
20.1370,0.09,0.11,-0.98,2.93,2.75,3.78
20.1530,0.09,0.12,-0.98,2.99,3.42,3.66
20.1640,0.09,0.12,-0.98,2.99,2.99,4.03
20.1790,0.09,0.11,-0.98,2.81,2.87,3.91
20.1950,0.09,0.12,-0.98,2.93,2.93,3.78
20.2040,0.08,0.12,-0.98,2.87,2.99,3.72
20.2210,0.09,0.12,-0.98,3.05,2.75,4.33
20.2380,0.08,0.11,-0.98,2.93,2.99,4.09
20.2550,0.08,0.11,-0.98,2.81,3.11,3.54
20.2720,0.09,0.11,-0.98,2.99,2.62,2.87
20.2880,0.08,0.12,-0.98,3.17,2.99,2.81
20.3040,0.09,0.12,-0.98,3.17,2.99,2.75
20.3190,0.09,0.12,-0.98,3.05,2.93,3.30
20.3350,0.09,0.12,-0.98,3.05,2.87,3.97
20.3370,0.09,0.12,-0.98,2.87,2.81,4.03
20.3530,0.08,0.11,-0.98,2.93,2.81,4.09
20.3800,0.08,0.11,-0.98,2.93,2.99,3.97
20.3920,0.08,0.12,-0.98,3.17,3.05,3.36
20.4080,0.08,0.11,-0.98,3.17,2.93,3.48
20.4260,0.09,0.12,-0.98,3.17,3.23,3.36
20.4350,0.09,0.12,-0.98,3.05,2.99,3.42
20.4460,0.09,0.13,-0.98,3.23,2.62,3.48
20.4670,0.09,0.13,-0.98,3.05,2.81,4.58
20.4830,0.09,0.12,-0.98,2.99,2.50,5.07
20.5010,0.09,0.11,-0.98,2.93,2.62,4.39
20.5170,0.08,0.12,-0.98,2.87,2.87,4.46
20.5310,0.08,0.12,-0.98,3.11,2.75,5.19
20.5480,0.09,0.11,-0.98,2.69,2.87,5.31
20.5650,0.09,0.11,-0.98,2.99,2.50,4.58
20.5810,0.09,0.12,-0.98,2.99,2.81,3.66
20.5970,0.08,0.12,-0.98,2.81,2.87,3.72
20.6110,0.09,0.13,-0.98,2.81,2.44,4.52
20.6270,0.09,0.13,-0.98,2.81,2.44,5.37
20.6350,0.08,0.12,-0.98,2.75,2.14,5.43
20.6560,0.08,0.11,-0.98,2.69,2.81,4.70
20.6670,0.08,0.12,-0.98,2.87,2.44,4.39
20.6840,0.09,0.11,-0.98,2.81,2.62,4.09
20.7000,0.08,0.12,-0.98,2.87,2.93,3.78
20.7160,0.09,0.12,-0.98,2.75,2.81,3.66
20.7330,0.09,0.12,-0.98,2.81,2.81,3.66
20.7480,0.09,0.12,-0.98,3.30,3.05,3.30
20.7630,0.09,0.12,-0.98,3.30,2.75,3.23
20.7780,0.08,0.11,-0.98,2.81,2.87,3.66
20.7940,0.09,0.12,-0.98,2.87,2.81,3.48
20.8080,0.08,0.12,-0.98,2.99,3.11,3.17
20.8230,0.08,0.12,-0.98,2.93,3.11,2.99
20.8350,0.09,0.12,-0.98,3.11,3.05,3.05
20.8500,0.09,0.13,-0.98,2.99,3.11,3.05
20.8670,0.08,0.12,-0.98,2.93,3.05,3.36
20.8840,0.09,0.12,-0.98,3.05,2.87,4.09
20.8990,0.09,0.12,-0.98,2.87,2.87,4.15
20.9150,0.09,0.12,-0.98,2.81,2.87,3.85
20.9320,0.09,0.12,-0.98,3.05,3.11,3.48
20.9490,0.08,0.12,-0.98,2.99,2.81,3.72
20.9640,0.08,0.12,-0.98,2.87,2.99,3.97
20.9800,0.09,0.11,-0.98,2.99,2.87,3.85
20.9830,0.09,0.11,-0.98,3.05,2.87,3.11
20.9980,0.08,0.12,-0.98,2.93,3.05,3.36
21.0200,0.08,0.12,-0.98,3.11,3.17,3.54
21.0370,0.08,0.12,-0.98,2.93,2.87,3.66
21.0530,0.09,0.12,-0.98,2.99,2.99,3.60
21.0710,0.09,0.12,-0.98,2.99,2.99,3.66
21.0850,0.09,0.12,-0.98,2.93,2.87,3.78
21.1000,0.09,0.12,-0.98,3.11,2.81,3.91
21.1100,0.08,0.12,-0.98,2.93,2.87,4.03
21.1260,0.09,0.11,-0.98,2.99,2.99,4.09
21.1470,0.09,0.12,-0.98,3.23,2.87,3.66
21.1620,0.08,0.12,-0.98,2.87,2.87,4.03
21.1790,0.09,0.12,-0.98,2.99,2.69,5.25
21.1940,0.09,0.12,-0.98,2.56,3.05,4.88
21.2090,0.09,0.12,-0.98,2.81,2.81,4.33
21.2140,0.09,0.11,-0.98,2.69,3.05,4.52
21.2350,0.09,0.11,-0.98,2.81,2.87,3.85
21.2550,0.08,0.11,-0.98,2.87,2.99,3.54
21.2670,0.09,0.11,-0.98,3.17,3.17,3.23
21.2840,0.08,0.12,-0.98,2.99,3.30,3.11
21.3000,0.08,0.12,-0.98,3.05,2.99,3.11
21.3170,0.09,0.12,-0.98,3.11,3.42,3.30
21.3320,0.09,0.12,-0.98,3.17,3.17,3.05
21.3480,0.09,0.12,-0.98,3.11,3.54,3.11
21.3630,0.09,0.12,-0.98,2.99,3.05,3.11
21.3790,0.09,0.12,-0.98,2.99,2.93,3.42
21.3940,0.09,0.12,-0.98,3.11,2.99,3.42
21.4080,0.09,0.12,-0.98,3.17,2.93,3.54
21.4230,0.09,0.12,-0.98,3.05,2.87,3.54
21.4350,0.09,0.12,-0.98,2.93,3.23,4.21
21.4490,0.09,0.12,-0.98,2.87,2.93,4.70
21.4700,0.09,0.12,-0.98,3.11,3.11,3.78
21.4860,0.09,0.12,-0.98,2.93,2.99,3.60
21.5020,0.08,0.11,-0.98,3.05,2.44,3.78
21.5200,0.08,0.11,-0.98,2.93,2.93,3.42
21.5340,0.09,0.12,-0.98,3.05,3.30,3.72
21.5510,0.09,0.12,-0.98,2.81,3.42,3.97
21.5650,0.08,0.12,-0.98,2.87,3.42,4.27
21.5800,0.08,0.11,-0.98,2.87,2.81,4.52
21.5890,0.09,0.12,-0.98,2.62,3.11,4.46
21.6070,0.09,0.11,-0.98,2.99,2.93,4.39
21.6210,0.09,0.12,-0.98,2.87,3.11,4.39
21.6400,0.09,0.12,-0.98,2.99,2.99,4.58
21.6550,0.09,0.12,-0.98,3.05,2.93,5.00
21.6710,0.09,0.11,-0.98,2.87,2.93,5.13
21.6730,0.09,0.11,-0.98,3.11,2.75,3.85
21.6890,0.09,0.12,-0.98,3.11,3.23,3.78
21.7200,0.09,0.12,-0.98,2.99,2.75,3.97
21.7360,0.08,0.11,-0.98,2.87,2.99,3.30
21.7520,0.08,0.12,-0.98,2.99,3.11,2.99
21.7550,0.09,0.13,-0.98,2.81,3.36,3.48
21.7710,0.09,0.13,-0.98,2.62,2.93,4.46
21.7990,0.09,0.12,-0.98,2.87,2.87,4.76
21.8090,0.08,0.11,-0.98,3.05,2.75,4.64
21.8260,0.08,0.11,-0.98,2.93,2.69,3.78
21.8440,0.08,0.11,-0.98,2.93,3.05,3.66
21.8600,0.09,0.11,-0.98,2.87,3.17,2.93
21.8740,0.09,0.13,-0.98,3.17,2.93,2.87
21.8900,0.09,0.13,-0.98,3.05,2.81,4.15
21.9050,0.09,0.13,-0.98,2.87,2.69,5.37
21.9210,0.09,0.12,-0.98,2.69,2.87,5.43
21.9370,0.09,0.11,-0.98,2.99,2.69,5.07
21.9530,0.09,0.12,-0.98,3.05,2.62,4.64
21.9680,0.09,0.12,-0.98,2.81,2.93,4.58
21.9820,0.08,0.12,-0.98,2.81,2.99,4.76
21.9930,0.08,0.12,-0.98,3.05,3.05,4.70
22.0080,0.08,0.12,-0.98,2.99,2.75,4.82
22.0290,0.09,0.12,-0.98,2.87,2.87,4.76
22.0440,0.08,0.12,-0.98,3.05,2.87,4.21
22.0600,0.09,0.11,-0.98,3.05,3.05,4.46
22.0740,0.09,0.11,-0.98,3.11,2.62,3.85
22.0890,0.09,0.11,-0.98,3.23,2.99,3.17
22.1050,0.09,0.11,-0.98,3.05,3.23,2.93
22.1190,0.09,0.11,-0.98,3.36,3.17,2.50
22.1300,0.09,0.12,-0.98,3.23,2.99,2.32
22.1470,0.09,0.13,-0.98,2.93,2.93,2.75
22.1630,0.09,0.13,-0.98,3.05,3.05,3.72
22.1800,0.09,0.13,-0.98,2.87,2.69,4.58
22.1960,0.09,0.12,-0.98,2.75,2.69,4.70
22.2120,0.09,0.12,-0.98,2.62,2.93,4.94
22.2270,0.09,0.12,-0.98,2.75,2.62,4.82
22.2420,0.08,0.12,-0.98,2.93,2.75,4.70
22.2570,0.09,0.12,-0.98,3.05,2.81,4.58
22.2640,0.09,0.12,-0.98,2.93,2.44,4.52
22.2800,0.09,0.11,-0.98,2.93,2.99,4.58
22.2950,0.09,0.11,-0.98,2.87,3.11,4.27
22.3180,0.08,0.11,-0.98,2.93,3.11,3.60
22.3340,0.09,0.11,-0.98,3.05,3.05,3.11
22.3370,0.09,0.12,-0.98,3.17,2.99,3.05
22.3530,0.09,0.12,-0.98,2.93,3.17,3.78
22.3680,0.09,0.13,-0.98,3.05,2.75,4.76
22.3910,0.08,0.12,-0.98,2.87,2.50,5.31
22.4140,0.09,0.11,-0.98,2.87,2.69,5.43
22.4240,0.09,0.11,-0.98,3.05,2.44,4.70
22.4400,0.09,0.12,-0.98,2.99,2.75,4.27
22.4570,0.09,0.12,-0.98,3.23,2.62,4.15
22.4730,0.09,0.13,-0.98,3.05,2.56,4.33
22.4880,0.08,0.12,-0.98,2.87,2.62,5.13
22.5030,0.08,0.11,-0.98,2.87,2.38,5.13
22.5180,0.08,0.11,-0.98,2.87,2.87,4.58
22.5330,0.09,0.12,-0.98,2.69,3.30,4.33
22.5440,0.09,0.12,-0.98,2.93,3.17,4.09
22.5600,0.09,0.12,-0.98,2.99,2.75,3.85
22.5760,0.08,0.12,-0.98,3.23,3.05,4.03
22.5930,0.08,0.11,-0.98,3.11,3.05,3.85
22.6080,0.09,0.11,-0.98,2.93,3.30,3.48
22.6240,0.08,0.12,-0.98,3.05,2.87,3.23
22.6390,0.09,0.12,-0.98,3.05,2.87,3.42
22.6550,0.09,0.12,-0.98,3.23,2.93,3.54
22.6710,0.09,0.13,-0.98,2.93,3.17,3.78
22.6870,0.09,0.12,-0.98,2.87,3.11,3.97
22.7030,0.08,0.12,-0.98,2.87,2.81,4.09
22.7170,0.08,0.12,-0.98,2.93,2.93,4.76
22.7270,0.09,0.11,-0.98,2.81,2.62,4.64
22.7420,0.09,0.11,-0.98,2.87,2.56,3.97
22.7640,0.09,0.12,-0.98,3.11,2.87,3.23
22.7790,0.09,0.11,-0.98,3.11,2.87,3.42
22.7950,0.09,0.11,-0.98,2.99,3.17,3.36
22.8100,0.08,0.12,-0.98,3.05,2.87,3.23
22.8250,0.09,0.12,-0.98,2.87,3.23,3.36
22.8410,0.09,0.12,-0.98,2.87,2.75,3.36
22.8560,0.09,0.12,-0.98,2.93,3.23,3.72
22.8710,0.09,0.12,-0.98,3.05,3.23,4.09
22.8870,0.08,0.12,-0.98,3.05,2.87,3.97
22.9020,0.08,0.12,-0.98,2.99,2.99,3.54
22.9130,0.09,0.12,-0.98,3.11,2.81,3.66
22.9300,0.09,0.12,-0.98,3.05,2.56,3.60
22.9470,0.09,0.12,-0.98,3.05,2.62,3.97
22.9640,0.09,0.12,-0.98,3.05,3.11,4.15
22.9800,0.08,0.12,-0.98,3.11,2.93,4.15
22.9950,0.09,0.12,-0.98,2.93,2.81,3.91
23.0100,0.09,0.12,-0.98,2.93,2.81,4.09
23.0250,0.09,0.12,-0.98,2.87,3.05,4.39
23.0370,0.09,0.12,-0.98,2.93,2.75,4.64
23.0460,0.09,0.12,-0.98,2.75,2.75,4.64
23.0690,0.09,0.12,-0.98,2.87,2.99,4.88
23.0840,0.09,0.11,-0.98,2.81,2.93,4.64
23.1000,0.08,0.11,-0.98,2.93,2.81,3.78
23.1150,0.09,0.11,-0.98,2.99,2.75,3.42
23.1290,0.09,0.12,-0.98,3.17,2.75,3.60
23.1450,0.08,0.12,-0.98,2.99,2.81,3.36
23.1590,0.09,0.12,-0.98,3.05,2.87,3.85
23.1670,0.09,0.12,-0.98,2.99,2.75,3.91
23.1830,0.08,0.12,-0.98,3.11,2.69,3.78
23.2060,0.09,0.11,-0.98,2.87,2.62,3.78
23.2210,0.09,0.11,-0.98,2.87,3.05,3.48
23.2380,0.09,0.12,-0.98,3.17,2.93,3.17
23.2540,0.09,0.13,-0.98,3.17,2.87,3.30
23.2700,0.09,0.12,-0.98,2.87,3.11,3.97
23.2860,0.09,0.12,-0.98,2.87,3.05,4.21
23.3020,0.09,0.12,-0.98,2.87,3.05,4.39
23.3170,0.09,0.12,-0.98,2.81,2.99,4.52
23.3220,0.09,0.12,-0.98,3.05,2.81,4.27
23.3380,0.09,0.12,-0.98,2.81,2.62,4.70
23.3630,0.09,0.12,-0.98,2.93,2.93,4.46
23.3720,0.09,0.11,-0.98,3.05,2.87,4.52
23.3870,0.08,0.11,-0.98,2.75,3.11,4.70
23.4080,0.08,0.12,-0.98,2.75,2.93,4.76
23.4240,0.08,0.11,-0.98,2.69,3.11,4.58
23.4400,0.09,0.12,-0.98,2.99,3.05,4.09
23.4560,0.09,0.11,-0.98,2.93,2.99,3.85
23.4720,0.09,0.12,-0.98,3.30,3.23,3.42
23.4870,0.09,0.13,-0.98,2.81,3.23,3.78
23.5020,0.09,0.13,-0.98,2.87,2.87,4.70
23.5170,0.09,0.12,-0.98,2.69,2.87,4.76
23.5330,0.09,0.11,-0.98,2.93,2.75,4.64
23.5440,0.09,0.11,-0.98,2.87,2.93,4.46
23.5600,0.09,0.12,-0.98,3.11,2.75,3.42
23.5780,0.09,0.12,-0.98,2.81,3.17,3.66
23.5940,0.08,0.12,-0.98,2.87,3.05,3.60
23.6080,0.09,0.13,-0.98,2.75,2.87,3.97
23.6230,0.09,0.12,-0.98,3.11,2.81,4.33
23.6380,0.09,0.12,-0.98,2.93,2.99,4.33
23.6550,0.09,0.11,-0.98,2.93,2.62,4.33
23.6700,0.08,0.11,-0.98,2.93,2.87,4.21
23.6850,0.09,0.11,-0.98,2.99,2.81,3.60
23.7000,0.09,0.12,-0.98,2.99,3.17,3.48
23.7110,0.09,0.13,-0.98,2.93,2.93,3.23
23.7270,0.09,0.13,-0.98,2.93,2.62,4.27
23.7440,0.09,0.13,-0.98,2.99,2.87,4.94
23.7610,0.09,0.13,-0.98,2.93,2.69,5.49
23.7750,0.09,0.12,-0.98,2.62,2.62,6.10
23.7910,0.09,0.11,-0.98,2.62,2.62,6.23
23.7940,0.09,0.11,-0.98,2.93,2.93,5.19
23.8090,0.08,0.11,-0.98,3.11,2.87,5.07
23.8320,0.08,0.11,-0.98,3.11,2.81,5.07
23.8500,0.08,0.11,-0.98,2.99,2.75,5.00
23.8660,0.09,0.11,-0.98,3.11,2.93,4.39
23.8820,0.09,0.11,-0.98,2.99,3.17,3.54
23.8980,0.09,0.11,-0.98,3.05,3.05,2.93
23.9140,0.09,0.11,-0.98,2.99,3.17,2.44
23.9300,0.08,0.12,-0.98,3.05,3.36,2.20
23.9460,0.08,0.12,-0.98,3.05,3.05,2.81
23.9620,0.09,0.12,-0.98,2.81,2.99,3.11
23.9770,0.09,0.13,-0.98,2.99,3.36,3.23
23.9920,0.09,0.13,-0.98,2.99,2.87,3.48
24.0060,0.09,0.12,-0.98,3.23,3.05,3.78
24.0210,0.09,0.12,-0.98,2.99,2.99,4.33
24.0320,0.09,0.12,-0.98,2.87,2.56,3.91
24.0490,0.09,0.11,-0.98,3.05,2.81,3.91
24.0660,0.09,0.12,-0.98,2.87,3.17,3.48
24.0820,0.09,0.12,-0.98,2.87,2.93,3.97
24.0970,0.09,0.12,-0.98,2.87,2.81,4.70
24.1130,0.09,0.12,-0.98,2.93,3.17,4.94
24.1280,0.09,0.12,-0.98,2.87,2.99,4.88
24.1420,0.09,0.12,-0.98,2.81,2.93,4.94
24.1490,0.09,0.12,-0.98,2.69,2.99,4.82
24.1660,0.08,0.10,-0.98,2.81,2.81,4.64
24.1820,0.08,0.11,-0.98,3.05,3.11,3.42
24.1970,0.08,0.12,-0.98,2.99,3.17,3.23
24.2190,0.08,0.13,-0.98,2.93,2.69,4.15
24.2360,0.09,0.12,-0.98,2.87,2.75,5.19
24.2520,0.09,0.12,-0.98,2.75,2.87,4.94
24.2670,0.09,0.11,-0.98,2.99,2.69,4.88
24.2830,0.08,0.11,-0.98,3.05,2.69,3.78
24.2860,0.09,0.13,-0.98,2.75,3.05,3.11
24.3020,0.09,0.13,-0.98,3.05,3.05,4.21
24.3230,0.09,0.12,-0.98,2.99,2.87,4.33
24.3400,0.09,0.13,-0.98,2.99,2.75,4.27
24.3560,0.09,0.13,-0.98,2.81,2.93,4.76
24.3740,0.09,0.12,-0.98,2.87,2.50,5.49
24.3890,0.09,0.11,-0.98,2.87,2.56,5.62
24.4070,0.08,0.09,-0.98,2.75,2.56,3.91
24.4220,0.09,0.12,-0.98,3.17,3.42,1.95
24.4370,0.09,0.12,-0.98,3.30,3.54,1.77
24.4540,0.09,0.12,-0.98,2.99,3.17,1.71
24.4700,0.09,0.12,-0.98,3.05,2.99,1.77
24.4850,0.09,0.12,-0.98,3.23,2.99,1.83
24.4900,0.09,0.12,-0.98,3.30,2.99,1.83
24.5060,0.09,0.12,-0.98,3.17,2.99,1.77
24.5290,0.09,0.12,-0.98,3.23,2.69,1.89
24.5450,0.09,0.12,-0.98,3.23,3.17,1.71
24.5610,0.09,0.12,-0.98,3.42,3.11,1.83
24.5760,0.09,0.12,-0.98,3.36,2.81,1.83
24.5910,0.09,0.12,-0.98,3.30,2.93,1.77
24.6070,0.09,0.12,-0.98,3.23,3.23,1.77
24.6210,0.09,0.12,-0.98,3.17,2.99,1.89
24.6390,0.09,0.12,-0.98,3.23,3.17,1.89
24.6450,0.09,0.12,-0.98,3.11,3.17,1.89
24.6660,0.09,0.12,-0.98,3.30,2.81,1.95
24.6830,0.08,0.12,-0.98,3.48,3.11,1.83
24.6990,0.09,0.12,-0.98,3.11,3.23,1.77
24.7170,0.09,0.12,-0.98,3.36,3.30,1.83
24.7330,0.09,0.12,-0.98,3.17,2.93,1.83
24.7490,0.09,0.12,-0.98,3.36,3.36,1.77
24.7640,0.09,0.12,-0.98,3.11,3.23,1.89
24.7800,0.09,0.12,-0.98,3.17,3.11,1.83
24.7950,0.09,0.12,-0.98,3.11,3.17,1.89
24.8100,0.09,0.12,-0.98,3.17,3.05,1.83
24.8250,0.09,0.12,-0.98,3.17,3.23,1.83
24.8400,0.09,0.12,-0.98,3.17,3.05,1.71
24.8550,0.09,0.12,-0.98,3.11,3.17,1.71
24.8670,0.09,0.12,-0.98,3.23,3.11,1.89
24.8830,0.09,0.12,-0.98,3.23,2.99,1.95
24.9000,0.09,0.12,-0.98,3.23,3.05,1.95
24.9160,0.09,0.12,-0.98,2.93,3.30,1.89
24.9320,0.09,0.11,-0.98,2.93,2.87,2.20
24.9490,0.08,0.11,-0.98,2.99,2.56,2.56
24.9640,0.09,0.12,-0.98,3.05,2.93,2.81
24.9660,0.09,0.12,-0.98,3.11,2.93,2.69
24.9820,0.09,0.12,-0.98,3.11,3.36,2.20
25.0060,0.09,0.12,-0.98,2.99,3.30,1.83
25.0230,0.09,0.12,-0.98,2.99,3.11,1.77
25.0380,0.09,0.12,-0.98,3.05,2.87,1.53
25.0550,0.09,0.12,-0.98,3.05,3.30,1.89
25.0700,0.09,0.12,-0.98,3.05,3.05,1.89
25.0860,0.09,0.12,-0.98,3.05,3.17,1.71
25.0900,0.09,0.12,-0.98,3.23,2.87,1.71
25.1050,0.09,0.12,-0.98,3.30,2.75,1.71
25.1270,0.09,0.12,-0.98,3.11,3.42,1.89
25.1440,0.09,0.12,-0.98,3.17,3.11,1.83
25.1610,0.09,0.12,-0.98,3.11,3.23,1.83
25.1760,0.09,0.12,-0.98,3.11,3.36,1.89
25.1910,0.09,0.12,-0.98,3.11,3.30,1.89
25.2080,0.09,0.12,-0.98,3.23,3.11,1.77
25.2120,0.09,0.12,-0.98,2.99,2.99,1.59
25.2280,0.09,0.12,-0.98,3.11,3.23,1.89
25.2510,0.09,0.12,-0.98,3.05,3.36,1.71
25.2680,0.09,0.12,-0.98,3.11,3.11,1.77
25.2840,0.09,0.12,-0.98,2.99,3.36,1.83
25.3010,0.09,0.12,-0.98,3.30,2.62,1.71
25.3160,0.09,0.12,-0.98,2.99,3.23,1.83
25.3320,0.09,0.12,-0.98,3.05,3.05,1.77
25.3480,0.09,0.12,-0.98,2.93,3.30,1.83
25.3660,0.09,0.12,-0.99,3.23,3.11,1.83
25.3820,0.09,0.12,-0.98,3.05,2.81,1.89
25.3980,0.09,0.12,-0.98,3.11,2.93,1.83
25.4140,0.09,0.12,-0.98,3.05,3.36,1.83
25.4180,0.09,0.12,-0.98,3.05,3.36,1.83
25.4390,0.09,0.12,-0.98,3.17,3.11,1.77
25.4560,0.09,0.12,-0.98,3.17,3.30,1.95
25.4720,0.09,0.12,-0.98,3.36,3.17,1.83
25.4890,0.09,0.12,-0.98,2.93,3.36,1.95
25.5050,0.09,0.12,-0.98,3.05,3.23,1.71
25.5210,0.09,0.12,-0.98,3.23,2.87,1.71
25.5240,0.09,0.12,-0.98,3.05,3.30,1.83
25.5390,0.09,0.12,-0.98,3.23,2.99,1.71
25.5550,0.09,0.12,-0.98,3.30,3.48,2.01
25.5770,0.09,0.12,-0.98,3.05,3.36,1.77
25.5930,0.09,0.12,-0.98,3.05,3.17,1.83
25.6090,0.09,0.12,-0.98,3.05,3.36,1.83
25.6260,0.09,0.12,-0.98,3.11,3.05,1.71
25.6410,0.09,0.12,-0.98,3.17,3.17,1.95
25.6570,0.09,0.12,-0.98,3.11,2.99,1.77
25.6740,0.09,0.12,-0.98,3.05,3.36,1.77
25.6900,0.09,0.12,-0.98,3.23,2.99,1.89
25.7050,0.09,0.12,-0.98,3.11,3.23,1.83
25.7210,0.09,0.12,-0.98,3.23,2.81,1.89
25.7260,0.09,0.12,-0.98,3.11,2.99,1.77
25.7420,0.09,0.12,-0.98,3.11,3.11,1.83
25.7640,0.09,0.12,-0.98,3.23,2.93,1.77
25.7820,0.09,0.12,-0.98,3.36,3.17,1.89
25.7970,0.09,0.12,-0.98,3.17,3.17,1.95
25.8140,0.09,0.12,-0.98,3.11,3.54,1.83
25.8310,0.09,0.12,-0.98,3.05,3.23,1.89
25.8470,0.09,0.12,-0.98,3.23,3.30,1.95
25.8620,0.09,0.12,-0.98,3.17,3.60,1.89
25.8770,0.09,0.12,-0.98,3.11,3.42,1.77
25.8920,0.09,0.12,-0.98,3.23,2.99,1.71
25.9080,0.09,0.12,-0.98,3.17,3.17,1.71
25.9130,0.09,0.12,-0.98,3.05,2.93,1.83
25.9290,0.09,0.12,-0.98,3.11,3.05,1.71
25.9500,0.09,0.12,-0.98,3.30,2.93,1.83
25.9660,0.09,0.12,-0.98,3.30,3.23,1.77
25.9830,0.09,0.12,-0.98,2.93,2.93,1.71
25.9990,0.09,0.12,-0.98,2.99,2.87,1.83
26.0160,0.09,0.12,-0.98,3.23,3.05,1.89
26.0320,0.09,0.12,-0.98,3.23,3.11,1.83
26.0490,0.09,0.12,-0.98,3.17,2.99,1.89
26.0650,0.09,0.12,-0.98,3.17,3.36,1.89
26.0810,0.09,0.12,-0.98,3.05,3.05,1.83
26.0830,0.09,0.12,-0.98,2.99,3.11,2.01
26.0990,0.09,0.12,-0.98,3.23,2.75,1.71
26.1190,0.09,0.12,-0.98,3.17,3.11,1.71
26.1400,0.09,0.12,-0.98,3.17,3.11,1.95
26.1530,0.09,0.12,-0.98,3.23,2.93,1.83
26.1730,0.09,0.12,-0.98,3.11,3.17,1.77
26.1880,0.09,0.12,-0.98,3.17,3.17,1.83
26.2040,0.09,0.12,-0.98,3.05,3.36,1.83
26.2200,0.09,0.12,-0.98,3.11,3.11,1.83
26.2340,0.09,0.12,-0.98,3.23,3.36,1.77
26.2420,0.09,0.12,-0.98,3.11,3.54,1.89
26.2570,0.09,0.12,-0.98,3.48,2.87,1.77
26.2800,0.09,0.12,-0.98,3.30,3.11,1.83
26.2960,0.09,0.12,-0.98,3.36,2.93,1.83
26.3120,0.09,0.12,-0.98,3.17,3.36,1.71
26.3290,0.09,0.12,-0.98,3.17,3.36,1.83
26.3450,0.09,0.12,-0.98,3.11,3.17,1.89
26.3590,0.09,0.12,-0.98,3.05,3.30,1.83
26.3740,0.09,0.12,-0.98,3.11,3.42,1.83
26.3890,0.09,0.11,-0.98,2.93,3.42,2.01
26.3960,0.13,0.10,-0.98,3.05,2.81,2.01
26.4120,0.08,0.12,-0.98,3.05,3.30,2.14
26.4350,0.09,0.12,-0.98,3.11,3.17,1.89
26.4500,0.09,0.12,-0.98,3.11,3.11,1.77
26.4520,0.09,0.12,-0.98,2.93,3.23,1.53
26.4690,0.08,0.12,-0.98,3.23,3.30,1.59
26.4850,0.08,0.12,-0.98,3.05,3.30,1.40
26.5020,0.08,0.12,-0.98,3.23,3.36,1.28
26.5190,0.08,0.12,-0.98,3.17,3.42,1.46
26.5400,0.08,0.12,-0.98,2.99,3.23,1.59
26.5500,0.09,0.12,-0.98,3.11,3.48,1.53
26.5780,0.09,0.12,-0.98,3.11,3.42,1.40
26.5890,0.09,0.12,-0.98,3.36,3.17,1.46
26.6050,0.09,0.12,-0.98,3.17,3.11,1.34
26.6230,0.09,0.12,-0.98,3.17,3.11,1.34
26.6390,0.09,0.12,-0.98,2.99,3.30,1.53
26.6540,0.09,0.12,-0.98,3.11,3.36,1.53
26.6700,0.09,0.12,-0.98,2.99,3.30,1.46
26.6870,0.09,0.12,-0.98,3.17,3.17,1.34
26.7030,0.08,0.12,-0.98,3.23,3.17,1.53
26.7190,0.09,0.12,-0.98,2.93,3.72,1.53
26.7220,0.09,0.12,-0.98,3.05,2.99,1.53
26.7410,0.08,0.12,-0.98,3.23,3.42,1.89
26.7650,0.08,0.12,-0.98,3.17,3.42,1.71
26.7770,0.09,0.12,-0.98,2.99,3.42,1.59
26.7930,0.09,0.12,-0.98,2.99,3.17,1.59
26.8100,0.09,0.12,-0.98,3.17,3.17,1.65
26.8260,0.08,0.12,-0.98,3.05,3.05,1.46
26.8420,0.08,0.12,-0.98,2.99,3.11,1.59
26.8580,0.08,0.12,-0.98,3.05,3.17,1.59
26.8740,0.08,0.12,-0.98,3.05,2.93,1.53
26.8770,0.09,0.12,-0.98,3.05,2.69,1.53
26.8920,0.09,0.12,-0.98,3.17,2.93,1.28
26.9160,0.09,0.12,-0.98,3.11,3.42,1.22
26.9330,0.09,0.12,-0.98,3.23,3.30,1.04
26.9490,0.08,0.12,-0.98,3.23,3.30,1.10
26.9660,0.09,0.12,-0.98,3.23,3.30,1.22
26.9820,0.09,0.12,-0.98,3.17,2.87,1.22
26.9990,0.08,0.12,-0.98,3.17,3.11,1.28
27.0140,0.08,0.12,-0.98,3.11,3.36,1.28
27.0160,0.09,0.12,-0.98,3.17,3.05,1.34
27.0410,0.09,0.12,-0.98,3.17,3.05,1.28
27.0540,0.09,0.12,-0.98,3.23,3.05,1.46
27.0710,0.09,0.12,-0.98,3.17,2.99,1.28
27.0870,0.09,0.12,-0.98,3.30,3.36,1.40
27.1050,0.09,0.12,-0.98,3.23,3.30,1.40
27.1200,0.09,0.12,-0.98,3.36,3.05,1.46
27.1360,0.09,0.12,-0.98,3.11,3.36,1.46
27.1410,0.09,0.12,-0.98,3.23,3.36,1.46
27.1540,0.08,0.12,-0.98,3.17,3.11,1.34
27.1850,0.08,0.12,-0.98,3.23,3.23,1.65
27.2010,0.08,0.12,-0.98,2.99,3.60,1.65
27.2170,0.09,0.12,-0.98,3.17,3.23,1.65
27.2210,0.09,0.12,-0.98,2.87,3.42,1.34
27.2410,0.09,0.12,-0.98,3.11,3.23,1.46
27.2530,0.09,0.12,-0.98,3.05,3.11,1.65
27.2790,0.09,0.12,-0.98,3.17,3.05,1.77
27.2910,0.08,0.12,-0.98,2.87,2.99,1.77
27.3070,0.08,0.12,-0.98,3.17,3.11,1.65
27.3230,0.09,0.12,-0.98,3.05,2.81,1.71
27.3400,0.09,0.12,-0.98,2.93,2.99,1.65
27.3540,0.08,0.12,-0.98,2.99,3.11,1.71
27.3710,0.08,0.12,-0.98,3.05,3.17,1.65
27.3870,0.09,0.12,-0.98,3.30,2.93,1.77
27.4030,0.09,0.12,-0.98,3.05,3.11,1.71
27.4190,0.09,0.12,-0.98,3.17,3.17,1.65
27.4350,0.09,0.12,-0.98,3.05,3.54,1.71
27.4510,0.08,0.12,-0.98,3.17,3.30,1.77
27.4660,0.08,0.12,-0.98,3.11,3.11,1.71
27.4810,0.09,0.12,-0.98,3.05,2.99,1.71
27.4960,0.09,0.12,-0.98,3.17,3.30,1.65
27.5080,0.08,0.12,-0.98,3.17,3.11,1.65
27.5230,0.09,0.12,-0.98,3.17,2.99,1.65
27.5420,0.09,0.12,-0.98,3.23,3.17,1.71
27.5580,0.09,0.12,-0.98,3.23,3.17,1.59
27.5740,0.09,0.12,-0.98,3.23,3.30,1.46
27.5890,0.09,0.12,-0.98,3.36,3.23,1.59
27.6040,0.09,0.12,-0.98,3.11,3.23,1.59
27.6200,0.09,0.12,-0.98,3.11,3.30,1.59
27.6350,0.09,0.12,-0.98,2.93,2.87,1.71
27.6500,0.08,0.12,-0.98,3.11,3.23,1.71
27.6600,0.08,0.12,-0.98,3.17,3.42,1.89
27.6760,0.08,0.12,-0.98,3.30,3.36,1.77
27.6950,0.09,0.12,-0.98,3.30,3.17,1.71
27.7100,0.09,0.12,-0.98,3.36,2.93,1.71
27.7130,0.09,0.12,-0.98,3.36,2.75,1.71
27.7420,0.09,0.12,-0.98,3.11,3.36,1.53
27.7520,0.08,0.12,-0.98,3.36,2.93,1.65
27.7670,0.09,0.12,-0.98,3.11,2.87,1.65
27.7860,0.08,0.12,-0.98,3.05,3.11,1.53
27.8010,0.09,0.12,-0.98,3.17,3.23,1.77
27.8180,0.09,0.12,-0.98,3.11,3.54,1.65
27.8360,0.09,0.12,-0.98,2.99,3.11,1.65
27.8510,0.09,0.12,-0.98,3.17,3.11,1.65
27.8670,0.09,0.12,-0.98,3.17,3.05,1.40
27.8680,0.08,0.12,-0.98,3.17,3.11,1.77
27.8980,0.09,0.12,-0.98,3.05,3.11,1.77
27.9140,0.09,0.12,-0.98,3.23,3.05,1.65
27.9180,0.08,0.12,-0.98,3.36,2.75,1.71
27.9430,0.08,0.12,-0.98,3.17,2.99,1.71
27.9570,0.08,0.12,-0.98,3.30,2.99,1.83
27.9720,0.09,0.12,-0.98,3.11,3.05,1.83
27.9900,0.09,0.12,-0.98,3.23,2.99,1.77
28.0050,0.09,0.12,-0.98,3.11,3.17,1.77
28.0230,0.09,0.12,-0.98,3.17,3.23,1.59
28.0380,0.09,0.12,-0.98,3.23,2.87,1.77
28.0550,0.08,0.12,-0.98,3.36,3.11,1.95
28.0700,0.08,0.12,-0.98,3.23,2.81,1.83
28.0730,0.08,0.12,-0.98,3.11,2.87,1.77
28.1010,0.09,0.12,-0.98,3.05,3.11,1.83
28.1170,0.08,0.12,-0.98,3.30,3.05,1.83
28.1230,0.08,0.12,-0.98,3.11,3.05,2.01
28.1430,0.09,0.12,-0.98,3.30,3.05,1.77
28.1560,0.08,0.12,-0.98,3.23,3.05,1.77
28.1720,0.09,0.12,-0.98,3.36,3.17,1.71
28.1920,0.09,0.12,-0.98,3.23,3.23,1.59
28.2080,0.09,0.12,-0.98,3.42,3.42,1.77
28.2250,0.09,0.12,-0.98,3.23,3.17,1.83
28.2390,0.09,0.12,-0.98,3.11,3.42,1.71
28.2430,0.08,0.12,-0.98,2.99,3.17,1.65
28.2700,0.09,0.12,-0.98,3.11,3.23,1.65
28.2860,0.09,0.12,-0.98,3.05,3.36,1.53
28.3020,0.09,0.12,-0.98,3.11,3.17,1.53
28.3160,0.09,0.12,-0.98,2.93,3.48,1.40
28.3310,0.09,0.12,-0.98,3.11,3.05,1.53
28.3440,0.09,0.12,-0.98,3.11,3.11,1.53
28.3580,0.08,0.12,-0.98,3.11,3.60,1.71
28.3750,0.09,0.12,-0.98,3.17,3.05,1.71
28.3910,0.09,0.12,-0.98,3.23,3.11,1.46
28.4060,0.09,0.12,-0.98,3.23,3.11,1.53
28.4220,0.09,0.12,-0.98,3.30,3.11,1.53
28.4370,0.08,0.12,-0.98,2.99,3.11,1.53
28.4530,0.09,0.12,-0.98,3.23,3.36,1.46
28.4690,0.09,0.12,-0.98,3.23,2.87,1.34
28.4840,0.09,0.12,-0.98,3.11,3.05,1.28
28.4990,0.09,0.12,-0.98,3.11,3.30,1.34
28.5140,0.09,0.12,-0.98,3.17,3.05,1.46
28.5250,0.09,0.12,-0.98,2.93,3.48,1.22
28.5410,0.09,0.12,-0.98,3.17,3.23,1.22
28.5580,0.09,0.12,-0.98,3.23,3.42,1.28
28.5740,0.08,0.12,-0.98,3.23,3.48,1.34
28.5890,0.08,0.12,-0.98,3.17,3.23,1.34
28.6040,0.09,0.12,-0.98,3.17,3.54,1.46
28.6210,0.09,0.12,-0.98,3.17,3.48,1.34
28.6370,0.09,0.12,-0.98,3.17,3.42,1.28
28.6530,0.08,0.12,-0.98,3.11,3.23,1.22
28.6680,0.09,0.12,-0.98,3.11,3.17,1.59
28.6760,0.08,0.12,-0.98,3.17,3.42,1.53
28.6980,0.09,0.12,-0.98,3.11,2.99,1.46
28.7090,0.08,0.12,-0.98,3.17,3.17,1.53
28.7250,0.09,0.12,-0.98,3.05,3.23,1.40
28.7440,0.09,0.12,-0.98,3.42,2.87,1.53
28.7580,0.09,0.12,-0.98,3.17,2.93,1.53
28.7740,0.09,0.12,-0.98,2.93,2.93,1.40
28.7810,0.08,0.12,-0.98,3.11,3.11,1.59
28.8040,0.08,0.12,-0.98,3.23,3.30,1.59
28.8150,0.08,0.12,-0.98,3.05,3.30,1.71
28.8310,0.09,0.12,-0.98,2.99,3.11,1.77
28.8500,0.09,0.12,-0.98,2.99,3.36,1.59
28.8660,0.09,0.12,-0.98,3.11,3.17,1.59
28.8810,0.09,0.12,-0.98,3.42,2.87,1.46
28.8850,0.08,0.12,-0.98,2.93,3.42,1.59
28.9010,0.09,0.12,-0.98,2.93,3.42,1.71
28.9160,0.08,0.12,-0.98,2.87,3.36,1.65
28.9390,0.09,0.12,-0.98,3.05,3.11,1.65
28.9550,0.09,0.12,-0.98,3.17,3.11,1.59
28.9720,0.09,0.12,-0.98,3.30,3.17,1.53
28.9880,0.09,0.12,-0.98,3.17,3.23,1.53
29.0050,0.09,0.12,-0.98,3.11,2.75,1.53
29.0220,0.09,0.12,-0.98,3.17,3.11,1.65
29.0370,0.08,0.12,-0.98,3.23,2.93,1.53
29.0530,0.08,0.12,-0.98,3.23,2.93,1.46
29.0700,0.09,0.12,-0.98,2.99,3.30,1.53
29.0850,0.09,0.12,-0.98,3.36,2.87,1.34
29.1010,0.08,0.12,-0.98,3.11,3.30,1.34
29.1170,0.08,0.12,-0.98,3.05,3.54,1.46
29.1220,0.08,0.12,-0.98,3.05,3.23,1.46
29.1440,0.09,0.12,-0.98,2.99,3.23,1.46
29.1600,0.08,0.12,-0.98,3.05,2.81,1.53
29.1760,0.08,0.12,-0.98,3.11,3.30,1.77
29.1910,0.08,0.12,-0.98,3.17,3.17,1.71
29.2070,0.08,0.12,-0.98,3.30,2.93,1.46
29.2230,0.08,0.12,-0.98,3.11,3.11,1.59
29.2380,0.09,0.12,-0.98,3.17,3.05,1.59
29.2540,0.09,0.12,-0.98,3.23,3.05,1.71
29.2700,0.09,0.12,-0.98,3.05,3.30,1.59
29.2860,0.09,0.12,-0.98,3.23,3.30,1.89
29.3000,0.08,0.12,-0.98,3.17,2.99,1.77
29.3150,0.09,0.12,-0.98,3.11,2.99,1.77
29.3270,0.09,0.12,-0.98,3.11,3.30,1.89
29.3450,0.09,0.12,-0.98,2.93,3.23,1.89
29.3590,0.09,0.12,-0.98,3.11,2.99,1.83
29.3750,0.08,0.12,-0.98,3.11,3.30,1.65
29.3910,0.09,0.12,-0.98,2.99,3.05,1.77
29.4060,0.08,0.12,-0.98,2.99,3.23,1.59
29.4230,0.09,0.12,-0.98,3.30,3.23,1.59
29.4390,0.09,0.12,-0.98,2.75,3.42,1.59
29.4540,0.09,0.12,-0.98,2.99,3.30,1.53
29.4590,0.08,0.12,-0.98,3.05,3.23,1.77
29.4750,0.09,0.12,-0.98,2.99,3.23,1.59
29.4980,0.09,0.12,-0.98,3.05,3.11,1.53
29.5150,0.09,0.12,-0.98,3.05,3.11,1.65
29.5310,0.08,0.12,-0.98,3.17,3.23,1.71
29.5470,0.08,0.12,-0.98,3.42,3.17,1.71
29.5490,0.08,0.12,-0.98,3.23,3.05,1.53
29.5640,0.09,0.12,-0.98,3.30,2.75,1.53
29.5880,0.10,0.12,-0.98,3.23,3.30,1.59
29.6050,0.08,0.12,-0.98,3.05,2.93,1.59
29.6220,0.08,0.12,-0.98,3.11,3.23,1.59
29.6380,0.09,0.12,-0.98,3.30,3.11,1.65
29.6540,0.09,0.12,-0.98,2.93,3.17,1.53
29.6710,0.08,0.12,-0.98,3.05,3.30,1.65
29.6720,0.08,0.12,-0.98,3.17,3.36,1.59
29.6900,0.09,0.12,-0.98,2.99,3.36,1.53
29.7190,0.09,0.12,-0.98,3.11,3.60,1.65
29.7230,0.08,0.12,-0.98,2.93,3.17,1.83
29.7450,0.09,0.12,-0.98,2.93,3.23,1.71
29.7540,0.09,0.12,-0.98,3.11,3.05,1.59
29.7780,0.09,0.12,-0.98,3.11,3.17,1.71
29.7940,0.09,0.12,-0.98,2.99,3.36,1.77
29.8120,0.08,0.12,-0.98,3.23,2.93,1.65
29.8270,0.09,0.12,-0.98,3.11,3.17,1.77
29.8440,0.08,0.12,-0.98,3.23,3.23,1.77
29.8590,0.09,0.12,-0.98,3.17,2.93,1.59
29.8740,0.09,0.12,-0.98,3.05,3.23,1.65
29.8890,0.08,0.12,-0.98,3.17,3.36,1.65
29.8950,0.08,0.12,-0.98,3.11,3.42,1.53
29.9110,0.09,0.12,-0.98,3.11,2.99,1.46
29.9330,0.09,0.12,-0.98,3.05,3.05,1.65
29.9510,0.09,0.12,-0.98,3.23,2.81,1.59
29.9670,0.08,0.12,-0.98,3.17,3.11,1.53
29.9820,0.08,0.12,-0.98,3.23,3.23,1.59
29.9840,0.09,0.12,-0.98,3.17,3.48,1.65
30.0010,0.09,0.12,-0.98,3.05,2.99,1.65
30.0170,0.09,0.12,-0.98,3.11,3.36,1.53
30.0400,0.09,0.12,-0.98,3.23,3.11,1.53
30.0560,0.08,0.12,-0.98,3.23,3.23,1.65
30.0730,0.09,0.12,-0.98,2.99,3.48,1.71
30.0890,0.09,0.12,-0.98,3.11,3.23,1.59
30.1070,0.09,0.12,-0.98,3.11,3.11,1.59
30.1220,0.09,0.12,-0.98,2.93,2.99,1.59
30.1380,0.08,0.12,-0.98,3.17,3.11,1.46
30.1540,0.09,0.12,-0.98,3.36,3.17,1.46
30.1710,0.09,0.12,-0.98,3.11,3.30,1.34
30.1740,0.09,0.12,-0.98,3.11,2.99,1.40
30.2030,0.09,0.12,-0.98,3.30,2.99,1.40
30.2180,0.08,0.12,-0.98,3.17,3.23,1.53
30.2340,0.09,0.12,-0.98,3.11,3.23,1.46
30.2490,0.09,0.12,-0.98,3.11,2.87,1.65
30.2560,0.09,0.12,-0.98,3.11,2.93,1.59
30.2730,0.09,0.12,-0.98,3.42,2.56,1.53
30.2940,0.09,0.12,-0.98,2.99,2.62,1.71
30.3050,0.09,0.12,-0.98,3.23,3.05,1.59
30.3220,0.09,0.12,-0.98,3.05,3.23,1.53
30.3370,0.08,0.12,-0.98,3.05,3.11,1.53
30.3530,0.08,0.12,-0.98,3.11,3.11,1.65
30.3620,0.09,0.12,-0.98,3.17,2.81,1.53
30.3790,0.09,0.12,-0.98,3.11,3.05,1.71
30.3950,0.09,0.12,-0.98,3.23,2.50,1.65
30.4120,0.08,0.12,-0.98,3.05,3.30,1.59
30.4290,0.08,0.12,-0.98,3.17,3.23,1.71
30.4450,0.08,0.12,-0.98,3.30,2.99,1.65
30.4470,0.09,0.12,-0.98,3.11,3.11,1.71
30.4780,0.08,0.12,-0.98,2.87,3.30,1.83
30.4930,0.09,0.12,-0.98,3.23,2.93,1.83
30.5080,0.09,0.12,-0.98,3.23,2.75,1.89
30.5240,0.09,0.12,-0.98,3.23,3.11,1.89
30.5400,0.09,0.12,-0.98,3.23,3.30,1.95
30.5560,0.09,0.12,-0.98,3.30,3.05,1.77
30.5720,0.09,0.12,-0.98,3.17,2.99,1.89
30.5790,0.09,0.12,-0.98,3.17,2.99,1.89
30.5950,0.09,0.12,-0.98,3.23,2.75,1.77
30.6170,0.09,0.12,-0.98,3.17,3.48,1.77
30.6340,0.10,0.06,-0.99,3.30,3.11,2.20
30.6510,0.08,0.15,-0.98,2.87,2.38,6.53
30.6660,0.09,0.13,-0.98,2.87,3.11,4.09
30.6680,0.08,0.12,-0.98,3.11,2.87,2.81
30.6840,0.08,0.12,-0.98,3.11,2.93,2.20
30.7060,0.09,0.12,-0.98,3.23,3.17,1.95
30.7230,0.09,0.12,-0.98,3.11,3.05,1.89
30.7400,0.09,0.12,-0.98,3.17,2.62,1.65
30.7560,0.09,0.12,-0.98,3.30,2.56,1.71
30.7570,0.09,0.12,-0.98,3.11,2.99,1.77
30.7870,0.09,0.12,-0.98,3.05,3.36,1.83
30.8030,0.09,0.12,-0.98,2.93,3.30,1.83
30.8200,0.09,0.12,-0.98,2.99,3.05,1.83
30.8360,0.09,0.12,-0.98,3.23,3.05,1.65
30.8510,0.09,0.12,-0.98,3.11,3.54,1.89
30.8560,0.09,0.12,-0.98,3.30,3.23,1.83
30.8720,0.09,0.12,-0.98,3.05,3.17,1.83
30.8960,0.09,0.12,-0.98,3.05,3.11,1.89
30.9120,0.09,0.12,-0.98,3.05,3.17,1.71
30.9270,0.09,0.12,-0.98,3.11,2.93,1.65
30.9300,0.09,0.12,-0.98,2.99,3.05,1.83
30.9470,0.09,0.12,-0.98,3.23,3.36,1.77
30.9690,0.12,0.10,-0.98,2.75,3.36,1.95
30.9860,0.08,0.12,-0.98,2.81,2.93,2.26
31.0030,0.09,0.12,-0.98,2.93,3.11,1.95
31.0190,0.08,0.12,-0.98,2.99,3.17,1.95
31.0350,0.08,0.12,-0.98,3.11,3.11,1.89
31.0500,0.08,0.12,-0.98,3.11,3.11,2.01
31.0650,0.08,0.12,-0.98,2.99,2.81,1.83
31.0680,0.09,0.12,-0.98,3.30,2.81,1.71
31.0840,0.09,0.12,-0.98,3.05,3.11,1.71
31.1060,0.09,0.12,-0.98,2.93,3.30,1.77
31.1230,0.09,0.12,-0.98,2.87,3.11,1.89
31.1400,0.09,0.12,-0.98,3.05,2.87,1.89
31.1560,0.08,0.12,-0.98,3.05,3.11,1.83
31.1730,0.08,0.12,-0.98,2.99,3.36,2.01
31.1880,0.09,0.12,-0.98,3.30,2.81,1.83
31.2040,0.09,0.12,-0.98,3.11,3.17,1.89
31.2200,0.09,0.12,-0.98,2.99,3.23,1.95
31.2370,0.08,0.12,-0.98,3.11,3.05,2.08
31.2510,0.09,0.12,-0.98,3.17,2.99,2.08
31.2670,0.09,0.12,-0.98,3.23,3.23,2.14
31.2840,0.09,0.12,-0.98,2.99,3.17,2.08
31.2990,0.08,0.12,-0.98,3.23,2.75,2.01
31.3140,0.08,0.12,-0.98,2.99,2.81,1.83
31.3290,0.09,0.12,-0.98,3.17,2.93,1.83
31.3400,0.08,0.12,-0.98,3.05,3.11,1.89
31.3560,0.08,0.12,-0.98,3.11,3.05,1.77
31.3740,0.08,0.12,-0.98,3.11,2.93,1.53
31.3890,0.08,0.12,-0.98,3.05,2.93,1.71
31.4060,0.09,0.12,-0.98,3.05,3.05,1.53
31.4210,0.09,0.12,-0.98,3.05,2.93,1.46
31.4360,0.12,0.12,-0.98,3.17,2.81,1.46
31.4510,0.09,0.12,-0.98,3.11,2.93,1.46
31.4570,0.09,0.12,-0.98,3.11,3.11,1.59
31.4730,0.09,0.12,-0.98,3.17,3.48,1.53
31.4940,0.09,0.12,-0.98,3.23,2.93,1.59
31.5100,0.09,0.12,-0.98,2.99,3.11,1.71
31.5270,0.09,0.12,-0.98,3.17,3.05,1.65
31.5440,0.08,0.12,-0.98,3.17,3.11,1.65
31.5600,0.09,0.12,-0.98,3.17,3.17,1.53
31.5750,0.09,0.12,-0.98,3.05,2.69,1.65
31.5910,0.09,0.12,-0.98,3.17,3.05,1.71
31.6060,0.09,0.12,-0.98,3.11,2.93,1.77
31.6210,0.08,0.12,-0.98,3.05,3.11,1.59
31.6380,0.09,0.12,-0.98,3.11,2.99,1.71
31.6530,0.08,0.12,-0.98,3.05,3.17,1.59
31.6690,0.09,0.12,-0.98,3.11,3.30,1.53
31.6840,0.09,0.12,-0.98,3.17,3.30,1.40
31.6990,0.09,0.12,-0.98,3.17,2.81,1.53
31.7110,0.08,0.12,-0.98,3.17,2.75,1.59
31.7270,0.09,0.12,-0.98,3.11,3.11,1.71
31.7430,0.09,0.12,-0.98,3.17,3.23,1.71
31.7600,0.08,0.12,-0.98,3.11,2.99,1.65
31.7770,0.10,0.12,-0.98,3.17,2.81,1.65
31.7920,0.09,0.12,-0.98,3.30,3.11,1.59
31.8070,0.08,0.12,-0.98,2.93,3.30,1.65
31.8230,0.08,0.12,-0.98,3.17,2.93,1.46
31.8390,0.09,0.12,-0.98,3.23,2.81,1.53
31.8530,0.08,0.12,-0.98,3.17,2.99,1.53
31.8690,0.09,0.12,-0.98,3.11,3.17,1.53
31.8840,0.08,0.12,-0.98,2.99,3.17,1.71
31.8940,0.08,0.12,-0.98,3.36,2.69,1.65
31.9100,0.08,0.12,-0.98,3.36,3.17,1.71
31.9260,0.09,0.12,-0.98,3.17,3.11,1.59
31.9470,0.08,0.12,-0.98,3.36,3.23,1.77
31.9630,0.08,0.12,-0.98,3.17,3.11,1.71
31.9780,0.09,0.12,-0.98,3.17,2.93,1.89
31.9930,0.09,0.12,-0.98,3.30,2.81,1.65
32.0070,0.08,0.12,-0.98,3.30,3.17,1.77
32.0230,0.08,0.12,-0.98,3.23,3.30,1.59
32.0370,0.08,0.12,-0.98,2.99,3.36,1.59
32.0490,0.09,0.12,-0.98,3.11,3.36,1.59
32.0650,0.09,0.12,-0.98,3.11,2.62,1.71
32.0810,0.09,0.12,-0.98,3.17,3.05,1.77
32.0990,0.09,0.12,-0.98,3.23,3.23,1.71
32.1150,0.09,0.12,-0.98,3.23,3.05,1.71
32.1190,0.08,0.12,-0.98,3.30,2.93,1.65
32.1350,0.09,0.12,-0.98,3.23,3.11,1.53
32.1600,0.09,0.12,-0.98,3.17,3.05,1.65
32.1750,0.09,0.12,-0.98,3.17,3.11,1.71
32.1910,0.09,0.12,-0.98,3.11,3.30,1.83
32.2070,0.09,0.12,-0.98,3.11,3.36,1.95
32.2100,0.09,0.12,-0.98,3.30,2.99,1.65
32.2250,0.08,0.12,-0.98,3.17,2.99,1.71
32.2490,0.09,0.12,-0.98,3.11,3.05,1.65
32.2660,0.09,0.12,-0.98,2.99,3.30,1.83
32.2830,0.09,0.12,-0.98,3.11,3.05,1.77
32.2990,0.08,0.12,-0.98,3.11,3.17,1.71
32.3160,0.09,0.12,-0.98,3.11,3.23,1.40
32.3320,0.09,0.12,-0.98,3.23,2.69,1.46
32.3480,0.09,0.12,-0.98,2.99,3.05,1.46
32.3650,0.08,0.12,-0.98,3.36,2.93,1.40
32.3810,0.08,0.12,-0.98,3.05,3.17,1.34
32.3970,0.09,0.12,-0.98,3.11,3.11,1.22
32.4120,0.08,0.12,-0.98,3.05,3.48,1.28
32.4270,0.08,0.12,-0.98,3.17,3.48,1.22
32.4320,0.08,0.12,-0.98,3.23,3.42,1.40
32.4480,0.09,0.12,-0.98,3.17,3.11,1.04
32.4710,0.09,0.12,-0.98,3.17,3.05,1.04
32.4880,0.09,0.12,-0.98,3.36,3.17,1.22
32.5050,0.09,0.12,-0.98,3.23,3.23,1.04
32.5210,0.09,0.12,-0.98,3.11,3.23,1.28
32.5370,0.09,0.12,-0.98,3.17,3.11,1.16
32.5480,0.09,0.12,-0.98,3.17,2.69,1.16
32.5550,0.09,0.12,-0.98,3.23,3.48,1.04
32.5850,0.09,0.12,-0.98,3.17,3.23,1.22
32.6010,0.09,0.12,-0.98,3.23,3.17,1.04
32.6160,0.08,0.12,-0.98,3.05,3.17,1.04
32.6320,0.08,0.12,-0.98,3.17,3.11,0.85
32.6380,0.08,0.12,-0.98,3.23,3.23,1.04
32.6530,0.09,0.12,-0.98,3.11,3.17,1.04
32.6760,0.08,0.12,-0.98,3.36,3.05,1.10
32.6920,0.09,0.12,-0.98,3.36,2.75,1.16
32.7090,0.09,0.12,-0.98,3.17,3.30,0.92
32.7250,0.09,0.12,-0.98,3.23,3.72,1.04
32.7410,0.08,0.12,-0.98,3.30,3.05,1.16
32.7570,0.09,0.12,-0.98,3.30,2.93,1.40
32.7730,0.09,0.12,-0.98,3.17,2.99,1.28
32.7880,0.09,0.12,-0.98,3.23,3.23,1.22
32.8040,0.09,0.12,-0.98,3.30,3.11,1.34
32.8190,0.08,0.12,-0.98,3.05,3.36,1.34
32.8340,0.09,0.12,-0.98,3.17,3.17,1.40
32.8490,0.08,0.12,-0.98,3.23,3.30,1.34
32.8640,0.08,0.12,-0.98,3.17,3.17,1.22
32.8760,0.09,0.12,-0.98,3.11,3.11,1.28
32.8910,0.09,0.12,-0.98,3.23,3.36,1.22
32.9100,0.10,0.12,-0.98,3.42,2.81,0.98
32.9250,0.09,0.12,-0.98,3.30,2.99,0.92
32.9300,0.08,0.12,-0.98,3.36,2.87,1.10
32.9490,0.08,0.12,-0.98,3.36,2.87,1.34
32.9700,0.08,0.12,-0.98,3.17,2.87,1.46
32.9710,0.08,0.12,-0.98,3.36,3.11,1.71
33.0020,0.08,0.12,-0.98,3.17,3.05,1.59
33.0190,0.08,0.12,-0.98,3.23,3.11,1.71
33.0350,0.09,0.12,-0.98,3.23,2.99,1.65
33.0510,0.08,0.12,-0.98,3.17,3.30,1.77
33.0670,0.08,0.12,-0.98,3.30,3.05,1.83
33.0820,0.08,0.12,-0.98,3.42,3.36,2.01
33.0870,0.09,0.12,-0.98,3.48,3.11,1.83
33.1030,0.09,0.12,-0.98,3.23,3.30,2.01
33.1270,0.09,0.12,-0.98,3.11,3.11,1.83
33.1430,0.09,0.12,-0.98,3.23,2.93,1.83
33.1580,0.09,0.12,-0.98,3.30,2.93,1.77
33.1740,0.09,0.12,-0.98,3.11,3.17,1.83
33.1770,0.09,0.12,-0.98,2.99,3.36,1.77
33.1930,0.09,0.12,-0.98,3.11,3.05,1.95
33.2150,0.09,0.12,-0.98,3.17,2.93,1.89
33.2320,0.09,0.12,-0.98,3.23,2.99,1.83
33.2490,0.09,0.12,-0.98,3.17,3.11,1.95
33.2660,0.09,0.12,-0.98,3.11,3.11,1.95
33.2820,0.09,0.12,-0.98,3.30,2.99,1.83
33.2980,0.09,0.12,-0.98,3.11,3.17,1.89
33.3130,0.09,0.12,-0.98,2.81,3.54,1.95
33.3290,0.09,0.12,-0.98,2.87,3.30,1.83
33.3330,0.09,0.12,-0.98,2.99,3.17,1.95
33.3490,0.09,0.12,-0.98,3.11,3.36,1.89
33.3720,0.09,0.12,-0.98,3.42,3.23,1.89
33.3880,0.09,0.11,-0.98,2.87,3.36,1.83
33.4060,0.09,0.12,-0.98,3.17,3.42,1.95
33.4210,0.09,0.12,-0.98,2.99,2.75,1.71
33.4390,0.09,0.12,-0.98,3.17,3.17,1.89
33.4540,0.09,0.12,-0.98,3.30,3.05,1.71
33.4700,0.09,0.12,-0.98,3.05,3.17,1.77
33.4730,0.09,0.12,-0.98,3.17,3.17,1.95
33.5030,0.09,0.12,-0.98,3.17,3.48,1.95
33.5170,0.09,0.12,-0.98,3.36,2.99,1.83
33.5330,0.09,0.12,-0.98,3.30,3.17,1.77
33.5490,0.09,0.12,-0.98,3.30,3.05,1.95
33.5660,0.09,0.12,-0.98,3.05,3.17,1.77
33.5820,0.09,0.12,-0.98,3.23,3.05,1.71
33.5970,0.09,0.12,-0.98,3.23,3.36,1.89
33.6120,0.09,0.12,-0.98,3.17,3.17,2.01
33.6230,0.09,0.12,-0.98,3.23,3.05,2.08
33.6380,0.09,0.12,-0.98,3.17,2.99,1.77
33.6560,0.09,0.12,-0.98,3.05,2.93,1.59
33.6720,0.09,0.12,-0.98,2.87,3.11,1.77
33.6730,0.09,0.12,-0.98,3.17,3.05,1.83
33.7040,0.09,0.12,-0.98,3.05,2.99,1.89
33.7060,0.09,0.12,-0.98,3.05,3.30,1.65
33.7220,0.09,0.12,-0.98,3.17,2.99,1.65
33.7520,0.09,0.12,-0.98,3.11,2.93,1.71
33.7680,0.09,0.12,-0.98,2.93,2.99,1.83
33.7850,0.09,0.12,-0.98,3.30,2.93,1.89
33.8000,0.09,0.12,-0.98,3.17,2.75,1.95
33.8160,0.09,0.12,-0.98,3.17,2.75,1.89
33.8320,0.09,0.12,-0.98,3.05,3.05,1.83
33.8480,0.09,0.12,-0.98,3.05,3.30,1.83
33.8630,0.09,0.12,-0.98,2.93,3.05,1.95
33.8730,0.09,0.12,-0.98,3.11,2.87,1.77
33.8880,0.09,0.12,-0.98,3.23,2.93,1.89
33.9100,0.08,0.12,-0.98,3.48,2.87,1.77
33.9250,0.09,0.12,-0.98,3.23,3.11,1.89
33.9400,0.09,0.12,-0.98,3.05,3.23,1.89
33.9560,0.09,0.12,-0.98,3.05,2.62,1.65
33.9720,0.09,0.12,-0.98,2.99,3.17,1.89
33.9890,0.09,0.12,-0.98,3.17,2.93,1.95
34.0040,0.09,0.12,-0.98,2.99,3.11,1.89
34.0200,0.09,0.12,-0.98,3.17,2.99,1.95
34.0350,0.09,0.12,-0.98,3.11,2.93,1.71
34.0500,0.09,0.12,-0.98,3.30,2.87,1.95
34.0620,0.09,0.12,-0.98,3.11,3.05,1.71
34.0790,0.09,0.12,-0.98,3.05,3.17,1.71
34.0940,0.09,0.12,-0.98,3.30,2.69,1.77
34.1110,0.09,0.12,-0.98,3.11,3.11,1.77
34.1280,0.09,0.12,-0.98,3.42,2.81,1.77
34.1440,0.09,0.12,-0.98,3.36,3.11,1.71
34.1600,0.09,0.12,-0.98,3.11,3.54,1.77
34.1750,0.09,0.12,-0.98,3.23,3.05,1.95
34.1900,0.09,0.12,-0.98,3.17,2.81,1.65
34.1950,0.09,0.12,-0.98,2.93,2.93,1.71
34.2110,0.09,0.12,-0.98,2.93,3.23,1.89
34.2350,0.09,0.12,-0.98,3.17,2.99,1.71
34.2520,0.08,0.12,-0.98,3.17,3.36,1.89
34.2680,0.10,0.11,-0.98,3.17,2.62,5.80
34.2850,0.09,0.11,-0.98,3.23,2.99,3.05
34.3010,0.09,0.12,-0.98,3.30,3.23,1.95
34.3170,0.09,0.12,-0.98,3.30,3.17,1.77
34.3330,0.09,0.12,-0.98,3.17,3.30,1.95
34.3490,0.09,0.12,-0.98,3.30,3.48,1.83
34.3520,0.09,0.12,-0.98,3.23,3.30,2.01
34.3680,0.09,0.12,-0.98,3.17,3.17,1.77
34.3890,0.09,0.12,-0.98,3.23,3.05,2.01
34.4060,0.09,0.12,-0.98,3.05,3.30,1.89
34.4230,0.09,0.12,-0.98,3.23,3.05,1.77
34.4390,0.09,0.12,-0.98,3.30,3.17,1.89
34.4530,0.09,0.12,-0.98,3.23,3.11,1.83
34.4680,0.09,0.12,-0.98,3.23,3.17,2.01
34.4830,0.09,0.12,-0.98,3.05,3.30,1.89
34.4980,0.09,0.12,-0.98,3.11,3.17,1.83
34.5130,0.09,0.12,-0.98,3.05,3.11,1.83
34.5280,0.09,0.12,-0.98,3.05,3.30,1.77
34.5390,0.09,0.12,-0.98,3.05,3.23,1.83
34.5560,0.09,0.12,-0.98,3.17,3.11,1.89
34.5720,0.09,0.12,-0.98,3.36,2.81,1.83
34.5890,0.09,0.12,-0.98,3.17,3.17,1.89
34.6050,0.08,0.12,-0.97,3.72,2.99,2.01
34.6220,0.08,0.12,-0.98,3.54,2.75,1.77
34.6380,0.09,0.12,-0.98,3.30,2.93,1.83
34.6530,0.09,0.12,-0.98,3.36,2.99,1.83
34.6690,0.09,0.12,-0.98,3.17,3.05,1.95
34.6860,0.09,0.12,-0.98,3.05,2.93,1.77
34.6910,0.09,0.12,-0.98,3.17,3.17,1.83
34.7180,0.09,0.12,-0.98,3.11,3.17,1.89
34.7340,0.09,0.12,-1.00,3.23,3.66,1.77
34.7480,0.09,0.11,-0.98,3.05,3.54,1.89
34.7560,0.09,0.12,-0.98,2.93,3.11,1.77
34.7730,0.09,0.12,-0.98,3.05,3.30,1.83
34.7900,0.08,0.12,-0.98,3.30,3.42,1.89
34.8060,0.09,0.12,-0.98,3.17,3.17,1.83
34.8260,0.09,0.12,-0.98,3.42,2.93,2.01
34.8410,0.09,0.12,-0.98,3.30,3.05,1.95
34.8500,0.09,0.12,-0.98,3.05,2.99,1.77
34.8700,0.09,0.12,-0.98,3.11,3.54,2.08
34.8850,0.09,0.12,-0.98,3.30,2.93,1.89
34.8960,0.09,0.12,-0.98,3.30,3.17,1.77
34.9130,0.09,0.12,-0.98,3.48,2.81,1.77
34.9300,0.09,0.12,-0.98,3.11,3.23,1.95
34.9460,0.09,0.12,-0.98,3.54,3.05,1.89
34.9640,0.09,0.12,-0.98,3.23,3.23,1.83
34.9800,0.09,0.12,-0.98,3.11,3.11,1.95
34.9960,0.09,0.12,-0.98,3.05,3.05,1.89
35.0120,0.09,0.12,-0.98,3.17,3.30,1.95
35.0280,0.09,0.12,-0.98,3.30,2.81,1.77
35.0440,0.09,0.12,-0.98,3.30,2.93,1.83
35.0610,0.09,0.12,-0.98,3.30,3.11,1.77
35.0760,0.09,0.12,-0.98,3.11,2.93,1.77
35.0930,0.08,0.12,-0.98,3.17,3.48,1.83
35.1090,0.09,0.12,-0.98,3.17,3.23,1.95
35.1130,0.09,0.12,-0.98,3.11,2.81,1.89
35.1390,0.09,0.12,-0.98,3.05,3.17,1.71
35.1500,0.09,0.12,-0.98,3.05,3.30,1.95
35.1620,0.09,0.12,-0.98,2.87,3.36,1.89
35.1810,0.09,0.12,-0.98,2.93,3.11,1.83
35.1990,0.08,0.12,-0.98,3.05,3.05,1.83
35.2150,0.06,0.15,-0.99,2.14,2.14,6.65
35.2310,0.15,0.26,-1.01,-0.49,2.20,9.28
35.2470,0.11,0.15,-1.23,-10.62,13.49,-8.67
35.2630,0.07,0.16,-1.25,-62.01,22.89,-3.42
35.2790,0.15,0.15,-1.09,-59.14,29.17,-4.39
35.2960,0.10,0.11,-1.01,-60.42,42.91,-7.32
35.3120,0.05,0.08,-0.94,-43.15,40.47,-7.20
35.3270,0.02,0.12,-0.88,-13.85,24.90,-8.00
35.3420,0.04,0.20,-0.96,39.49,2.62,-9.89
35.3570,0.05,0.18,-1.03,42.11,-5.62,-4.64
35.3720,0.04,0.17,-1.05,28.20,-2.38,0.31
35.3870,0.01,0.15,-1.04,1.77,11.17,-0.85
35.3980,0.02,0.14,-1.00,-14.40,20.32,-2.69
35.4140,-0.02,0.11,-0.91,-13.73,21.55,-6.41
35.4300,-0.03,0.10,-0.88,11.35,17.58,-13.43
35.4470,0.01,0.13,-0.91,22.28,10.25,-11.17
35.4640,0.01,0.18,-0.98,29.60,5.68,-7.08
35.4800,0.02,0.16,-0.99,21.55,3.60,-2.26
35.4960,0.01,0.15,-0.96,9.46,10.62,-2.87
35.5130,0.00,0.15,-0.92,0.98,14.34,-7.45
35.5300,-0.00,0.12,-0.88,0.73,14.34,-14.22
35.5460,0.02,0.16,-0.90,6.47,7.08,-20.87
35.5620,0.05,0.21,-0.94,10.80,-1.59,-14.59
35.5640,0.05,0.16,-0.98,13.43,-5.13,-5.19
35.5790,0.04,0.11,-0.99,6.16,-0.18,-5.37
35.6080,0.04,0.10,-0.98,-2.50,4.39,-12.82
35.6190,0.04,0.09,-0.97,-3.78,5.00,-18.31
35.6360,0.05,0.09,-0.97,-5.25,4.39,-26.49
35.6520,0.07,0.12,-1.03,-2.81,0.18,-27.10
35.6690,0.09,0.19,-1.06,2.01,-1.71,-19.29
35.6860,0.06,0.21,-1.06,6.65,3.91,-3.66
35.7010,0.06,0.17,-1.05,8.24,11.78,9.34
35.7180,0.06,0.12,-1.04,5.25,9.58,9.34
35.7340,0.06,0.09,-1.03,-0.18,7.87,2.38
35.7500,0.03,0.03,-1.04,-12.27,6.77,-1.95
35.7660,0.04,0.04,-1.01,-20.75,6.65,-3.72
35.7680,0.05,0.03,-1.02,-10.62,4.03,-0.79
35.7840,0.03,-0.01,-1.04,4.94,-1.65,2.69
35.8100,0.03,-0.04,-1.05,5.74,-2.01,1.04
35.8260,0.02,-0.05,-1.06,-0.92,2.38,-4.94
35.8420,0.02,-0.05,-1.06,-3.66,5.31,-7.08
35.8580,0.02,-0.03,-1.05,-7.02,14.59,-9.40
35.8750,0.00,-0.01,-1.01,-9.95,18.37,-6.47
35.8900,-0.00,-0.02,-0.98,-9.95,17.58,0.85
35.8930,-0.02,-0.03,-0.95,-7.63,10.50,10.99
35.9090,-0.03,-0.07,-0.94,1.28,-0.18,15.26
35.9310,-0.05,-0.07,-0.95,6.23,-6.41,9.95
35.9510,-0.07,-0.03,-0.97,14.40,-9.28,5.00
35.9640,-0.08,0.02,-0.95,11.60,-11.47,-5.43
35.9810,-0.08,0.09,-0.95,9.40,-14.22,-15.44
35.9980,-0.05,0.16,-0.94,10.62,-19.04,-19.84
36.0140,-0.02,0.20,-0.92,9.64,-14.34,-11.96
36.0320,-0.02,0.20,-0.89,8.48,-8.73,-1.53
36.0480,-0.01,0.13,-0.85,7.69,-7.75,4.09
36.0640,0.02,0.07,-0.86,7.32,-12.88,2.56
36.0810,0.03,0.02,-0.93,1.04,-13.67,-3.05
36.0960,0.04,0.01,-0.93,-10.13,-10.50,-4.39
36.0980,0.06,0.00,-0.91,-13.31,-5.00,-3.17
36.1280,0.08,0.00,-0.90,-8.79,1.53,1.71
36.1450,0.09,-0.02,-0.91,5.00,-5.55,3.78
36.1610,0.11,-0.04,-0.98,11.84,-14.95,0.92
36.1750,0.12,-0.03,-1.04,5.31,-16.91,-3.85
36.1910,0.13,0.01,-1.06,-8.12,-8.06,-5.92
36.2060,0.13,0.04,-1.04,-14.34,1.04,-5.49
36.2150,0.14,0.05,-1.03,-14.65,3.78,-4.52
36.2300,0.14,0.03,-1.01,-10.19,3.66,-2.32
36.2530,0.13,0.02,-1.02,-3.17,3.05,-2.69
36.2690,0.12,0.00,-1.02,-6.35,6.53,-1.59
36.2850,0.10,0.01,-0.99,-4.76,14.04,-1.22
36.2870,0.09,0.03,-0.97,0.31,17.76,-0.67
36.3160,0.10,0.03,-0.97,3.72,13.98,4.88
36.3200,0.08,0.02,-0.95,1.16,9.22,7.57
36.3360,0.05,-0.02,-0.93,1.04,8.61,1.53
36.3510,0.07,-0.02,-0.92,2.56,1.77,-2.26
36.3800,0.04,-0.03,-1.00,2.38,1.40,-3.23
36.3910,0.08,-0.02,-1.01,1.53,-2.26,-2.26
36.4070,0.05,-0.06,-1.02,5.80,-4.15,-6.35
36.4240,0.06,-0.04,-1.01,6.90,1.89,-4.76
36.4400,0.07,-0.06,-1.01,6.29,4.39,-5.31
36.4560,0.07,-0.07,-0.97,1.89,7.81,-5.92
36.4710,0.06,-0.06,-0.96,0.79,5.13,-8.54
36.4880,0.08,-0.03,-1.01,6.10,-1.53,-11.96
36.5050,0.09,0.00,-1.07,12.88,-4.64,-12.15
36.5200,0.09,0.01,-1.08,13.79,1.10,-11.72
36.5370,0.08,0.05,-1.05,8.30,10.74,-9.77
36.5530,0.11,0.05,-1.04,4.58,12.70,-7.08
36.5690,0.12,0.05,-1.06,3.60,11.78,-4.09
36.5850,0.10,0.04,-1.05,2.44,13.55,-4.94
36.5910,0.08,0.05,-1.04,2.38,16.36,-5.13
36.6060,0.08,0.09,-1.00,0.18,20.39,-3.42
36.6300,0.09,0.10,-0.95,1.89,19.84,0.61
36.6460,0.08,0.06,-0.93,8.24,12.76,4.27
36.6630,0.06,0.02,-0.92,9.40,6.16,6.29
36.6800,0.06,-0.02,-0.93,6.04,5.07,5.37
36.6960,0.05,-0.00,-0.95,3.91,3.91,3.78
36.7120,0.05,0.03,-0.97,4.88,-1.22,3.97
36.7280,0.06,0.04,-1.01,6.59,-2.32,6.77
36.7440,0.06,0.05,-1.02,3.91,2.50,9.46
36.7600,0.05,0.02,-1.00,3.30,5.80,10.80
36.7760,0.05,0.01,-0.98,2.44,10.56,12.76
36.7910,0.06,-0.01,-1.00,3.05,8.24,13.49
36.8070,0.05,-0.01,-1.04,3.36,1.83,13.61
36.8220,0.05,-0.04,-1.03,0.37,3.48,13.31
36.8380,0.05,-0.05,-1.03,-1.46,12.21,11.54
36.8530,0.06,-0.06,-1.02,-2.69,14.65,7.32
36.8680,0.05,-0.05,-0.99,-1.46,13.92,5.07
36.8800,0.03,-0.03,-1.00,0.00,9.83,3.23
36.8960,0.03,-0.00,-1.00,1.89,6.47,2.99
36.9130,0.03,0.00,-0.98,1.89,6.71,3.97
36.9290,0.04,0.01,-0.98,1.83,5.49,5.92
36.9460,0.04,-0.00,-0.99,3.23,1.22,5.49
36.9620,0.02,-0.01,-1.01,3.17,1.04,4.39
36.9780,0.01,0.02,-1.01,3.17,5.25,2.87
36.9940,0.01,0.03,-1.04,5.37,5.43,5.07
37.0100,0.01,0.02,-1.02,7.02,4.27,6.71
37.0260,-0.01,0.03,-1.00,6.53,9.16,6.84
37.0410,-0.00,0.03,-0.97,-0.92,11.60,8.79
37.0560,0.00,0.03,-0.95,0.12,8.48,7.81
37.0720,0.00,0.02,-0.96,3.66,5.13,6.59
37.0870,-0.01,0.03,-0.97,3.91,4.15,6.59
37.1020,-0.01,0.05,-0.95,2.01,5.00,9.83
37.1130,-0.01,0.01,-0.95,4.64,6.84,9.03
37.1290,0.01,0.03,-0.96,3.85,6.29,8.36
37.1460,0.01,0.04,-0.96,5.19,0.31,7.39
37.1630,0.01,0.05,-0.97,7.87,-2.50,7.26
37.1790,0.01,0.05,-0.97,8.61,-2.01,7.81
37.1950,0.01,0.04,-0.99,8.06,1.34,8.42
37.2100,0.01,0.03,-1.02,7.32,2.69,8.30
37.2260,0.01,0.01,-1.05,5.49,2.87,7.32
37.2420,0.00,0.03,-1.05,2.93,4.39,5.19
37.2580,-0.01,0.05,-1.02,-1.04,5.80,4.03
37.2730,-0.01,0.05,-1.00,-2.01,6.59,4.21
37.2800,0.01,0.03,-0.95,0.85,8.67,3.91
37.2960,0.01,0.03,-0.96,6.16,4.70,3.97
37.3180,0.02,0.02,-0.97,9.16,-5.31,3.85
37.3350,0.03,0.03,-1.00,8.48,-8.61,3.36
37.3520,0.05,0.04,-1.00,5.98,-7.20,2.93
37.3700,0.05,0.06,-1.02,9.95,-8.73,3.72
37.3850,0.04,0.04,-1.03,19.35,-11.54,3.72
37.4020,0.04,0.05,-1.02,21.00,-6.41,1.71
37.4190,0.06,0.09,-1.00,15.38,-1.22,0.92
37.4370,0.06,0.10,-0.98,13.61,-1.53,0.55
37.4520,0.05,0.09,-0.97,17.88,-1.10,1.16
37.4680,0.05,0.06,-0.99,21.18,0.31,2.01
37.4700,0.04,0.08,-1.00,22.95,-7.02,0.73
37.5010,0.05,0.08,-1.01,19.41,-5.55,1.53
37.5030,0.05,0.10,-0.99,17.03,-1.77,0.98
37.5180,0.06,0.10,-0.99,14.83,-3.05,0.67
37.5480,0.06,0.10,-0.99,12.33,-3.97,0.24
37.5640,0.06,0.11,-1.00,10.99,-3.23,0.92
37.5720,0.07,0.10,-0.99,9.03,-2.50,0.85
37.5880,0.06,0.10,-0.97,9.16,-2.99,0.24
37.6030,0.06,0.10,-0.97,10.13,-3.42,0.00
37.6240,0.07,0.11,-0.98,11.35,-5.19,-1.34
37.6270,0.08,0.12,-0.99,10.01,-5.31,-0.43
37.6530,0.09,0.12,-0.99,8.24,-3.48,1.46
37.6710,0.08,0.11,-0.99,7.75,-1.83,1.71
37.6860,0.08,0.11,-0.98,7.51,-0.92,1.10
37.7010,0.08,0.11,-0.97,8.54,-1.59,0.79
37.7110,0.09,0.12,-1.00,5.07,-1.95,-0.24
37.7280,0.08,0.12,-0.98,3.66,1.83,1.28
37.7440,0.09,0.12,-0.98,3.60,1.46,1.34
37.7600,0.08,0.12,-0.98,3.54,1.53,1.16
37.7770,0.08,0.12,-0.98,3.48,3.11,1.65
37.7940,0.09,0.12,-0.98,2.99,3.30,1.83
37.8100,0.08,0.12,-0.98,3.05,3.17,1.83
37.8260,0.09,0.12,-0.98,2.93,3.42,1.89
37.8410,0.08,0.12,-0.98,2.99,3.60,2.01
37.8530,0.08,0.12,-0.98,3.05,3.11,1.89
37.8600,0.08,0.12,-0.98,3.17,2.99,1.95
37.8830,0.08,0.12,-0.98,2.93,3.17,1.95
37.9010,0.08,0.12,-0.98,3.17,3.17,1.89
37.9170,0.08,0.12,-0.98,3.17,3.05,1.89
37.9330,0.08,0.12,-0.98,3.17,3.36,1.83
37.9350,0.08,0.12,-0.98,3.23,3.05,1.95
37.9660,0.08,0.12,-0.98,3.11,3.11,1.83
37.9670,0.08,0.12,-0.98,2.93,2.93,1.77
37.9970,0.08,0.12,-0.98,2.87,3.30,1.83
38.0140,0.09,0.12,-0.98,2.99,3.30,1.83
38.0180,0.09,0.12,-0.98,3.05,3.36,1.71
38.0340,0.08,0.12,-0.98,3.23,3.11,1.04
38.0550,0.08,0.12,-0.98,3.11,3.11,0.85
38.0720,0.09,0.12,-0.98,3.17,3.42,0.85
38.0890,0.09,0.12,-0.98,3.05,3.66,0.43
38.1050,0.08,0.12,-0.98,3.23,3.23,-0.18
38.1200,0.08,0.12,-0.98,3.23,3.23,0.49
38.1360,0.08,0.12,-0.98,3.36,3.42,0.73
38.1520,0.08,0.12,-0.98,3.11,3.11,0.79
38.1680,0.08,0.12,-0.98,3.23,3.23,1.04
38.1840,0.08,0.12,-0.98,3.05,3.23,1.46
38.1900,0.08,0.12,-0.98,3.17,3.17,1.46
38.2170,0.09,0.12,-0.98,2.87,3.05,1.59
38.2330,0.08,0.12,-0.98,2.87,3.05,1.53
38.2490,0.09,0.11,-0.98,3.30,3.17,1.34
38.2640,0.09,0.11,-0.98,3.23,3.11,0.67
38.2790,0.09,0.12,-0.98,3.05,3.42,0.06
38.2890,0.08,0.12,-0.98,3.30,3.60,-0.43
38.3050,0.08,0.12,-0.98,2.93,3.66,0.92
38.3230,0.09,0.13,-0.98,3.11,3.36,1.10
38.3390,0.09,0.11,-0.98,3.36,3.30,0.49
38.3570,0.08,0.12,-0.98,2.99,3.54,0.12
38.3720,0.08,0.12,-0.98,3.11,3.17,0.18
38.3880,0.08,0.12,-0.98,3.30,3.17,1.10
38.3940,0.08,0.12,-0.98,3.11,2.93,1.65
38.4090,0.08,0.12,-0.98,3.23,3.17,1.34
38.4330,0.09,0.12,-0.98,3.11,2.81,1.34
38.4490,0.08,0.12,-0.98,3.11,3.30,0.67
38.4640,0.08,0.12,-0.98,3.11,3.11,1.16
38.4800,0.08,0.12,-0.98,3.05,3.72,1.16
38.4970,0.08,0.12,-0.98,3.11,3.05,1.22
38.5130,0.08,0.12,-0.98,3.05,2.99,0.79
38.5280,0.08,0.11,-0.98,3.17,3.23,0.67
38.5440,0.08,0.12,-0.98,3.23,3.17,0.18
38.5530,0.08,0.12,-0.98,3.17,3.11,-0.12
38.5680,0.08,0.11,-0.98,2.99,3.11,0.49
38.5900,0.09,0.12,-0.98,3.30,3.60,-0.12
38.6010,0.08,0.11,-0.98,3.30,3.42,-0.24
38.6190,0.09,0.12,-0.98,2.99,3.42,0.79
38.6350,0.09,0.12,-0.98,3.11,3.48,0.73
38.6510,0.09,0.12,-0.98,3.17,3.36,0.67
38.6530,0.09,0.11,-0.98,3.23,2.93,0.61
38.6810,0.08,0.12,-0.98,3.30,3.30,0.43
38.6850,0.08,0.12,-0.98,3.05,3.17,1.10
38.7010,0.08,0.12,-0.98,3.05,2.81,0.24
38.7180,0.08,0.12,-0.98,3.36,3.66,-0.18
38.7340,0.09,0.12,-0.98,3.30,3.60,0.12
38.7540,0.08,0.12,-0.98,3.17,3.66,0.37
38.7680,0.08,0.11,-0.98,3.11,3.23,0.61
38.7860,0.08,0.11,-0.98,3.11,3.48,0.18
38.8010,0.08,0.12,-0.98,3.23,3.54,-0.24
38.8170,0.08,0.12,-0.98,3.30,3.54,-0.43
38.8320,0.09,0.13,-0.98,3.23,4.03,-0.55
38.8490,0.09,0.12,-0.98,3.11,3.23,0.00
38.8540,0.09,0.12,-0.98,3.42,3.30,0.12
38.8660,0.09,0.11,-0.98,3.30,3.42,0.06
38.8950,0.09,0.12,-0.98,3.17,3.72,-1.34
38.9060,0.08,0.12,-0.98,3.30,3.60,-1.22
38.9230,0.09,0.12,-0.98,3.42,3.78,-0.12
38.9390,0.08,0.13,-0.98,3.11,3.42,0.43
38.9540,0.08,0.13,-0.98,3.17,3.36,0.18
38.9690,0.09,0.12,-0.98,3.11,3.60,0.43
38.9860,0.09,0.11,-0.98,3.11,3.42,0.00
39.0000,0.08,0.11,-0.98,3.23,3.30,-0.24
39.0150,0.08,0.12,-0.98,3.23,3.36,-0.43
39.0300,0.09,0.12,-0.98,3.42,3.42,-0.55
39.0400,0.09,0.12,-0.98,3.66,3.48,-1.16
39.0560,0.08,0.11,-0.98,3.42,3.05,-0.43
39.0730,0.08,0.11,-0.98,3.60,3.42,-1.16
39.0890,0.08,0.12,-0.98,3.36,3.97,-0.98
39.1060,0.09,0.12,-0.98,3.30,3.72,-0.98
39.1220,0.09,0.12,-0.98,3.48,3.54,-1.04
39.1230,0.09,0.12,-0.98,3.36,3.60,-0.92
39.1540,0.08,0.12,-0.98,3.30,3.91,-0.79
39.1710,0.08,0.11,-0.99,3.54,3.85,-0.61
39.1850,0.08,0.12,-0.98,3.17,3.36,-0.43
39.1900,0.08,0.12,-0.98,3.42,3.42,-0.79
39.2050,0.09,0.12,-0.98,3.42,3.85,-0.67
39.2210,0.09,0.12,-0.98,3.23,3.48,-0.49
39.2430,0.08,0.12,-0.98,3.36,3.60,-0.37
39.2600,0.08,0.11,-0.98,3.36,3.30,-0.18
39.2770,0.08,0.12,-0.98,3.36,3.42,-0.49
39.2920,0.09,0.12,-0.98,3.48,3.23,-0.49
39.3080,0.09,0.12,-0.98,3.36,3.66,-0.55
39.3110,0.08,0.12,-0.98,3.36,3.42,-0.73
39.3400,0.08,0.11,-0.98,3.17,3.72,-0.55
39.3540,0.08,0.12,-0.98,3.36,3.48,-0.49
39.3710,0.08,0.12,-0.98,3.30,3.60,-0.85
39.3860,0.08,0.12,-0.98,3.42,3.48,-0.67
39.4010,0.08,0.12,-0.98,3.42,3.66,-0.67
39.4100,0.08,0.12,-0.98,3.36,3.42,-0.43
39.4260,0.08,0.12,-0.98,3.30,3.42,-0.49
39.4430,0.09,0.12,-0.98,3.60,3.42,-0.31
39.4600,0.08,0.12,-0.98,3.17,3.54,0.18
39.4750,0.08,0.12,-0.98,3.17,3.36,0.00
39.4920,0.09,0.12,-0.98,3.36,3.48,-0.24
39.5070,0.08,0.12,-0.98,3.48,3.23,-0.37
39.5220,0.08,0.12,-0.98,3.23,3.36,0.24
39.5370,0.08,0.12,-0.98,3.17,3.85,-0.24
39.5470,0.08,0.12,-0.98,3.23,3.54,-0.06
39.5640,0.08,0.12,-0.98,3.36,3.36,-0.06
39.5820,0.08,0.12,-0.98,3.30,3.48,-0.24
39.5970,0.09,0.12,-0.98,3.42,3.60,-0.85
39.6140,0.08,0.12,-0.98,3.48,3.60,-0.49
39.6290,0.09,0.12,-0.98,3.42,3.42,-0.18
39.6440,0.08,0.11,-0.98,3.42,3.23,-0.79
39.6550,0.08,0.12,-0.98,3.54,3.48,-1.28
39.6630,0.09,0.12,-0.98,3.48,3.54,-0.79
39.6910,0.08,0.12,-0.98,3.23,3.48,-0.79
39.7010,0.09,0.12,-0.98,3.54,3.48,-0.61
39.7180,0.08,0.12,-0.98,3.23,3.36,-0.67
39.7360,0.08,0.12,-0.98,3.36,3.42,-0.55
39.7520,0.08,0.12,-0.98,3.36,3.60,-0.67
39.7680,0.08,0.12,-0.98,3.48,3.60,-0.85
39.7680,0.08,0.11,-0.98,3.30,3.54,-0.92
39.7990,0.08,0.11,-0.98,3.23,3.78,-1.34
39.8160,0.08,0.11,-0.98,3.42,3.78,-1.77
39.8320,0.08,0.12,-0.98,3.42,3.91,-1.65
39.8470,0.09,0.12,-0.98,3.60,3.48,-1.77
39.8620,0.09,0.12,-0.98,3.36,3.72,-1.28
39.8770,0.08,0.11,-0.98,3.60,3.91,-1.95
39.8850,0.08,0.12,-0.98,3.30,3.97,-1.22
39.9000,0.09,0.11,-0.98,3.54,3.78,-1.22
39.9230,0.08,0.12,-0.98,3.42,4.03,-1.83
39.9380,0.09,0.11,-0.98,3.48,3.97,-2.08
39.9540,0.08,0.12,-0.98,3.60,3.85,-2.38
39.9690,0.08,0.12,-0.98,3.23,4.21,-1.71
39.9860,0.09,0.13,-0.98,3.30,3.85,-1.28
40.0020,0.09,0.13,-0.98,3.17,3.66,-0.24
40.0170,0.09,0.13,-0.98,3.48,3.42,0.00
40.0230,0.09,0.12,-0.98,3.30,3.36,0.18
40.0390,0.08,0.12,-0.98,3.17,3.36,-0.12
40.0600,0.08,0.13,-1.00,3.30,3.42,-0.37
40.0770,0.08,0.11,-0.98,3.17,3.72,0.06
40.0930,0.08,0.12,-0.99,3.11,3.42,-0.06
40.1100,0.09,0.12,-0.98,3.36,3.36,0.43
40.1260,0.08,0.12,-0.98,3.23,3.36,-0.18
40.1440,0.08,0.11,-0.98,3.48,3.42,-0.61
40.1580,0.08,0.12,-0.98,3.42,3.23,-1.28
40.1740,0.09,0.12,-0.98,3.48,3.72,-0.79
40.1890,0.08,0.12,-0.98,3.23,3.72,-0.43
40.2040,0.08,0.11,-0.98,3.54,3.66,-0.85
40.2190,0.08,0.12,-0.98,3.36,3.78,-1.28
40.2360,0.08,0.13,-0.98,3.36,3.85,-1.28
40.2520,0.08,0.12,-0.98,3.23,3.36,-0.79
40.2660,0.08,0.12,-0.98,3.48,3.23,-0.43
40.2820,0.08,0.11,-0.98,3.36,4.03,-0.18
40.2920,0.08,0.12,-0.98,3.42,3.91,-0.85
40.3090,0.08,0.12,-0.98,3.48,3.23,-0.79
40.3260,0.08,0.12,-0.98,3.48,3.72,-1.28
40.3430,0.09,0.12,-0.98,3.42,3.78,-0.98
40.3590,0.08,0.12,-0.98,3.17,3.72,-1.04
40.3740,0.09,0.13,-0.98,3.72,3.42,-0.85
40.3890,0.09,0.12,-0.98,3.30,3.85,-0.92
40.4060,0.08,0.12,-0.98,3.42,3.91,-0.67
40.4220,0.08,0.12,-0.98,3.23,3.36,-0.85
40.4380,0.09,0.12,-0.98,3.48,3.36,-0.49
40.4530,0.08,0.11,-0.98,3.48,3.60,-0.49
40.4690,0.08,0.12,-0.98,3.42,3.54,-1.04
40.4840,0.08,0.12,-0.98,3.23,3.78,-1.16
40.4990,0.08,0.12,-0.98,3.60,3.54,-0.98
40.5100,0.09,0.12,-0.98,3.36,3.66,-0.98
40.5260,0.09,0.12,-0.98,3.36,3.42,-0.98
40.5430,0.08,0.12,-0.98,3.36,3.48,-0.73
40.5600,0.08,0.12,-0.98,3.17,3.78,-0.73
40.5760,0.08,0.12,-0.98,3.30,3.60,-0.49
40.5910,0.08,0.12,-0.98,3.23,3.05,-0.37
40.6060,0.09,0.13,-0.98,3.36,3.36,0.06
40.6210,0.09,0.12,-0.98,3.23,3.30,0.37
40.6380,0.09,0.11,-0.98,3.11,3.48,0.12
40.6540,0.08,0.11,-0.98,3.23,3.66,-0.31
40.6690,0.08,0.12,-0.98,3.30,3.42,-1.04
40.6850,0.08,0.12,-0.98,3.11,3.72,-1.16
40.7000,0.09,0.12,-0.98,3.42,3.30,-0.67
40.7100,0.09,0.12,-0.98,3.17,3.30,-0.24
40.7260,0.09,0.12,-0.98,3.17,3.60,-0.06
40.7420,0.08,0.12,-0.98,3.36,3.42,-0.37
40.7620,0.08,0.12,-0.98,3.30,3.36,0.00
40.7780,0.08,0.11,-0.98,3.17,3.60,0.00
40.7940,0.09,0.13,-0.98,3.11,3.78,-0.24
40.8090,0.09,0.13,-0.98,3.17,3.54,0.37
40.8240,0.08,0.12,-0.98,3.11,3.66,0.73
40.8320,0.09,0.13,-0.98,2.93,3.66,0.61
40.8480,0.08,0.12,-0.98,3.11,3.78,0.49
40.8650,0.08,0.12,-0.98,3.42,3.60,0.67
40.8820,0.09,0.12,-0.98,3.05,3.85,0.55
40.8980,0.09,0.12,-0.98,3.23,3.30,0.55
40.9150,0.08,0.12,-0.98,3.23,3.30,0.43
40.9310,0.08,0.12,-0.98,3.11,3.23,0.55
40.9470,0.09,0.12,-0.98,3.23,3.42,0.37
40.9630,0.09,0.12,-0.98,3.23,3.78,0.24
40.9800,0.09,0.12,-0.98,3.36,3.54,0.06
40.9970,0.08,0.12,-0.98,3.23,3.72,-0.06
41.0120,0.09,0.12,-0.98,3.42,3.60,0.06
41.0280,0.09,0.12,-0.98,3.11,3.60,0.24
41.0430,0.09,0.12,-0.98,3.17,3.48,0.73
41.0590,0.08,0.12,-0.98,3.11,3.48,0.73
41.0730,0.08,0.12,-0.98,3.17,3.48,0.49
41.0890,0.08,0.12,-0.98,3.17,3.60,0.85
41.1040,0.09,0.12,-0.98,3.23,3.66,0.79
41.1150,0.08,0.12,-0.98,3.17,3.30,0.67
41.1310,0.08,0.12,-0.98,3.30,3.48,0.61
41.1480,0.09,0.11,-0.98,3.48,3.17,0.67
41.1640,0.08,0.12,-0.98,3.17,3.66,0.24
41.1800,0.08,0.12,-0.98,3.48,3.11,0.31
41.1960,0.09,0.12,-0.98,3.23,3.48,0.00
41.2110,0.09,0.12,-0.98,3.17,3.54,0.37
41.2270,0.09,0.12,-0.98,3.17,3.60,0.31
41.2420,0.08,0.12,-0.98,3.23,3.42,0.31
41.2570,0.09,0.11,-0.98,3.17,3.36,0.31
41.2650,0.08,0.11,-0.98,3.30,3.05,-0.24
41.2830,0.08,0.12,-0.98,3.30,3.60,-0.24
41.2980,0.08,0.12,-0.98,3.23,3.54,-0.06
41.3150,0.08,0.12,-0.98,3.17,3.85,-0.06
41.3310,0.08,0.13,-0.98,2.99,3.72,-0.31
41.3460,0.08,0.12,-0.98,3.23,3.11,0.43
41.3570,0.08,0.12,-0.98,3.42,3.42,0.98
41.3720,0.08,0.11,-0.98,3.17,3.60,0.85
41.3890,0.08,0.11,-0.98,3.11,3.78,0.49
41.4070,0.08,0.11,-0.98,3.23,3.85,-0.55
41.4220,0.08,0.13,-0.98,3.30,3.85,-1.22
41.4390,0.09,0.13,-0.98,3.36,3.91,-0.55
41.4400,0.09,0.13,-0.98,3.17,3.66,-0.06
41.4700,0.08,0.12,-0.98,3.11,3.36,0.00
41.4860,0.08,0.12,-0.98,3.23,3.66,0.37
41.5010,0.08,0.12,-0.98,3.30,3.23,0.18
41.5160,0.08,0.11,-0.98,3.36,3.36,0.00
41.5310,0.08,0.12,-0.98,3.30,3.36,0.12
41.5390,0.08,0.12,-0.98,3.30,3.36,0.06
41.5570,0.08,0.12,-0.98,3.30,3.30,0.37
41.5760,0.08,0.12,-0.98,3.23,3.30,0.55
41.5910,0.09,0.12,-0.98,3.23,3.54,0.79
41.5960,0.08,0.11,-0.98,3.54,3.60,0.55
41.6110,0.09,0.12,-0.98,3.23,3.23,0.18
41.6310,0.08,0.12,-0.98,3.36,3.78,-0.24
41.6480,0.08,0.12,-0.98,3.30,3.42,0.49
41.6660,0.09,0.12,-0.98,3.36,3.60,0.49
41.6810,0.08,0.12,-0.98,3.36,3.66,0.61
41.6980,0.08,0.12,-0.98,3.11,3.60,0.18
41.7140,0.08,0.12,-0.98,3.17,3.30,0.67
41.7150,0.08,0.12,-0.98,3.23,3.30,1.28
41.7330,0.08,0.11,-0.98,3.11,3.54,0.98
41.7600,0.08,0.12,-0.98,2.99,3.48,0.92
41.7650,0.09,0.12,-0.98,3.17,2.99,0.49
41.7800,0.09,0.12,-0.98,3.23,3.48,0.55
41.8060,0.08,0.12,-0.98,3.05,3.66,0.61
41.8220,0.08,0.11,-0.98,3.30,3.36,1.40
41.8360,0.09,0.12,-0.98,3.30,2.87,1.77
41.8390,0.08,0.12,-0.98,3.11,3.54,1.40
41.8680,0.08,0.12,-0.98,3.05,3.36,1.28
41.8840,0.08,0.12,-0.98,3.17,3.42,1.28
41.8900,0.08,0.12,-0.98,3.23,3.23,1.28
41.9130,0.09,0.12,-0.98,3.05,3.54,0.85
41.9290,0.08,0.12,-0.98,3.17,3.60,0.12
41.9390,0.08,0.12,-0.98,3.05,3.48,0.18
41.9580,0.08,0.12,-0.98,3.17,3.05,0.31
41.9730,0.08,0.12,-0.98,2.99,3.30,0.85
41.9880,0.08,0.12,-0.98,3.17,3.54,0.49
41.9900,0.08,0.12,-0.98,3.23,3.85,0.24
42.0210,0.09,0.12,-0.98,3.23,3.42,0.79
42.0230,0.09,0.12,-0.98,3.23,3.42,0.31
42.0540,0.09,0.12,-0.98,3.48,3.11,0.00
42.0700,0.09,0.11,-0.98,3.36,3.72,-0.43
42.0860,0.08,0.12,-0.98,3.11,3.54,-0.85
42.1020,0.08,0.12,-0.98,3.42,3.72,-0.85
42.1190,0.09,0.12,-0.98,3.30,3.42,-0.61
42.1340,0.09,0.12,-0.98,3.42,3.54,-0.98
42.1500,0.09,0.12,-0.98,3.48,3.54,-0.98
42.1640,0.09,0.12,-0.98,3.42,3.54,-0.61
42.1720,0.09,0.12,-0.98,3.36,3.66,-0.73
42.1940,0.08,0.12,-0.98,3.54,3.97,-1.22
42.2060,0.08,0.13,-0.98,3.36,3.66,-0.49
42.2230,0.08,0.12,-0.98,3.23,4.21,-1.28
42.2390,0.08,0.12,-0.98,3.36,3.30,-0.67
42.2550,0.08,0.12,-0.98,3.48,3.54,-0.43
42.2720,0.08,0.13,-0.98,3.30,3.30,0.79
42.2870,0.08,0.12,-0.98,3.30,3.30,0.43
42.3030,0.08,0.12,-0.98,3.36,3.42,0.24
42.3190,0.08,0.12,-0.98,3.11,3.48,0.49
42.3360,0.08,0.12,-0.98,3.42,3.54,0.24
42.3510,0.08,0.12,-0.98,3.30,3.42,0.00
42.3660,0.08,0.12,-0.98,3.42,3.42,0.55
42.3720,0.08,0.11,-0.98,3.36,3.60,0.06
42.3880,0.09,0.11,-0.98,3.30,3.66,0.00
42.4110,0.08,0.11,-0.98,3.30,3.48,-0.18
42.4280,0.08,0.12,-0.98,3.48,3.66,-0.18
42.4450,0.08,0.11,-0.98,3.23,3.60,0.49
42.4600,0.08,0.11,-0.98,3.23,3.66,0.00
42.4630,0.08,0.12,-0.98,3.36,3.23,0.67
42.4930,0.08,0.12,-0.98,3.30,3.17,0.61
42.5090,0.08,0.11,-0.98,3.17,3.36,0.61
42.5240,0.08,0.11,-0.98,3.23,3.48,0.49
42.5280,0.08,0.11,-0.98,3.23,3.36,0.37
42.5440,0.08,0.12,-0.98,3.36,3.66,0.18
42.5660,0.08,0.12,-0.98,3.42,3.36,0.12
42.5840,0.09,0.13,-0.98,3.36,3.30,0.12
42.6000,0.09,0.13,-0.98,3.23,3.30,0.37
42.6160,0.08,0.12,-0.98,3.17,3.30,0.67
42.6170,0.09,0.11,-0.98,3.36,3.30,0.73
42.6470,0.08,0.11,-0.98,3.30,3.48,-0.31
42.6620,0.09,0.12,-0.98,3.23,3.66,-0.73
42.6770,0.08,0.12,-0.98,3.36,3.54,-0.37
42.6830,0.09,0.13,-0.98,3.42,3.54,0.31
42.7000,0.09,0.13,-0.98,3.36,3.54,1.16
42.7160,0.09,0.12,-0.98,3.11,3.23,1.10
42.7340,0.08,0.12,-0.98,3.36,3.17,0.92
42.7500,0.08,0.11,-0.98,3.23,3.54,1.16
42.7700,0.08,0.12,-0.98,3.11,3.17,0.73
42.7860,0.09,0.12,-0.98,3.17,3.05,1.04
42.8020,0.08,0.12,-0.98,3.36,3.36,1.28
42.8180,0.08,0.12,-0.98,2.93,3.05,1.22
42.8340,0.08,0.12,-0.98,3.05,3.17,1.34
42.8490,0.08,0.12,-0.98,3.23,3.05,1.28
42.8630,0.08,0.11,-0.98,3.23,2.99,1.28
42.8740,0.09,0.12,-0.98,3.36,3.23,0.79
42.8900,0.08,0.12,-0.98,3.11,3.72,0.73
42.9080,0.09,0.12,-0.98,3.11,3.48,0.79
42.9240,0.09,0.12,-0.98,3.30,3.30,0.79
42.9400,0.09,0.12,-0.98,3.11,3.23,0.92
42.9560,0.08,0.11,-0.98,3.11,3.54,1.28
42.9710,0.08,0.12,-0.98,3.23,2.93,0.73
42.9870,0.08,0.11,-0.98,3.23,3.54,1.04
43.0020,0.08,0.11,-0.98,3.30,3.30,0.79
43.0170,0.09,0.12,-0.98,3.17,3.42,0.73
43.0330,0.08,0.12,-0.98,3.23,3.48,0.79
43.0490,0.08,0.12,-0.98,3.23,3.30,0.85
43.0640,0.08,0.11,-0.98,3.17,3.54,0.79
43.0740,0.08,0.11,-0.98,3.17,3.42,0.24
43.0910,0.08,0.12,-0.98,3.30,3.42,0.31
43.1070,0.08,0.11,-0.98,3.23,3.23,-0.24
43.1230,0.08,0.12,-0.98,3.42,3.42,-1.16
43.1390,0.09,0.12,-0.98,3.54,3.66,-0.37
43.1540,0.09,0.12,-0.98,3.42,3.91,-0.06
43.1690,0.08,0.12,-0.98,3.30,3.36,0.06
43.1850,0.08,0.12,-0.98,3.11,3.23,0.73
43.2020,0.08,0.12,-0.98,3.30,3.30,0.85
43.2180,0.08,0.12,-0.98,3.23,3.11,0.73
43.2340,0.08,0.12,-0.98,3.23,3.30,1.10
43.2410,0.09,0.12,-0.98,3.36,3.11,0.79
43.2590,0.09,0.12,-0.98,3.23,3.17,0.73
43.2790,0.09,0.12,-0.98,3.42,3.11,0.85
43.2960,0.08,0.12,-0.98,3.11,3.23,0.49
43.3110,0.08,0.12,-0.98,3.11,3.42,0.49
43.3270,0.08,0.12,-0.98,3.30,3.17,0.43
43.3430,0.08,0.12,-0.98,3.05,3.60,0.73
43.3590,0.08,0.12,-0.98,3.30,3.54,0.18
43.3610,0.08,0.12,-0.98,3.30,3.85,-0.24
43.3900,0.08,0.12,-0.98,3.23,3.60,0.18
43.4010,0.08,0.12,-0.98,3.36,3.54,0.18
43.4180,0.08,0.11,-0.98,3.36,3.60,-0.12
43.4330,0.08,0.11,-0.98,3.36,3.36,-0.37
43.4520,0.08,0.13,-0.98,3.36,3.60,-0.24
43.4590,0.09,0.12,-0.98,3.30,3.36,0.31
43.4840,0.09,0.12,-0.98,3.30,3.17,0.00
43.5000,0.08,0.12,-0.98,3.36,3.23,0.12
43.5050,0.08,0.11,-0.98,3.30,3.42,0.18
43.5210,0.09,0.12,-0.98,3.23,3.66,-0.12
43.5370,0.08,0.13,-0.98,3.23,3.66,0.31
43.5610,0.08,0.12,-0.98,3.23,3.78,0.43
43.5770,0.08,0.12,-0.98,3.42,3.30,0.67
43.5930,0.08,0.12,-0.98,3.23,3.36,0.98
43.6100,0.09,0.12,-0.98,3.23,3.54,0.79
43.6250,0.08,0.12,-0.98,3.17,3.23,0.43
43.6400,0.08,0.11,-0.98,3.05,3.23,0.31
43.6440,0.08,0.12,-0.98,3.30,3.30,0.18
43.6700,0.09,0.12,-0.98,3.23,3.36,0.61
43.6840,0.09,0.12,-0.98,3.42,3.30,-0.12
43.7000,0.08,0.11,-0.98,3.48,3.60,-0.37
43.7100,0.08,0.13,-0.98,3.30,3.48,-0.43
43.7270,0.08,0.13,-0.98,3.05,3.60,0.24
43.7430,0.09,0.12,-0.98,3.17,3.05,0.98
43.7600,0.08,0.12,-0.98,3.05,3.54,1.53
43.7750,0.08,0.12,-0.98,3.11,3.42,1.65
43.7910,0.09,0.11,-0.98,3.23,3.30,0.61
43.8060,0.08,0.12,-0.98,3.23,3.30,-0.12
43.8210,0.08,0.12,-0.98,3.30,3.36,0.12
43.8270,0.09,0.12,-0.98,3.17,3.23,0.18
43.8430,0.08,0.12,-0.98,3.23,3.72,0.06
43.8660,0.08,0.13,-0.98,3.17,3.30,0.06
43.8820,0.09,0.12,-0.98,3.23,3.42,0.67
43.8970,0.08,0.12,-0.98,3.23,3.17,0.67
43.9000,0.08,0.12,-0.98,3.17,3.42,0.55
43.9160,0.08,0.12,-0.98,3.11,3.91,-0.18
43.9410,0.09,0.12,-0.98,3.17,3.60,0.06
43.9570,0.08,0.12,-0.98,3.23,3.48,0.06
43.9740,0.08,0.12,-0.98,3.36,3.48,0.12
43.9890,0.08,0.12,-0.98,3.30,3.48,0.06
44.0050,0.08,0.12,-0.98,3.17,3.54,0.12
44.0200,0.09,0.13,-0.98,3.36,3.42,0.49
44.0360,0.08,0.12,-0.98,3.23,3.42,0.67
44.0520,0.09,0.11,-0.98,3.05,3.60,0.73
44.0680,0.08,0.11,-0.98,3.36,3.54,-0.18
44.0840,0.09,0.12,-0.98,3.23,3.36,-0.24
44.1000,0.08,0.13,-0.98,3.23,3.60,-0.12
44.1160,0.08,0.12,-0.98,3.42,3.54,0.00
44.1310,0.09,0.11,-0.98,3.30,3.78,-0.31
44.1410,0.08,0.11,-0.98,3.23,3.78,-0.67
44.1600,0.08,0.12,-0.98,3.11,3.78,-0.92
44.1740,0.08,0.12,-0.98,3.23,3.54,-0.24
44.1910,0.08,0.13,-0.98,3.17,3.78,-0.18
44.2060,0.09,0.13,-0.98,3.17,3.30,0.61
44.2220,0.08,0.12,-0.98,3.17,3.54,0.61
44.2380,0.08,0.11,-0.98,3.36,3.17,0.43
44.2540,0.08,0.12,-0.98,3.05,3.30,0.55
44.2700,0.08,0.11,-0.98,3.11,3.30,0.61
44.2860,0.08,0.10,-0.98,3.11,3.66,-0.12
44.3020,0.08,0.12,-0.98,3.42,3.60,-1.16
44.3180,0.08,0.13,-0.98,3.23,3.85,-0.43
44.3340,0.09,0.13,-0.98,3.11,3.48,0.06
44.3500,0.09,0.12,-0.98,3.23,3.42,0.18
44.3660,0.09,0.12,-0.98,3.30,3.60,0.12
44.3810,0.08,0.12,-0.98,3.11,3.91,0.00
44.3960,0.08,0.12,-0.98,3.30,3.54,0.12
44.4070,0.08,0.12,-0.98,3.23,3.60,0.24
44.4240,0.08,0.12,-0.98,3.17,3.36,0.85
44.4400,0.08,0.12,-0.98,2.93,3.42,0.92
44.4560,0.09,0.12,-0.98,3.23,3.36,0.73
44.4720,0.08,0.11,-0.98,3.36,3.23,0.31
44.4880,0.08,0.12,-0.98,3.48,3.30,-0.24
44.4920,0.08,0.11,-0.98,3.11,3.66,-0.73
44.5070,0.08,0.12,-0.98,3.30,3.60,-0.55
44.5230,0.08,0.12,-0.98,3.30,3.54,-0.73
44.5510,0.09,0.13,-0.98,3.36,3.23,-0.43
44.5620,0.08,0.12,-0.98,3.42,3.78,-0.55
44.5780,0.09,0.13,-0.98,3.42,3.36,-0.06
44.5950,0.08,0.12,-0.98,3.42,3.60,-0.43
44.6120,0.08,0.11,-0.98,3.48,3.54,-0.61
44.6280,0.08,0.12,-0.98,3.36,3.42,-0.61
44.6440,0.08,0.12,-0.98,3.54,3.11,-0.12
44.6600,0.08,0.12,-0.98,3.17,3.36,0.37
44.6770,0.08,0.12,-0.98,3.17,3.23,0.43
44.6920,0.08,0.12,-0.98,3.23,3.42,0.49
44.7070,0.08,0.12,-0.98,3.23,3.30,0.61
44.7220,0.08,0.12,-0.98,3.11,3.60,0.79
44.7380,0.08,0.11,-0.98,3.11,3.66,0.43
44.7540,0.08,0.12,-0.98,3.17,3.36,-0.31
44.7690,0.08,0.12,-0.98,3.23,3.54,-0.37
44.7840,0.08,0.12,-0.98,3.23,3.48,-0.49
44.7940,0.09,0.12,-0.98,3.30,3.54,-0.43
44.8120,0.08,0.12,-0.98,3.36,3.66,-0.12
44.8280,0.08,0.12,-0.98,3.17,3.30,-0.12
44.8450,0.08,0.13,-0.98,3.30,3.78,-0.12
44.8610,0.08,0.13,-0.98,3.36,3.66,0.24
44.8770,0.08,0.12,-0.98,3.05,3.78,0.61
44.8920,0.08,0.11,-0.98,3.11,3.36,0.37
44.9070,0.08,0.12,-0.98,3.11,3.48,0.49
44.9130,0.08,0.12,-0.98,3.30,3.30,0.18
44.9370,0.09,0.13,-0.98,3.17,3.54,0.12
44.9520,0.08,0.13,-0.98,3.11,3.54,0.43
44.9680,0.09,0.12,-0.98,3.05,3.30,1.22
44.9840,0.09,0.11,-0.98,3.05,3.42,0.98
44.9960,0.09,0.10,-0.98,3.17,3.42,-0.37
45.0110,0.08,0.11,-0.98,3.23,3.72,-1.65
45.0270,0.08,0.12,-0.98,3.42,3.78,-1.77
45.0460,0.08,0.13,-0.98,3.23,3.60,-1.16
45.0610,0.08,0.14,-0.98,3.30,3.36,-0.24
45.0670,0.09,0.12,-0.98,3.17,3.60,0.73
45.0910,0.08,0.12,-0.98,3.11,3.36,-0.31
45.1010,0.08,0.13,-0.98,3.36,3.42,0.24
45.1170,0.08,0.13,-0.98,3.23,3.54,0.98
45.1370,0.08,0.12,-0.98,2.93,3.42,1.89
45.1520,0.08,0.12,-0.98,3.11,3.23,2.01
45.1680,0.08,0.12,-0.98,3.36,3.30,1.95
45.1840,0.08,0.12,-0.98,3.23,3.66,1.89
45.1990,0.08,0.12,-0.98,3.17,3.17,1.89
45.2130,0.08,0.12,-0.98,3.17,3.23,1.83
45.2250,0.08,0.12,-0.98,3.05,3.36,1.89
45.2410,0.08,0.12,-0.98,3.05,3.17,1.95
45.2590,0.08,0.12,-0.98,3.11,3.42,1.83
45.2740,0.08,0.12,-0.98,3.17,3.30,1.95
45.2910,0.08,0.12,-0.98,3.42,3.36,1.89
45.3070,0.08,0.12,-0.98,3.36,3.17,1.83
45.3220,0.08,0.12,-0.98,2.99,3.17,1.95
45.3250,0.08,0.12,-0.98,3.11,3.23,1.89
45.3410,0.08,0.12,-0.98,3.11,2.99,1.89
45.3650,0.09,0.12,-0.98,3.23,2.87,1.65
45.3830,0.08,0.12,-0.98,3.60,3.78,1.95
45.3990,0.08,0.12,-0.98,3.30,3.23,1.83
45.4160,0.08,0.12,-0.98,3.23,3.23,1.77
45.4320,0.08,0.12,-0.98,3.23,3.42,2.08
45.4480,0.08,0.12,-0.98,3.17,3.42,1.89
45.4610,0.08,0.12,-0.98,3.05,3.05,1.83
45.4650,0.08,0.12,-0.98,3.30,3.30,1.89
45.4950,0.08,0.12,-1.00,2.56,3.11,3.42
45.4980,0.08,0.13,-0.98,2.93,3.11,3.78
45.5260,0.08,0.12,-0.98,2.93,3.42,3.23
45.5310,0.08,0.12,-0.98,3.05,3.11,2.44
45.5470,0.08,0.12,-0.98,2.87,3.11,2.01
45.5670,0.08,0.12,-0.98,3.17,3.30,1.83
45.5830,0.08,0.12,-0.98,3.11,3.30,1.83
45.6000,0.08,0.12,-0.98,2.99,3.36,1.89
45.6170,0.08,0.12,-0.98,3.17,2.93,1.95
45.6180,0.08,0.12,-0.98,3.05,3.05,1.89
45.6490,0.08,0.12,-0.98,3.23,2.87,1.89
45.6660,0.08,0.12,-0.98,2.99,3.42,1.83
45.6820,0.08,0.12,-0.98,3.11,2.75,1.89
45.6840,0.08,0.12,-0.98,2.87,3.17,2.01
45.7010,0.09,0.11,-0.98,3.78,3.66,1.95
45.7170,0.08,0.12,-0.98,3.30,3.17,1.89
45.7330,0.08,0.12,-0.98,3.17,3.54,1.89
45.7510,0.08,0.12,-0.98,3.05,3.23,2.01
45.7670,0.08,0.12,-0.98,2.93,3.30,1.95
45.7850,0.08,0.12,-0.98,2.99,3.17,2.01
45.8020,0.08,0.12,-0.98,3.05,2.87,1.83
45.8170,0.08,0.12,-0.98,2.99,3.23,1.89
45.8340,0.08,0.12,-0.98,3.05,2.93,1.77
45.8350,0.08,0.12,-0.98,2.99,3.05,1.71
45.8620,0.08,0.12,-0.98,3.11,3.11,1.89
45.8810,0.08,0.12,-0.98,3.11,3.60,1.95
45.8960,0.08,0.12,-0.98,2.81,3.30,1.95
45.9120,0.08,0.12,-0.98,2.87,3.23,1.89
45.9280,0.08,0.12,-0.98,2.81,3.42,2.01
45.9350,0.08,0.12,-0.98,3.05,3.48,1.95
45.9510,0.08,0.12,-0.98,3.11,3.05,1.89
45.9750,0.08,0.12,-0.98,2.99,3.48,1.95
45.9850,0.08,0.12,-0.98,3.17,3.48,1.83
46.0000,0.08,0.12,-0.98,3.23,3.42,1.83
46.0220,0.08,0.12,-0.98,2.93,3.42,1.83
46.0370,0.08,0.12,-0.98,3.05,3.30,1.95
46.0520,0.08,0.12,-0.98,3.30,3.36,1.83
46.0690,0.08,0.12,-0.98,3.11,3.42,1.89
46.0840,0.08,0.12,-0.98,2.99,3.48,1.89
46.0990,0.08,0.12,-0.98,3.05,3.17,1.83
46.1090,0.08,0.12,-0.98,3.05,3.42,1.95
46.1240,0.08,0.12,-0.98,2.93,3.23,1.89
46.1450,0.08,0.12,-0.98,2.99,3.11,2.01
46.1600,0.08,0.12,-0.98,3.05,3.48,1.89
46.1750,0.08,0.12,-0.98,3.11,3.05,1.83
46.1900,0.08,0.12,-0.98,3.05,2.81,1.71
46.2060,0.08,0.12,-0.98,2.99,3.54,1.89
46.2140,0.08,0.12,-0.98,3.17,3.17,1.89
46.2300,0.08,0.12,-0.98,3.05,3.23,1.95
46.2520,0.08,0.12,-0.98,3.11,3.23,1.89
46.2670,0.08,0.12,-0.98,3.17,3.11,1.89
46.2830,0.08,0.12,-0.98,3.11,2.99,1.77
46.2870,0.08,0.12,-0.98,3.05,3.11,1.95
46.3030,0.08,0.12,-0.98,2.99,3.23,1.89
46.3270,0.08,0.12,-0.98,3.17,3.11,1.95
46.3420,0.08,0.12,-0.98,3.11,2.87,1.95
46.3580,0.08,0.12,-0.98,2.93,3.23,1.89
46.3740,0.08,0.12,-0.98,3.05,3.42,1.71
46.3890,0.08,0.12,-0.98,3.05,3.36,1.89
46.3930,0.08,0.12,-0.98,2.99,2.93,1.71
46.4090,0.08,0.12,-0.98,2.99,3.30,1.95
46.4310,0.08,0.12,-0.98,2.99,3.11,1.83
46.4480,0.08,0.12,-0.98,2.93,3.23,1.95
46.4650,0.08,0.12,-0.98,2.99,3.54,1.95
46.4650,0.08,0.12,-0.98,2.87,3.17,2.01
46.4950,0.08,0.12,-0.98,2.99,3.42,1.77
46.4980,0.08,0.12,-0.98,2.93,3.23,1.95
46.5150,0.08,0.12,-0.98,2.93,3.54,1.89
46.5310,0.08,0.12,-0.98,3.05,3.36,1.83
46.5530,0.08,0.12,-0.98,3.11,3.30,1.89
46.5700,0.08,0.12,-0.98,2.99,3.30,1.95
46.5870,0.08,0.12,-0.98,3.11,3.30,1.89
46.6040,0.08,0.12,-0.98,3.23,3.05,2.01
46.6200,0.08,0.12,-0.98,3.23,3.23,1.89
46.6360,0.08,0.12,-0.98,3.11,3.17,1.89
46.6520,0.08,0.12,-0.98,3.11,3.17,1.83
46.6680,0.08,0.12,-0.98,2.99,3.11,1.83
46.6840,0.08,0.12,-0.98,3.11,3.23,1.89
46.6870,0.08,0.12,-0.98,2.99,3.11,2.01
46.7150,0.08,0.12,-0.98,3.17,3.05,1.95
46.7200,0.08,0.12,-0.98,2.87,3.36,2.01
46.7450,0.08,0.12,-0.99,2.99,3.42,1.95
46.7540,0.08,0.12,-0.98,2.99,3.36,1.95
46.7700,0.08,0.12,-0.98,2.93,3.05,1.95
46.7870,0.08,0.12,-0.98,3.11,3.42,1.83
46.8040,0.08,0.12,-0.98,3.23,2.93,1.71
46.8220,0.08,0.12,-0.98,3.23,3.30,2.01
46.8370,0.08,0.12,-0.98,3.17,3.23,2.01
46.8540,0.08,0.12,-0.98,3.23,3.23,1.83
46.8630,0.08,0.12,-0.98,2.93,3.17,1.65
46.8710,0.08,0.12,-0.98,3.11,3.05,1.77
46.9020,0.08,0.12,-0.98,2.99,3.42,1.95
46.9040,0.08,0.12,-0.98,3.05,2.87,1.77
46.9340,0.08,0.12,-0.98,3.17,2.99,1.89
46.9490,0.08,0.12,-0.98,2.87,3.17,1.83
46.9660,0.08,0.12,-0.98,3.30,3.05,1.89
46.9700,0.08,0.12,-0.98,3.11,3.11,1.77
46.9850,0.08,0.12,-0.98,3.23,2.99,1.83
47.0120,0.08,0.12,-0.98,3.11,3.23,1.83
47.0280,0.08,0.12,-0.98,2.99,3.42,2.01
47.0440,0.08,0.12,-0.98,2.99,3.11,1.83
47.0600,0.08,0.12,-0.98,2.93,3.11,1.83
47.0760,0.08,0.12,-0.98,3.05,3.42,1.89
47.0920,0.08,0.12,-0.98,2.87,3.30,1.83
47.0960,0.08,0.12,-0.98,2.87,3.11,1.83
47.1220,0.08,0.12,-0.98,3.05,3.17,1.95
47.1360,0.08,0.12,-0.98,3.05,3.54,1.89
47.1510,0.08,0.12,-0.98,3.11,3.17,1.83
47.1670,0.08,0.12,-0.98,3.05,3.23,1.83
47.1780,0.08,0.12,-0.98,3.05,3.11,1.77
47.1940,0.08,0.12,-0.98,3.17,3.17,1.89
47.2140,0.09,0.12,-0.97,2.56,2.99,1.95
47.2290,0.08,0.12,-0.98,2.93,3.05,1.83
47.2440,0.08,0.12,-0.98,2.99,3.05,1.89
47.2600,0.08,0.12,-0.98,2.99,2.99,1.83
47.2750,0.08,0.12,-0.98,3.23,3.17,1.89
47.2840,0.08,0.12,-0.98,3.17,2.87,1.77
47.3000,0.08,0.12,-0.98,3.30,3.42,1.89
47.3160,0.08,0.12,-0.98,2.93,3.11,1.95
47.3360,0.08,0.12,-0.98,3.11,2.93,1.83
47.3520,0.08,0.12,-0.98,3.30,3.11,1.83
47.3680,0.08,0.12,-0.98,3.23,3.48,1.83
47.3840,0.08,0.12,-0.98,3.11,3.05,1.83
47.4000,0.08,0.12,-0.98,3.11,3.48,2.01
47.4050,0.08,0.12,-0.98,3.05,3.23,2.01
47.4210,0.08,0.12,-0.98,3.17,3.17,1.83
47.4360,0.08,0.12,-0.98,3.11,2.93,1.71
47.4610,0.08,0.12,-0.98,3.11,2.99,2.01
47.4780,0.08,0.12,-0.98,2.93,2.93,2.01
47.4940,0.08,0.12,-0.98,3.05,3.36,2.01
47.5100,0.08,0.12,-0.98,2.93,3.30,2.01
47.5260,0.08,0.12,-0.98,2.87,3.42,1.95
47.5420,0.08,0.12,-0.98,2.87,3.30,1.89
47.5570,0.08,0.12,-0.98,2.87,3.30,1.89
47.5720,0.08,0.12,-0.98,3.11,3.17,1.77
47.5770,0.08,0.12,-0.98,3.11,3.30,1.95
47.5930,0.08,0.12,-0.98,3.17,2.69,1.89
47.6180,0.08,0.12,-0.98,2.99,3.05,1.95
47.6360,0.08,0.12,-0.98,3.11,3.30,2.08
47.6510,0.08,0.12,-0.98,2.99,3.23,1.89
47.6680,0.08,0.12,-0.98,3.30,3.17,2.01
47.6830,0.08,0.12,-0.98,3.30,2.99,1.95
47.7000,0.08,0.12,-0.98,2.99,2.99,1.89
47.7160,0.08,0.12,-0.98,3.05,3.42,1.89
47.7320,0.08,0.12,-0.98,3.23,2.81,1.77
47.7480,0.08,0.12,-0.98,3.17,2.99,1.77
47.7640,0.08,0.12,-0.98,3.05,2.81,1.89
47.7800,0.08,0.12,-0.98,3.11,3.17,1.83
