Timestamp, AccX, AccY, AccZ, GyroX, GyroY, GyroZ
0.0110,0.10,0.13,-0.99,2.32,4.03,1.89
0.0260,0.07,0.13,-0.99,2.44,4.03,1.83
0.0410,0.07,0.13,-0.99,2.44,3.97,1.95
0.0490,0.07,0.13,-0.99,2.87,3.85,2.01
0.0660,0.07,0.13,-0.99,3.17,3.72,2.08
0.0840,0.07,0.13,-0.99,3.11,3.72,2.14
0.1000,0.07,0.13,-0.99,2.93,3.78,1.95
0.1160,0.07,0.12,-0.99,2.81,4.03,2.08
0.1160,0.07,0.12,-0.99,2.69,3.97,2.08
0.1330,0.07,0.12,-0.99,3.23,3.48,2.01
0.1500,0.07,0.12,-0.99,3.36,3.72,2.08
0.1660,0.07,0.12,-0.99,3.42,3.48,2.08
0.1920,0.07,0.13,-0.99,3.42,3.48,2.08
0.2000,0.07,0.13,-0.99,3.54,3.66,1.89
0.2170,0.07,0.13,-0.99,3.36,3.60,2.08
0.2330,0.07,0.13,-0.99,3.30,4.09,1.95
0.2510,0.07,0.13,-0.99,3.36,3.66,2.08
0.2660,0.07,0.13,-0.99,3.23,3.42,2.20
0.2820,0.07,0.13,-0.99,3.60,3.48,2.14
0.2890,0.07,0.13,-0.99,3.54,3.85,2.14
0.2990,0.07,0.13,-0.99,3.66,3.30,2.08
0.3280,0.07,0.13,-0.99,3.60,3.23,2.01
0.3430,0.07,0.13,-0.99,3.78,3.11,1.95
0.3490,0.07,0.13,-0.99,3.97,3.30,2.14
0.3660,0.07,0.13,-0.99,3.60,3.60,2.08
0.3890,0.07,0.12,-0.99,3.48,3.36,2.20
0.4020,0.07,0.13,-0.99,3.78,3.66,2.14
0.4200,0.07,0.13,-0.99,3.85,3.17,2.01
0.4350,0.07,0.13,-0.99,3.85,3.54,2.01
0.4530,0.08,0.12,-0.99,3.66,3.78,1.71
0.4700,0.07,0.13,-0.99,3.97,3.30,0.92
0.4850,0.07,0.13,-0.99,3.60,3.72,1.89
0.5010,0.07,0.13,-0.99,3.42,3.78,1.89
0.5170,0.07,0.13,-0.99,3.54,3.54,2.01
0.5340,0.07,0.13,-0.99,3.42,3.72,2.26
0.5500,0.07,0.13,-0.99,3.30,3.48,2.38
0.5660,0.06,0.11,-0.98,1.16,3.72,2.44
0.5710,0.07,0.13,-0.99,3.11,3.66,2.44
0.5890,0.07,0.13,-0.99,3.54,3.36,2.32
0.6070,0.07,0.12,-0.99,3.48,3.36,2.20
0.6240,0.07,0.13,-0.99,3.42,3.48,2.75
0.6410,0.07,0.13,-0.99,3.36,3.48,2.38
0.6570,0.07,0.13,-0.99,3.42,3.66,2.20
0.6740,0.07,0.13,-0.99,3.48,3.30,2.14
0.6910,0.07,0.13,-0.99,3.30,3.66,2.14
0.7060,0.07,0.13,-0.99,3.30,3.54,2.14
0.7210,0.07,0.13,-0.99,3.30,3.60,2.14
0.7370,0.07,0.13,-0.99,3.11,3.42,2.08
0.7530,0.07,0.13,-0.99,2.81,3.78,2.26
0.7680,0.07,0.13,-1.00,1.71,3.54,1.89
0.7830,0.07,0.13,-1.00,2.20,3.54,2.01
0.7980,0.07,0.12,-0.99,2.69,3.60,2.08
0.8070,0.07,0.12,-0.99,2.99,3.60,2.08
0.8230,0.07,0.13,-0.99,3.17,3.54,2.08
0.8450,0.07,0.13,-0.99,3.11,3.78,2.08
0.8620,0.07,0.13,-0.99,3.17,3.78,2.14
0.8780,0.07,0.13,-0.99,3.23,3.54,2.01
0.8940,0.07,0.12,-0.99,3.30,3.30,2.08
0.8960,0.07,0.13,-0.99,3.17,3.48,2.08
0.9260,0.07,0.13,-0.99,3.11,3.72,2.26
0.9420,0.07,0.13,-0.99,3.17,3.78,2.20
0.9570,0.07,0.13,-0.99,3.36,3.48,2.14
0.9720,0.07,0.13,-0.99,3.30,3.66,2.20
0.9870,0.07,0.13,-0.99,3.42,3.66,2.14
0.9950,0.07,0.13,-0.99,3.23,3.48,2.08
1.0120,0.07,0.13,-0.99,3.30,3.48,2.01
1.0290,0.07,0.13,-0.99,3.05,3.66,2.14
1.0460,0.07,0.12,-0.99,3.30,3.60,2.20
1.0620,0.07,0.12,-0.99,3.17,3.60,2.08
1.0790,0.07,0.13,-0.99,3.17,3.85,2.01
1.0950,0.07,0.13,-0.99,2.99,3.85,2.26
1.1110,0.07,0.13,-0.99,3.17,3.72,2.26
1.1270,0.07,0.13,-0.99,3.23,3.60,2.26
1.1430,0.07,0.13,-0.99,3.36,3.42,2.14
1.1460,0.07,0.13,-0.99,3.36,3.78,2.08
1.1730,0.07,0.13,-0.99,3.17,3.78,2.20
1.1780,0.07,0.13,-0.99,3.30,3.54,2.26
1.1960,0.07,0.13,-0.99,3.30,3.66,2.14
1.2190,0.07,0.13,-0.99,3.42,3.36,2.20
1.2290,0.07,0.12,-0.99,3.54,2.99,1.95
1.2450,0.07,0.13,-0.99,3.60,3.36,2.08
1.2620,0.07,0.13,-1.00,3.48,3.54,2.01
1.2790,0.07,0.13,-0.99,2.08,3.78,1.95
1.2950,0.08,0.13,-0.99,1.59,4.15,1.59
1.3120,0.08,0.12,-0.99,2.50,4.33,0.49
1.3280,0.07,0.12,-0.99,3.85,3.85,1.34
1.3430,0.07,0.12,-0.99,3.42,3.91,1.95
1.3600,0.07,0.13,-0.99,3.78,3.60,1.95
1.3760,0.07,0.13,-0.99,3.42,3.91,2.14
1.3920,0.07,0.13,-0.99,3.36,3.78,2.08
1.4070,0.07,0.13,-0.99,3.17,3.72,2.08
1.4220,0.07,0.15,-0.99,3.11,3.85,2.14
1.4370,0.07,0.12,-0.99,3.17,3.91,2.08
1.4460,0.07,0.12,-0.99,3.36,3.42,2.14
1.4620,0.07,0.12,-0.99,3.36,3.54,1.95
1.4790,0.07,0.13,-0.99,3.23,3.78,2.14
1.4950,0.07,0.13,-0.99,3.30,3.78,2.08
1.5120,0.07,0.13,-0.99,3.30,3.66,2.20
1.5300,0.07,0.13,-0.99,3.42,3.42,2.20
1.5450,0.07,0.13,-0.99,3.17,3.97,2.26
1.5600,0.07,0.12,-0.99,2.93,3.66,2.20
1.5760,0.07,0.12,-0.99,3.05,3.66,1.95
1.5910,0.07,0.12,-0.99,3.05,4.03,2.26
1.5960,0.07,0.13,-0.99,3.05,3.66,2.08
1.6120,0.07,0.12,-0.99,3.30,3.78,2.01
1.6330,0.07,0.13,-0.99,3.17,3.78,2.14
1.6490,0.07,0.12,-0.99,3.11,3.91,2.01
1.6660,0.07,0.13,-0.99,3.36,3.78,2.26
1.6830,0.07,0.13,-0.99,3.36,3.54,2.08
1.6990,0.07,0.13,-0.99,3.48,3.42,2.26
1.7000,0.07,0.13,-0.99,3.36,3.54,2.26
1.7310,0.07,0.13,-0.99,3.23,3.30,2.20
1.7480,0.07,0.12,-0.99,3.54,3.72,2.01
1.7640,0.07,0.12,-0.99,3.54,3.30,2.08
1.7660,0.07,0.13,-0.99,3.85,3.60,2.26
1.7910,0.07,0.12,-0.99,3.17,3.91,2.32
1.8030,0.07,0.13,-0.99,3.30,3.85,2.20
1.8210,0.07,0.13,-0.99,3.36,3.97,2.20
1.8380,0.07,0.13,-0.99,3.17,4.09,2.20
1.8550,0.07,0.13,-0.99,3.36,3.78,2.14
1.8700,0.07,0.13,-0.99,3.60,3.66,2.01
1.8880,0.07,0.13,-0.99,3.36,3.66,2.14
1.9040,0.07,0.13,-0.99,3.17,3.54,2.26
1.9200,0.07,0.13,-0.99,3.23,3.66,2.26
1.9350,0.08,0.12,-1.00,2.56,3.97,2.14
1.9510,0.07,0.13,-0.99,3.54,3.60,2.32
1.9680,0.07,0.13,-0.99,3.30,3.66,2.08
1.9830,0.07,0.13,-0.99,3.17,3.91,2.01
1.9980,0.07,0.13,-0.99,3.11,3.97,2.14
2.0040,0.07,0.13,-0.99,3.23,3.48,2.14
2.0210,0.07,0.13,-0.99,3.30,3.54,2.20
2.0430,0.07,0.13,-0.99,3.30,3.85,2.26
2.0590,0.07,0.13,-0.99,3.23,3.48,2.20
2.0760,0.07,0.13,-0.99,3.17,3.66,1.95
2.0930,0.07,0.13,-0.99,3.23,3.54,2.14
2.1080,0.07,0.13,-0.99,3.23,3.48,2.08
2.1240,0.07,0.13,-0.99,3.30,3.54,2.14
2.1390,0.07,0.13,-0.99,3.17,3.91,2.08
2.1540,0.07,0.13,-0.99,3.42,3.54,1.89
2.1690,0.07,0.13,-0.99,3.36,3.42,2.01
2.1770,0.07,0.12,-0.99,3.11,3.78,2.08
2.1940,0.07,0.12,-0.99,3.17,3.72,2.08
2.2090,0.07,0.12,-0.99,3.23,3.48,2.01
2.2260,0.07,0.12,-0.99,3.11,3.36,2.26
2.2430,0.07,0.13,-0.99,3.66,3.42,2.20
2.2580,0.07,0.12,-0.99,2.99,4.03,2.14
2.2730,0.07,0.12,-0.99,3.17,3.36,2.14
2.2880,0.07,0.12,-0.99,3.30,3.78,2.08
2.3040,0.07,0.12,-0.99,3.23,3.60,2.08
2.3200,0.07,0.12,-0.99,3.23,3.91,2.14
2.3350,0.07,0.13,-0.99,3.11,3.91,2.14
2.3510,0.07,0.13,-0.99,3.23,3.72,2.32
2.3600,0.07,0.13,-0.99,3.42,3.66,1.95
2.3820,0.07,0.13,-0.99,3.36,3.91,2.14
2.3930,0.07,0.13,-0.99,3.36,3.54,2.14
2.4100,0.07,0.13,-0.99,3.36,3.78,2.14
2.4250,0.07,0.13,-0.99,3.54,3.36,2.14
2.4420,0.07,0.13,-0.99,3.30,3.78,2.01
2.4600,0.07,0.12,-0.99,3.23,3.05,2.08
2.4760,0.07,0.12,-0.99,3.17,3.91,2.08
2.4920,0.07,0.12,-0.99,3.17,3.91,2.14
2.4930,0.07,0.12,-0.99,3.23,3.48,2.20
2.5240,0.07,0.12,-0.99,3.05,3.85,2.01
2.5270,0.07,0.12,-0.99,3.11,3.66,2.14
2.5440,0.07,0.12,-0.99,3.11,3.72,2.08
2.5600,0.07,0.13,-0.99,3.23,3.97,2.14
2.5760,0.07,0.13,-0.99,3.23,3.30,1.95
2.5970,0.07,0.13,-0.99,3.23,3.78,2.08
2.6130,0.07,0.13,-0.99,3.60,3.66,2.20
2.6310,0.08,0.12,-0.99,3.78,3.54,2.38
2.6470,0.12,0.07,-1.00,3.05,3.36,3.17
2.6630,0.11,0.06,-1.00,3.11,2.75,5.80
2.6780,0.08,0.12,-0.99,2.93,2.87,7.02
2.6920,0.04,0.22,-0.99,3.11,3.05,5.62
2.6960,0.02,0.15,-0.99,0.61,4.39,0.00
2.7250,0.09,0.13,-0.97,1.10,3.91,-0.24
2.7350,0.07,0.13,-0.99,4.27,4.09,-2.81
2.7530,0.08,0.12,-0.99,3.85,4.33,-3.11
2.7680,0.09,0.13,-0.99,3.48,4.58,-3.17
2.7860,0.08,0.12,-1.00,3.17,4.64,-3.60
2.8020,0.07,0.12,-0.99,2.75,4.33,-2.44
2.8180,0.06,0.12,-0.99,2.75,4.58,-0.18
2.8330,0.06,0.13,-0.99,2.32,4.27,0.61
2.8490,0.06,0.13,-0.99,2.44,3.91,1.65
2.8520,0.06,0.13,-0.99,2.38,3.97,2.99
2.8680,0.06,0.13,-0.99,2.32,3.42,4.94
2.8920,0.06,0.11,-0.99,2.87,3.23,5.80
2.9010,0.07,0.11,-1.00,2.87,3.54,5.00
2.9280,0.07,0.12,-0.99,3.23,3.36,3.54
2.9400,0.08,0.11,-0.99,3.17,3.54,2.99
2.9560,0.07,0.12,-0.99,3.17,3.48,2.69
2.9730,0.07,0.12,-0.99,3.85,3.36,2.56
2.9900,0.06,0.12,-0.99,3.97,3.66,2.50
3.0050,0.07,0.12,-0.99,3.78,3.36,2.56
3.0210,0.08,0.13,-0.99,3.60,3.48,2.56
3.0370,0.08,0.13,-0.99,3.48,3.17,2.38
3.0400,0.08,0.13,-0.99,3.05,3.66,2.38
3.0680,0.08,0.12,-0.99,3.30,3.54,2.26
3.0830,0.07,0.12,-0.99,3.36,3.17,2.01
3.0940,0.07,0.12,-0.99,3.60,3.72,1.95
3.1100,0.07,0.12,-0.99,3.30,3.36,2.01
3.1260,0.07,0.12,-0.99,2.99,3.78,2.01
3.1430,0.07,0.12,-0.99,2.44,3.85,2.26
3.1590,0.05,0.13,-0.99,2.14,4.03,2.75
3.1750,0.06,0.13,-0.99,2.44,4.03,3.91
3.1780,0.08,0.12,-0.99,2.87,3.54,4.21
3.2050,0.08,0.12,-0.99,3.48,3.30,2.99
3.2210,0.07,0.13,-0.99,3.85,3.54,2.87
3.2360,0.07,0.13,-1.00,3.30,3.48,2.99
3.2440,0.07,0.13,-0.99,2.08,3.91,3.78
3.2600,0.08,0.12,-0.99,2.20,3.97,4.64
3.2820,0.07,0.12,-0.99,3.30,2.99,3.54
3.2940,0.07,0.12,-0.99,3.60,3.36,3.36
3.3100,0.06,0.13,-1.00,3.17,3.36,3.60
3.3270,0.07,0.13,-0.99,1.89,3.48,5.07
3.3440,0.08,0.12,-0.99,1.89,3.91,5.92
3.3600,0.09,0.11,-0.99,3.05,3.17,4.39
3.3760,0.08,0.12,-0.99,3.97,3.23,2.08
3.3920,0.07,0.13,-1.00,4.70,2.99,1.89
3.4090,0.06,0.13,-0.99,2.56,4.03,2.38
3.4230,0.07,0.13,-0.99,2.01,3.54,2.69
3.4380,0.07,0.13,-0.99,1.71,3.91,2.93
3.4530,0.07,0.13,-0.99,2.38,3.66,3.72
3.4690,0.07,0.12,-0.99,2.62,3.85,4.03
3.4850,0.08,0.11,-0.99,3.72,3.36,2.93
3.5000,0.07,0.11,-0.99,4.76,2.69,2.01
3.5110,0.07,0.12,-1.00,4.76,2.56,1.89
3.5270,0.07,0.12,-0.99,4.15,3.23,1.83
3.5430,0.07,0.12,-0.99,3.97,3.30,1.89
3.5610,0.07,0.12,-0.99,3.78,3.48,1.95
3.5770,0.07,0.13,-0.99,3.05,3.78,1.95
3.5930,0.07,0.12,-0.99,3.23,3.66,2.08
3.6090,0.07,0.12,-0.99,3.60,3.78,2.08
3.6260,0.07,0.12,-0.99,3.78,3.48,2.08
3.6410,0.07,0.13,-0.99,4.15,3.30,1.83
3.6560,0.07,0.13,-0.99,3.78,3.17,1.77
3.6710,0.07,0.12,-0.99,3.66,3.48,1.95
3.6870,0.07,0.12,-0.99,3.48,3.72,1.28
3.7020,0.07,0.13,-0.99,3.17,3.78,1.59
3.7180,0.07,0.12,-0.99,2.99,4.15,2.01
3.7270,0.07,0.12,-0.99,3.36,3.54,1.95
3.7450,0.07,0.12,-0.99,3.36,3.66,1.89
3.7610,0.07,0.12,-0.99,3.54,3.23,1.10
3.7770,0.07,0.13,-0.99,3.23,3.48,1.22
3.7930,0.07,0.13,-0.99,3.11,3.54,1.65
3.8080,0.07,0.13,-0.99,3.23,3.60,1.77
3.8230,0.07,0.13,-0.99,3.05,3.48,1.95
3.8390,0.07,0.13,-0.99,3.48,3.42,2.01
3.8540,0.07,0.13,-0.99,3.54,3.17,2.01
3.8700,0.07,0.12,-0.99,3.60,3.23,1.95
3.8860,0.07,0.12,-0.99,3.66,3.11,2.14
3.9030,0.07,0.12,-0.99,3.60,3.54,2.08
3.9170,0.07,0.12,-0.99,3.42,3.66,2.14
3.9270,0.07,0.12,-0.99,3.48,3.42,1.95
3.9430,0.07,0.12,-0.99,3.36,3.36,2.14
3.9600,0.07,0.12,-0.99,2.93,3.48,2.14
3.9770,0.07,0.13,-0.99,3.17,3.72,2.26
3.9940,0.07,0.12,-0.99,3.42,3.72,2.01
4.0100,0.07,0.13,-0.99,3.36,3.48,2.08
4.0280,0.07,0.13,-0.99,3.36,3.66,2.20
4.0430,0.07,0.13,-0.99,3.30,3.54,2.08
4.0450,0.07,0.13,-0.99,3.30,3.23,2.20
4.0760,0.07,0.12,-0.99,3.17,3.54,2.20
4.0920,0.07,0.13,-0.99,3.23,3.85,2.32
4.1070,0.07,0.12,-0.99,3.11,4.03,2.26
4.1220,0.07,0.12,-0.99,3.11,3.48,2.14
4.1370,0.07,0.12,-0.99,2.99,3.54,2.20
4.1440,0.07,0.12,-0.99,3.11,3.60,2.26
4.1680,0.08,0.15,-1.00,4.33,3.66,2.14
4.1830,0.07,0.12,-0.99,2.81,4.15,2.01
4.1940,0.07,0.13,-1.00,4.27,3.30,2.14
4.2110,0.07,0.13,-0.99,3.91,3.48,2.20
4.2290,0.07,0.13,-0.99,3.60,3.66,2.08
4.2430,0.07,0.13,-0.99,3.23,3.66,1.89
4.2600,0.07,0.12,-0.99,3.30,3.54,2.01
4.2770,0.07,0.12,-0.99,3.42,3.85,2.08
4.2940,0.07,0.12,-0.99,3.23,3.54,2.01
4.3100,0.07,0.12,-0.99,3.30,3.66,2.14
4.3260,0.07,0.12,-0.99,2.99,3.91,2.08
4.3420,0.07,0.12,-0.99,3.48,3.60,2.08
4.3580,0.07,0.12,-0.99,4.09,3.23,1.83
4.3600,0.07,0.13,-1.00,4.21,3.30,1.71
4.3920,0.07,0.13,-0.99,3.54,3.66,1.95
4.4070,0.07,0.13,-0.99,3.23,3.48,2.01
4.4120,0.07,0.13,-0.99,3.48,3.30,2.14
4.4280,0.07,0.13,-0.99,3.36,3.72,2.20
4.4520,0.07,0.13,-0.99,3.23,3.97,2.08
4.4680,0.08,0.13,-0.99,3.36,3.42,1.89
4.4840,0.06,0.12,-0.99,3.36,3.78,1.77
4.5000,0.07,0.13,-0.99,3.23,3.72,1.95
4.5160,0.07,0.12,-0.99,3.36,3.60,1.89
4.5330,0.07,0.12,-0.99,3.36,3.72,1.95
4.5500,0.07,0.12,-0.99,2.99,3.97,2.08
4.5530,0.07,0.12,-0.99,3.23,3.72,2.20
4.5690,0.07,0.12,-0.99,2.93,3.48,2.20
4.5950,0.07,0.13,-0.99,2.87,3.78,2.38
4.6020,0.07,0.12,-0.99,3.11,3.66,2.50
4.6280,0.07,0.13,-0.99,3.54,3.54,2.08
4.6390,0.07,0.13,-0.99,3.54,3.17,1.95
4.6550,0.07,0.13,-0.99,3.60,3.54,1.95
4.6730,0.07,0.13,-0.99,3.23,4.15,2.26
4.6890,0.07,0.13,-0.99,3.17,3.97,2.14
4.7040,0.07,0.12,-0.99,3.23,3.30,2.14
4.7180,0.07,0.13,-0.99,3.17,3.54,2.26
4.7330,0.07,0.12,-0.99,3.42,3.85,2.62
4.7490,0.07,0.13,-0.99,3.85,3.91,2.14
4.7650,0.07,0.13,-0.99,3.60,3.48,2.01
4.7720,0.07,0.13,-0.99,3.36,3.91,2.08
4.7960,0.07,0.13,-0.99,3.36,3.85,2.08
4.8120,0.07,0.12,-0.99,3.36,4.15,2.08
4.8230,0.07,0.13,-0.99,3.85,3.85,1.95
4.8390,0.07,0.13,-0.99,3.97,3.66,2.08
4.8560,0.07,0.13,-0.99,3.72,3.97,2.20
4.8730,0.07,0.13,-0.99,3.60,3.60,2.14
4.8880,0.07,0.12,-0.99,3.60,3.66,2.01
4.9040,0.07,0.12,-0.99,2.81,3.60,1.89
4.9200,0.08,0.11,-1.00,2.38,3.17,1.95
4.9370,0.07,0.13,-0.99,3.48,3.66,1.89
4.9530,0.07,0.12,-0.99,4.64,3.54,1.40
4.9700,0.07,0.13,-0.99,4.27,3.17,2.01
4.9850,0.07,0.12,-0.99,3.05,3.54,2.08
4.9960,0.07,0.12,-0.99,2.99,3.66,2.01
5.0050,0.07,0.13,-0.99,3.48,3.48,2.20
5.0330,0.07,0.13,-0.99,3.05,3.97,2.20
5.0440,0.07,0.13,-0.99,2.81,4.03,2.20
5.0600,0.07,0.13,-0.99,2.87,3.66,2.20
5.0770,0.07,0.13,-0.99,3.05,3.97,2.08
5.0960,0.07,0.13,-0.99,3.11,3.72,2.01
5.1100,0.08,0.13,-0.99,2.69,3.91,2.08
5.1260,0.08,0.13,-0.99,2.56,3.54,1.95
5.1430,0.07,0.12,-0.99,2.87,3.97,1.10
5.1600,0.07,0.12,-0.99,3.30,3.97,1.53
5.1750,0.07,0.12,-0.99,3.30,3.85,1.59
5.1910,0.07,0.12,-0.99,3.23,3.85,1.95
5.2070,0.07,0.12,-0.99,3.66,3.72,2.14
5.2100,0.07,0.13,-0.99,3.66,3.91,1.77
5.2380,0.07,0.13,-0.99,3.48,3.48,2.01
5.2530,0.07,0.13,-0.99,3.30,3.66,1.77
5.2690,0.07,0.13,-0.99,2.93,3.54,2.01
5.2780,0.07,0.13,-0.99,2.99,3.91,2.01
5.2970,0.08,0.13,-0.99,3.11,3.60,1.95
5.3140,0.07,0.13,-0.99,2.81,4.03,2.20
5.3310,0.07,0.12,-0.99,2.93,3.97,2.08
5.3480,0.07,0.12,-0.99,3.23,3.66,2.14
5.3640,0.07,0.12,-0.99,3.05,3.54,2.14
5.3800,0.07,0.12,-0.99,2.87,3.78,2.08
5.3960,0.07,0.12,-0.99,2.87,3.85,1.95
5.3980,0.07,0.12,-0.99,3.54,3.78,1.95
5.4140,0.07,0.12,-0.99,3.42,3.66,1.71
5.4420,0.07,0.12,-0.99,3.48,3.66,1.22
5.4510,0.07,0.13,-0.99,3.30,3.72,0.98
5.4670,0.07,0.13,-0.99,3.23,4.09,1.89
5.4900,0.07,0.13,-0.99,2.99,3.66,2.08
5.5050,0.07,0.13,-0.99,3.17,3.54,2.08
5.5210,0.07,0.13,-0.99,3.23,3.42,1.95
5.5380,0.07,0.12,-0.99,3.30,3.91,1.28
5.5530,0.07,0.13,-0.99,3.42,3.17,1.34
5.5560,0.07,0.12,-0.99,3.17,3.36,1.83
5.5720,0.07,0.12,-1.00,2.87,3.85,2.26
5.5970,0.07,0.12,-0.99,2.69,4.03,1.95
5.6100,0.10,0.11,-0.99,2.87,4.21,0.85
5.6270,0.07,0.13,-0.99,3.78,4.09,-1.10
5.6430,0.06,0.13,-0.99,3.54,3.91,0.00
5.6600,0.06,0.13,-0.99,3.48,3.72,1.16
5.6760,0.07,0.13,-0.99,2.56,3.78,1.71
5.6920,0.07,0.12,-0.99,2.14,3.78,2.08
5.7100,0.07,0.12,-0.99,2.75,3.66,2.08
5.7260,0.07,0.12,-0.99,3.11,3.85,1.89
5.7420,0.07,0.12,-0.99,3.42,3.42,1.59
5.7570,0.07,0.12,-0.99,3.30,3.78,1.83
5.7600,0.07,0.12,-0.99,3.48,3.66,1.71
5.7760,0.07,0.12,-0.99,3.54,3.60,1.59
5.7980,0.07,0.12,-0.99,3.42,3.54,1.53
5.8150,0.06,0.13,-0.99,3.23,3.72,1.71
5.8320,0.07,0.12,-0.99,2.99,3.97,2.01
5.8490,0.07,0.12,-0.99,2.81,3.60,2.20
5.8650,0.07,0.12,-0.99,3.23,3.48,2.08
5.8820,0.07,0.12,-0.99,3.60,3.48,2.20
5.8980,0.08,0.12,-0.99,3.23,4.03,2.32
5.9140,0.07,0.12,-0.99,3.05,3.85,2.38
5.9300,0.07,0.12,-0.99,2.75,3.91,2.26
5.9460,0.07,0.11,-0.99,2.44,3.97,2.20
5.9620,0.07,0.13,-0.99,4.33,3.23,2.26
5.9650,0.07,0.12,-1.00,3.23,3.72,2.14
5.9810,0.07,0.12,-0.99,2.44,3.66,2.14
6.0090,0.07,0.12,-0.99,3.66,3.66,2.38
6.0200,0.07,0.12,-0.99,3.78,3.42,2.14
6.0370,0.07,0.12,-0.99,3.60,3.54,2.08
6.0530,0.07,0.12,-0.99,3.30,3.78,2.08
6.0690,0.07,0.13,-0.99,3.66,3.42,1.89
6.0860,0.07,0.13,-0.99,3.54,3.66,2.08
6.1020,0.07,0.13,-0.99,3.54,3.05,2.08
6.1190,0.07,0.12,-0.99,3.23,3.48,2.08
6.1350,0.07,0.12,-0.99,3.30,3.54,2.08
6.1500,0.07,0.12,-0.99,3.23,3.66,1.89
6.1660,0.07,0.12,-0.99,3.36,3.78,1.95
6.1820,0.07,0.12,-0.99,3.54,3.85,2.14
6.1970,0.07,0.12,-0.99,3.60,3.85,2.08
6.2030,0.07,0.12,-0.99,3.54,3.66,2.26
6.2190,0.07,0.12,-0.99,3.17,3.48,2.20
6.2410,0.07,0.12,-0.99,3.54,3.97,2.14
6.2580,0.07,0.13,-0.99,3.85,3.48,2.01
6.2750,0.07,0.13,-0.99,3.91,3.60,2.01
6.2910,0.07,0.13,-0.99,3.60,3.85,2.01
6.3070,0.07,0.13,-0.99,2.87,3.72,2.20
6.3230,0.07,0.12,-0.99,2.81,3.85,2.26
6.3380,0.07,0.12,-0.99,3.05,3.72,2.14
6.3540,0.07,0.12,-0.99,3.30,3.60,2.20
6.3690,0.07,0.12,-0.99,3.36,3.36,1.95
6.3840,0.07,0.12,-0.99,3.54,3.23,1.89
6.4000,0.07,0.12,-0.99,3.17,3.42,2.08
6.4150,0.07,0.12,-0.99,2.81,3.54,2.01
6.4310,0.07,0.12,-0.99,2.93,3.85,2.14
6.4410,0.07,0.12,-0.99,3.17,3.91,2.20
6.4580,0.07,0.12,-0.99,3.42,3.78,2.08
6.4750,0.07,0.12,-0.99,3.54,3.97,2.08
6.4910,0.07,0.13,-0.99,3.36,3.48,2.14
6.5080,0.07,0.13,-0.99,3.23,3.97,2.26
6.5240,0.07,0.13,-0.99,3.36,3.66,2.20
6.5390,0.07,0.12,-0.99,3.11,3.72,2.01
6.5540,0.07,0.12,-0.99,3.23,3.42,2.14
6.5700,0.07,0.12,-0.99,3.11,3.78,2.32
6.5740,0.07,0.12,-0.99,2.62,3.91,2.32
6.5990,0.07,0.12,-0.99,2.99,3.48,2.81
6.6060,0.07,0.12,-0.99,3.30,3.72,2.62
6.6300,0.07,0.12,-0.99,3.36,3.91,2.14
6.6470,0.07,0.12,-0.99,3.72,3.54,2.38
6.6640,0.07,0.13,-0.99,3.30,3.48,2.08
6.6800,0.07,0.12,-0.99,3.23,3.54,2.01
6.6810,0.07,0.13,-0.99,3.11,3.85,2.08
6.6980,0.07,0.13,-0.99,3.05,3.72,2.26
6.7130,0.07,0.13,-0.99,2.87,3.78,2.32
6.7310,0.07,0.12,-0.99,2.87,3.66,3.36
6.7480,0.07,0.12,-0.99,3.36,3.42,2.26
6.7630,0.07,0.12,-0.99,3.17,3.91,2.01
6.7910,0.07,0.12,-0.99,3.60,3.60,2.01
6.8020,0.07,0.12,-0.99,3.36,3.66,2.08
6.8180,0.07,0.12,-0.99,3.23,3.23,2.01
6.8330,0.07,0.13,-0.99,3.17,3.78,2.26
6.8530,0.07,0.12,-0.99,3.17,3.78,2.75
6.8700,0.07,0.12,-0.99,3.42,3.54,2.50
6.8860,0.07,0.12,-0.99,3.36,3.42,2.20
6.9020,0.07,0.12,-0.99,3.23,3.54,2.20
6.9170,0.07,0.12,-0.99,3.42,3.78,2.14
6.9340,0.07,0.12,-0.99,3.42,3.85,2.14
6.9500,0.07,0.12,-0.99,3.54,3.60,2.26
6.9660,0.07,0.12,-0.99,3.48,3.54,2.20
6.9800,0.07,0.12,-0.99,3.05,3.78,2.08
6.9960,0.07,0.13,-0.99,2.93,3.72,2.32
7.0050,0.07,0.12,-0.99,2.93,3.78,3.60
7.0210,0.07,0.12,-0.99,3.30,3.72,2.50
7.0430,0.07,0.12,-0.99,3.60,3.54,1.89
7.0450,0.07,0.13,-0.99,3.60,3.60,1.77
7.0750,0.07,0.13,-0.99,3.30,3.60,1.77
7.0770,0.07,0.13,-0.99,2.50,3.48,2.75
7.1060,0.07,0.12,-0.99,2.38,3.66,4.09
7.1140,0.07,0.12,-0.99,2.75,3.30,3.85
7.1300,0.07,0.12,-0.99,3.36,3.60,2.50
7.1460,0.07,0.12,-0.99,3.60,3.66,2.08
7.1630,0.07,0.12,-0.99,3.23,3.42,2.14
7.1790,0.07,0.12,-0.99,2.81,3.72,2.20
7.1960,0.07,0.12,-0.99,2.69,3.60,3.60
7.2120,0.07,0.11,-0.99,2.81,3.66,3.36
7.2290,0.07,0.11,-0.99,3.48,3.54,2.08
7.2460,0.07,0.12,-0.99,3.97,3.54,2.08
7.2620,0.07,0.12,-1.00,3.54,3.54,2.08
7.2630,0.07,0.12,-0.99,3.11,3.91,2.08
7.2810,0.07,0.12,-0.99,2.75,3.48,2.01
7.3130,0.07,0.12,-0.99,3.54,3.66,2.08
7.3280,0.07,0.12,-0.99,3.23,3.42,2.08
7.3350,0.07,0.12,-0.99,3.48,3.30,2.08
7.3580,0.07,0.13,-0.98,2.87,3.60,1.83
7.3680,0.07,0.12,-1.00,3.72,3.60,2.62
7.3850,0.07,0.12,-0.99,3.11,3.54,2.01
7.4050,0.07,0.12,-1.00,3.48,3.48,2.20
7.4210,0.07,0.12,-0.99,3.36,3.66,2.01
7.4370,0.07,0.13,-0.99,3.23,3.54,2.26
7.4520,0.07,0.12,-0.99,3.23,3.36,3.30
7.4670,0.07,0.13,-0.99,3.11,3.36,2.99
7.4840,0.08,0.12,-0.99,2.93,3.66,2.81
7.4990,0.07,0.11,-0.99,3.78,3.30,1.83
7.5130,0.07,0.12,-0.99,3.85,3.36,1.46
7.5280,0.07,0.12,-0.99,3.72,3.36,1.59
7.5390,0.07,0.13,-0.99,3.23,3.17,2.50
7.5560,0.07,0.13,-0.99,2.93,3.60,3.72
7.5710,0.07,0.12,-0.99,2.99,3.30,3.78
7.5890,0.07,0.12,-0.99,3.23,3.30,3.60
7.6050,0.07,0.11,-1.00,3.11,3.54,3.60
7.6200,0.07,0.12,-0.99,2.69,3.30,3.54
7.6360,0.07,0.12,-0.99,2.56,3.66,3.42
7.6390,0.07,0.12,-0.99,3.05,3.30,3.36
7.6680,0.07,0.12,-0.99,2.99,3.36,3.30
7.6730,0.07,0.12,-0.99,3.36,3.48,3.54
7.6900,0.07,0.12,-0.99,2.87,3.91,3.54
7.7060,0.07,0.12,-0.99,2.69,3.78,3.60
7.7220,0.07,0.11,-0.99,3.36,3.23,4.03
7.7420,0.07,0.11,-1.00,3.78,3.66,2.81
7.7590,0.07,0.12,-0.99,3.42,3.60,2.26
7.7750,0.07,0.12,-0.99,3.54,3.60,2.20
7.7920,0.07,0.13,-0.99,3.60,3.54,2.20
7.8080,0.07,0.12,-0.99,2.93,3.60,3.11
7.8250,0.07,0.12,-0.99,2.56,3.54,3.11
7.8400,0.07,0.13,-0.99,2.87,3.66,3.05
7.8550,0.07,0.12,-1.00,3.23,3.78,3.72
7.8700,0.07,0.12,-0.99,2.75,3.36,4.03
7.8870,0.07,0.12,-0.99,2.56,3.23,4.64
7.9020,0.07,0.12,-0.99,2.62,3.54,4.70
7.9170,0.07,0.12,-0.99,3.11,3.48,3.60
7.9330,0.07,0.11,-1.00,3.48,3.36,3.36
7.9420,0.07,0.11,-0.99,3.30,3.23,2.56
7.9580,0.07,0.12,-1.00,3.36,3.36,2.32
7.9750,0.07,0.13,-0.99,2.81,3.66,2.87
7.9920,0.07,0.12,-1.00,3.11,3.54,3.60
8.0080,0.07,0.12,-0.99,2.62,3.85,3.48
8.0260,0.07,0.12,-0.99,2.50,3.91,3.30
8.0410,0.07,0.12,-0.99,2.44,3.85,3.48
8.0560,0.07,0.12,-1.00,2.50,4.09,3.60
8.0720,0.07,0.11,-0.99,2.08,3.72,3.60
8.0870,0.07,0.11,-0.99,3.17,3.85,3.17
8.1030,0.07,0.12,-1.00,3.85,3.48,2.44
8.1200,0.07,0.13,-0.99,3.48,3.30,2.99
8.1360,0.07,0.14,-0.99,3.54,3.48,3.66
8.1520,0.07,0.13,-0.99,3.42,3.66,3.91
8.1580,0.07,0.13,-0.99,3.17,3.11,4.58
8.1750,0.07,0.11,-1.00,3.11,3.11,5.62
8.1920,0.07,0.11,-0.99,2.87,3.11,5.55
8.2090,0.07,0.11,-0.99,3.11,3.48,4.52
8.2250,0.07,0.12,-0.99,3.48,3.54,3.91
8.2420,0.07,0.13,-0.99,3.17,3.48,3.72
8.2590,0.07,0.12,-0.99,3.05,3.66,3.91
8.2740,0.07,0.11,-1.00,2.99,3.72,3.66
8.2900,0.07,0.11,-1.00,2.56,3.60,3.48
8.3050,0.07,0.11,-0.99,2.69,3.72,2.87
8.3210,0.07,0.12,-0.99,3.60,3.36,2.08
8.3360,0.07,0.12,-0.99,3.54,3.66,2.01
8.3420,0.07,0.12,-1.00,3.30,3.54,2.26
8.3580,0.06,0.13,-0.99,2.32,3.85,2.38
8.3800,0.07,0.13,-0.99,1.95,4.03,3.91
8.3990,0.07,0.13,-0.99,2.81,3.42,3.66
8.4140,0.07,0.11,-1.00,4.27,2.99,2.99
8.4290,0.07,0.11,-1.00,3.97,3.42,2.44
8.4450,0.07,0.12,-0.99,3.78,3.66,2.44
8.4470,0.07,0.13,-1.00,2.99,3.42,4.27
8.4640,0.07,0.14,-0.98,2.01,3.42,4.82
8.4800,0.07,0.13,-0.99,2.62,3.11,5.74
8.5090,0.07,0.12,-0.99,1.77,3.36,6.10
8.5130,0.07,0.10,-0.99,3.05,3.11,5.86
8.5300,0.07,0.10,-1.00,3.36,3.17,4.46
8.5480,0.07,0.10,-1.00,3.42,3.54,3.97
8.5640,0.07,0.11,-0.99,3.05,3.36,3.60
8.5800,0.07,0.12,-1.00,3.42,3.54,2.87
8.6000,0.07,0.12,-0.99,2.75,3.78,2.87
8.6140,0.07,0.12,-1.00,2.93,3.54,3.17
8.6300,0.07,0.13,-0.99,2.14,3.54,3.60
8.6510,0.07,0.12,-0.99,2.81,3.60,4.46
8.6670,0.07,0.11,-1.00,3.78,3.05,3.85
8.6830,0.07,0.11,-1.00,3.36,3.66,3.48
8.6850,0.07,0.12,-0.99,3.60,3.66,2.81
8.7010,0.07,0.12,-1.00,3.91,3.54,2.26
8.7310,0.07,0.13,-0.99,3.48,3.78,2.50
8.7480,0.07,0.13,-0.99,2.99,3.66,3.54
8.7630,0.07,0.14,-0.99,2.20,3.17,5.19
8.7680,0.07,0.13,-0.99,1.71,3.23,6.96
8.7940,0.07,0.12,-0.99,2.93,2.99,7.45
8.8090,0.07,0.11,-1.00,4.46,2.69,6.10
8.8170,0.07,0.10,-1.00,4.09,2.99,5.00
8.8330,0.07,0.11,-0.99,3.30,3.66,4.21
8.8540,0.07,0.11,-1.00,3.72,2.93,4.15
8.8690,0.07,0.12,-0.99,3.17,3.48,4.27
8.8850,0.08,0.12,-0.99,2.75,3.30,4.76
8.9000,0.07,0.12,-0.99,3.17,3.05,4.88
8.9070,0.08,0.12,-0.99,3.36,2.93,5.07
8.9230,0.07,0.13,-0.99,3.48,3.11,4.52
8.9450,0.07,0.12,-0.99,3.17,3.05,5.37
8.9560,0.07,0.11,-1.00,2.87,3.36,5.55
8.9720,0.07,0.11,-0.99,2.56,3.66,5.62
8.9900,0.07,0.10,-1.00,4.46,3.30,3.05
9.0070,0.07,0.12,-1.00,4.09,3.48,1.71
9.0220,0.07,0.13,-0.99,3.85,3.54,1.95
9.0240,0.07,0.13,-0.99,3.11,3.48,2.08
9.0540,0.07,0.13,-0.99,2.50,3.30,2.44
9.0700,0.08,0.13,-0.99,3.23,3.23,3.23
9.0860,0.07,0.12,-1.00,4.21,3.30,3.42
9.1020,0.07,0.11,-0.99,3.66,2.99,3.54
9.1170,0.07,0.11,-1.00,4.27,3.17,3.05
9.1330,0.07,0.11,-1.00,3.23,3.54,3.42
9.1500,0.07,0.12,-0.99,4.27,3.54,2.56
9.1660,0.07,0.12,-0.99,3.97,3.42,1.59
9.1730,0.07,0.13,-0.99,3.97,3.60,1.46
9.1950,0.07,0.13,-0.99,3.48,3.66,2.32
9.2060,0.07,0.13,-0.99,2.99,3.42,2.69
9.2220,0.07,0.13,-0.99,2.81,3.60,3.36
9.2400,0.07,0.13,-0.99,2.62,3.05,4.64
9.2560,0.07,0.12,-0.99,3.85,2.50,4.39
9.2710,0.07,0.12,-1.00,4.03,2.62,2.56
9.2870,0.07,0.12,-0.99,3.54,3.17,2.14
9.3020,0.07,0.12,-1.00,3.11,3.60,2.14
9.3180,0.07,0.12,-0.99,1.95,3.72,3.78
9.3230,0.08,0.11,-0.99,1.95,3.42,5.07
9.3480,0.07,0.11,-0.99,2.87,3.23,4.27
9.3630,0.08,0.10,-0.99,3.54,3.36,3.85
9.3730,0.07,0.10,-1.00,4.15,3.48,1.46
9.3890,0.07,0.12,-0.99,4.03,3.17,1.83
9.4070,0.07,0.13,-1.00,3.36,3.54,2.01
9.4220,0.07,0.13,-0.99,2.75,3.66,2.14
9.4380,0.07,0.14,-0.99,2.44,3.60,1.95
9.4540,0.07,0.15,-0.99,2.62,3.48,3.66
9.4700,0.08,0.14,-0.99,2.56,3.30,4.76
9.4860,0.07,0.13,-0.98,3.72,3.17,3.30
9.5020,0.06,0.11,-1.00,4.33,2.62,3.97
9.5060,0.06,0.11,-1.00,3.05,3.05,4.64
9.5220,0.07,0.11,-1.00,2.26,2.99,5.86
9.5450,0.07,0.10,-0.99,2.08,3.17,6.10
9.5620,0.07,0.09,-1.00,3.05,3.17,4.82
9.5790,0.08,0.11,-0.99,2.99,3.72,3.11
9.5950,0.08,0.12,-0.99,4.70,3.30,1.89
9.6110,0.07,0.12,-0.99,4.58,3.36,1.65
9.6260,0.07,0.13,-0.99,3.60,3.48,1.77
9.6420,0.07,0.13,-0.99,2.62,3.23,1.28
9.6580,0.07,0.14,-0.99,2.81,3.11,2.01
9.6730,0.07,0.14,-0.99,2.99,3.30,3.97
9.6780,0.07,0.13,-1.00,3.05,3.11,5.13
9.7000,0.07,0.12,-0.99,2.32,3.48,5.19
9.7180,0.07,0.11,-0.99,3.48,3.36,4.33
9.7350,0.06,0.10,-1.00,3.42,3.42,3.48
9.7510,0.07,0.10,-1.00,3.23,3.48,2.75
9.7670,0.07,0.11,-0.99,3.30,3.60,2.81
9.7820,0.07,0.12,-1.00,3.17,3.17,2.93
9.7980,0.07,0.13,-0.99,2.50,3.54,3.54
9.8140,0.08,0.14,-0.99,2.38,3.60,5.49
9.8290,0.08,0.13,-0.99,3.36,3.05,5.37
9.8350,0.07,0.12,-1.00,2.81,3.17,5.07
9.8520,0.07,0.12,-0.99,2.62,2.99,5.19
9.8710,0.07,0.11,-1.00,3.30,3.23,4.03
9.8890,0.07,0.12,-0.99,3.11,3.54,3.78
9.9050,0.07,0.12,-1.00,2.75,3.66,3.30
9.9190,0.07,0.13,-0.99,1.83,3.48,4.46
9.9350,0.07,0.12,-1.00,1.71,3.36,4.82
9.9380,0.07,0.11,-0.99,1.22,3.48,4.76
9.9540,0.07,0.11,-0.99,1.83,3.60,4.03
9.9760,0.07,0.11,-1.00,2.99,3.36,3.48
9.9920,0.08,0.12,-0.99,3.36,3.17,3.11
10.0090,0.07,0.12,-1.00,3.42,3.23,2.87
10.0260,0.07,0.12,-0.99,2.50,3.48,3.11
10.0410,0.07,0.12,-0.99,2.50,3.42,3.05
10.0570,0.07,0.13,-0.99,1.95,3.48,3.48
10.0600,0.07,0.12,-0.99,2.38,3.05,4.64
10.0760,0.07,0.12,-0.99,4.27,3.36,3.48
10.1000,0.07,0.12,-1.00,4.76,3.11,2.99
10.1150,0.07,0.12,-1.00,3.97,3.66,2.44
10.1320,0.07,0.13,-0.99,3.60,3.42,2.56
10.1470,0.06,0.12,-1.00,4.33,2.99,3.72
10.1630,0.07,0.11,-0.99,3.42,2.99,5.19
10.1800,0.07,0.11,-1.00,4.09,3.05,4.27
10.1970,0.07,0.11,-0.99,2.44,3.54,4.03
10.2130,0.08,0.12,-0.99,2.62,3.23,3.78
10.2300,0.07,0.13,-0.99,2.44,3.23,4.09
10.2300,0.08,0.12,-0.99,2.62,3.17,5.13
10.2630,0.08,0.11,-1.00,3.54,2.93,3.72
10.2640,0.07,0.11,-0.99,3.97,3.48,2.62
10.2800,0.07,0.12,-0.99,4.46,3.11,2.01
10.3010,0.07,0.14,-0.99,3.36,3.54,2.20
10.3190,0.07,0.14,-0.99,2.44,3.66,3.78
10.3350,0.07,0.12,-0.99,2.32,3.48,5.25
10.3520,0.07,0.11,-0.99,2.44,3.30,5.07
10.3680,0.07,0.10,-0.99,3.60,3.17,4.58
10.3870,0.07,0.10,-1.00,4.27,3.05,2.75
10.4020,0.07,0.12,-0.99,3.42,3.30,2.26
10.4190,0.07,0.13,-0.99,2.99,3.72,2.69
10.4350,0.08,0.13,-0.99,3.05,3.72,3.60
10.4510,0.08,0.12,-0.99,3.91,3.30,3.48
10.4680,0.07,0.12,-0.99,3.54,3.60,2.99
10.4840,0.07,0.12,-0.99,3.85,3.54,3.05
10.4990,0.07,0.12,-0.99,3.72,3.23,3.30
10.5020,0.07,0.12,-0.99,3.36,3.48,3.72
10.5320,0.07,0.11,-0.99,3.60,3.36,3.85
10.5470,0.07,0.11,-0.99,3.23,3.54,3.36
10.5630,0.07,0.12,-1.00,3.48,3.78,2.44
10.5790,0.07,0.13,-0.99,3.66,3.36,1.83
10.5950,0.07,0.14,-0.99,4.33,3.60,2.20
10.6020,0.07,0.12,-0.99,3.72,3.48,3.78
10.6170,0.07,0.12,-0.99,3.60,3.05,4.88
10.6400,0.07,0.12,-0.99,3.42,3.66,4.58
10.6570,0.07,0.11,-0.99,3.48,3.54,3.91
10.6730,0.07,0.12,-1.00,3.36,3.66,3.11
10.6880,0.07,0.12,-0.99,2.87,3.72,2.56
10.7030,0.08,0.13,-0.98,3.30,3.36,3.30
10.7200,0.08,0.13,-0.99,4.15,2.93,2.50
10.7360,0.07,0.12,-1.00,3.17,3.48,2.93
10.7520,0.07,0.12,-0.99,3.05,3.23,2.93
10.7580,0.07,0.12,-0.99,2.69,3.60,3.05
10.7830,0.07,0.12,-0.99,2.93,3.48,3.97
10.7910,0.07,0.12,-0.99,2.99,3.36,4.76
10.8140,0.07,0.12,-0.99,2.75,3.54,4.64
10.8240,0.08,0.12,-0.99,3.11,3.48,3.36
10.8410,0.07,0.12,-0.99,3.23,4.09,2.81
10.8570,0.07,0.13,-0.99,3.17,3.66,3.36
10.8740,0.07,0.13,-0.99,3.05,3.17,4.03
10.8910,0.07,0.12,-0.99,2.69,3.60,4.70
10.9070,0.08,0.12,-0.99,3.23,3.30,4.39
10.9240,0.07,0.11,-1.00,3.30,3.23,3.17
10.9400,0.07,0.12,-0.99,2.75,3.42,3.17
10.9560,0.07,0.12,-0.99,2.32,3.72,3.42
10.9730,0.07,0.12,-0.99,2.93,3.85,3.54
10.9740,0.07,0.12,-0.99,2.99,3.30,2.62
11.0030,0.07,0.12,-0.99,3.17,3.60,2.56
11.0200,0.07,0.12,-0.99,3.36,3.60,2.75
11.0360,0.07,0.12,-1.00,3.30,3.54,2.62
11.0410,0.07,0.12,-0.99,3.05,3.66,2.32
11.0680,0.07,0.12,-0.99,3.48,3.30,2.56
11.0740,0.07,0.13,-0.99,3.23,3.60,2.87
11.0910,0.08,0.13,-0.99,3.30,3.60,3.17
11.1130,0.07,0.12,-0.99,3.60,3.42,2.87
11.1250,0.06,0.12,-1.00,4.88,3.23,1.95
11.1410,0.07,0.11,-0.99,3.42,3.48,3.91
11.1580,0.07,0.11,-1.00,3.11,3.23,3.60
11.1730,0.07,0.11,-0.99,2.69,3.66,3.97
11.1900,0.07,0.12,-0.99,2.93,3.66,2.87
11.2060,0.07,0.13,-0.99,3.48,3.60,2.44
11.2210,0.07,0.13,-0.99,4.09,3.48,2.99
11.2370,0.07,0.13,-0.99,3.66,3.54,3.85
11.2530,0.07,0.12,-1.00,3.36,2.99,4.88
11.2680,0.07,0.12,-0.99,2.62,3.60,4.76
11.2830,0.07,0.12,-0.99,2.93,3.54,4.09
11.2990,0.08,0.12,-0.99,2.75,3.48,3.42
11.3080,0.08,0.12,-0.99,2.99,3.66,3.17
11.3240,0.07,0.12,-1.00,3.48,3.54,2.93
11.3400,0.07,0.12,-1.00,3.11,3.54,3.17
11.3610,0.07,0.13,-0.99,2.93,3.60,3.60
11.3750,0.07,0.13,-0.99,3.17,3.11,3.30
11.3920,0.07,0.12,-0.99,3.23,3.60,3.48
11.4070,0.07,0.12,-0.99,3.48,3.66,2.93
11.4210,0.07,0.12,-0.99,3.48,3.66,3.05
11.4370,0.07,0.13,-0.99,3.36,3.36,3.85
11.4460,0.07,0.13,-0.99,3.17,3.23,4.58
11.4620,0.07,0.12,-0.99,3.17,2.75,5.55
11.4790,0.07,0.12,-0.99,2.99,3.36,5.49
11.4960,0.07,0.12,-0.99,2.99,3.17,5.43
11.5120,0.08,0.11,-0.99,3.17,3.30,5.07
11.5280,0.07,0.12,-1.00,3.78,3.30,2.62
11.5470,0.07,0.13,-0.99,3.36,3.72,2.26
11.5620,0.07,0.12,-0.99,3.36,3.54,3.23
11.5790,0.07,0.12,-0.99,2.93,3.36,4.09
11.5950,0.07,0.12,-0.99,2.87,3.30,3.97
11.6110,0.07,0.12,-0.99,3.23,3.11,4.15
11.6270,0.07,0.12,-0.99,3.48,3.48,4.03
11.6300,0.07,0.12,-0.99,3.17,3.05,3.30
11.6590,0.07,0.12,-1.00,3.60,3.30,3.05
11.6750,0.07,0.13,-0.99,3.30,3.30,2.93
11.6920,0.07,0.13,-0.99,3.54,3.66,3.78
11.7080,0.07,0.11,-0.99,3.60,3.23,3.72
11.7130,0.07,0.11,-0.99,3.30,3.36,3.48
11.7390,0.07,0.12,-0.99,3.23,3.48,2.99
11.7550,0.07,0.13,-0.99,3.17,3.54,3.30
11.7700,0.07,0.13,-0.99,2.99,3.54,3.78
11.7790,0.07,0.14,-0.99,2.99,3.48,4.39
11.7960,0.07,0.13,-0.99,3.54,3.23,4.76
11.8120,0.07,0.12,-0.99,3.48,3.66,3.85
11.8280,0.08,0.12,-0.99,3.36,3.54,2.93
11.8460,0.07,0.12,-1.00,3.54,3.60,3.05
11.8480,0.07,0.12,-0.99,3.48,3.85,3.11
11.8640,0.07,0.12,-0.99,3.05,3.66,3.30
11.8820,0.07,0.12,-1.00,3.48,3.66,2.75
11.9010,0.07,0.13,-0.99,3.23,3.42,2.69
11.9260,0.07,0.12,-0.99,3.36,3.36,2.87
11.9430,0.07,0.12,-0.99,3.17,3.48,3.42
11.9480,0.07,0.12,-0.99,3.54,3.30,2.69
11.9630,0.07,0.12,-0.99,3.23,3.60,2.69
11.9790,0.07,0.16,-0.99,3.72,3.42,2.38
12.0030,0.07,0.12,-0.99,3.85,3.23,2.08
12.0190,0.07,0.13,-0.99,3.42,3.42,2.32
12.0350,0.07,0.12,-1.00,3.30,3.30,2.99
12.0530,0.07,0.12,-1.00,2.81,3.60,2.87
12.0530,0.07,0.13,-0.99,2.62,3.72,3.36
12.0840,0.07,0.13,-0.99,2.62,3.23,4.39
12.0860,0.07,0.11,-1.00,3.23,3.54,4.46
12.1160,0.07,0.11,-1.00,3.30,3.36,2.99
12.1190,0.07,0.13,-0.99,3.05,3.42,3.48
12.1350,0.07,0.13,-0.99,2.99,3.05,4.52
12.1630,0.07,0.13,-0.99,2.38,3.36,4.94
12.1790,0.07,0.13,-0.99,2.38,2.87,5.74
12.1900,0.08,0.12,-0.99,2.01,3.30,7.20
12.2080,0.08,0.10,-0.99,3.05,2.93,5.55
12.2230,0.07,0.10,-1.00,4.09,3.66,2.26
12.2390,0.07,0.12,-0.99,3.97,3.72,1.28
12.2540,0.07,0.13,-0.99,3.97,3.60,1.16
12.2700,0.07,0.13,-0.99,2.99,3.72,1.77
12.2870,0.07,0.13,-0.99,2.62,3.60,2.87
12.3020,0.07,0.12,-0.99,2.38,3.66,4.52
12.3060,0.07,0.11,-1.00,2.38,3.66,4.52
12.3230,0.08,0.12,-0.99,2.81,3.66,3.54
12.3470,0.07,0.13,-1.00,3.85,3.54,1.89
12.3620,0.07,0.13,-0.99,3.36,3.60,1.89
12.3730,0.07,0.12,-0.99,3.11,3.60,2.93
12.3890,0.07,0.12,-0.99,2.93,3.11,3.54
12.4080,0.07,0.12,-1.00,3.17,3.05,4.03
12.4110,0.07,0.12,-0.99,2.32,3.60,4.27
12.4390,0.07,0.12,-0.99,2.08,3.36,4.21
12.4540,0.07,0.13,-0.99,2.69,3.72,4.27
12.4710,0.07,0.12,-0.99,3.60,2.99,4.27
12.4780,0.07,0.13,-0.99,3.54,3.23,4.09
12.4940,0.07,0.12,-0.99,4.09,3.48,3.66
12.5100,0.07,0.12,-0.99,3.72,3.11,3.36
12.5320,0.07,0.12,-1.00,3.66,3.42,3.54
12.5480,0.07,0.12,-0.99,3.30,3.48,3.66
12.5500,0.07,0.13,-0.99,2.69,3.66,3.17
12.5650,0.07,0.13,-0.99,2.56,3.42,3.60
12.5820,0.07,0.13,-0.99,3.23,3.60,3.72
12.6020,0.07,0.12,-0.99,3.05,3.66,3.97
12.6150,0.07,0.13,-0.99,3.36,3.17,3.72
12.6320,0.07,0.12,-0.99,3.97,3.23,3.85
12.6580,0.07,0.13,-0.99,3.85,3.48,3.17
12.6730,0.07,0.12,-0.99,3.54,3.11,4.76
12.6810,0.07,0.11,-1.00,2.99,3.42,5.31
12.7020,0.07,0.11,-1.00,2.56,3.36,4.88
12.7150,0.08,0.12,-0.99,2.50,3.54,4.46
12.7320,0.07,0.12,-1.00,3.60,3.36,3.36
12.7480,0.07,0.13,-0.99,3.42,3.72,3.30
12.7660,0.07,0.13,-0.99,3.05,3.17,4.33
12.7680,0.07,0.13,-1.00,2.62,2.99,5.37
12.7980,0.07,0.12,-0.99,2.32,3.05,6.10
12.8020,0.07,0.12,-0.99,2.56,3.11,5.49
12.8290,0.08,0.11,-0.99,2.93,3.05,5.00
12.8350,0.07,0.11,-1.00,3.54,3.23,3.54
12.8510,0.07,0.11,-0.99,3.30,3.36,2.62
12.8730,0.07,0.12,-1.00,3.11,3.66,2.81
12.8890,0.07,0.12,-0.99,3.05,3.48,3.05
12.9050,0.07,0.13,-0.99,3.23,3.48,3.30
12.9210,0.07,0.13,-0.99,3.17,3.66,2.99
12.9360,0.07,0.12,-0.99,3.36,3.78,2.62
12.9400,0.07,0.12,-1.00,3.30,3.66,2.14
12.9680,0.07,0.12,-0.99,2.99,3.48,3.23
12.9830,0.07,0.12,-0.99,2.93,3.30,3.78
12.9990,0.07,0.12,-0.99,3.17,3.11,4.15
13.0140,0.07,0.13,-0.99,3.23,2.93,3.91
13.0230,0.07,0.12,-0.99,2.87,3.60,4.52
13.0400,0.07,0.12,-0.99,3.11,3.42,4.15
13.0560,0.07,0.12,-0.99,3.42,3.36,3.91
13.0730,0.07,0.12,-0.99,3.23,3.54,3.36
13.0890,0.07,0.13,-0.99,3.42,3.11,3.54
13.1040,0.07,0.12,-0.99,3.36,3.11,4.09
13.1190,0.07,0.12,-0.99,3.17,3.17,4.15
13.1350,0.07,0.12,-0.99,3.17,3.17,3.60
13.1510,0.07,0.12,-0.99,2.81,3.17,3.30
13.1670,0.07,0.12,-0.99,2.81,3.42,3.42
13.1820,0.07,0.12,-0.99,3.54,3.54,2.93
13.1890,0.07,0.12,-0.99,3.78,3.54,2.14
13.2040,0.07,0.12,-0.99,3.42,3.66,1.95
13.2250,0.07,0.13,-0.99,3.36,3.66,2.69
13.2420,0.07,0.12,-0.99,3.17,3.30,3.66
13.2570,0.07,0.12,-0.99,2.75,3.36,3.66
13.2730,0.07,0.12,-0.99,3.11,3.11,3.78
13.2890,0.07,0.12,-0.99,3.17,3.05,3.42
13.3030,0.07,0.12,-0.99,3.66,3.30,2.93
13.3070,0.07,0.13,-0.99,4.15,3.36,2.32
13.3290,0.07,0.13,-0.99,3.85,3.72,2.69
13.3460,0.07,0.12,-0.99,3.30,3.17,3.11
13.3620,0.07,0.12,-0.99,3.42,2.99,3.05
13.3800,0.07,0.11,-0.99,3.05,3.23,3.42
13.3950,0.07,0.12,-0.99,2.99,3.42,3.54
13.4130,0.07,0.13,-0.99,3.17,3.48,3.85
13.4280,0.07,0.13,-0.99,3.91,3.36,2.93
13.4290,0.07,0.12,-0.99,4.03,3.30,2.44
13.4580,0.07,0.12,-0.99,3.85,3.48,2.56
13.4620,0.07,0.12,-0.99,3.78,3.54,2.26
13.4880,0.07,0.12,-1.00,3.66,3.36,1.95
13.5030,0.07,0.12,-0.99,3.54,3.48,2.38
13.5120,0.07,0.13,-0.99,3.42,3.66,2.81
13.5290,0.07,0.13,-0.99,2.99,3.60,3.05
13.5450,0.07,0.12,-0.99,3.30,3.54,3.66
13.5630,0.07,0.11,-1.00,2.69,3.42,3.60
13.5780,0.07,0.12,-0.99,2.50,3.54,3.48
13.5800,0.07,0.12,-0.99,2.99,3.60,3.30
13.6030,0.07,0.11,-0.99,3.42,3.60,2.75
13.6120,0.07,0.13,-0.99,3.30,3.36,2.14
13.6380,0.07,0.13,-0.99,3.48,3.36,2.14
13.6450,0.07,0.12,-0.99,3.36,3.30,2.44
13.6620,0.07,0.12,-0.99,3.11,3.60,2.50
13.6780,0.07,0.13,-0.99,3.05,3.30,2.44
13.6990,0.07,0.13,-0.99,2.93,3.72,3.23
13.7140,0.07,0.12,-0.99,3.30,3.30,3.05
13.7170,0.07,0.12,-0.99,3.54,3.42,2.87
13.7330,0.07,0.12,-0.99,3.30,3.42,2.62
13.7600,0.07,0.12,-0.99,3.48,3.11,2.38
13.7760,0.07,0.12,-0.99,3.23,3.42,2.62
13.7920,0.07,0.12,-0.99,2.75,3.36,3.11
13.8040,0.07,0.12,-0.99,2.93,3.48,2.87
13.8180,0.07,0.13,-0.99,2.81,3.48,2.69
13.8360,0.07,0.13,-0.99,2.81,3.66,3.30
13.8520,0.07,0.13,-0.99,3.30,3.42,4.09
13.8690,0.07,0.13,-0.99,3.42,2.93,3.66
13.8840,0.07,0.12,-0.99,3.36,2.99,3.78
13.8850,0.07,0.12,-0.99,3.97,3.60,3.66
13.9150,0.07,0.12,-1.00,3.85,3.54,3.17
13.9300,0.07,0.11,-1.00,3.42,3.48,2.75
13.9450,0.07,0.12,-0.99,2.99,3.54,3.05
13.9510,0.07,0.12,-0.99,2.62,3.48,3.17
13.9760,0.07,0.12,-0.99,2.87,3.23,3.78
13.9840,0.07,0.12,-0.99,2.93,3.30,4.15
14.0040,0.08,0.12,-0.99,2.99,3.23,3.78
14.0180,0.07,0.12,-0.99,3.05,3.66,2.99
14.0360,0.07,0.11,-0.99,3.17,3.30,2.99
14.0510,0.07,0.12,-0.99,3.05,3.72,2.56
14.0510,0.08,0.11,-0.99,3.23,3.66,2.62
14.0690,0.07,0.12,-0.99,3.85,3.60,1.53
14.0980,0.07,0.13,-0.99,3.85,3.66,1.83
14.1040,0.07,0.13,-0.99,3.48,3.48,2.44
14.1290,0.07,0.13,-0.99,3.17,3.23,3.42
14.1440,0.07,0.12,-0.99,2.62,3.23,4.03
14.1520,0.07,0.12,-0.99,2.50,3.54,4.70
14.1690,0.07,0.12,-0.99,2.50,3.54,4.52
14.1860,0.07,0.12,-1.00,3.17,3.17,3.78
14.2040,0.07,0.12,-0.99,3.05,3.30,3.17
14.2190,0.07,0.13,-0.99,3.42,3.36,3.48
14.2350,0.08,0.13,-0.99,3.23,3.48,4.09
14.2520,0.07,0.13,-0.99,2.93,3.36,4.64
14.2680,0.07,0.12,-0.99,3.05,3.42,4.64
14.2850,0.07,0.12,-0.99,3.23,3.60,4.27
14.3000,0.07,0.12,-0.99,3.66,3.30,3.23
14.3040,0.07,0.12,-1.00,3.23,3.60,3.30
14.3310,0.07,0.12,-1.00,3.23,3.30,3.54
14.3470,0.07,0.12,-0.99,3.11,3.17,3.78
14.3620,0.07,0.12,-0.99,2.93,3.30,3.91
14.3680,0.07,0.12,-0.99,2.87,3.17,3.85
14.3850,0.07,0.12,-0.99,3.05,3.54,3.17
14.4070,0.07,0.12,-0.99,3.30,3.72,2.38
14.4230,0.07,0.12,-0.99,3.42,3.48,1.95
14.4380,0.07,0.12,-0.99,3.23,3.23,2.56
14.4540,0.07,0.12,-0.99,3.11,3.30,2.81
14.4700,0.07,0.13,-0.99,2.99,3.54,3.11
14.4850,0.07,0.13,-0.99,3.30,3.42,3.85
14.4900,0.07,0.12,-0.99,3.11,3.48,3.60
14.5140,0.07,0.12,-0.99,3.23,3.23,3.72
14.5240,0.07,0.11,-0.99,3.30,3.36,2.81
14.5460,0.07,0.12,-0.99,3.48,3.66,2.38
14.5570,0.07,0.14,-0.99,2.93,3.66,2.75
14.5740,0.07,0.12,-1.00,3.23,3.54,3.85
14.5900,0.07,0.12,-0.99,3.11,3.66,2.81
14.6070,0.07,0.11,-0.99,3.60,3.66,2.75
14.6230,0.07,0.11,-0.99,3.36,3.85,2.01
14.6400,0.07,0.12,-0.99,3.30,3.78,2.01
14.6560,0.07,0.13,-0.99,3.11,3.78,2.32
14.6720,0.07,0.13,-0.99,3.11,3.66,2.44
14.6740,0.07,0.13,-0.99,3.11,3.11,3.11
14.7030,0.08,0.12,-0.99,3.23,3.23,3.23
14.7180,0.07,0.12,-0.99,3.42,3.17,2.26
14.7350,0.07,0.12,-0.99,3.11,3.60,2.01
14.7490,0.07,0.13,-0.99,3.30,3.48,2.44
14.7660,0.07,0.13,-0.99,2.99,3.54,2.32
14.7820,0.07,0.13,-0.99,3.17,3.78,2.50
14.7970,0.07,0.12,-0.99,3.30,3.85,3.36
14.8130,0.07,0.12,-0.99,3.11,3.78,2.99
14.8230,0.07,0.12,-0.99,2.99,3.60,3.05
14.8390,0.07,0.12,-0.99,3.66,3.48,2.69
14.8560,0.07,0.12,-0.99,3.54,3.42,2.62
14.8730,0.07,0.12,-0.99,3.11,3.54,2.32
14.8890,0.07,0.12,-0.99,3.23,3.66,2.20
14.9040,0.07,0.12,-0.99,2.99,3.78,2.69
14.9190,0.07,0.12,-0.99,2.99,3.42,2.93
14.9350,0.07,0.12,-0.99,2.99,3.78,2.93
14.9510,0.07,0.12,-0.99,3.36,3.42,2.75
14.9660,0.07,0.12,-0.99,3.05,3.72,2.81
14.9820,0.07,0.12,-0.99,3.48,3.60,2.99
14.9900,0.07,0.12,-0.99,3.17,3.78,2.38
15.0050,0.07,0.12,-0.99,3.17,3.30,2.32
15.0270,0.07,0.13,-0.99,3.05,3.36,2.62
15.0430,0.08,0.13,-0.99,3.11,3.42,2.69
15.0590,0.07,0.12,-1.00,3.36,3.48,3.30
15.0740,0.07,0.12,-0.99,2.93,3.72,3.11
15.0770,0.07,0.12,-0.99,2.81,4.03,3.11
15.1050,0.07,0.12,-1.00,3.36,3.78,2.87
15.1220,0.07,0.13,-0.99,2.93,3.72,2.69
15.1310,0.08,0.13,-0.99,3.36,3.23,2.56
15.1480,0.07,0.13,-0.99,3.91,3.42,2.38
15.1640,0.08,0.15,-0.99,3.66,3.66,2.50
15.1810,0.07,0.11,-1.00,2.99,3.11,3.97
15.1980,0.07,0.12,-1.00,2.75,4.15,4.09
15.2130,0.08,0.11,-0.99,3.17,3.17,4.27
15.2140,0.07,0.11,-1.00,3.54,3.23,2.81
15.2440,0.07,0.12,-0.99,3.36,3.60,2.56
15.2480,0.07,0.12,-1.00,3.42,3.66,2.14
15.2750,0.07,0.12,-0.99,3.36,3.60,2.44
15.2820,0.07,0.13,-0.99,2.99,3.54,2.50
15.3050,0.07,0.13,-0.99,2.69,3.48,3.17
15.3200,0.07,0.13,-0.99,2.81,3.36,3.78
15.3360,0.08,0.13,-0.99,3.05,3.66,3.72
15.3520,0.07,0.12,-0.99,3.36,3.36,2.93
15.3680,0.07,0.12,-0.99,3.54,3.48,2.20
15.3840,0.07,0.12,-0.99,3.36,3.72,2.20
15.4010,0.07,0.12,-0.99,3.42,3.36,2.08
15.4160,0.07,0.13,-0.99,3.17,3.54,2.32
15.4320,0.08,0.13,-0.99,3.05,3.72,2.56
15.4380,0.08,0.13,-0.99,3.17,3.85,2.62
15.4570,0.07,0.13,-0.99,2.99,3.91,2.69
15.4710,0.07,0.11,-0.99,3.17,3.30,3.36
15.4870,0.07,0.12,-0.99,2.99,3.54,2.99
15.5090,0.08,0.13,-0.99,3.30,3.54,3.17
15.5240,0.07,0.13,-0.99,3.48,3.17,2.93
15.5410,0.07,0.13,-0.99,3.54,3.54,3.05
15.5570,0.07,0.13,-0.99,3.42,3.72,3.11
15.5730,0.07,0.13,-0.99,3.30,3.36,3.48
15.5880,0.07,0.12,-0.99,3.17,3.48,4.09
15.5920,0.08,0.12,-0.99,2.75,3.23,4.33
15.6080,0.07,0.11,-1.00,3.36,3.42,3.91
15.6310,0.07,0.10,-1.00,3.17,3.78,2.50
15.6480,0.07,0.12,-0.99,2.99,3.91,1.83
15.6490,0.07,0.12,-0.99,3.36,3.48,1.77
15.6650,0.07,0.12,-0.99,3.17,3.54,1.83
15.6960,0.07,0.13,-0.99,2.99,3.05,2.08
15.7050,0.07,0.13,-0.99,2.93,3.60,2.87
15.7140,0.07,0.13,-0.99,2.93,3.36,3.72
15.7440,0.07,0.13,-0.99,3.17,3.42,3.60
15.7530,0.07,0.12,-0.99,3.30,3.36,3.05
15.7690,0.07,0.13,-0.99,3.23,3.66,3.11
15.7860,0.07,0.13,-0.99,3.36,3.60,2.99
15.8020,0.07,0.12,-1.00,3.42,3.17,3.91
15.8200,0.07,0.11,-0.99,2.69,3.42,4.21
15.8370,0.07,0.12,-0.99,2.93,3.23,4.09
15.8370,0.07,0.12,-0.99,3.42,3.78,3.30
15.8680,0.07,0.12,-1.00,3.36,3.54,3.36
15.8840,0.07,0.13,-0.99,2.81,3.54,3.66
15.9000,0.07,0.12,-1.00,3.42,2.93,3.97
15.9160,0.07,0.11,-1.00,2.69,3.36,3.85
15.9320,0.07,0.11,-0.99,3.17,3.42,3.11
15.9470,0.07,0.12,-0.99,3.23,3.48,2.44
15.9630,0.07,0.12,-0.99,3.17,3.72,2.44
15.9770,0.07,0.12,-0.99,3.17,3.30,2.62
15.9870,0.07,0.13,-0.99,3.17,3.54,2.75
16.0050,0.07,0.12,-0.99,2.81,3.54,3.66
16.0230,0.07,0.12,-0.99,2.50,3.30,3.97
16.0400,0.07,0.12,-0.99,3.23,3.30,3.36
16.0560,0.07,0.12,-0.99,3.42,3.54,2.75
16.0720,0.07,0.12,-0.99,3.54,3.23,2.20
16.0870,0.07,0.12,-0.99,3.36,3.17,2.26
16.1010,0.07,0.12,-0.99,3.42,3.23,2.38
16.1070,0.07,0.12,-0.99,3.23,3.48,2.62
16.1230,0.07,0.13,-0.99,3.42,3.78,2.38
16.1450,0.07,0.12,-0.99,3.30,3.54,2.56
16.1620,0.07,0.13,-0.99,3.54,3.48,2.38
16.1800,0.07,0.13,-0.99,3.17,3.54,3.36
16.1950,0.07,0.13,-0.99,3.05,3.30,4.15
16.2120,0.07,0.12,-1.00,2.75,3.66,4.52
16.2270,0.07,0.11,-0.99,2.56,3.66,4.15
16.2290,0.08,0.11,-0.99,2.93,3.48,3.60
16.2450,0.07,0.12,-0.99,3.23,3.66,2.81
16.2620,0.07,0.12,-0.99,3.42,3.42,2.62
16.2780,0.07,0.12,-0.99,3.23,3.42,2.08
16.3060,0.07,0.12,-0.99,3.23,3.72,2.50
16.3160,0.07,0.13,-0.99,2.93,3.36,2.62
16.3320,0.07,0.13,-1.00,3.30,3.42,3.30
16.3510,0.07,0.12,-0.99,3.36,3.11,3.48
16.3660,0.08,0.11,-0.99,3.30,3.23,3.72
16.3820,0.07,0.11,-0.99,3.36,3.17,2.62
16.3990,0.07,0.12,-0.99,3.05,3.23,2.50
16.4160,0.07,0.13,-0.99,2.81,3.48,2.81
16.4320,0.07,0.13,-0.99,3.11,3.30,2.93
16.4490,0.07,0.12,-0.99,3.54,3.66,3.11
16.4660,0.07,0.13,-1.00,3.23,3.48,3.05
16.4820,0.07,0.13,-0.99,2.93,3.42,2.99
16.4830,0.07,0.14,-1.00,1.83,3.72,3.85
16.5060,0.07,0.12,-0.99,1.53,3.42,4.94
16.5170,0.07,0.10,-0.99,2.87,3.78,3.54
16.5440,0.07,0.09,-0.99,4.33,3.72,1.89
16.5610,0.07,0.11,-1.00,5.00,3.42,1.34
16.5770,0.07,0.12,-1.00,3.78,3.36,2.26
16.5930,0.07,0.12,-0.99,3.05,3.42,2.26
16.6070,0.07,0.12,-0.99,2.69,3.48,2.38
16.6160,0.07,0.12,-0.99,2.93,3.42,3.30
16.6330,0.08,0.12,-0.99,3.30,3.85,2.56
16.6510,0.07,0.12,-0.99,3.60,3.54,1.83
16.6670,0.07,0.12,-0.99,3.36,3.97,1.89
16.6840,0.07,0.15,-0.99,3.30,3.72,1.83
16.7000,0.07,0.13,-0.99,3.23,3.78,2.01
16.7160,0.07,0.12,-0.99,3.23,3.66,2.44
16.7170,0.07,0.11,-1.00,3.85,3.72,2.20
16.7480,0.07,0.12,-0.99,3.42,3.17,2.08
16.7640,0.07,0.12,-0.99,3.36,3.42,2.20
16.7800,0.07,0.12,-0.99,3.42,3.23,2.01
16.7960,0.07,0.12,-0.99,3.05,3.97,2.20
16.8110,0.07,0.12,-0.99,3.23,3.48,2.56
16.8160,0.07,0.12,-0.99,3.23,3.48,2.50
16.8320,0.07,0.11,-0.99,3.66,3.42,2.14
16.8530,0.07,0.12,-0.99,3.97,3.60,2.01
16.8700,0.07,0.12,-0.99,3.72,3.48,1.77
16.8870,0.07,0.12,-0.99,3.97,3.66,2.01
16.9030,0.07,0.12,-0.99,3.78,3.30,2.01
16.9190,0.07,0.12,-0.99,3.36,3.23,2.01
16.9350,0.07,0.12,-0.99,2.93,3.60,2.14
16.9510,0.07,0.12,-0.99,2.81,3.85,2.14
16.9660,0.07,0.12,-0.99,2.93,3.72,2.01
16.9820,0.07,0.12,-0.99,3.48,3.30,2.01
16.9980,0.07,0.12,-0.99,3.85,3.36,1.65
17.0140,0.07,0.12,-1.00,3.97,3.36,1.46
17.0300,0.07,0.12,-0.99,3.48,3.60,1.59
17.0460,0.07,0.12,-0.99,3.23,3.30,2.01
17.0610,0.07,0.12,-0.99,3.17,3.48,2.14
17.0700,0.07,0.12,-0.99,3.48,3.60,2.44
17.0870,0.07,0.12,-0.99,3.30,3.36,2.14
17.1070,0.07,0.13,-0.99,3.42,3.54,1.95
17.1210,0.07,0.13,-0.99,3.36,3.66,1.34
17.1360,0.07,0.13,-0.99,3.23,3.60,1.40
17.1500,0.07,0.12,-0.99,3.48,3.66,1.83
17.1660,0.07,0.11,-0.99,3.85,3.97,2.08
17.1820,0.07,0.12,-0.99,3.97,3.60,2.01
17.1990,0.07,0.12,-0.99,3.85,3.23,2.01
17.2150,0.07,0.12,-0.99,3.42,3.66,2.08
17.2320,0.07,0.12,-0.99,3.54,3.48,2.14
17.2480,0.07,0.12,-0.99,3.36,3.42,1.95
17.2640,0.07,0.12,-0.99,3.11,3.42,2.01
17.2670,0.07,0.12,-0.99,3.48,3.54,2.01
17.2830,0.07,0.12,-0.99,3.54,3.54,2.08
17.3110,0.07,0.12,-0.99,3.54,3.66,2.08
17.3160,0.07,0.13,-0.99,3.36,3.30,2.08
17.3310,0.07,0.12,-0.99,3.17,3.78,2.01
17.3530,0.07,0.12,-0.99,3.17,3.48,1.95
17.3700,0.07,0.12,-0.99,3.36,3.54,2.14
17.3860,0.07,0.12,-0.99,3.42,3.54,1.89
17.4020,0.07,0.12,-0.99,3.36,3.85,1.95
17.4180,0.07,0.12,-0.99,2.87,3.78,1.89
17.4340,0.07,0.12,-0.99,3.17,3.60,1.95
17.4490,0.07,0.12,-0.99,3.30,3.66,1.95
17.4650,0.07,0.13,-0.99,3.42,3.85,1.95
17.4810,0.07,0.12,-0.99,2.87,3.48,2.08
17.4960,0.07,0.12,-0.99,2.75,3.48,2.14
17.5080,0.07,0.12,-0.99,3.17,3.42,2.08
17.5200,0.07,0.12,-0.99,3.05,3.48,2.08
17.5430,0.07,0.12,-0.99,2.99,3.30,2.08
17.5590,0.07,0.12,-0.99,2.75,3.48,2.14
17.5740,0.08,0.13,-0.99,3.17,3.48,2.08
17.5900,0.07,0.13,-0.99,3.66,3.30,1.89
17.6050,0.07,0.12,-1.00,3.48,3.23,2.62
17.6200,0.07,0.12,-0.99,2.99,3.60,2.20
17.6250,0.07,0.13,-0.99,2.93,3.85,2.56
17.6410,0.07,0.13,-0.99,2.93,3.60,3.30
17.6640,0.07,0.13,-0.99,2.69,3.78,3.85
17.6810,0.07,0.12,-0.99,2.81,3.30,3.97
17.6970,0.07,0.12,-0.99,3.05,3.11,4.21
17.7130,0.07,0.12,-0.99,3.66,3.11,3.72
17.7290,0.07,0.12,-0.99,3.30,3.42,2.93
17.7430,0.07,0.12,-0.99,3.66,3.11,2.69
17.7480,0.07,0.13,-0.99,3.36,3.54,2.99
17.7650,0.07,0.13,-0.99,2.99,3.17,3.48
17.7910,0.07,0.13,-0.99,3.11,3.36,3.85
17.7990,0.08,0.12,-0.99,2.81,3.17,4.03
17.8150,0.07,0.11,-0.99,3.23,3.42,3.17
17.8360,0.07,0.11,-0.99,3.36,3.42,2.26
17.8520,0.07,0.12,-0.99,3.97,3.05,1.71
17.8690,0.07,0.12,-0.99,3.36,3.42,2.08
17.8850,0.07,0.12,-0.99,3.36,3.72,2.14
17.9010,0.07,0.12,-0.99,2.93,3.91,2.14
17.9170,0.08,0.13,-0.99,2.75,3.48,2.32
17.9320,0.07,0.14,-0.99,3.05,3.97,1.89
17.9350,0.07,0.13,-0.99,3.54,3.48,2.93
17.9510,0.08,0.15,-0.98,2.87,3.11,3.60
17.9740,0.07,0.11,-1.00,3.36,3.42,4.64
17.9920,0.07,0.11,-0.99,2.01,3.23,5.13
18.0080,0.07,0.11,-0.99,2.62,3.48,4.39
18.0250,0.07,0.10,-1.00,3.60,3.17,2.69
18.0410,0.07,0.12,-0.99,2.87,3.66,2.08
18.0580,0.07,0.12,-0.99,3.23,3.91,1.95
18.0740,0.07,0.13,-0.99,3.36,3.42,2.62
18.0900,0.07,0.12,-0.99,3.23,3.17,3.17
18.1060,0.07,0.12,-0.99,3.17,3.17,3.17
18.1210,0.07,0.12,-0.99,2.99,3.78,3.05
18.1360,0.07,0.12,-0.99,3.05,3.17,3.17
18.1520,0.07,0.12,-0.99,2.99,3.54,3.11
18.1670,0.07,0.13,-0.99,2.62,3.48,2.93
18.1750,0.07,0.12,-0.99,2.99,3.48,2.32
18.1910,0.07,0.12,-0.99,3.72,3.30,2.44
18.2150,0.07,0.12,-0.99,3.85,3.60,2.14
18.2300,0.07,0.12,-0.99,3.30,3.72,2.62
18.2410,0.07,0.12,-1.00,3.17,3.42,3.30
18.2580,0.07,0.13,-0.99,2.81,3.48,3.85
18.2750,0.07,0.13,-0.99,2.26,3.42,4.64
18.2910,0.08,0.12,-0.99,2.81,3.60,4.58
18.3080,0.07,0.11,-0.99,3.17,3.30,3.97
18.3080,0.07,0.11,-0.99,3.23,3.17,3.78
18.3380,0.07,0.12,-0.99,4.39,3.05,3.05
18.3420,0.07,0.11,-1.00,3.66,3.48,3.23
18.3690,0.07,0.12,-0.99,2.99,3.91,2.99
18.3850,0.07,0.13,-0.99,2.81,3.85,3.23
18.4010,0.07,0.13,-0.99,2.81,3.42,4.03
18.4170,0.08,0.14,-0.99,2.62,3.54,4.39
18.4250,0.07,0.12,-1.00,3.78,3.36,3.72
18.4490,0.07,0.12,-0.99,3.11,3.60,3.72
18.4640,0.07,0.12,-1.00,3.91,3.11,3.72
18.4740,0.07,0.11,-1.00,3.05,3.23,4.09
18.4910,0.07,0.11,-0.99,2.38,3.42,3.72
18.5120,0.07,0.11,-0.99,2.93,3.54,3.11
18.5280,0.07,0.12,-0.99,3.60,3.17,2.38
18.5440,0.07,0.12,-0.99,3.60,3.48,2.14
18.5460,0.07,0.13,-1.00,3.23,3.54,2.20
18.5750,0.07,0.13,-0.99,2.14,3.66,3.30
18.5910,0.08,0.12,-0.98,2.01,3.78,4.39
18.5980,0.07,0.10,-1.00,5.13,3.42,2.99
18.6150,0.07,0.11,-0.99,4.03,3.85,2.20
18.6310,0.07,0.12,-0.99,5.55,3.48,2.08
18.6530,0.07,0.13,-1.00,4.15,3.36,2.01
18.6690,0.07,0.12,-0.99,3.42,3.72,2.01
18.6850,0.07,0.12,-0.99,2.81,3.91,2.14
18.7010,0.07,0.12,-0.99,2.50,3.72,2.14
18.7090,0.07,0.12,-0.99,2.14,3.78,2.14
18.7190,0.07,0.12,-0.99,3.91,3.11,2.26
18.7480,0.07,0.13,-1.00,4.64,3.11,2.26
18.7630,0.07,0.13,-1.00,3.48,3.36,2.14
18.7750,0.07,0.12,-0.99,3.11,3.54,2.20
18.7920,0.07,0.12,-0.99,2.56,3.72,2.08
18.8090,0.07,0.12,-0.99,2.93,3.85,2.26
18.8250,0.07,0.12,-0.99,3.78,3.54,2.14
18.8400,0.07,0.12,-0.99,3.91,3.54,2.20
18.8550,0.07,0.12,-0.99,3.78,3.54,2.14
18.8710,0.07,0.12,-0.99,3.60,3.78,2.01
18.8750,0.07,0.12,-0.99,3.60,3.48,2.01
18.8910,0.07,0.12,-0.99,3.54,3.85,2.20
18.9110,0.07,0.12,-0.99,3.78,3.66,1.95
18.9280,0.07,0.12,-0.99,3.42,3.91,2.01
18.9430,0.07,0.12,-0.99,3.36,3.36,2.08
18.9630,0.07,0.12,-0.99,3.23,3.60,2.01
18.9790,0.07,0.12,-0.99,2.99,3.97,1.95
18.9960,0.08,0.12,-0.99,3.60,3.66,1.95
19.0120,0.07,0.12,-0.99,3.42,3.66,1.59
19.0290,0.07,0.12,-0.99,3.30,3.42,1.83
19.0310,0.07,0.12,-0.99,3.11,3.66,2.01
19.0460,0.07,0.12,-0.99,3.30,3.91,2.20
19.0640,0.07,0.13,-0.99,3.48,3.66,2.01
19.0800,0.07,0.12,-0.99,3.54,3.36,2.01
19.1010,0.07,0.12,-0.99,3.48,3.36,1.95
19.1170,0.07,0.12,-0.99,3.42,3.66,2.14
19.1340,0.07,0.12,-0.99,3.42,3.54,2.08
19.1500,0.07,0.12,-0.99,3.60,3.36,2.20
19.1690,0.07,0.12,-0.99,4.27,3.23,2.26
19.1850,0.07,0.12,-0.99,4.21,3.05,1.83
19.1860,0.07,0.12,-0.99,4.33,3.36,2.08
19.2170,0.07,0.13,-0.99,4.03,3.48,2.01
19.2320,0.07,0.12,-0.99,3.91,3.66,2.20
19.2480,0.09,0.13,-1.01,3.85,3.54,2.01
19.2640,0.07,0.12,-0.99,5.31,3.11,0.92
19.2800,0.07,0.13,-0.99,4.94,3.30,1.16
19.2950,0.07,0.13,-0.99,4.46,3.42,1.28
19.3020,0.07,0.13,-0.99,3.91,3.30,1.53
19.3190,0.07,0.12,-0.99,3.54,3.30,1.89
19.3410,0.07,0.13,-0.99,3.36,3.48,1.83
19.3570,0.07,0.13,-0.99,3.23,3.48,2.26
19.3740,0.07,0.13,-0.99,3.11,3.72,2.08
19.3900,0.07,0.13,-0.99,2.75,3.78,2.01
19.4060,0.07,0.12,-0.99,2.26,4.03,2.08
19.4210,0.07,0.13,-0.99,3.05,3.72,2.08
19.4370,0.07,0.13,-0.99,2.93,4.21,2.14
19.4530,0.10,0.14,-1.03,2.14,4.33,2.01
19.4690,0.07,0.12,-0.99,2.87,4.09,2.01
19.4850,0.07,0.12,-0.99,2.81,3.72,2.14
19.5000,0.07,0.12,-0.99,3.11,4.03,1.95
19.5110,0.07,0.12,-0.99,3.42,3.54,1.95
19.5210,0.07,0.13,-0.99,3.54,3.36,2.01
19.5420,0.07,0.12,-0.99,3.30,3.60,2.01
19.5580,0.07,0.12,-0.99,3.66,3.48,2.20
19.5750,0.07,0.12,-0.99,3.72,3.72,2.14
19.5920,0.07,0.13,-0.99,3.97,3.42,2.20
19.6070,0.07,0.13,-0.99,3.78,3.48,2.14
19.6240,0.07,0.13,-0.99,3.11,4.09,2.01
19.6400,0.07,0.12,-0.99,2.75,3.72,1.89
19.6560,0.07,0.12,-0.99,3.36,3.97,1.95
19.6590,0.07,0.12,-0.99,3.66,3.42,2.20
19.6750,0.07,0.12,-0.99,3.66,3.66,2.01
19.6960,0.07,0.13,-0.99,4.15,3.42,2.14
19.7140,0.07,0.13,-0.99,3.60,3.78,1.95
19.7290,0.07,0.13,-0.99,3.30,3.78,2.14
19.7470,0.07,0.12,-0.99,3.36,3.42,2.20
19.7640,0.07,0.13,-0.99,3.72,3.78,2.26
19.7800,0.08,0.12,-0.99,3.91,3.60,2.26
19.7970,0.07,0.13,-0.99,3.97,3.48,2.26
19.8130,0.07,0.13,-0.99,4.03,3.36,1.77
19.8290,0.07,0.12,-0.99,3.23,3.54,1.34
19.8450,0.08,0.12,-1.00,2.99,4.09,-0.37
19.8610,0.08,0.16,-1.01,3.54,3.42,-0.73
19.8760,0.07,0.12,-0.99,2.01,3.97,2.01
19.8800,0.07,0.12,-0.99,2.93,3.72,2.14
19.8960,0.07,0.13,-0.99,3.17,3.60,2.14
19.9200,0.07,0.12,-0.99,3.30,3.17,2.14
19.9350,0.07,0.13,-0.99,3.23,3.66,2.26
19.9520,0.07,0.13,-0.99,3.48,3.54,2.26
19.9680,0.07,0.13,-0.99,3.54,3.48,2.08
19.9850,0.07,0.13,-0.99,3.36,3.66,2.20
20.0010,0.07,0.13,-0.99,3.30,3.54,2.01
20.0120,0.07,0.13,-0.99,3.23,3.85,2.08
20.0220,0.07,0.13,-0.99,3.36,3.54,2.08
20.0440,0.07,0.13,-0.99,3.23,3.54,2.08
20.0600,0.07,0.12,-0.99,3.05,3.91,2.14
20.0770,0.07,0.12,-0.99,3.36,3.66,2.01
20.0940,0.07,0.12,-0.99,3.54,3.42,2.08
20.1090,0.07,0.12,-0.99,3.17,3.36,2.08
20.1250,0.07,0.13,-0.99,3.36,3.05,2.01
20.1410,0.07,0.13,-0.99,3.48,3.30,2.08
20.1570,0.07,0.13,-0.99,3.36,3.48,2.20
20.1730,0.07,0.13,-0.99,3.42,3.30,1.83
20.1880,0.07,0.13,-0.99,3.30,3.42,2.08
20.2040,0.07,0.13,-0.99,3.36,3.42,1.95
20.2120,0.07,0.13,-0.99,3.36,3.36,2.08
20.2260,0.07,0.13,-0.99,3.23,3.36,2.08
20.2500,0.07,0.12,-0.99,3.23,3.60,2.14
20.2650,0.07,0.12,-0.99,3.30,3.48,2.01
20.2660,0.07,0.12,-0.99,3.30,3.66,2.20
20.2960,0.07,0.12,-0.99,3.42,3.11,2.20
20.3110,0.07,0.12,-0.99,3.23,3.48,1.89
20.3270,0.07,0.12,-0.99,3.42,3.36,1.95
20.3330,0.07,0.12,-0.99,3.42,3.66,1.95
20.3570,0.07,0.13,-0.99,3.11,3.66,2.08
20.3720,0.07,0.13,-0.99,3.42,3.36,1.95
20.3830,0.07,0.13,-0.99,3.36,3.48,1.95
20.3990,0.07,0.13,-0.99,3.30,3.23,2.26
20.4180,0.07,0.13,-0.99,3.30,3.17,2.01
20.4230,0.07,0.13,-0.99,3.36,3.48,2.20
20.4490,0.07,0.13,-0.99,3.30,3.36,2.01
20.4650,0.07,0.12,-0.99,3.23,3.54,2.20
20.4730,0.07,0.12,-0.99,3.30,3.17,2.20
20.4900,0.08,0.12,-0.99,3.36,3.54,2.14
20.5060,0.08,0.12,-0.99,3.30,3.85,2.01
20.5230,0.07,0.12,-0.99,3.30,3.78,2.14
20.5400,0.07,0.12,-1.00,3.30,3.91,2.20
20.5560,0.07,0.12,-0.99,3.36,3.48,2.14
20.5720,0.07,0.12,-0.99,3.42,3.36,2.20
20.5870,0.07,0.13,-0.99,3.23,3.30,2.14
20.6020,0.07,0.13,-0.99,3.30,3.48,2.14
20.6130,0.07,0.13,-0.99,3.36,3.48,2.01
20.6220,0.07,0.13,-0.99,3.42,3.05,2.08
20.6430,0.07,0.13,-0.99,3.30,3.72,2.08
20.6600,0.07,0.13,-0.99,3.23,3.48,1.95
20.6780,0.08,0.12,-0.99,3.23,3.42,2.08
20.6940,0.08,0.12,-0.99,3.42,3.36,2.14
20.7090,0.08,0.12,-0.99,3.30,3.30,2.08
20.7250,0.08,0.12,-0.99,3.48,3.30,2.14
20.7420,0.08,0.12,-0.99,3.42,3.48,2.08
20.7580,0.08,0.12,-0.99,3.54,3.23,2.14
20.7740,0.07,0.12,-0.99,3.48,3.30,2.01
20.7900,0.07,0.13,-0.99,3.36,3.17,1.95
20.8060,0.07,0.12,-0.99,3.42,2.93,1.89
20.8210,0.07,0.13,-0.99,3.23,3.78,2.14
20.8370,0.07,0.13,-0.99,3.36,3.48,2.08
20.8530,0.07,0.13,-0.99,3.23,3.60,2.08
20.8670,0.07,0.13,-0.99,3.48,3.48,2.01
20.8820,0.07,0.13,-0.99,3.23,3.36,2.01
20.8930,0.07,0.13,-0.99,3.30,3.78,2.14
20.9100,0.07,0.13,-0.99,3.17,3.30,2.14
20.9270,0.08,0.13,-0.99,3.23,3.66,2.08
20.9430,0.08,0.13,-0.99,3.30,3.48,2.01
20.9600,0.08,0.12,-0.99,3.36,3.48,2.08
20.9760,0.08,0.12,-0.99,3.42,3.66,2.14
20.9920,0.08,0.12,-0.99,3.30,3.17,2.01
21.0080,0.07,0.12,-0.99,3.54,3.60,2.20
21.0240,0.07,0.12,-0.99,3.42,3.78,2.32
21.0400,0.07,0.13,-0.99,3.11,3.85,2.14
21.0560,0.06,0.13,-0.99,3.42,3.54,2.14
21.0710,0.07,0.13,-0.99,3.48,3.66,2.14
21.0860,0.07,0.13,-0.99,3.36,3.66,1.95
21.1020,0.07,0.13,-0.99,3.48,3.54,2.20
21.1180,0.07,0.13,-0.99,3.48,3.54,2.08
21.1330,0.07,0.13,-0.99,3.17,3.42,2.01
21.1430,0.08,0.13,-0.99,3.17,3.72,2.26
21.1600,0.08,0.12,-0.99,3.36,3.54,2.01
21.1770,0.08,0.12,-0.99,3.42,3.30,2.26
21.1930,0.08,0.12,-0.99,3.23,3.72,2.08
21.2090,0.07,0.12,-0.99,3.42,3.54,1.95
21.2270,0.07,0.12,-0.99,3.36,3.72,2.01
21.2430,0.07,0.12,-0.99,3.42,3.54,1.95
21.2580,0.07,0.12,-0.99,3.30,3.60,2.14
21.2740,0.07,0.13,-0.99,3.30,3.60,2.01
21.2770,0.07,0.13,-0.99,3.60,3.36,2.08
21.3070,0.07,0.13,-0.99,3.36,3.78,2.14
21.3230,0.07,0.13,-0.99,3.30,3.48,2.20
21.3370,0.07,0.13,-0.99,3.36,3.78,2.20
21.3530,0.07,0.13,-0.99,3.42,3.48,2.08
21.3610,0.07,0.13,-0.99,3.23,3.66,2.14
21.3780,0.08,0.12,-0.99,3.23,3.85,2.01
21.3940,0.08,0.12,-0.99,3.36,3.85,2.01
21.4110,0.07,0.12,-0.99,3.42,3.54,2.08
21.4300,0.07,0.12,-0.99,3.17,3.78,2.20
21.4440,0.07,0.12,-0.99,3.30,3.91,2.26
21.4600,0.07,0.12,-0.99,3.30,3.66,2.20
21.4770,0.07,0.13,-0.99,3.30,3.66,1.95
21.4930,0.07,0.13,-0.99,3.30,3.66,2.14
21.5090,0.07,0.13,-0.99,3.36,3.78,2.14
21.5140,0.07,0.13,-0.99,3.36,3.42,2.14
21.5270,0.07,0.13,-0.99,3.36,3.78,2.01
21.5490,0.07,0.13,-0.99,3.23,3.91,2.08
21.5660,0.07,0.13,-0.99,3.30,3.72,2.14
21.5820,0.07,0.12,-0.99,3.17,3.72,2.01
21.5990,0.07,0.12,-0.99,3.23,3.91,2.08
21.6160,0.07,0.12,-0.99,3.11,3.48,2.14
21.6320,0.07,0.12,-0.99,3.11,3.66,2.08
21.6480,0.08,0.13,-0.99,3.42,3.54,1.22
21.6500,0.12,0.20,-0.98,3.54,4.27,-1.53
21.6790,0.10,0.19,-0.98,4.33,5.74,-11.54
21.6830,0.05,0.11,-1.00,4.76,6.90,-18.31
21.6990,0.05,0.04,-1.00,4.39,6.29,-14.28
21.7160,0.03,0.06,-1.00,3.78,4.70,-3.91
21.7320,0.07,0.13,-0.99,4.33,3.48,1.95
21.7480,0.07,0.12,-0.99,2.38,3.42,2.01
21.7740,0.07,0.13,-1.00,3.36,3.30,2.08
21.7850,0.07,0.13,-0.99,3.42,3.60,2.01
21.8020,0.07,0.13,-0.99,3.36,3.42,2.01
21.8190,0.07,0.12,-0.99,3.36,3.72,2.26
21.8190,0.07,0.12,-0.99,3.11,3.42,2.08
21.8350,0.07,0.12,-0.99,3.42,3.36,2.14
21.8580,0.07,0.12,-0.99,3.36,3.17,2.14
21.8750,0.08,0.12,-0.99,3.23,3.78,2.08
21.8920,0.08,0.12,-0.99,3.30,3.72,2.14
21.9080,0.07,0.13,-0.99,3.36,3.36,1.95
21.9260,0.07,0.13,-0.99,3.36,3.48,2.01
21.9410,0.07,0.13,-0.99,3.30,3.48,2.01
21.9580,0.07,0.13,-0.99,3.42,3.36,2.01
21.9740,0.07,0.13,-0.99,3.36,3.23,2.08
21.9910,0.07,0.12,-0.99,3.36,3.48,2.14
22.0070,0.07,0.12,-0.99,3.48,3.30,2.14
22.0230,0.07,0.10,-0.99,3.11,3.30,1.59
22.0380,0.08,0.10,-0.99,4.03,4.39,-4.27
22.0530,0.08,0.11,-0.99,4.52,5.00,-8.85
22.0680,0.08,0.12,-0.99,4.58,5.43,-10.13
22.0840,0.07,0.13,-0.99,4.82,5.86,-9.70
22.1000,0.07,0.14,-0.99,4.15,5.25,-8.36
22.1080,0.07,0.14,-0.99,3.72,4.88,-4.94
22.1250,0.07,0.13,-0.99,3.42,4.27,-1.95
22.1410,0.07,0.13,-0.99,3.17,3.97,0.37
22.1570,0.07,0.16,-0.99,2.44,3.66,1.04
22.1730,0.07,0.14,-0.99,2.87,4.39,-2.62
22.1930,0.07,0.09,-0.99,2.99,4.46,-1.71
22.1940,0.07,0.12,-0.99,3.30,4.09,0.85
22.2160,0.05,0.13,-0.99,3.78,3.78,1.04
22.2270,0.06,0.11,-0.99,4.27,3.72,0.00
22.2560,0.06,0.13,-1.00,4.09,3.91,-0.43
22.2630,0.07,0.14,-0.99,2.93,3.97,-0.24
22.2790,0.08,0.13,-0.99,2.75,4.15,0.06
22.2960,0.09,0.11,-0.99,3.17,3.97,0.43
22.3160,0.06,0.12,-1.00,3.72,3.72,1.16
22.3300,0.06,0.12,-0.99,3.85,3.66,0.37
22.3480,0.06,0.11,-1.00,4.03,4.09,-0.61
22.3640,0.06,0.11,-1.00,4.21,4.58,-3.36
22.3800,0.08,0.15,-0.99,3.42,4.58,-4.64
22.3960,0.07,0.14,-0.99,2.93,3.97,-0.31
22.4160,0.06,0.13,-1.00,2.87,3.23,2.14
22.4180,0.06,0.13,-1.00,2.44,3.48,3.48
22.4470,0.07,0.13,-0.99,2.14,3.60,4.15
22.4510,0.07,0.11,-0.99,2.93,3.72,4.09
22.4660,0.09,0.12,-0.99,4.03,3.54,2.50
22.4820,0.08,0.13,-0.99,4.52,2.87,1.53
22.5050,0.08,0.13,-0.99,4.21,2.99,2.44
22.5220,0.08,0.11,-0.99,3.97,2.93,2.50
22.5370,0.08,0.12,-0.99,3.91,3.23,2.20
22.5560,0.08,0.13,-0.99,3.54,3.30,2.26
22.5560,0.08,0.13,-0.99,2.81,3.60,2.32
22.5860,0.08,0.12,-0.99,2.20,3.78,2.87
22.5930,0.08,0.13,-0.99,2.99,3.66,2.62
22.6170,0.07,0.12,-0.99,4.03,3.66,0.92
22.6270,0.07,0.13,-1.00,3.97,3.97,0.55
22.6420,0.07,0.13,-1.00,3.54,3.91,0.61
22.6580,0.08,0.13,-0.99,2.81,3.78,1.04
22.6800,0.07,0.12,-0.99,2.93,3.60,1.77
22.6960,0.07,0.12,-0.99,2.99,3.78,1.83
22.7110,0.07,0.12,-0.99,3.11,3.85,1.53
22.7160,0.07,0.12,-0.99,3.17,3.66,1.16
22.7420,0.07,0.13,-0.99,3.17,3.78,0.98
22.7570,0.07,0.12,-0.99,3.30,4.15,0.98
22.7630,0.06,0.12,-0.99,3.85,3.66,0.61
22.7790,0.07,0.12,-1.00,3.97,3.54,0.61
22.7990,0.07,0.12,-1.00,3.48,3.97,0.73
22.8160,0.07,0.12,-0.99,3.05,4.09,1.40
22.8340,0.07,0.12,-0.99,2.93,3.72,1.65
22.8490,0.08,0.12,-0.99,3.30,4.09,1.59
22.8650,0.09,0.12,-0.99,4.09,3.66,0.18
22.8670,0.08,0.12,-0.99,4.27,3.97,-1.65
22.8980,0.08,0.13,-0.99,4.03,4.27,-1.71
22.8990,0.07,0.13,-0.99,3.48,4.21,-1.04
22.9160,0.05,0.13,-0.99,2.50,3.97,0.37
22.9440,0.05,0.10,-0.99,2.08,3.97,1.89
22.9490,0.06,0.12,-0.99,2.50,3.85,2.08
22.9640,0.06,0.13,-1.00,3.23,3.72,1.95
22.9840,0.07,0.12,-0.99,3.17,3.48,2.01
23.0010,0.07,0.12,-0.99,3.78,3.78,2.14
23.0180,0.07,0.12,-1.00,4.03,3.54,1.77
23.0360,0.07,0.13,-0.99,3.17,3.48,1.59
23.0520,0.07,0.12,-0.99,2.87,3.42,2.14
23.0680,0.07,0.12,-0.99,2.99,3.72,2.20
23.0840,0.07,0.12,-0.99,3.54,3.42,2.20
23.0860,0.07,0.13,-0.99,3.66,3.60,1.89
23.1020,0.07,0.13,-0.99,3.42,3.72,1.95
23.1260,0.07,0.12,-0.99,3.30,3.36,2.08
23.1430,0.07,0.13,-0.99,3.36,3.72,2.20
23.1590,0.07,0.12,-0.99,3.05,3.42,2.32
23.1750,0.07,0.12,-0.99,3.66,3.72,1.95
23.1910,0.07,0.12,-0.99,3.78,3.66,2.08
23.2060,0.07,0.12,-0.99,3.91,3.97,1.83
23.2170,0.07,0.13,-0.99,3.54,3.48,1.77
23.2270,0.07,0.12,-0.99,3.23,3.91,1.89
23.2480,0.07,0.12,-0.99,3.23,3.48,2.14
23.2650,0.07,0.12,-0.99,3.30,3.66,2.14
23.2820,0.07,0.12,-0.99,3.66,3.17,2.14
23.2990,0.07,0.12,-0.99,3.78,3.54,2.08
23.3170,0.07,0.12,-0.99,3.78,3.72,2.08
23.3320,0.07,0.12,-0.99,3.78,3.42,2.01
23.3480,0.07,0.13,-0.99,3.36,3.60,2.20
23.3640,0.07,0.13,-0.99,3.30,3.78,2.14
23.3810,0.07,0.13,-0.99,3.60,3.42,1.95
23.3830,0.07,0.13,-0.99,3.72,3.42,2.14
23.4130,0.07,0.13,-0.99,3.85,3.48,2.08
23.4290,0.07,0.13,-0.99,3.97,3.17,2.26
23.4320,0.07,0.12,-0.99,4.21,3.30,2.20
23.4470,0.07,0.13,-0.99,5.37,2.44,2.08
23.4750,0.07,0.13,-0.99,4.88,2.38,2.14
23.4860,0.07,0.13,-0.99,4.46,2.69,2.14
23.5040,0.07,0.13,-0.99,4.27,2.75,2.01
23.5190,0.07,0.13,-0.99,3.60,3.30,1.95
23.5350,0.07,0.13,-0.99,2.99,3.54,2.08
23.5510,0.07,0.13,-0.99,3.05,3.66,2.20
23.5660,0.07,0.13,-0.99,3.11,3.60,2.20
23.5830,0.07,0.13,-0.99,2.93,3.42,2.08
23.5860,0.07,0.13,-0.99,2.87,3.85,1.95
23.6020,0.08,0.13,-1.00,2.93,3.85,1.89
23.6210,0.07,0.13,-0.99,3.23,3.66,2.08
23.6440,0.07,0.13,-0.99,3.05,3.97,1.95
23.6590,0.06,0.12,-0.99,2.93,4.21,1.59
23.6710,0.07,0.13,-0.99,3.05,4.09,1.34
23.6870,0.07,0.13,-0.99,3.23,3.72,1.77
23.7030,0.07,0.13,-0.99,3.23,3.91,2.14
23.7210,0.07,0.13,-0.99,3.72,3.30,2.01
23.7370,0.07,0.13,-0.99,3.48,3.54,1.59
23.7540,0.07,0.13,-0.99,3.48,3.30,1.89
23.7690,0.07,0.13,-0.99,3.42,3.66,2.14
23.7850,0.07,0.13,-0.99,3.30,3.54,2.01
23.8010,0.07,0.13,-0.99,3.42,3.60,2.01
23.8030,0.07,0.13,-0.99,3.23,3.36,2.14
23.8190,0.07,0.13,-0.99,3.23,3.78,2.14
23.8430,0.07,0.13,-0.99,3.36,3.66,2.14
23.8590,0.07,0.13,-0.99,3.30,3.85,2.08
23.8760,0.07,0.13,-0.99,3.36,3.11,2.08
23.8920,0.07,0.13,-0.99,3.11,3.48,2.14
23.9100,0.07,0.13,-0.99,2.99,3.72,2.20
23.9260,0.07,0.13,-0.99,3.30,3.42,2.01
23.9410,0.07,0.13,-0.99,3.42,3.60,2.08
23.9560,0.07,0.13,-0.99,3.42,3.30,2.20
23.9710,0.07,0.13,-0.99,3.60,3.42,2.01
23.9870,0.07,0.13,-0.99,3.11,3.78,2.14
24.0030,0.07,0.13,-0.99,2.99,3.54,2.20
24.0180,0.07,0.12,-0.99,2.99,3.72,2.20
24.0340,0.07,0.13,-0.99,3.30,3.60,2.01
24.0430,0.07,0.13,-0.99,3.30,3.30,2.14
24.0590,0.08,0.13,-0.99,3.11,3.05,2.38
24.0810,0.07,0.12,-0.99,3.23,3.36,2.20
24.0970,0.07,0.13,-0.99,3.17,3.42,2.56
24.1140,0.07,0.13,-0.99,2.99,3.23,1.95
24.1300,0.07,0.13,-0.99,2.75,3.54,2.08
24.1460,0.07,0.13,-0.99,2.99,3.78,2.08
24.1490,0.07,0.13,-0.99,3.36,3.54,1.95
24.1650,0.07,0.13,-0.99,3.42,3.60,2.08
24.1880,0.07,0.13,-0.99,3.17,3.72,2.14
24.2040,0.07,0.13,-0.99,3.17,3.78,2.08
24.2210,0.07,0.13,-0.99,3.30,3.48,2.01
24.2380,0.07,0.12,-0.99,3.11,3.85,2.14
24.2540,0.07,0.13,-0.99,3.42,3.66,1.83
24.2700,0.07,0.13,-0.99,3.23,3.60,1.53
24.2850,0.07,0.13,-0.99,3.05,3.23,1.65
24.3020,0.07,0.13,-0.99,2.93,3.72,1.95
24.3180,0.07,0.13,-0.99,3.42,3.23,1.83
24.3340,0.07,0.13,-0.99,3.54,3.60,2.01
24.3490,0.07,0.13,-0.99,3.42,3.42,1.95
24.3650,0.07,0.13,-0.99,3.42,3.23,2.08
24.3810,0.07,0.13,-0.99,3.36,3.11,2.08
24.3870,0.07,0.13,-0.99,3.17,3.72,2.14
24.4030,0.07,0.13,-0.99,3.36,3.78,2.20
24.4270,0.07,0.12,-0.99,3.54,3.66,2.08
24.4430,0.08,0.13,-0.99,3.78,3.66,1.59
24.4590,0.07,0.12,-0.99,3.60,3.48,1.34
24.4760,0.07,0.13,-0.99,3.48,3.85,1.77
24.4920,0.07,0.13,-0.99,3.48,3.72,1.71
24.4940,0.07,0.13,-0.99,3.11,3.54,1.59
24.5190,0.07,0.13,-0.99,3.11,3.97,1.46
24.5310,0.07,0.13,-0.99,3.42,3.78,1.16
24.5490,0.06,0.13,-0.99,3.72,3.48,0.37
24.5650,0.07,0.13,-0.99,3.11,3.66,0.98
24.5810,0.07,0.13,-0.99,3.11,3.66,1.10
24.5990,0.07,0.12,-0.99,3.36,3.60,0.85
24.6160,0.08,0.13,-0.99,3.48,3.42,0.79
24.6320,0.08,0.13,-0.99,3.54,3.85,0.24
24.6490,0.06,0.12,-0.99,3.48,3.85,-0.24
24.6660,0.07,0.13,-0.99,3.17,4.15,0.73
24.6820,0.07,0.13,-0.99,2.99,3.60,1.10
24.6990,0.07,0.12,-0.99,2.87,3.72,1.28
24.7160,0.07,0.12,-0.99,3.48,3.17,1.46
24.7320,0.07,0.13,-0.99,3.60,3.48,1.89
24.7490,0.07,0.13,-0.99,3.23,3.91,1.95
24.7650,0.07,0.13,-0.99,2.93,3.48,1.83
24.7660,0.07,0.13,-0.99,2.99,3.42,1.65
24.7970,0.07,0.13,-0.99,3.30,3.36,1.28
24.7990,0.08,0.13,-0.99,3.30,3.42,0.98
24.8190,0.07,0.12,-0.99,3.54,3.42,0.73
24.8460,0.07,0.12,-0.99,3.78,3.66,0.85
24.8490,0.08,0.13,-0.99,3.78,3.54,0.37
24.8780,0.07,0.13,-0.99,3.66,3.85,0.06
24.8940,0.07,0.13,-0.99,3.42,3.54,-0.18
24.9100,0.07,0.12,-0.99,3.30,4.15,0.37
24.9190,0.07,0.12,-0.99,3.42,3.72,0.79
24.9320,0.08,0.12,-0.99,3.72,3.85,0.98
24.9480,0.07,0.13,-0.99,3.78,3.54,0.61
24.9710,0.07,0.13,-0.99,3.72,3.42,0.55
24.9860,0.07,0.13,-0.99,3.17,3.72,0.98
25.0010,0.07,0.12,-0.99,2.93,3.66,1.22
25.0170,0.08,0.12,-0.99,3.30,3.91,0.79
25.0330,0.07,0.12,-0.99,3.97,3.60,0.61
25.0480,0.07,0.12,-0.99,3.72,3.60,0.24
25.0640,0.07,0.13,-0.99,3.66,3.36,0.67
25.0780,0.07,0.13,-0.99,3.54,3.54,0.98
25.0890,0.07,0.13,-0.99,2.87,3.78,1.34
25.1060,0.08,0.12,-0.99,2.93,3.60,1.46
25.1220,0.08,0.12,-0.99,3.54,3.66,1.16
25.1390,0.08,0.12,-0.99,3.91,3.66,0.55
25.1560,0.07,0.13,-0.99,3.78,3.42,0.85
25.1720,0.07,0.13,-0.99,3.36,3.66,0.85
25.1890,0.07,0.13,-0.99,3.05,3.85,1.16
25.2040,0.07,0.13,-0.99,2.93,3.72,1.22
25.2190,0.08,0.12,-0.99,3.23,3.48,1.28
25.2360,0.07,0.12,-0.99,3.78,3.85,1.04
25.2510,0.07,0.13,-0.99,3.48,3.97,0.67
25.2660,0.07,0.13,-0.99,3.23,3.54,0.67
25.2810,0.07,0.13,-0.99,3.17,3.91,0.85
25.2970,0.07,0.13,-0.99,3.17,3.97,0.92
25.3130,0.07,0.12,-0.99,3.48,3.72,0.98
25.3220,0.06,0.13,-0.99,3.66,3.97,1.16
25.3380,0.07,0.13,-0.99,3.30,3.60,1.53
25.3560,0.06,0.13,-0.99,3.30,3.23,1.65
25.3790,0.07,0.13,-0.99,2.99,3.97,1.65
25.3890,0.08,0.12,-0.99,3.36,3.48,1.59
25.4050,0.07,0.12,-0.99,3.66,3.66,1.59
25.4200,0.08,0.12,-0.99,3.60,3.48,1.65
25.4410,0.07,0.13,-0.99,3.60,3.36,1.40
25.4570,0.07,0.13,-0.99,3.30,3.48,1.22
25.4730,0.07,0.13,-0.99,2.99,3.48,0.92
25.4890,0.07,0.12,-0.99,3.42,3.60,0.85
25.5040,0.08,0.12,-0.99,3.54,4.09,0.31
25.5200,0.07,0.13,-0.99,3.23,4.21,0.43
25.5360,0.07,0.13,-0.99,3.11,3.60,0.85
25.5410,0.07,0.13,-0.99,3.11,3.54,1.22
25.5590,0.07,0.13,-0.99,3.23,3.85,1.16
25.5750,0.07,0.12,-0.99,3.42,3.85,1.16
25.5910,0.07,0.13,-0.99,3.48,3.66,1.34
25.6080,0.06,0.13,-0.99,3.48,3.66,1.59
25.6250,0.07,0.13,-0.99,3.30,3.11,1.71
25.6420,0.07,0.12,-0.99,3.54,3.05,1.77
25.6590,0.07,0.12,-0.99,3.66,3.66,1.71
25.6750,0.06,0.13,-0.99,3.91,3.23,1.83
25.6910,0.07,0.13,-0.99,3.66,3.60,1.95
25.7070,0.07,0.13,-0.99,3.23,3.97,2.08
25.7220,0.07,0.13,-0.99,2.99,3.66,1.95
25.7380,0.08,0.13,-0.99,2.62,3.97,2.08
25.7550,0.08,0.12,-0.99,3.23,3.54,2.14
25.7700,0.07,0.12,-0.99,3.48,3.91,2.20
25.7750,0.07,0.12,-0.99,3.91,3.36,1.95
25.7910,0.07,0.13,-0.99,3.48,3.48,1.65
25.8140,0.08,0.13,-0.99,2.81,3.66,1.65
25.8300,0.08,0.13,-0.99,2.81,3.78,1.77
25.8470,0.08,0.12,-0.99,3.54,3.85,1.77
25.8640,0.08,0.12,-0.99,4.27,3.48,1.04
25.8800,0.07,0.13,-0.99,3.85,3.66,0.85
25.8970,0.07,0.13,-0.99,3.60,3.54,0.92
25.8970,0.07,0.13,-0.99,2.87,3.72,1.04
25.9210,0.08,0.12,-0.99,2.75,3.60,1.65
25.9310,0.07,0.12,-0.99,3.54,3.85,1.53
25.9480,0.07,0.12,-0.99,3.91,3.36,1.53
25.9640,0.06,0.13,-0.99,3.60,3.30,1.53
25.9810,0.06,0.13,-0.99,2.99,3.66,1.53
25.9980,0.06,0.13,-0.99,2.44,3.48,1.65
26.0210,0.07,0.12,-0.99,2.26,4.03,1.65
26.0360,0.07,0.12,-0.99,2.62,3.97,1.65
26.0540,0.07,0.12,-0.99,3.54,3.54,1.65
26.0690,0.08,0.12,-0.99,4.27,3.54,1.77
26.0840,0.07,0.13,-0.99,3.97,3.48,1.77
26.0870,0.07,0.13,-0.99,3.48,3.48,1.89
26.1030,0.07,0.13,-0.99,2.99,3.85,1.95
26.1320,0.07,0.13,-0.99,2.81,3.60,1.95
26.1360,0.08,0.12,-0.99,3.05,3.23,1.89
26.1520,0.08,0.13,-0.99,3.17,3.60,1.95
26.1800,0.07,0.13,-0.99,3.23,3.54,1.83
26.1910,0.08,0.12,-0.99,3.42,3.78,1.65
26.2070,0.07,0.12,-0.99,3.48,3.48,1.83
26.2270,0.07,0.13,-0.99,3.23,3.72,1.83
26.2430,0.07,0.13,-0.99,2.69,3.60,1.59
26.2460,0.08,0.13,-0.99,2.56,3.91,1.83
26.2610,0.07,0.12,-0.99,2.81,3.78,1.95
26.2840,0.07,0.12,-0.99,3.97,3.60,1.89
26.3020,0.07,0.13,-0.99,3.91,3.36,1.65
26.3170,0.06,0.13,-1.00,3.42,3.42,1.59
26.3340,0.07,0.13,-0.99,3.05,3.42,2.01
26.3500,0.06,0.13,-0.99,2.56,3.72,2.08
26.3660,0.06,0.12,-0.99,3.11,3.17,2.62
26.3680,0.07,0.12,-0.99,3.54,3.23,2.08
26.3830,0.07,0.13,-0.99,4.15,3.60,2.01
26.4060,0.07,0.13,-0.99,3.60,3.11,2.08
26.4240,0.07,0.13,-1.00,3.11,3.30,1.95
26.4400,0.07,0.12,-0.99,2.62,3.66,1.89
26.4560,0.08,0.12,-0.99,3.11,3.17,1.95
26.4740,0.07,0.12,-0.99,3.60,3.42,1.89
26.4890,0.08,0.13,-0.99,3.78,3.60,1.95
26.5050,0.07,0.13,-0.99,3.42,3.36,1.89
26.5200,0.07,0.13,-0.99,2.75,3.48,2.01
26.5360,0.08,0.13,-0.99,2.75,3.42,2.08
26.5510,0.07,0.12,-0.99,3.11,3.42,2.08
26.5560,0.09,0.12,-0.99,3.85,3.42,2.01
26.5720,0.07,0.13,-0.99,3.78,3.85,2.38
26.5930,0.07,0.13,-0.99,3.60,3.48,1.83
26.6100,0.07,0.13,-0.99,2.81,3.54,1.71
26.6260,0.08,0.13,-0.99,2.75,3.48,1.59
26.6440,0.08,0.12,-0.99,3.11,3.42,1.71
26.6590,0.07,0.12,-0.99,3.48,3.36,2.08
26.6750,0.07,0.12,-0.99,3.60,3.42,2.14
26.6910,0.07,0.13,-0.99,3.54,3.72,2.01
26.7070,0.07,0.13,-0.99,3.17,3.66,1.71
26.7220,0.07,0.12,-0.99,3.60,3.97,1.40
26.7260,0.07,0.13,-0.99,3.85,3.30,1.28
26.7420,0.07,0.13,-0.99,3.23,3.36,1.40
26.7650,0.07,0.12,-0.99,3.17,3.54,1.77
26.7820,0.07,0.12,-0.99,3.42,3.23,1.89
26.7990,0.08,0.13,-0.99,3.66,3.60,1.83
26.8160,0.08,0.13,-0.99,3.23,3.42,1.71
26.8310,0.07,0.13,-0.99,3.36,3.91,1.46
26.8480,0.08,0.12,-0.99,3.11,3.78,1.53
26.8630,0.07,0.13,-0.99,2.99,3.97,1.46
26.8790,0.07,0.13,-0.99,3.23,3.78,1.53
26.8820,0.07,0.13,-0.99,3.17,3.60,1.65
26.9110,0.06,0.13,-0.99,3.11,3.66,2.14
26.9260,0.06,0.12,-0.99,3.05,3.42,2.14
26.9420,0.06,0.12,-0.99,3.42,3.66,1.89
26.9570,0.07,0.13,-0.99,3.66,3.48,1.71
26.9660,0.07,0.13,-0.99,3.42,3.48,1.77
26.9830,0.07,0.13,-0.99,3.36,3.66,1.83
26.9980,0.07,0.13,-0.99,3.36,3.42,1.77
27.0150,0.07,0.13,-0.99,3.17,3.17,1.95
27.0320,0.07,0.13,-0.99,3.11,3.54,1.95
27.0500,0.08,0.12,-0.99,3.23,3.36,1.83
27.0670,0.07,0.13,-0.99,3.42,3.17,1.77
27.0680,0.07,0.13,-0.99,3.11,3.60,1.77
27.0980,0.07,0.13,-0.99,3.05,3.42,1.77
27.1140,0.07,0.12,-0.99,3.17,3.54,2.14
27.1300,0.07,0.12,-0.99,3.30,3.48,1.77
27.1460,0.07,0.12,-0.99,3.78,3.54,1.71
27.1630,0.08,0.13,-0.99,3.85,3.42,1.22
27.1790,0.07,0.12,-0.99,3.60,3.60,0.73
27.1950,0.07,0.13,-0.99,3.42,3.42,1.34
27.2000,0.07,0.13,-0.99,3.23,3.54,1.53
27.2220,0.08,0.13,-0.99,3.48,3.72,1.46
27.2390,0.08,0.12,-0.99,3.54,3.54,1.53
27.2560,0.07,0.12,-0.99,3.60,3.42,1.53
27.2720,0.06,0.13,-0.99,3.36,2.99,1.53
27.2890,0.07,0.13,-0.99,3.30,3.66,1.77
27.3050,0.08,0.13,-0.99,3.54,3.48,1.65
27.3200,0.08,0.13,-0.99,3.66,3.30,1.04
27.3230,0.07,0.12,-0.99,3.78,3.36,0.85
27.3500,0.07,0.12,-0.99,3.72,3.23,1.22
27.3670,0.06,0.12,-0.99,3.85,3.36,1.34
27.3830,0.07,0.13,-0.99,3.42,3.30,1.83
27.3980,0.07,0.13,-0.99,3.36,3.42,1.71
27.4060,0.08,0.13,-0.99,3.60,3.60,1.53
27.4300,0.07,0.13,-0.99,3.60,3.30,1.40
27.4460,0.07,0.13,-0.99,3.30,3.23,1.22
27.4560,0.08,0.12,-0.99,3.36,3.48,1.28
27.4730,0.07,0.12,-0.99,3.30,3.48,1.53
27.4890,0.07,0.13,-0.99,3.05,3.54,1.59
27.5090,0.07,0.13,-0.99,2.87,3.30,1.83
27.5260,0.08,0.12,-0.99,3.30,3.36,1.77
27.5410,0.07,0.12,-0.99,3.66,3.72,1.53
27.5430,0.07,0.12,-0.99,3.54,3.85,1.59
27.5710,0.07,0.12,-0.99,3.78,3.54,1.46
27.5780,0.07,0.13,-0.99,3.36,3.42,1.46
27.5970,0.06,0.13,-0.99,3.11,3.54,1.71
27.6120,0.08,0.13,-0.99,3.05,3.42,1.71
27.6280,0.07,0.12,-0.99,3.05,3.66,1.53
27.6470,0.07,0.12,-0.99,3.42,3.30,1.77
27.6620,0.07,0.12,-0.99,3.54,3.30,1.95
27.6670,0.07,0.13,-0.99,3.36,3.60,2.01
27.6820,0.07,0.13,-0.99,3.30,3.66,1.77
27.6980,0.07,0.13,-0.99,3.05,3.42,1.65
27.7220,0.08,0.12,-0.99,3.11,3.60,1.65
27.7360,0.08,0.12,-0.99,3.30,3.60,1.46
27.7530,0.07,0.12,-0.99,3.54,3.23,1.71
27.7690,0.07,0.12,-0.99,3.30,3.23,1.95
27.7710,0.07,0.12,-0.99,3.42,3.42,1.65
27.8010,0.07,0.13,-0.99,3.48,3.23,1.59
27.8180,0.07,0.13,-0.99,3.30,3.60,1.22
27.8340,0.07,0.12,-0.99,3.36,3.66,1.46
27.8490,0.07,0.12,-0.99,3.42,3.72,1.71
27.8640,0.07,0.13,-0.99,3.54,3.78,1.77
27.8810,0.07,0.13,-0.99,3.42,3.30,1.46
27.8960,0.07,0.13,-0.99,3.36,3.66,1.65
27.9120,0.07,0.13,-0.99,2.99,3.66,1.65
27.9290,0.07,0.12,-0.99,3.30,3.36,1.59
27.9440,0.07,0.12,-0.99,3.54,3.36,1.83
27.9520,0.07,0.12,-0.99,3.72,3.17,1.83
27.9680,0.08,0.13,-0.99,3.60,3.30,1.65
27.9910,0.07,0.12,-0.99,3.05,3.23,1.59
28.0080,0.07,0.12,-0.99,3.23,3.42,1.77
28.0240,0.08,0.12,-0.99,3.17,3.66,1.77
28.0400,0.07,0.13,-0.99,3.36,3.48,1.89
28.0560,0.07,0.13,-0.99,3.30,3.48,2.08
28.0720,0.07,0.13,-0.99,3.48,3.54,1.71
28.0880,0.07,0.13,-0.99,3.48,3.23,1.46
28.1040,0.07,0.13,-0.99,3.11,3.66,1.59
28.1090,0.07,0.12,-0.99,3.36,3.48,1.46
28.1360,0.07,0.12,-0.99,3.66,3.72,1.46
28.1520,0.07,0.12,-0.99,3.54,3.36,1.65
28.1670,0.07,0.13,-0.99,3.48,3.48,1.53
28.1830,0.07,0.13,-0.99,2.87,3.66,1.65
28.1920,0.07,0.12,-0.99,2.69,4.03,1.71
28.2070,0.07,0.12,-0.99,3.36,3.78,1.65
28.2290,0.07,0.12,-0.99,3.66,3.78,1.59
28.2330,0.07,0.13,-0.99,3.54,3.91,1.59
28.2490,0.07,0.13,-0.99,3.42,3.42,1.59
28.2650,0.07,0.13,-0.99,2.93,3.17,1.65
28.2880,0.07,0.13,-0.99,2.87,3.30,1.77
28.3060,0.08,0.13,-0.99,3.36,3.23,1.83
28.3220,0.08,0.13,-0.99,3.66,3.54,1.59
28.3230,0.08,0.12,-0.99,3.60,3.97,1.46
28.3540,0.07,0.12,-0.99,3.91,3.05,1.28
28.3700,0.07,0.13,-0.99,3.78,3.23,1.22
28.3850,0.07,0.13,-0.99,3.11,3.66,1.04
28.4020,0.07,0.13,-0.99,2.93,3.78,1.34
28.4170,0.07,0.12,-0.99,2.99,3.48,1.34
28.4340,0.07,0.12,-0.99,3.30,3.48,1.71
28.4490,0.07,0.13,-0.99,3.48,3.17,1.71
28.4660,0.06,0.13,-0.99,3.23,3.42,1.65
28.4720,0.07,0.13,-0.99,2.99,3.85,2.01
28.4880,0.07,0.13,-0.99,2.81,3.78,1.89
28.5040,0.08,0.13,-0.99,2.75,3.23,1.71
28.5250,0.07,0.13,-0.99,2.87,3.54,1.71
28.5410,0.07,0.13,-0.99,2.93,3.60,1.46
28.5580,0.07,0.12,-0.99,3.05,3.66,1.59
28.5740,0.07,0.12,-0.99,3.66,3.48,1.83
28.5760,0.07,0.12,-0.99,3.97,3.42,1.77
28.5910,0.06,0.13,-1.00,4.09,3.17,1.83
28.6140,0.07,0.13,-0.99,3.23,3.72,2.14
28.6310,0.07,0.13,-0.99,3.11,3.66,2.14
28.6470,0.07,0.13,-0.99,2.93,3.91,2.26
28.6650,0.07,0.13,-0.99,3.30,3.78,2.26
28.6800,0.07,0.13,-0.99,3.11,4.15,2.08
28.6980,0.07,0.12,-0.99,3.23,4.03,2.14
28.7140,0.07,0.13,-0.99,3.48,3.78,2.38
28.7300,0.07,0.13,-0.99,3.36,3.60,2.08
28.7470,0.07,0.12,-0.99,3.48,3.36,2.20
28.7480,0.07,0.12,-0.99,3.48,3.97,2.08
28.7800,0.07,0.12,-0.99,3.72,3.54,2.08
28.7960,0.07,0.13,-0.99,3.97,3.78,1.95
28.7980,0.08,0.13,-0.99,3.54,3.48,1.83
28.8270,0.07,0.13,-0.99,2.99,3.85,1.40
28.8430,0.07,0.12,-0.99,3.36,3.72,1.10
28.8470,0.07,0.12,-0.99,3.72,3.60,1.22
28.8750,0.08,0.13,-0.99,3.85,3.97,1.34
28.8810,0.06,0.12,-0.99,4.03,3.72,1.28
28.8960,0.07,0.13,-0.99,4.03,3.72,2.08
28.9200,0.07,0.13,-0.99,3.36,3.48,2.08
28.9360,0.07,0.13,-0.99,3.17,3.66,2.14
28.9510,0.07,0.13,-0.99,3.11,3.72,2.08
28.9670,0.07,0.13,-0.99,2.81,3.97,2.08
28.9820,0.07,0.12,-0.99,3.11,3.60,1.95
28.9980,0.07,0.13,-0.99,3.30,3.60,2.08
29.0040,0.07,0.13,-0.99,3.60,3.54,2.08
29.0250,0.07,0.13,-0.99,3.42,3.30,2.14
29.0420,0.07,0.13,-0.99,3.48,3.48,2.01
29.0590,0.08,0.13,-0.99,3.42,3.60,1.65
29.0740,0.07,0.13,-0.99,3.42,3.60,1.40
29.0920,0.08,0.13,-0.99,3.54,3.42,1.28
29.1080,0.07,0.13,-0.99,3.42,3.91,1.10
29.1240,0.08,0.13,-0.99,3.17,3.97,1.34
29.1400,0.07,0.13,-0.99,3.17,3.54,1.28
29.1550,0.07,0.13,-0.99,2.93,3.66,1.10
29.1720,0.08,0.13,-0.99,3.36,3.72,0.55
29.1870,0.07,0.12,-0.99,3.97,3.78,-0.49
29.1910,0.07,0.12,-0.99,3.85,3.85,-0.18
29.2080,0.08,0.12,-0.99,3.91,3.85,-0.31
29.2300,0.06,0.13,-1.00,3.85,3.72,-0.43
29.2460,0.07,0.13,-0.99,3.23,3.78,0.61
29.2640,0.08,0.13,-0.99,3.17,3.85,1.28
29.2790,0.08,0.13,-0.99,3.17,3.85,0.61
29.2960,0.07,0.12,-0.99,3.42,3.66,0.67
29.3120,0.07,0.13,-0.99,3.42,3.72,1.16
29.3280,0.07,0.13,-0.99,3.05,4.03,1.34
29.3300,0.07,0.12,-0.99,2.93,3.78,1.16
29.3470,0.08,0.12,-0.99,3.42,3.54,1.22
29.3630,0.07,0.13,-0.99,3.66,3.85,0.79
29.3800,0.07,0.13,-0.99,3.42,3.91,0.98
29.3960,0.07,0.13,-0.99,3.17,3.78,0.73
29.4190,0.08,0.12,-0.99,2.99,3.72,0.61
29.4350,0.07,0.13,-0.99,3.42,3.97,0.24
29.4520,0.07,0.13,-0.99,3.54,3.85,0.31
29.4680,0.07,0.12,-0.99,3.48,3.72,0.67
29.4840,0.07,0.13,-0.99,3.48,3.54,0.98
29.5000,0.08,0.13,-0.99,3.36,3.60,0.43
29.5020,0.06,0.13,-0.99,3.23,4.21,0.43
29.5330,0.07,0.13,-1.00,2.93,4.15,0.92
29.5350,0.06,0.13,-0.99,2.93,3.97,0.92
29.5500,0.07,0.13,-0.99,3.30,3.85,1.77
29.5730,0.07,0.13,-0.99,3.36,3.17,1.95
29.5910,0.08,0.13,-0.99,3.17,3.60,2.01
29.6070,0.08,0.13,-0.99,2.93,3.91,1.53
29.6240,0.08,0.12,-0.99,3.72,3.54,0.79
29.6400,0.08,0.12,-0.99,3.85,3.54,0.24
29.6560,0.07,0.12,-0.99,3.91,3.72,0.18
29.6570,0.06,0.13,-0.99,3.54,3.78,-0.12
29.6870,0.06,0.13,-0.99,3.36,4.21,-0.18
29.6920,0.06,0.13,-1.00,3.60,3.78,0.67
29.7180,0.07,0.13,-0.99,3.42,3.60,1.65
29.7260,0.07,0.13,-0.99,3.17,3.54,1.89
29.7410,0.08,0.13,-0.99,2.99,3.72,1.89
29.7640,0.08,0.12,-0.99,3.42,3.66,1.04
29.7800,0.08,0.13,-0.99,3.60,3.72,0.61
29.7900,0.08,0.13,-0.99,3.54,3.54,0.18
29.8060,0.08,0.12,-0.99,3.66,3.97,-0.31
29.8270,0.06,0.13,-0.99,3.66,3.85,-0.55
29.8300,0.06,0.13,-0.99,3.66,3.54,-0.31
29.8450,0.06,0.13,-0.99,3.54,3.72,0.49
29.8630,0.07,0.13,-0.99,3.17,3.54,1.22
29.8890,0.07,0.12,-0.99,3.42,3.78,1.04
29.9040,0.07,0.12,-0.99,3.54,3.97,0.85
29.9130,0.08,0.12,-0.99,3.72,3.60,0.31
29.9300,0.07,0.13,-0.99,3.60,3.36,0.18
29.9460,0.07,0.13,-0.99,3.05,3.85,0.92
29.9630,0.06,0.12,-0.99,3.17,3.72,1.10
29.9810,0.07,0.12,-0.99,3.60,3.78,1.40
29.9960,0.07,0.13,-0.99,3.60,3.66,1.53
30.0130,0.07,0.13,-0.99,3.36,3.66,1.59
30.0300,0.07,0.13,-0.99,2.93,3.85,1.95
30.0300,0.08,0.13,-0.99,3.17,3.66,1.59
30.0620,0.08,0.13,-0.99,2.99,3.72,1.53
30.0770,0.08,0.13,-0.99,3.23,3.97,0.67
30.0800,0.06,0.13,-0.99,3.42,4.03,0.37
30.0960,0.06,0.13,-0.99,3.54,3.72,0.98
30.1240,0.07,0.13,-0.99,3.42,3.91,1.77
30.1350,0.07,0.13,-0.99,3.17,3.36,1.89
30.1520,0.07,0.12,-0.99,3.05,3.36,1.95
30.1690,0.07,0.12,-0.99,3.11,3.91,1.95
30.1850,0.08,0.13,-0.99,3.30,3.60,1.77
30.2010,0.07,0.12,-0.99,3.36,3.72,1.59
30.2170,0.07,0.13,-0.99,3.30,3.60,1.22
30.2330,0.07,0.13,-0.99,3.36,3.91,1.04
30.2470,0.07,0.13,-0.99,2.99,3.78,1.10
30.2640,0.08,0.12,-0.99,3.48,3.54,0.79
30.2790,0.07,0.13,-0.99,3.30,3.48,0.85
30.2950,0.07,0.13,-0.99,3.23,3.78,0.67
30.3110,0.07,0.13,-0.99,3.11,3.78,0.73
30.3260,0.07,0.12,-0.99,3.42,3.78,0.61
30.3350,0.08,0.13,-1.00,3.17,4.15,0.55
30.3530,0.10,0.13,-0.99,3.05,4.21,-0.43
30.3680,0.05,0.13,-0.99,3.05,3.97,-0.85
30.3850,0.05,0.11,-0.99,3.36,3.78,-0.06
30.4010,0.08,0.13,-0.99,3.54,3.85,0.85
30.4180,0.07,0.13,-0.99,3.36,3.91,0.37
30.4340,0.06,0.12,-0.99,3.42,3.42,0.79
30.4490,0.08,0.13,-0.99,3.36,3.85,1.04
30.4640,0.07,0.12,-0.99,3.42,3.60,0.67
30.4800,0.07,0.13,-0.99,3.72,3.36,0.85
30.4960,0.07,0.13,-0.99,3.48,3.91,1.10
30.5020,0.08,0.13,-0.99,3.05,3.66,1.04
30.5260,0.08,0.13,-0.99,3.11,3.66,0.92
30.5420,0.07,0.12,-0.99,3.17,3.72,0.98
30.5520,0.07,0.12,-0.99,3.11,3.85,1.22
30.5680,0.08,0.12,-0.99,3.91,3.66,0.92
30.5870,0.07,0.12,-1.00,3.78,3.97,0.18
30.5920,0.07,0.13,-0.99,3.66,3.85,-0.12
30.6080,0.06,0.13,-0.99,3.11,3.97,0.00
30.6280,0.05,0.13,-0.99,2.75,3.54,1.46
30.6400,0.07,0.13,-0.99,2.99,3.54,1.89
30.6620,0.08,0.13,-0.99,3.36,3.91,1.59
30.6780,0.07,0.13,-0.99,3.54,3.54,1.04
30.6960,0.07,0.13,-0.99,3.11,3.72,1.04
30.7120,0.07,0.13,-0.99,3.30,3.91,1.16
30.7280,0.07,0.13,-0.99,3.42,3.48,1.10
30.7440,0.07,0.13,-0.99,3.42,3.42,1.04
30.7450,0.08,0.12,-0.99,3.36,3.66,0.73
30.7620,0.08,0.12,-0.99,3.78,3.60,0.73
30.7930,0.07,0.13,-0.99,3.60,3.97,0.00
30.8090,0.07,0.13,-0.99,3.36,4.09,0.49
30.8120,0.07,0.13,-0.99,3.23,3.42,0.85
30.8410,0.07,0.13,-0.99,2.99,4.09,1.04
30.8450,0.07,0.13,-0.99,3.17,3.66,0.92
30.8610,0.06,0.12,-0.99,3.17,3.66,1.10
30.8850,0.09,0.12,-0.99,3.23,3.66,1.89
30.9020,0.07,0.13,-0.99,3.66,3.36,2.01
30.9180,0.07,0.13,-0.99,3.60,3.60,2.01
30.9350,0.08,0.13,-0.99,3.30,3.60,2.08
30.9500,0.08,0.13,-0.99,3.30,4.09,1.34
30.9510,0.07,0.12,-0.99,3.60,3.78,0.49
30.9820,0.07,0.13,-0.99,3.48,3.85,0.92
30.9850,0.07,0.13,-0.99,3.05,3.54,1.10
31.0140,0.07,0.13,-0.99,2.87,3.66,1.46
31.0290,0.08,0.12,-0.99,3.17,3.78,1.28
31.0330,0.07,0.13,-0.99,3.23,3.54,1.04
31.0560,0.07,0.13,-0.99,3.36,3.78,1.16
31.0720,0.07,0.13,-0.99,3.36,3.66,1.28
31.0890,0.08,0.13,-0.99,3.17,3.78,1.28
31.1060,0.08,0.13,-0.99,3.05,3.66,0.98
31.1210,0.07,0.12,-0.99,3.48,3.85,0.55
31.1390,0.06,0.12,-0.99,3.60,3.42,1.04
31.1550,0.07,0.12,-1.00,3.60,3.48,0.98
31.1720,0.07,0.12,-0.99,3.72,3.42,0.98
31.1870,0.08,0.12,-0.99,3.54,3.54,0.73
31.2030,0.07,0.13,-0.99,3.66,4.15,0.31
31.2190,0.09,0.13,-0.99,3.17,3.78,-0.12
31.2350,0.07,0.13,-0.99,3.11,3.97,-0.79
31.2390,0.07,0.12,-0.99,3.54,3.97,-0.55
31.2680,0.07,0.12,-0.99,3.60,3.97,-0.73
31.2830,0.06,0.12,-0.99,4.27,4.27,-0.67
31.3000,0.06,0.12,-1.00,4.15,3.91,-0.31
31.3160,0.07,0.13,-0.99,3.66,3.72,0.43
31.3310,0.07,0.13,-0.99,3.23,3.60,0.67
31.3390,0.08,0.12,-0.99,3.42,3.78,0.79
31.3550,0.07,0.12,-0.99,3.30,3.91,-0.24
31.3730,0.08,0.13,-0.99,3.36,3.66,-0.06
31.3890,0.08,0.13,-0.99,3.30,4.09,-0.67
31.4060,0.06,0.12,-0.99,3.54,3.91,-0.73
31.4220,0.06,0.13,-0.99,3.42,3.72,0.49
31.4380,0.07,0.12,-0.99,3.36,3.78,0.92
31.4560,0.06,0.13,-0.99,3.23,3.42,1.22
31.4720,0.06,0.13,-0.99,3.11,3.72,1.77
31.4880,0.08,0.12,-0.99,2.99,3.72,2.14
31.5050,0.07,0.12,-0.99,3.66,3.85,1.77
31.5210,0.07,0.13,-0.99,3.54,3.54,1.59
31.5370,0.07,0.13,-0.99,3.36,3.48,1.53
31.5520,0.07,0.13,-0.99,3.17,3.30,1.34
31.5680,0.07,0.13,-0.99,3.11,3.78,1.53
31.5830,0.07,0.13,-0.99,3.17,3.85,1.53
31.6000,0.07,0.13,-0.99,3.30,3.72,1.59
31.6050,0.06,0.13,-0.99,3.48,3.42,1.77
31.6330,0.07,0.13,-0.99,3.60,3.97,1.83
31.6480,0.07,0.13,-0.99,3.48,3.42,1.71
31.6650,0.07,0.13,-0.99,3.23,3.85,1.71
31.6720,0.07,0.12,-0.99,3.23,3.60,1.83
31.6950,0.08,0.12,-0.99,3.48,3.48,1.59
31.7050,0.07,0.13,-0.99,3.42,3.42,1.46
31.7220,0.07,0.13,-0.99,3.17,3.54,1.40
31.7390,0.06,0.13,-0.99,3.23,3.85,1.59
31.7560,0.07,0.13,-0.99,2.81,4.15,2.08
31.7720,0.08,0.12,-0.99,3.48,3.42,1.95
31.7880,0.07,0.12,-0.99,3.78,3.36,1.53
31.8040,0.07,0.13,-0.99,4.09,3.36,1.28
31.8190,0.07,0.13,-0.99,3.72,3.78,1.10
31.8340,0.07,0.13,-0.99,3.36,3.36,1.16
31.8500,0.07,0.13,-0.99,3.23,3.60,1.22
31.8660,0.07,0.13,-0.99,3.36,3.72,1.10
31.8810,0.08,0.13,-0.99,3.72,3.72,0.85
31.8890,0.07,0.12,-0.99,3.54,3.54,0.55
31.9050,0.07,0.13,-0.99,3.54,3.78,0.55
31.9200,0.07,0.13,-0.99,3.17,3.72,0.92
31.9440,0.08,0.13,-0.99,3.30,3.72,0.92
31.9600,0.08,0.13,-0.99,3.30,3.72,0.79
31.9770,0.08,0.12,-0.99,3.60,3.48,0.24
31.9920,0.07,0.13,-0.99,3.60,3.60,-0.43
31.9950,0.06,0.12,-0.99,3.30,4.21,-1.22
32.0220,0.05,0.13,-1.00,3.85,3.42,-0.18
32.0300,0.08,0.13,-0.99,3.48,3.60,0.43
32.0530,0.07,0.13,-0.99,3.30,4.15,0.06
32.0690,0.06,0.13,-0.99,3.66,4.09,0.49
32.0780,0.07,0.13,-0.99,3.60,3.54,1.04
32.0960,0.08,0.13,-0.99,3.66,3.42,1.04
32.1140,0.08,0.12,-0.99,3.36,3.91,0.55
32.1300,0.07,0.13,-0.99,3.30,4.03,0.24
32.1460,0.06,0.13,-0.99,3.36,3.72,0.12
32.1610,0.06,0.12,-1.00,3.60,3.72,0.98
32.1780,0.06,0.12,-0.99,3.48,3.78,1.53
32.1940,0.07,0.13,-0.99,3.23,4.03,1.89
32.2090,0.07,0.13,-0.99,3.54,3.36,1.95
32.2250,0.07,0.13,-0.99,3.72,3.54,1.77
32.2420,0.07,0.13,-0.99,3.42,3.48,1.89
32.2450,0.07,0.13,-0.99,3.17,3.66,2.01
32.2600,0.07,0.13,-0.99,3.23,3.36,2.08
32.2850,0.07,0.13,-0.99,3.42,3.66,2.08
32.3010,0.07,0.12,-0.99,3.48,3.78,2.01
32.3170,0.07,0.13,-0.99,3.66,3.48,2.20
32.3350,0.07,0.13,-0.99,3.42,3.60,2.08
32.3500,0.07,0.13,-0.99,3.36,3.66,2.20
32.3520,0.07,0.13,-0.99,3.48,3.48,2.08
32.3830,0.07,0.13,-0.99,3.72,3.72,2.14
32.3980,0.07,0.13,-0.99,3.66,3.30,2.14
32.4140,0.07,0.13,-0.99,3.54,3.30,2.20
32.4300,0.07,0.13,-0.99,3.23,3.54,2.14
32.4460,0.07,0.13,-0.99,3.30,3.85,2.26
32.4620,0.07,0.13,-0.99,3.36,3.78,2.14
32.4780,0.07,0.13,-0.99,3.48,3.54,2.08
32.4940,0.07,0.13,-0.99,3.42,3.72,2.14
32.5090,0.07,0.13,-0.99,3.23,3.48,2.01
32.5250,0.07,0.13,-0.99,3.05,3.66,2.38
32.5410,0.07,0.13,-0.99,3.23,3.78,2.20
32.5520,0.07,0.13,-0.99,3.60,3.36,2.08
32.5680,0.07,0.13,-0.99,3.78,3.72,2.14
32.5880,0.07,0.13,-0.99,3.48,3.54,2.01
32.5910,0.07,0.13,-0.99,3.23,3.66,2.08
32.6180,0.07,0.13,-0.99,3.30,3.48,2.14
32.6300,0.07,0.13,-0.99,3.36,3.54,2.08
32.6410,0.07,0.13,-0.99,3.05,3.60,2.14
32.6580,0.07,0.12,-0.99,3.42,3.54,2.14
32.6750,0.07,0.13,-0.99,3.36,3.60,2.26
32.6920,0.07,0.13,-0.99,3.54,3.48,2.01
32.7070,0.07,0.13,-0.99,3.48,3.48,2.08
32.7250,0.07,0.13,-0.99,3.48,3.36,2.08
32.7410,0.07,0.13,-0.99,3.17,3.78,2.08
32.7580,0.07,0.13,-0.99,3.23,3.66,2.08
32.7750,0.07,0.13,-0.99,3.30,3.78,2.20
32.7900,0.07,0.13,-0.99,3.30,3.17,2.14
32.8070,0.07,0.13,-0.99,3.36,3.30,2.01
32.8240,0.07,0.13,-0.99,3.48,3.85,2.01
32.8400,0.07,0.13,-0.99,3.23,3.48,2.26
32.8550,0.07,0.13,-0.99,3.30,3.54,2.14
32.8570,0.07,0.13,-0.99,3.30,3.85,2.08
32.8730,0.07,0.13,-0.99,3.17,3.85,2.08
32.8950,0.07,0.13,-0.99,3.36,3.48,2.14
32.9120,0.07,0.13,-0.99,3.23,4.15,2.20
32.9310,0.07,0.13,-0.99,3.42,3.72,2.14
32.9450,0.07,0.13,-0.99,3.30,3.72,2.01
32.9620,0.07,0.13,-0.99,3.17,3.60,2.08
32.9790,0.07,0.12,-0.99,2.99,3.48,2.01
32.9950,0.07,0.13,-0.99,3.30,3.48,2.20
33.0120,0.07,0.13,-0.99,3.60,3.17,2.26
33.0290,0.07,0.13,-0.99,3.36,3.66,2.01
33.0440,0.07,0.13,-0.99,3.30,3.72,2.14
33.0460,0.07,0.13,-0.99,3.30,3.54,2.20
33.0620,0.07,0.13,-0.99,3.11,3.54,1.95
33.0910,0.07,0.13,-0.99,3.36,3.66,2.01
33.1050,0.07,0.13,-0.99,3.48,3.54,2.20
33.1180,0.07,0.13,-0.99,3.36,3.23,2.14
33.1350,0.07,0.12,-0.99,3.36,3.48,1.95
33.1510,0.07,0.13,-0.99,3.48,3.42,2.26
33.1670,0.07,0.13,-0.99,3.23,3.66,2.26
33.1840,0.07,0.13,-0.99,3.17,3.72,2.38
33.2000,0.07,0.13,-0.99,3.17,3.48,2.38
33.2020,0.07,0.13,-0.99,3.48,3.42,2.08
33.2180,0.07,0.13,-0.99,3.30,3.54,2.14
33.2420,0.07,0.13,-0.99,3.54,3.42,2.20
33.2580,0.07,0.13,-0.99,3.42,3.54,2.08
33.2750,0.07,0.12,-0.99,3.36,3.54,2.20
33.2910,0.07,0.13,-0.99,3.42,3.48,2.20
33.3090,0.07,0.13,-0.99,3.48,3.48,2.14
33.3260,0.07,0.13,-0.99,3.23,3.78,2.08
33.3420,0.07,0.13,-0.99,3.54,3.54,2.20
33.3580,0.07,0.13,-0.99,3.48,3.91,2.14
33.3740,0.07,0.13,-0.99,3.54,3.85,2.32
33.3900,0.07,0.13,-0.99,3.54,3.66,2.20
33.4060,0.07,0.13,-0.99,3.60,3.85,2.01
33.4220,0.07,0.13,-0.99,3.42,3.66,2.14
33.4380,0.07,0.13,-0.99,3.42,3.60,2.20
33.4530,0.07,0.13,-0.99,3.42,3.48,2.08
33.4680,0.07,0.13,-0.99,3.48,3.54,2.20
33.4750,0.07,0.13,-0.99,3.48,3.30,2.14
33.4920,0.07,0.13,-0.99,3.54,3.60,2.14
33.5090,0.07,0.13,-0.99,3.54,3.60,2.14
33.5250,0.07,0.13,-0.99,3.11,3.48,2.20
33.5410,0.07,0.13,-0.99,2.87,3.48,2.14
33.5580,0.07,0.13,-0.99,3.23,3.72,2.14
33.5740,0.07,0.13,-0.99,3.48,3.72,2.14
33.5920,0.07,0.13,-0.99,3.30,3.30,2.14
33.6080,0.07,0.13,-0.99,3.30,3.72,2.14
33.6240,0.07,0.13,-0.99,3.30,3.42,2.26
33.6410,0.07,0.13,-0.99,3.17,3.42,2.26
33.6580,0.07,0.13,-0.99,3.30,3.54,2.08
33.6740,0.07,0.13,-0.99,3.05,3.60,2.01
33.6900,0.07,0.12,-0.99,3.11,3.23,2.01
33.7060,0.07,0.12,-0.99,3.66,3.05,1.95
33.7080,0.07,0.13,-0.99,3.36,3.48,2.14
33.7320,0.07,0.13,-0.99,3.54,3.54,2.14
33.7490,0.07,0.13,-0.99,3.11,4.09,2.08
33.7650,0.07,0.13,-0.99,3.23,3.42,2.01
33.7820,0.07,0.13,-0.99,3.11,3.97,2.08
33.7980,0.07,0.13,-0.99,3.42,3.66,2.01
33.8130,0.07,0.13,-0.99,3.42,3.72,2.08
33.8300,0.07,0.13,-0.99,3.54,3.23,2.01
33.8460,0.07,0.12,-0.99,3.54,3.30,2.01
33.8620,0.07,0.13,-0.99,3.48,3.17,2.08
33.8780,0.07,0.13,-0.99,3.36,3.42,2.20
33.8930,0.07,0.13,-0.99,3.11,3.72,2.08
33.8990,0.07,0.13,-0.99,3.30,3.54,2.32
33.9160,0.07,0.13,-0.99,3.23,3.30,2.20
33.9320,0.07,0.13,-0.99,3.17,3.54,2.08
33.9480,0.07,0.13,-0.99,2.99,3.54,2.20
33.9690,0.07,0.13,-0.99,2.87,4.03,2.32
33.9840,0.07,0.12,-0.99,3.05,3.72,2.20
34.0010,0.07,0.13,-0.99,3.36,3.78,2.08
34.0170,0.07,0.13,-0.99,3.48,3.78,2.14
34.0330,0.07,0.13,-0.99,3.30,3.60,2.01
34.0480,0.07,0.13,-0.99,3.36,3.91,2.20
34.0520,0.07,0.13,-0.99,3.30,3.91,2.26
34.0680,0.07,0.13,-0.99,3.30,3.72,2.26
34.0920,0.07,0.13,-0.99,3.48,3.72,2.14
34.1090,0.07,0.13,-0.99,3.36,3.60,2.08
34.1250,0.07,0.13,-0.99,3.54,3.30,2.20
34.1410,0.07,0.13,-0.99,3.78,3.54,2.14
34.1590,0.07,0.13,-0.99,3.48,3.42,2.20
34.1740,0.07,0.13,-0.99,3.42,3.78,2.26
34.1900,0.07,0.13,-0.99,3.42,3.72,2.32
34.2060,0.07,0.13,-0.99,3.60,3.60,2.14
34.2210,0.07,0.13,-0.99,3.48,3.30,2.14
34.2330,0.07,0.13,-0.99,3.17,3.66,2.08
34.2410,0.07,0.13,-0.99,3.17,3.42,2.08
34.2620,0.07,0.13,-0.99,3.23,3.42,2.08
34.2790,0.07,0.13,-0.99,3.30,3.30,2.26
34.2950,0.07,0.13,-0.99,3.30,3.72,2.14
34.3120,0.07,0.13,-0.99,3.42,3.72,2.26
34.3290,0.07,0.13,-0.99,3.36,3.60,2.14
34.3460,0.07,0.13,-0.99,3.30,3.42,2.20
34.3630,0.07,0.13,-0.99,3.42,3.17,2.20
34.3800,0.07,0.13,-0.99,3.17,3.72,2.32
34.3950,0.07,0.13,-0.99,3.36,3.60,2.14
34.4120,0.07,0.13,-0.99,3.54,3.48,2.20
34.4290,0.07,0.13,-0.99,3.54,3.42,2.01
34.4450,0.07,0.13,-0.99,3.36,3.66,2.20
34.4620,0.07,0.13,-0.99,3.36,3.60,2.14
34.4780,0.07,0.13,-0.99,3.42,3.60,2.14
34.4790,0.07,0.13,-0.99,3.36,3.11,2.01
34.5100,0.07,0.13,-0.99,3.23,3.42,2.08
34.5270,0.07,0.13,-0.99,3.36,3.36,1.95
34.5330,0.07,0.13,-0.99,3.54,3.11,2.01
34.5590,0.07,0.13,-0.99,3.36,3.42,2.14
34.5630,0.07,0.13,-0.99,3.30,3.78,2.20
34.5790,0.07,0.13,-0.99,3.42,3.54,2.08
34.5960,0.07,0.13,-0.99,3.17,3.66,2.26
34.6230,0.07,0.13,-0.99,3.36,3.54,2.08
34.6330,0.07,0.13,-0.99,3.23,3.42,2.14
34.6460,0.07,0.13,-0.99,3.54,3.30,2.14
34.6630,0.07,0.13,-0.99,3.36,3.42,2.14
34.6790,0.07,0.13,-0.99,3.36,3.54,2.14
34.6960,0.07,0.13,-0.99,3.36,3.48,2.20
34.7130,0.07,0.13,-0.99,3.30,3.60,2.20
34.7290,0.07,0.13,-0.99,3.48,3.72,2.20
34.7450,0.07,0.13,-0.99,3.54,3.66,2.26
34.7610,0.07,0.13,-0.99,3.91,3.48,2.01
34.7780,0.07,0.13,-0.99,3.78,3.11,2.01
34.7930,0.07,0.13,-0.99,3.78,3.36,2.20
34.8110,0.08,0.13,-0.99,4.27,3.48,2.01
34.8270,0.07,0.13,-0.99,3.85,3.54,1.65
34.8420,0.07,0.13,-0.99,3.54,3.48,1.83
34.8460,0.07,0.13,-0.99,3.42,3.78,2.01
34.8630,0.07,0.13,-0.99,3.30,3.11,2.14
34.8790,0.07,0.13,-0.99,3.42,3.48,2.08
34.9020,0.07,0.13,-0.99,3.72,3.72,2.20
34.9190,0.07,0.13,-0.99,4.09,3.60,2.14
34.9350,0.08,0.13,-0.99,3.72,3.66,1.83
34.9510,0.08,0.13,-0.99,4.27,3.30,1.22
34.9530,0.09,0.13,-0.97,4.39,3.05,0.55
34.9830,0.06,0.13,-1.00,4.70,3.30,1.04
34.9980,0.07,0.13,-0.99,4.15,3.05,1.53
35.0130,0.07,0.13,-0.99,3.48,3.85,1.71
35.0300,0.07,0.13,-0.99,2.99,3.91,2.08
35.0460,0.07,0.13,-0.99,2.93,4.03,2.32
35.0610,0.07,0.13,-0.99,3.05,3.17,2.26
35.0770,0.07,0.13,-0.99,3.05,3.42,1.95
35.0930,0.07,0.13,-0.99,3.11,3.48,2.08
35.1020,0.07,0.13,-0.99,2.99,3.97,2.01
35.1180,0.08,0.14,-1.02,2.99,3.66,2.01
35.1350,0.07,0.13,-0.99,2.75,4.03,2.01
35.1520,0.07,0.13,-0.99,2.69,3.72,2.08
35.1680,0.07,0.13,-0.99,2.62,3.85,2.20
35.1840,0.07,0.13,-0.99,2.26,3.91,2.26
35.1990,0.07,0.13,-0.99,2.56,3.85,2.32
35.2150,0.07,0.14,-0.99,3.05,4.88,1.65
35.2200,0.07,0.13,-0.99,2.81,3.78,2.20
35.2360,0.07,0.13,-0.99,2.93,3.60,2.08
35.2590,0.07,0.13,-0.99,3.36,3.78,2.14
35.2750,0.07,0.13,-0.99,3.42,3.66,2.14
35.2920,0.07,0.13,-0.99,3.36,3.97,2.14
35.3090,0.07,0.13,-0.99,3.42,3.54,2.26
35.3250,0.07,0.13,-0.99,3.54,3.72,2.20
35.3410,0.07,0.13,-0.99,3.60,3.66,2.14
35.3580,0.07,0.13,-0.99,3.42,3.60,2.08
35.3740,0.07,0.13,-0.99,3.42,3.36,2.01
35.3900,0.07,0.13,-0.99,3.60,3.36,2.20
35.4050,0.07,0.13,-0.99,3.54,3.54,2.32
35.4200,0.07,0.13,-0.99,3.54,3.78,2.32
35.4350,0.07,0.13,-0.99,3.48,3.60,2.44
35.4510,0.08,0.13,-0.99,3.42,3.91,2.56
35.4670,0.07,0.13,-0.99,3.23,3.78,2.01
35.4750,0.07,0.13,-0.99,3.05,3.60,2.26
35.4920,0.07,0.14,-0.99,2.69,3.66,2.01
35.5090,0.07,0.11,-1.00,0.49,3.60,1.89
35.5260,0.07,0.13,-0.99,3.23,3.48,2.14
35.5420,0.07,0.13,-0.99,2.93,3.85,2.01
35.5590,0.07,0.13,-0.99,2.87,3.48,2.01
35.5750,0.07,0.13,-0.99,3.36,3.72,2.14
35.5920,0.07,0.13,-0.99,3.23,3.17,2.14
35.6090,0.07,0.13,-0.99,3.30,3.66,2.14
35.6250,0.07,0.13,-0.99,3.17,3.78,2.08
35.6430,0.07,0.13,-0.99,3.36,3.23,2.08
35.6600,0.07,0.13,-0.99,3.30,3.66,2.01
35.6750,0.07,0.13,-0.99,3.48,3.85,2.14
35.6920,0.07,0.13,-0.99,3.42,3.72,2.08
35.7080,0.07,0.13,-0.99,2.87,4.03,2.14
35.7240,0.07,0.13,-0.99,3.11,3.85,2.01
35.7400,0.07,0.13,-0.99,3.30,3.60,1.95
35.7560,0.07,0.13,-0.99,3.23,3.97,2.08
35.7710,0.07,0.13,-0.99,3.30,3.97,2.26
35.7760,0.07,0.13,-0.99,3.30,3.72,2.08
35.7920,0.07,0.13,-0.99,3.11,3.91,2.14
35.8160,0.07,0.13,-0.99,3.30,3.72,2.14
35.8320,0.07,0.13,-0.99,3.30,3.78,2.14
35.8490,0.07,0.13,-0.99,3.36,3.72,2.20
35.8630,0.07,0.13,-0.99,3.42,3.42,2.26
35.8800,0.07,0.13,-0.99,3.05,3.97,2.14
35.8960,0.08,0.13,-0.99,3.23,3.85,2.20
35.9120,0.07,0.13,-0.99,3.23,3.91,2.08
35.9290,0.07,0.12,-0.99,3.36,3.85,2.26
35.9440,0.07,0.12,-0.99,3.36,3.60,2.20
35.9600,0.07,0.12,-0.99,3.23,3.66,2.32
35.9750,0.07,0.12,-0.99,3.23,3.72,2.20
35.9830,0.07,0.13,-0.99,3.23,3.48,2.14
36.0000,0.07,0.13,-0.99,3.36,3.91,2.14
36.0160,0.07,0.13,-0.99,3.36,3.85,2.26
36.0350,0.07,0.13,-0.99,3.36,3.97,2.26
36.0500,0.07,0.13,-0.99,3.36,3.91,2.14
36.0650,0.07,0.13,-0.99,3.36,3.91,2.08
36.0670,0.07,0.13,-0.99,3.30,3.97,2.20
36.0980,0.07,0.13,-0.99,3.23,3.54,2.08
36.1130,0.07,0.13,-0.99,3.23,3.97,2.20
36.1160,0.07,0.13,-0.99,3.30,3.91,2.08
36.1350,0.07,0.13,-0.99,3.30,3.72,2.08
36.1550,0.07,0.12,-0.99,3.36,3.23,1.95
36.1720,0.07,0.12,-0.99,3.30,3.72,2.01
36.1890,0.07,0.12,-0.99,3.11,3.78,2.20
36.2050,0.07,0.13,-0.99,3.17,4.09,1.95
36.2210,0.07,0.13,-0.99,3.36,3.42,2.14
36.2370,0.07,0.13,-0.99,3.23,3.60,2.20
36.2530,0.07,0.13,-0.99,3.30,3.66,2.20
36.2680,0.07,0.13,-0.99,3.30,3.85,2.08
36.2840,0.07,0.13,-0.99,3.36,3.60,2.26
36.3000,0.07,0.13,-0.99,3.36,3.85,2.08
36.3040,0.07,0.13,-0.99,3.30,3.97,2.20
36.3200,0.07,0.13,-0.99,3.30,3.60,2.20
36.3420,0.07,0.13,-0.99,3.17,3.78,2.26
36.3580,0.07,0.12,-0.99,3.30,3.91,2.01
36.3750,0.07,0.12,-0.99,3.30,3.66,2.14
36.3920,0.07,0.12,-0.99,3.11,3.97,2.20
36.4080,0.07,0.13,-0.99,3.23,3.60,2.08
36.4240,0.07,0.13,-0.99,3.17,3.72,2.26
36.4400,0.07,0.13,-0.99,3.36,3.72,2.14
36.4560,0.07,0.13,-0.99,3.23,3.78,2.01
36.4720,0.07,0.13,-0.99,3.30,3.66,2.14
36.4880,0.07,0.13,-0.99,3.36,3.60,2.08
36.5040,0.07,0.13,-0.99,3.30,3.72,2.01
36.5200,0.07,0.13,-0.99,3.36,3.78,2.14
36.5370,0.07,0.13,-0.99,3.42,3.78,2.01
36.5520,0.07,0.13,-0.99,3.42,3.60,2.01
36.5580,0.07,0.13,-0.99,3.42,3.54,2.20
36.5740,0.07,0.12,-0.99,3.36,3.72,2.14
36.5970,0.07,0.12,-0.99,3.17,3.30,2.14
36.6130,0.07,0.13,-0.99,3.30,3.72,2.14
36.6300,0.07,0.13,-0.99,3.36,3.72,2.14
36.6460,0.07,0.13,-0.99,3.36,3.66,1.95
36.6620,0.07,0.13,-0.99,3.23,3.72,2.08
36.6780,0.07,0.13,-0.99,3.30,3.66,2.20
36.6940,0.07,0.13,-0.99,3.11,3.72,2.14
36.7100,0.07,0.13,-0.99,3.30,3.91,2.01
36.7150,0.07,0.13,-0.99,3.48,3.85,2.14
36.7360,0.07,0.13,-0.99,2.93,3.66,2.01
36.7540,0.07,0.13,-0.99,3.05,3.60,2.20
36.7710,0.07,0.13,-0.99,3.42,3.85,2.26
36.7880,0.07,0.13,-0.99,3.42,3.48,2.20
36.8040,0.07,0.12,-0.99,3.60,3.48,2.26
36.8210,0.07,0.13,-0.99,3.30,3.60,2.26
36.8380,0.07,0.13,-0.99,3.23,3.66,2.26
36.8540,0.07,0.13,-0.99,3.23,3.78,2.26
36.8690,0.07,0.13,-0.99,3.36,3.60,2.14
36.8850,0.07,0.13,-0.99,3.48,4.03,2.08
36.9000,0.07,0.13,-0.99,3.36,3.97,2.14
36.9050,0.07,0.13,-0.99,3.42,3.66,2.20
36.9210,0.07,0.13,-0.99,3.30,3.42,2.01
36.9430,0.07,0.13,-0.99,3.42,3.66,2.20
36.9600,0.07,0.13,-0.99,3.42,3.54,2.08
36.9780,0.07,0.13,-0.99,3.54,3.36,2.20
36.9940,0.07,0.13,-0.99,3.36,3.60,2.20
37.0100,0.07,0.13,-0.99,3.30,4.21,2.20
37.0270,0.07,0.13,-0.99,3.54,3.66,2.26
37.0360,0.07,0.13,-0.99,3.36,3.91,2.14
37.0440,0.07,0.13,-0.99,3.23,3.60,2.14
37.0610,0.07,0.13,-0.99,3.36,3.85,2.20
37.0890,0.07,0.13,-0.99,3.30,3.30,1.95
37.0940,0.07,0.13,-0.99,3.42,3.91,2.20
37.1220,0.07,0.13,-0.99,3.36,3.85,2.14
37.1360,0.07,0.13,-0.99,3.23,3.78,2.08
37.1540,0.07,0.13,-0.99,3.17,3.48,2.08
37.1690,0.07,0.13,-0.99,3.23,3.72,2.01
37.1780,0.07,0.13,-0.99,2.87,3.72,2.01
37.1940,0.07,0.13,-0.99,3.05,3.85,2.14
37.2100,0.07,0.13,-0.99,2.99,3.78,2.20
37.2280,0.07,0.12,-0.99,3.05,3.66,2.14
37.2430,0.07,0.13,-0.99,2.99,3.66,2.01
37.2610,0.07,0.12,-0.99,3.11,3.97,2.20
37.2780,0.07,0.13,-0.99,3.17,3.78,2.01
37.2940,0.07,0.13,-0.99,3.30,3.85,2.14
37.3110,0.07,0.13,-0.99,3.30,3.85,2.26
37.3270,0.07,0.13,-0.99,3.17,3.91,2.20
37.3370,0.07,0.12,-0.99,2.99,3.66,2.08
37.3440,0.07,0.13,-0.99,3.42,3.48,2.20
37.3610,0.07,0.13,-0.99,3.48,3.30,2.26
37.3910,0.07,0.13,-0.99,3.23,3.78,1.95
37.3940,0.07,0.13,-0.99,3.30,3.60,2.20
37.4230,0.07,0.13,-0.99,3.17,3.54,2.20
37.4370,0.07,0.13,-0.99,3.17,3.72,2.14
37.4440,0.07,0.12,-0.99,3.17,3.48,2.20
37.4710,0.07,0.13,-0.99,3.17,3.60,2.14
37.4860,0.07,0.13,-0.99,3.36,3.42,2.20
37.4950,0.07,0.13,-0.99,3.54,3.91,2.20
37.5110,0.07,0.12,-0.99,3.36,3.78,2.20
37.5270,0.07,0.13,-0.99,3.11,3.91,2.32
37.5440,0.07,0.13,-0.99,3.23,3.85,2.26
37.5600,0.07,0.13,-0.99,3.17,3.78,2.14
37.5770,0.07,0.13,-1.00,3.30,4.03,2.20
37.5940,0.07,0.12,-0.99,3.17,3.60,2.14
37.6110,0.07,0.13,-0.99,3.11,3.54,2.08
37.6120,0.07,0.12,-0.99,3.11,3.60,2.14
37.6430,0.07,0.12,-0.99,3.42,3.72,2.32
37.6600,0.07,0.12,-1.00,3.97,3.48,2.44
37.6760,0.07,0.12,-0.99,4.39,3.23,2.01
37.6920,0.07,0.13,-0.99,4.46,3.36,2.08
37.6940,0.07,0.13,-0.99,3.78,3.23,2.14
37.7100,0.07,0.13,-0.99,3.30,3.66,2.20
37.7320,0.07,0.13,-0.99,4.15,3.30,2.14
37.7480,0.08,0.14,-0.99,4.46,2.87,2.08
37.7650,0.08,0.13,-0.99,4.64,2.81,2.20
37.7820,0.07,0.13,-1.00,4.64,2.81,2.32
37.7980,0.07,0.13,-1.00,4.21,3.05,2.14
37.8130,0.07,0.13,-0.99,3.30,3.23,2.26
37.8290,0.07,0.13,-0.99,2.99,3.60,2.32
37.8460,0.07,0.13,-0.99,2.69,4.03,2.20
37.8620,0.07,0.13,-0.99,2.81,3.91,2.08
37.8780,0.07,0.13,-0.99,2.14,3.91,2.20
37.8930,0.06,0.12,-0.97,2.14,4.46,2.08
37.9080,0.07,0.13,-1.00,1.22,4.39,2.26
37.9170,0.07,0.13,-0.99,1.65,3.66,2.93
37.9320,0.09,0.12,-0.99,2.01,4.27,2.87
37.9490,0.06,0.13,-0.99,2.50,4.21,1.83
37.9660,0.07,0.12,-0.99,3.05,3.85,2.08
37.9820,0.07,0.12,-0.99,3.17,3.72,1.95
37.9990,0.07,0.12,-0.99,2.93,3.72,2.01
38.0160,0.07,0.12,-0.99,3.30,3.42,2.01
38.0330,0.07,0.13,-0.99,3.36,3.72,2.14
38.0480,0.07,0.12,-0.99,3.23,4.03,2.08
38.0640,0.07,0.13,-0.99,3.42,3.42,2.08
38.0650,0.07,0.13,-0.99,3.42,3.48,2.01
38.0960,0.07,0.13,-0.99,3.36,4.09,2.01
38.1120,0.07,0.13,-0.99,3.60,3.30,2.20
38.1280,0.07,0.13,-0.99,3.72,4.03,2.26
38.1440,0.07,0.13,-0.99,4.09,3.42,2.20
38.1490,0.07,0.13,-0.99,3.78,3.91,2.08
38.1650,0.07,0.13,-1.00,3.72,3.91,2.14
38.1880,0.07,0.12,-0.99,3.85,3.48,2.08
38.2050,0.07,0.13,-0.99,3.91,3.30,2.32
38.2210,0.07,0.13,-0.99,3.23,3.30,2.08
38.2380,0.07,0.13,-0.99,3.42,3.66,2.14
38.2550,0.07,0.11,-0.99,2.56,3.72,1.83
38.2710,0.07,0.12,-0.99,3.36,3.91,2.14
38.2880,0.07,0.12,-0.99,3.30,3.60,2.20
38.3030,0.07,0.13,-0.99,3.23,3.85,2.32
38.3180,0.07,0.13,-0.99,3.17,3.91,2.26
38.3330,0.07,0.13,-0.99,3.17,3.54,2.20
38.3500,0.07,0.13,-0.99,3.30,3.78,2.14
38.3550,0.07,0.13,-0.99,3.30,3.48,2.01
38.3710,0.07,0.13,-0.99,3.30,3.78,2.08
38.3860,0.07,0.13,-0.99,3.17,3.97,2.01
38.4080,0.07,0.13,-0.99,3.30,3.97,2.26
38.4250,0.07,0.13,-0.99,3.42,3.36,2.14
38.4420,0.07,0.13,-0.99,3.36,3.66,2.26
38.4570,0.07,0.13,-0.99,3.23,3.78,2.20
38.4740,0.07,0.13,-0.99,3.30,3.97,2.20
38.4920,0.07,0.13,-0.99,3.36,3.42,1.95
38.5070,0.07,0.13,-0.99,3.30,3.42,2.20
38.5240,0.07,0.13,-0.99,3.42,3.60,2.01
38.5400,0.07,0.13,-0.99,3.30,3.60,2.01
38.5550,0.07,0.13,-0.99,3.17,3.91,2.14
38.5710,0.07,0.13,-0.99,3.30,3.54,2.14
38.5860,0.07,0.13,-0.99,3.42,3.42,2.01
38.6010,0.07,0.13,-0.99,3.23,3.78,2.14
38.6080,0.07,0.12,-0.99,3.42,3.66,2.01
38.6240,0.07,0.13,-0.99,3.11,4.15,2.08
38.6470,0.07,0.13,-0.99,3.17,3.91,2.38
38.6630,0.07,0.13,-0.99,3.30,3.72,2.14
38.6800,0.07,0.13,-0.99,3.23,3.66,2.14
38.6810,0.07,0.13,-0.99,3.23,3.91,2.14
38.6960,0.07,0.13,-0.99,3.36,4.09,2.26
38.7140,0.07,0.13,-0.99,3.30,4.03,2.20
38.7430,0.07,0.13,-0.99,3.36,3.66,2.14
38.7590,0.07,0.13,-0.99,3.36,3.60,2.26
38.7760,0.07,0.13,-0.99,3.36,3.66,2.14
38.7810,0.07,0.12,-0.99,3.23,3.85,2.08
38.7960,0.07,0.12,-0.99,3.30,3.97,1.95
38.8190,0.07,0.13,-0.99,3.23,3.66,1.89
38.8360,0.07,0.13,-0.99,3.60,3.42,2.01
38.8530,0.07,0.13,-0.99,3.30,3.66,2.01
38.8690,0.07,0.13,-0.99,3.30,3.72,2.20
38.8840,0.07,0.13,-0.99,3.23,3.42,2.14
38.8990,0.07,0.13,-0.99,3.17,3.85,2.32
38.9160,0.07,0.13,-0.99,2.87,4.03,2.01
38.9330,0.07,0.13,-0.99,3.11,3.66,2.20
38.9490,0.07,0.12,-0.99,3.36,3.85,2.20
38.9650,0.07,0.13,-0.99,3.11,3.42,2.08
38.9800,0.07,0.13,-0.99,3.11,3.78,2.08
38.9960,0.07,0.13,-0.99,3.42,3.42,2.20
39.0110,0.07,0.12,-0.99,3.23,4.03,2.38
39.0190,0.07,0.13,-0.99,3.23,3.54,2.38
39.0400,0.07,0.13,-0.99,2.99,3.78,2.56
39.0520,0.07,0.13,-0.99,2.81,3.78,2.56
39.0690,0.07,0.12,-0.99,2.87,3.78,2.14
39.0850,0.06,0.13,-0.99,3.05,3.78,2.38
39.1010,0.07,0.12,-0.99,3.05,3.60,2.75
39.1170,0.07,0.13,-0.99,3.30,3.42,2.75
39.1320,0.07,0.13,-0.99,3.11,3.72,2.50
39.1480,0.07,0.12,-0.99,2.93,3.91,2.56
39.1630,0.07,0.13,-0.99,3.66,3.36,2.32
39.1780,0.07,0.12,-0.99,3.30,4.09,2.44
39.1930,0.08,0.13,-0.99,3.23,3.78,2.32
39.2090,0.07,0.13,-0.99,3.48,3.48,2.01
39.2190,0.08,0.13,-0.99,3.42,3.48,2.08
39.2350,0.07,0.13,-0.99,2.87,4.09,2.08
39.2520,0.07,0.12,-0.99,3.05,3.60,1.83
39.2680,0.07,0.13,-0.99,3.11,3.66,2.26
39.2690,0.07,0.12,-0.99,3.05,3.78,2.50
39.2980,0.06,0.12,-0.99,2.99,3.72,2.44
39.3140,0.08,0.13,-0.99,3.36,3.66,2.56
39.3290,0.07,0.13,-0.99,2.93,3.91,2.38
39.3450,0.07,0.13,-0.99,3.05,3.78,2.08
39.3610,0.07,0.13,-0.99,3.23,3.72,2.26
39.3770,0.07,0.13,-0.99,3.05,3.97,2.26
39.3930,0.07,0.12,-0.99,3.05,3.72,2.38
39.4090,0.07,0.12,-0.99,2.87,4.03,2.56
39.4180,0.07,0.12,-0.99,2.44,3.97,3.05
39.4360,0.08,0.13,-0.99,3.11,3.85,2.87
39.4520,0.07,0.13,-0.99,3.48,4.03,2.14
39.4690,0.07,0.13,-0.99,3.54,3.78,2.08
39.4850,0.07,0.13,-0.99,3.36,3.66,1.89
39.5010,0.07,0.12,-0.99,3.23,3.72,2.08
39.5170,0.07,0.12,-0.99,3.36,3.78,1.95
39.5330,0.06,0.12,-1.00,3.72,3.78,2.20
39.5480,0.06,0.12,-1.00,2.87,3.91,2.32
39.5620,0.08,0.13,-0.99,2.75,4.03,2.26
39.5690,0.08,0.13,-0.99,3.05,3.60,2.01
39.5850,0.07,0.13,-0.99,3.42,3.30,2.01
39.6080,0.07,0.12,-0.99,3.11,3.66,2.14
39.6230,0.07,0.12,-0.99,3.36,3.72,2.14
39.6410,0.07,0.12,-0.99,3.60,3.72,2.08
39.6570,0.07,0.12,-0.99,3.54,3.66,2.01
39.6730,0.07,0.13,-0.99,3.42,3.60,2.08
39.6900,0.07,0.12,-0.99,3.48,3.85,2.14
39.7060,0.07,0.13,-0.99,3.23,3.72,1.95
39.7220,0.07,0.13,-0.99,3.05,3.60,2.01
39.7380,0.07,0.13,-0.99,3.36,4.03,2.14
39.7410,0.07,0.13,-0.99,3.17,3.60,2.14
39.7570,0.07,0.13,-0.99,3.78,3.72,2.01
39.7790,0.07,0.12,-0.99,3.66,3.54,2.01
39.7960,0.07,0.12,-0.99,3.48,4.09,0.37
39.8130,0.07,0.13,-0.99,3.60,3.85,0.43
39.8290,0.07,0.13,-0.99,2.99,3.66,1.71
39.8460,0.07,0.13,-0.99,2.26,3.97,2.20
39.8630,0.07,0.12,-0.99,2.44,3.72,2.20
39.8790,0.07,0.12,-0.99,3.05,3.85,2.20
39.8950,0.07,0.13,-0.99,3.36,3.66,2.20
39.9130,0.07,0.13,-0.99,3.48,3.30,2.01
39.9280,0.07,0.13,-0.99,3.17,3.85,2.08
39.9440,0.07,0.13,-0.99,3.30,4.09,2.26
39.9600,0.07,0.13,-0.99,3.72,3.54,2.14
39.9630,0.07,0.13,-0.99,3.91,3.54,2.01
39.9790,0.07,0.13,-0.99,3.54,4.21,2.08
40.0040,0.07,0.13,-0.99,3.30,3.66,2.14
40.0210,0.07,0.12,-0.99,2.99,3.66,2.08
40.0360,0.07,0.13,-0.99,3.05,3.42,2.08
40.0410,0.07,0.13,-0.99,3.30,3.30,2.01
40.0530,0.07,0.12,-0.99,3.05,3.23,2.08
40.0820,0.07,0.13,-0.99,2.99,3.60,2.14
40.0920,0.07,0.12,-0.99,3.17,3.97,2.14
40.1080,0.07,0.13,-0.99,3.17,3.72,2.08
40.1250,0.07,0.13,-0.99,3.23,3.78,2.26
40.1420,0.07,0.13,-0.99,3.05,3.85,2.14
40.1580,0.07,0.13,-0.99,3.36,3.91,2.26
40.1740,0.07,0.13,-0.99,3.30,3.78,2.14
40.1910,0.07,0.13,-0.99,3.36,3.66,2.14
40.2060,0.07,0.13,-0.99,3.54,3.42,2.08
40.2220,0.07,0.12,-0.99,3.30,3.78,2.01
40.2250,0.07,0.12,-0.99,3.48,3.60,2.20
40.2410,0.07,0.12,-0.99,3.54,3.66,2.20
40.2630,0.07,0.13,-0.99,3.48,3.97,2.32
40.2800,0.07,0.13,-0.99,3.48,3.54,2.01
40.2960,0.07,0.13,-0.99,3.48,3.85,2.20
40.3140,0.07,0.13,-0.99,3.42,3.60,2.01
40.3310,0.07,0.13,-0.99,3.78,3.60,2.14
40.3460,0.07,0.13,-0.99,3.42,3.78,2.14
40.3630,0.07,0.12,-0.99,3.48,3.72,2.32
40.3800,0.07,0.13,-0.99,3.78,3.78,2.14
40.3960,0.07,0.12,-0.99,4.03,3.60,2.26
40.3970,0.08,0.13,-0.95,4.15,3.42,2.01
40.4290,0.07,0.12,-0.99,4.52,3.17,1.89
40.4420,0.08,0.13,-0.99,4.52,3.36,2.01
40.4600,0.07,0.13,-0.99,4.58,3.11,2.08
40.4760,0.07,0.13,-0.99,4.21,3.30,1.95
40.4910,0.07,0.13,-0.99,3.72,3.54,1.95
40.4970,0.07,0.13,-0.99,3.17,3.66,2.01
40.5130,0.07,0.13,-0.99,2.99,3.60,1.89
40.5330,0.07,0.13,-0.99,2.93,3.91,2.08
40.5500,0.07,0.13,-0.99,2.69,3.48,2.14
40.5680,0.07,0.13,-0.99,2.50,4.09,2.01
40.5830,0.07,0.13,-0.99,2.26,4.15,1.95
40.5990,0.07,0.12,-1.00,1.34,4.58,2.08
40.6150,0.07,0.12,-0.99,1.59,4.21,2.20
40.6170,0.07,0.13,-0.99,2.26,3.85,2.20
40.6480,0.06,0.13,-1.00,1.83,4.33,1.89
40.6640,0.07,0.12,-0.99,2.75,3.91,1.95
40.6790,0.07,0.12,-0.99,2.93,3.78,2.01
40.6960,0.07,0.13,-0.99,3.17,3.91,2.01
40.7120,0.07,0.13,-0.99,2.93,3.72,2.01
40.7290,0.07,0.12,-0.99,2.99,4.21,2.26
40.7450,0.07,0.13,-0.99,3.23,3.91,2.14
40.7600,0.07,0.13,-0.99,3.11,4.03,2.08
40.7760,0.07,0.13,-0.99,3.05,3.97,2.08
40.7830,0.07,0.12,-0.99,3.11,3.85,2.14
40.8000,0.07,0.12,-0.99,3.17,3.91,2.14
40.8220,0.07,0.13,-0.99,3.42,3.85,2.14
40.8240,0.07,0.12,-0.99,2.99,3.66,2.08
40.8420,0.07,0.12,-0.99,3.30,3.85,2.26
40.8670,0.07,0.12,-0.99,3.36,3.66,2.01
40.8820,0.07,0.12,-0.99,3.23,3.97,2.14
40.8900,0.07,0.13,-0.99,3.30,3.54,2.08
40.9060,0.07,0.12,-0.99,3.23,3.60,2.08
40.9290,0.07,0.12,-0.99,3.11,3.78,2.14
40.9460,0.07,0.12,-0.99,3.23,3.78,2.14
40.9630,0.07,0.13,-0.99,3.11,3.85,2.01
40.9790,0.07,0.13,-0.99,2.99,3.78,2.20
40.9960,0.07,0.12,-0.99,3.17,3.97,2.08
41.0120,0.07,0.13,-0.99,3.23,3.78,2.01
41.0130,0.07,0.13,-0.99,3.36,3.91,2.20
41.0430,0.07,0.12,-0.99,3.23,3.30,2.01
41.0450,0.07,0.12,-0.99,3.23,3.91,2.14
41.0700,0.07,0.12,-0.99,3.42,3.23,2.08
41.0870,0.07,0.12,-0.99,3.42,3.78,2.14
41.1030,0.07,0.12,-0.99,3.60,3.60,2.08
41.1210,0.07,0.12,-0.99,3.54,4.03,2.20
41.1360,0.07,0.12,-0.99,3.48,3.60,2.08
41.1520,0.07,0.12,-0.99,3.42,3.85,2.20
41.1680,0.07,0.13,-0.99,3.48,3.78,2.14
41.1690,0.07,0.13,-0.99,3.36,3.36,2.14
41.1990,0.07,0.13,-0.99,3.23,3.85,2.14
41.2020,0.07,0.12,-0.99,3.36,3.85,2.20
41.2210,0.07,0.12,-0.99,3.30,3.85,2.08
41.2460,0.07,0.12,-0.99,3.30,3.97,2.20
41.2530,0.07,0.13,-0.99,3.60,3.66,2.08
41.2700,0.07,0.13,-0.99,3.60,3.66,1.95
41.2860,0.07,0.13,-0.99,3.36,3.91,1.95
41.3020,0.07,0.12,-0.99,2.87,3.78,2.14
41.3220,0.07,0.13,-0.99,3.30,3.54,1.95
41.3380,0.08,0.12,-0.99,3.66,3.85,1.95
41.3540,0.08,0.13,-0.99,3.48,3.72,1.46
41.3700,0.07,0.13,-0.99,3.54,3.72,1.34
41.3860,0.07,0.13,-0.99,3.54,3.54,1.53
41.4020,0.07,0.13,-0.99,3.17,3.97,1.53
41.4170,0.07,0.13,-0.99,2.93,3.66,1.89
41.4320,0.07,0.12,-0.99,2.87,3.72,2.14
41.4430,0.07,0.12,-0.99,2.99,3.60,2.08
41.4560,0.07,0.12,-0.99,2.93,3.54,2.01
41.4740,0.07,0.12,-0.99,2.93,3.72,2.14
41.4900,0.07,0.12,-0.99,2.93,4.03,2.14
41.5070,0.07,0.12,-0.99,3.23,3.85,2.08
41.5230,0.07,0.13,-1.00,3.30,3.48,2.08
41.5400,0.07,0.12,-0.99,3.05,3.54,2.01
41.5560,0.07,0.12,-0.99,3.23,3.78,2.14
41.5720,0.07,0.12,-0.99,3.30,3.72,1.95
41.5880,0.07,0.12,-0.99,3.36,3.72,2.01
41.6040,0.07,0.13,-0.99,3.48,3.78,1.53
41.6200,0.07,0.12,-0.99,3.36,3.66,1.95
41.6360,0.07,0.12,-0.99,3.23,3.54,1.83
41.6520,0.07,0.12,-0.99,3.11,3.42,1.89
41.6560,0.07,0.12,-0.99,3.11,3.72,2.14
41.6720,0.07,0.13,-0.99,3.48,3.48,2.08
41.6940,0.07,0.12,-0.99,3.36,3.42,2.14
41.7110,0.07,0.12,-0.99,3.42,4.03,2.08
41.7280,0.07,0.12,-0.99,3.30,3.60,1.46
41.7460,0.07,0.12,-0.99,3.42,3.60,1.53
41.7610,0.07,0.13,-0.99,3.60,3.54,1.16
41.7780,0.07,0.13,-0.99,3.72,3.60,1.28
41.7930,0.07,0.12,-0.99,3.30,3.78,1.83
41.7950,0.07,0.12,-0.99,3.60,3.42,1.22
41.8110,0.08,0.12,-0.99,3.54,3.60,0.61
41.8420,0.07,0.12,-0.99,3.72,3.66,0.00
41.8580,0.06,0.13,-0.99,3.72,4.33,0.12
41.8740,0.07,0.12,-0.99,3.36,3.97,0.43
41.8900,0.07,0.12,-0.99,3.36,3.78,0.43
41.8950,0.06,0.13,-0.99,3.48,4.03,0.61
41.9120,0.07,0.12,-0.99,3.54,3.66,0.55
41.9350,0.07,0.12,-0.99,3.48,3.91,0.43
41.9510,0.07,0.13,-0.99,3.78,3.72,0.43
41.9660,0.07,0.12,-0.99,3.85,3.60,0.73
41.9810,0.08,0.12,-0.99,3.72,3.78,0.79
41.9860,0.07,0.12,-0.99,3.54,3.97,-0.12
42.0120,0.07,0.12,-0.99,3.66,3.97,-0.55
42.0280,0.07,0.13,-0.99,3.42,4.09,-0.18
42.0370,0.07,0.13,-0.99,3.36,4.09,0.67
42.0540,0.07,0.13,-0.99,3.30,3.72,1.16
42.0710,0.07,0.12,-0.99,3.17,3.85,2.08
42.0880,0.07,0.12,-0.99,3.42,3.78,1.22
42.1030,0.07,0.12,-0.99,3.42,3.85,0.73
42.1200,0.07,0.13,-0.99,3.48,3.30,1.22
42.1360,0.07,0.12,-0.99,3.17,3.42,1.65
42.1510,0.07,0.13,-0.99,3.36,3.66,1.83
42.1540,0.07,0.13,-0.99,3.30,3.85,2.08
42.1700,0.07,0.12,-0.99,3.54,3.42,1.59
42.1920,0.07,0.12,-0.99,3.42,3.48,1.28
42.2100,0.07,0.13,-0.99,3.36,3.72,1.16
42.2260,0.07,0.12,-0.99,3.36,3.72,1.28
42.2440,0.07,0.12,-0.99,3.36,4.15,-0.06
42.2590,0.07,0.12,-0.99,3.36,3.91,-0.49
42.2750,0.07,0.13,-0.99,3.30,3.91,0.24
42.2920,0.07,0.12,-0.99,3.36,3.66,1.28
42.3100,0.07,0.12,-0.99,2.93,3.78,1.53
42.3250,0.07,0.13,-0.99,2.75,4.03,1.40
42.3420,0.07,0.13,-0.99,3.42,3.78,1.34
42.3580,0.07,0.12,-1.00,3.05,3.78,1.34
42.3590,0.06,0.12,-0.99,3.36,3.72,0.73
42.3760,0.08,0.13,-0.99,3.05,4.27,1.46
42.3930,0.07,0.13,-0.99,3.23,3.30,1.95
42.4090,0.07,0.13,-0.99,3.30,3.48,2.08
42.4250,0.07,0.13,-0.99,3.17,3.54,1.95
42.4470,0.07,0.12,-0.99,3.30,3.60,2.08
42.4630,0.07,0.12,-0.99,3.42,3.91,2.20
42.4820,0.06,0.11,-1.00,3.17,3.23,1.89
42.4970,0.08,0.13,-0.99,2.99,3.78,1.65
42.5130,0.07,0.13,-0.99,3.11,3.78,2.08
42.5300,0.07,0.13,-0.99,3.05,3.91,1.95
42.5460,0.07,0.12,-0.99,3.23,3.85,2.08
42.5480,0.07,0.12,-1.00,3.60,3.54,1.95
42.5780,0.07,0.12,-0.99,3.36,3.97,1.59
42.5810,0.07,0.12,-0.99,3.23,4.09,0.79
42.5970,0.07,0.13,-0.99,3.36,4.03,0.49
42.6140,0.07,0.12,-0.99,3.42,3.91,1.16
42.6300,0.07,0.12,-0.99,3.23,3.66,1.22
42.6460,0.06,0.12,-1.00,3.54,3.91,0.18
42.6700,0.07,0.12,-0.99,3.23,4.27,0.37
42.6710,0.08,0.14,-0.99,3.30,4.09,0.00
42.6860,0.07,0.13,-0.99,3.48,3.91,0.98
42.7160,0.07,0.12,-0.99,3.42,3.66,1.71
42.7330,0.07,0.12,-0.99,3.48,3.66,1.71
42.7440,0.07,0.12,-0.99,3.30,3.78,1.59
42.7640,0.07,0.12,-0.99,3.66,3.60,1.40
42.7800,0.07,0.12,-0.99,3.66,3.85,1.10
42.7960,0.07,0.13,-0.99,3.17,4.21,0.31
42.8120,0.07,0.12,-0.99,3.42,4.03,0.85
42.8190,0.07,0.12,-0.99,3.42,3.60,0.49
42.8350,0.07,0.11,-1.00,3.42,4.15,-0.92
42.8510,0.07,0.13,-0.99,3.60,4.39,-0.92
42.8760,0.07,0.14,-0.99,3.42,4.03,0.43
42.8910,0.07,0.12,-0.99,3.72,3.60,0.85
42.9070,0.07,0.12,-1.00,3.60,3.91,1.04
42.9080,0.07,0.12,-0.99,3.36,3.78,0.98
42.9380,0.07,0.13,-0.99,3.36,3.78,0.79
42.9440,0.07,0.13,-0.99,3.36,3.97,0.31
42.9590,0.07,0.13,-0.99,3.48,4.27,-0.18
42.9750,0.07,0.13,-0.99,3.66,4.15,0.31
43.0010,0.07,0.12,-0.99,3.60,3.66,1.16
43.0160,0.07,0.12,-1.00,3.54,3.85,1.10
43.0250,0.07,0.12,-0.99,3.23,4.09,0.92
43.0440,0.07,0.12,-0.99,3.05,3.85,0.92
43.0590,0.07,0.11,-0.99,2.99,4.15,0.37
43.0750,0.08,0.13,-0.99,3.66,3.72,-0.92
43.0920,0.07,0.13,-0.99,3.66,4.21,-1.10
43.1090,0.07,0.13,-0.99,3.66,3.97,-0.61
43.1260,0.07,0.13,-0.99,3.42,3.97,-0.18
43.1410,0.07,0.13,-0.99,3.23,3.91,0.85
43.1440,0.07,0.13,-0.99,3.42,3.66,0.92
43.1590,0.07,0.13,-0.99,3.36,3.72,0.92
43.1830,0.07,0.13,-0.99,3.60,3.72,1.65
43.1990,0.07,0.12,-0.99,3.85,3.36,1.83
43.2160,0.07,0.12,-1.00,3.54,3.78,1.71
43.2330,0.07,0.11,-0.99,3.23,3.91,1.34
43.2500,0.07,0.12,-0.99,3.05,4.09,0.37
43.2660,0.07,0.12,-0.99,3.23,3.85,0.18
43.2830,0.07,0.13,-1.00,3.42,3.78,-0.18
43.2990,0.07,0.14,-0.99,3.36,3.97,1.34
43.3150,0.07,0.12,-0.99,3.48,3.97,2.01
43.3310,0.07,0.12,-1.00,3.36,3.42,1.89
43.3460,0.07,0.11,-1.00,3.23,3.48,1.28
43.3620,0.08,0.12,-0.99,3.48,3.78,0.31
43.3670,0.07,0.12,-0.99,3.36,4.39,-0.85
43.3830,0.07,0.13,-0.99,3.66,3.85,-0.73
43.4100,0.07,0.13,-0.99,3.78,3.48,-0.67
43.4170,0.07,0.13,-0.99,3.72,3.60,0.00
43.4430,0.07,0.13,-0.99,3.85,3.48,0.85
43.4500,0.07,0.12,-0.99,3.23,3.60,1.10
43.4660,0.07,0.12,-1.00,3.23,3.60,0.37
43.4830,0.07,0.12,-0.99,3.23,3.78,-0.18
43.5000,0.08,0.12,-0.99,3.42,4.27,-1.04
43.5170,0.07,0.14,-0.99,3.60,4.09,-1.59
43.5330,0.07,0.13,-0.99,3.66,4.21,-0.12
43.5490,0.07,0.12,-0.99,3.60,3.78,0.67
43.5660,0.07,0.13,-0.99,3.17,3.72,1.40
43.5830,0.07,0.13,-0.99,3.05,4.03,1.53
43.5990,0.07,0.13,-0.99,3.17,3.91,1.28
43.6000,0.07,0.12,-0.99,3.30,3.85,0.98
43.6160,0.07,0.12,-0.99,3.48,3.91,0.67
43.6470,0.07,0.12,-0.99,3.42,3.85,0.24
43.6620,0.07,0.12,-0.99,3.48,4.21,1.10
43.6780,0.07,0.12,-0.99,3.23,3.78,0.98
43.6950,0.07,0.12,-0.99,3.42,3.85,0.73
43.7100,0.07,0.13,-0.99,3.42,4.09,0.37
43.7280,0.07,0.12,-0.99,3.48,4.21,-0.37
43.7330,0.07,0.12,-0.99,3.48,4.15,-0.73
43.7510,0.07,0.12,-0.99,3.30,4.15,-0.67
43.7670,0.07,0.13,-0.99,3.36,4.15,0.06
43.7820,0.07,0.13,-0.99,3.42,4.03,0.67
43.7990,0.07,0.13,-0.99,3.48,4.09,1.28
43.8160,0.07,0.13,-0.99,3.36,3.78,1.53
43.8330,0.07,0.12,-0.99,3.48,3.97,1.40
43.8500,0.07,0.11,-0.99,3.30,4.03,0.85
43.8660,0.07,0.12,-0.99,3.17,4.46,0.31
43.8670,0.07,0.13,-0.99,3.23,3.85,-0.31
43.8980,0.07,0.13,-0.99,3.54,3.85,-0.12
43.9150,0.07,0.13,-0.99,3.48,3.85,0.98
43.9170,0.07,0.13,-0.99,3.42,3.91,1.65
43.9460,0.07,0.12,-0.99,3.36,3.85,1.89
43.9490,0.07,0.12,-1.00,3.42,3.48,1.83
43.9710,0.07,0.11,-1.00,3.23,3.78,1.16
43.9880,0.07,0.12,-0.99,3.42,4.09,0.12
44.0040,0.07,0.13,-0.99,3.66,4.15,-0.37
44.0220,0.07,0.12,-0.99,3.54,4.21,-0.24
44.0220,0.07,0.13,-0.99,3.42,3.97,0.18
44.0530,0.07,0.13,-0.99,3.42,3.97,0.00
44.0680,0.07,0.13,-0.99,3.42,3.72,0.61
44.0710,0.07,0.12,-1.00,3.11,4.03,0.98
44.0880,0.07,0.12,-0.99,3.36,4.03,0.31
44.1040,0.07,0.12,-1.00,3.30,4.27,0.06
44.1250,0.07,0.12,-0.99,3.30,4.27,-0.06
44.1420,0.07,0.12,-0.99,3.30,4.39,0.00
44.1590,0.07,0.12,-0.99,3.36,4.03,0.12
44.1750,0.07,0.14,-0.99,3.05,3.91,0.12
44.1760,0.07,0.13,-0.99,3.23,3.91,0.37
44.1930,0.07,0.13,-0.99,3.36,4.39,0.06
44.2090,0.07,0.12,-0.99,3.30,4.09,-0.06
44.2380,0.07,0.12,-0.99,3.30,4.21,0.00
44.2450,0.07,0.12,-0.99,3.48,4.21,-0.18
44.2590,0.07,0.12,-0.99,3.60,3.85,0.55
44.2750,0.07,0.13,-0.99,3.42,4.03,0.55
44.2910,0.07,0.13,-0.99,3.23,4.15,0.79
44.3120,0.07,0.13,-0.99,3.30,3.85,1.10
44.3290,0.07,0.12,-1.00,3.36,3.72,1.22
44.3450,0.07,0.12,-0.99,3.36,3.91,0.98
44.3630,0.07,0.12,-0.99,3.42,3.60,0.73
44.3790,0.07,0.12,-0.99,3.42,3.91,-0.06
44.3960,0.07,0.13,-0.99,3.54,4.15,-0.18
44.4120,0.07,0.13,-0.99,3.48,3.72,0.24
44.4280,0.07,0.12,-0.99,3.36,4.09,0.43
44.4440,0.07,0.13,-0.99,3.17,3.97,0.85
44.4460,0.07,0.13,-0.99,3.05,4.09,1.04
44.4750,0.07,0.12,-0.99,3.23,3.91,1.04
44.4900,0.07,0.12,-1.00,3.23,4.03,0.92
44.4960,0.07,0.12,-1.00,2.99,3.85,0.73
44.5140,0.07,0.12,-1.00,3.17,4.09,0.55
44.5300,0.07,0.14,-0.99,3.23,4.21,0.06
44.5460,0.07,0.13,-0.99,3.17,4.21,0.79
44.5640,0.07,0.13,-1.00,3.17,4.09,1.28
44.5800,0.07,0.13,-0.99,2.50,4.09,2.08
44.5950,0.07,0.12,-0.99,2.81,3.91,2.56
44.6110,0.07,0.12,-0.99,3.30,3.91,1.46
44.6130,0.07,0.12,-0.99,3.85,3.91,1.10
44.6430,0.07,0.12,-0.99,3.85,3.48,1.10
44.6580,0.07,0.12,-0.99,3.42,3.78,1.04
44.6740,0.07,0.12,-1.00,3.23,3.97,0.92
44.6890,0.07,0.12,-0.99,3.11,4.21,0.92
44.7040,0.07,0.12,-1.00,3.17,4.46,-0.06
44.7130,0.07,0.12,-1.00,3.30,4.03,-0.37
44.7290,0.07,0.12,-0.99,3.42,3.97,-0.67
44.7450,0.07,0.13,-0.99,3.72,3.97,0.00
44.7650,0.07,0.12,-0.99,3.72,3.72,0.43
44.7680,0.07,0.12,-0.99,3.66,3.78,0.00
44.7970,0.07,0.13,-0.99,3.17,3.97,0.55
44.8120,0.07,0.13,-0.99,3.42,3.60,0.92
44.8280,0.07,0.12,-1.00,3.23,4.21,1.10
44.8360,0.07,0.12,-0.99,3.30,4.27,0.24
44.8580,0.07,0.12,-0.99,3.30,4.33,-0.67
44.8690,0.07,0.11,-1.00,3.54,4.15,-1.40
44.8850,0.07,0.12,-0.99,3.72,4.15,-1.46
44.9050,0.07,0.13,-0.99,3.66,4.21,-0.61
44.9090,0.07,0.13,-0.99,3.42,4.39,-0.12
44.9260,0.08,0.13,-0.99,3.54,4.09,-0.31
44.9460,0.07,0.12,-0.99,3.54,4.27,-0.98
44.9680,0.07,0.12,-0.99,3.48,4.15,-1.10
44.9760,0.07,0.12,-0.99,3.48,4.33,-0.92
44.9930,0.07,0.13,-0.99,3.42,4.27,-1.40
45.0080,0.07,0.13,-0.99,3.42,4.33,-0.43
45.0260,0.07,0.13,-0.99,3.36,4.39,-0.18
45.0460,0.07,0.13,-0.99,3.36,4.15,0.24
45.0620,0.07,0.12,-0.99,3.54,4.15,-0.18
45.0670,0.07,0.12,-0.99,3.48,4.15,-0.43
45.0930,0.07,0.13,-0.99,3.60,3.85,-0.67
45.1000,0.07,0.13,-0.99,3.54,3.78,-0.55
45.1240,0.07,0.13,-0.99,3.48,4.27,0.43
45.1330,0.07,0.13,-0.99,3.17,3.97,1.28
45.1490,0.07,0.13,-0.99,3.23,3.85,1.65
45.1700,0.07,0.12,-1.00,3.30,3.91,1.59
45.1870,0.07,0.11,-1.00,3.42,3.97,0.00
45.2040,0.07,0.12,-1.00,3.91,4.52,-1.53
45.2200,0.07,0.11,-1.00,3.85,4.21,-1.34
45.2360,0.07,0.13,-0.99,3.23,4.64,-1.34
45.2460,0.07,0.13,-0.99,3.48,4.03,-0.18
45.2670,0.07,0.13,-0.99,3.11,4.46,0.18
45.2830,0.07,0.13,-0.99,3.30,4.15,0.43
45.2980,0.07,0.13,-0.99,3.23,4.03,0.67
45.3140,0.07,0.12,-0.99,3.66,3.36,1.16
45.3200,0.07,0.13,-0.99,3.54,3.72,1.53
45.3360,0.07,0.12,-0.99,3.54,3.78,2.01
45.3580,0.07,0.12,-0.99,3.54,4.15,1.28
45.3740,0.07,0.12,-0.99,3.36,3.72,0.67
45.3910,0.07,0.13,-0.99,3.23,3.91,0.73
45.4060,0.07,0.13,-0.99,3.30,4.03,1.77
45.4220,0.07,0.12,-0.99,3.36,3.60,2.01
45.4240,0.07,0.12,-0.99,3.23,3.78,2.08
45.4460,0.07,0.12,-0.99,3.30,3.42,1.89
45.4580,0.07,0.12,-1.00,3.60,3.66,1.95
45.4810,0.07,0.12,-0.99,3.42,4.09,0.55
45.4960,0.07,0.11,-1.00,3.42,4.15,0.12
45.5140,0.07,0.12,-0.99,3.60,3.97,-0.37
45.5300,0.07,0.12,-0.99,3.60,4.21,-0.37
45.5480,0.07,0.13,-0.99,3.54,4.09,-0.12
45.5640,0.07,0.13,-0.99,3.30,4.33,0.00
45.5810,0.07,0.13,-0.99,3.48,4.15,-0.06
45.5960,0.07,0.13,-0.99,3.36,3.97,0.18
45.6120,0.07,0.12,-0.99,3.36,4.15,0.92
45.6290,0.07,0.12,-0.99,3.17,4.39,0.73
45.6450,0.07,0.11,-0.99,3.36,3.97,-0.24
45.6480,0.07,0.13,-0.99,3.23,4.27,0.06
45.6770,0.07,0.13,-0.99,3.48,3.97,0.67
45.6810,0.07,0.12,-0.99,3.30,3.66,0.98
45.6970,0.07,0.12,-0.99,3.17,4.03,0.43
45.7130,0.07,0.11,-1.00,3.05,4.46,-0.49
45.7340,0.07,0.12,-0.99,3.17,4.64,-1.71
45.7520,0.07,0.12,-0.99,3.42,4.46,-1.65
45.7680,0.07,0.13,-0.99,3.60,4.09,-0.55
45.7850,0.07,0.13,-0.99,3.54,3.91,0.43
45.8000,0.07,0.13,-0.99,3.42,3.97,0.24
45.8170,0.07,0.12,-0.99,3.42,4.21,-0.12
45.8190,0.07,0.12,-0.99,3.30,4.46,-1.28
45.8490,0.07,0.11,-0.99,3.42,4.15,-2.01
45.8650,0.07,0.12,-0.99,3.72,4.03,-2.50
45.8810,0.07,0.13,-0.99,3.42,4.64,-2.08
45.8850,0.07,0.14,-0.99,3.11,4.03,-0.98
45.9130,0.07,0.14,-0.99,3.05,4.03,-0.24
45.9180,0.07,0.13,-0.99,3.30,3.66,1.16
45.9340,0.07,0.11,-1.00,3.36,4.27,0.85
45.9590,0.07,0.11,-0.99,3.30,4.27,-1.28
45.9740,0.07,0.12,-0.99,3.60,4.64,-1.77
45.9750,0.07,0.12,-0.99,3.54,4.33,-1.10
46.0060,0.07,0.12,-1.00,3.48,4.70,-1.22
46.0080,0.07,0.12,-0.99,3.05,4.46,-1.65
46.0350,0.07,0.13,-0.99,3.42,4.27,-1.40
46.0470,0.07,0.14,-0.99,3.36,4.21,-0.61
46.0590,0.07,0.12,-1.00,3.48,3.72,0.67
46.0750,0.07,0.13,-0.99,3.05,4.27,-0.24
46.0980,0.07,0.13,-0.99,2.93,4.27,-0.55
46.1150,0.07,0.13,-1.00,3.11,3.97,0.31
46.1150,0.07,0.13,-0.99,2.69,4.33,1.40
46.1450,0.07,0.13,-1.00,3.23,3.54,2.20
46.1610,0.07,0.12,-0.99,2.50,4.09,2.20
46.1770,0.07,0.12,-0.99,3.36,3.48,2.14
46.1920,0.07,0.11,-0.99,3.60,4.09,0.85
46.1980,0.07,0.12,-0.99,3.78,4.21,-0.31
46.2140,0.07,0.12,-0.99,3.66,4.15,-0.73
46.2380,0.07,0.13,-0.99,3.48,4.15,-0.49
46.2510,0.07,0.13,-0.99,3.11,4.09,1.40
46.2680,0.07,0.12,-0.99,3.23,3.85,1.89
46.2730,0.07,0.12,-0.99,2.99,3.97,1.59
46.2880,0.07,0.12,-0.99,3.30,3.66,0.73
46.3080,0.07,0.11,-0.99,3.42,3.97,0.73
46.3270,0.07,0.12,-0.99,3.60,4.27,0.37
46.3430,0.07,0.13,-0.99,3.11,4.15,0.49
46.3590,0.07,0.13,-0.99,3.30,4.09,0.61
46.3740,0.07,0.13,-0.99,3.30,4.15,0.18
46.3900,0.07,0.12,-0.99,3.42,3.78,0.79
46.3910,0.07,0.12,-0.99,3.60,4.09,0.49
46.4230,0.07,0.12,-1.00,3.72,3.78,0.49
46.4250,0.07,0.13,-1.00,3.36,3.91,0.73
46.4540,0.07,0.14,-0.99,2.93,3.91,1.28
46.4580,0.07,0.13,-0.99,2.87,3.72,1.83
46.4740,0.07,0.13,-0.99,2.93,3.60,2.26
46.5000,0.07,0.12,-0.99,3.30,3.85,2.01
46.5160,0.07,0.11,-0.99,3.48,3.60,1.16
46.5250,0.07,0.11,-0.99,3.66,3.97,0.61
46.5410,0.06,0.12,-0.99,3.42,3.91,0.00
46.5580,0.07,0.13,-0.99,3.17,4.09,1.28
46.5740,0.07,0.13,-0.99,3.23,3.85,1.34
46.5930,0.07,0.13,-0.99,3.48,3.42,1.28
46.5980,0.07,0.12,-0.99,3.23,4.09,0.55
46.6150,0.07,0.13,-0.99,3.60,3.97,0.79
46.6310,0.07,0.13,-1.00,3.60,3.66,1.77
46.6510,0.07,0.12,-0.99,2.69,3.97,2.50
46.6680,0.07,0.12,-0.99,2.75,3.72,2.38
46.6850,0.07,0.12,-0.99,2.93,4.09,2.08
46.7020,0.07,0.12,-0.99,3.42,3.72,1.95
46.7170,0.07,0.11,-1.00,3.60,3.72,1.10
46.7330,0.07,0.13,-0.99,3.60,4.03,0.43
46.7490,0.07,0.12,-0.99,3.30,3.85,1.04
46.7650,0.07,0.13,-0.99,3.11,3.48,1.22
46.7810,0.07,0.12,-0.99,3.36,3.60,0.79
46.7970,0.07,0.13,-1.00,3.42,3.91,0.67
46.8120,0.07,0.12,-0.99,3.42,4.03,0.73
46.8270,0.07,0.12,-0.99,3.11,4.27,0.43
46.8420,0.07,0.13,-0.99,3.11,4.21,0.98
46.8570,0.07,0.12,-0.99,3.17,3.60,1.59
46.8680,0.07,0.13,-0.99,3.11,3.85,1.16
46.8840,0.07,0.12,-0.99,3.30,3.97,0.73
46.9050,0.07,0.12,-0.99,3.66,3.91,1.04
46.9210,0.07,0.11,-1.00,3.85,3.97,0.37
46.9370,0.06,0.12,-0.99,3.36,3.72,0.61
46.9490,0.07,0.12,-0.99,3.48,3.72,1.65
46.9560,0.07,0.13,-0.99,3.23,3.60,1.46
46.9800,0.07,0.13,-0.99,3.60,3.60,1.89
46.9970,0.07,0.12,-0.99,3.60,3.78,1.77
47.0130,0.07,0.12,-1.00,3.66,3.54,0.98
47.0300,0.07,0.12,-0.99,3.17,4.09,-0.24
47.0460,0.07,0.13,-0.99,3.23,3.85,-0.31
47.0610,0.07,0.13,-0.99,3.60,3.72,0.49
47.0630,0.07,0.12,-0.99,3.23,4.21,0.49
47.0930,0.07,0.12,-0.99,3.42,4.27,-0.12
47.0960,0.07,0.13,-0.99,3.54,4.09,-0.79
47.1130,0.07,0.13,-0.99,3.54,3.97,-0.85
47.1300,0.07,0.13,-0.99,3.85,3.72,0.12
47.1490,0.07,0.13,-0.99,3.60,3.60,1.22
47.1640,0.07,0.12,-1.00,3.48,3.48,2.20
47.1790,0.07,0.12,-0.99,3.23,3.91,1.65
47.1950,0.07,0.11,-1.00,3.30,3.85,1.28
47.2100,0.07,0.12,-0.99,3.23,3.72,0.61
47.2280,0.07,0.12,-0.99,3.48,4.09,0.79
47.2430,0.07,0.12,-0.99,3.54,3.48,1.28
47.2530,0.07,0.12,-0.99,3.42,3.66,1.34
47.2700,0.07,0.12,-0.99,3.42,3.97,1.04
47.2870,0.07,0.12,-0.99,3.30,4.03,0.43
47.3030,0.07,0.13,-0.99,3.36,4.27,-0.49
47.3190,0.07,0.12,-0.99,3.48,3.91,0.18
47.3360,0.07,0.12,-1.00,3.60,4.03,-0.37
47.3520,0.07,0.13,-1.00,3.30,4.09,0.24
47.3670,0.07,0.13,-0.99,3.23,3.66,0.92
47.3830,0.08,0.13,-0.99,3.36,4.03,0.67
47.3990,0.07,0.13,-0.99,3.48,4.27,0.37
47.4150,0.07,0.12,-0.99,3.54,4.21,0.55
47.4310,0.07,0.13,-0.99,3.54,3.91,0.85
47.4470,0.07,0.12,-0.99,3.36,3.91,1.28
47.4540,0.07,0.11,-1.00,3.11,3.91,1.34
47.4700,0.07,0.12,-0.99,3.23,4.27,0.12
47.4870,0.07,0.13,-0.99,3.23,4.15,-0.37
47.5040,0.07,0.13,-0.99,3.91,3.78,0.24
47.5190,0.07,0.13,-0.99,3.54,4.21,0.24
47.5370,0.07,0.14,-0.99,3.30,4.03,1.04
47.5530,0.07,0.09,-0.99,3.11,3.85,1.10
47.5700,0.07,0.13,-0.99,3.30,3.97,1.16
47.5700,0.07,0.11,-1.00,3.23,4.03,0.92
47.5860,0.07,0.12,-0.99,3.30,4.21,0.00
47.6170,0.07,0.12,-0.99,3.36,4.03,-0.49
47.6330,0.07,0.13,-0.99,3.60,3.78,0.18
47.6480,0.07,0.12,-0.99,3.60,3.72,0.43
47.6650,0.07,0.12,-0.99,3.60,3.85,0.18
47.6700,0.07,0.12,-0.99,3.60,4.03,-0.55
47.6870,0.07,0.12,-0.99,3.60,4.21,-0.73
47.7130,0.07,0.12,-0.99,3.23,3.91,-1.40
47.7190,0.07,0.13,-0.99,3.30,4.27,-0.49
47.7440,0.07,0.13,-0.99,3.48,3.85,-0.43
47.7530,0.07,0.13,-0.99,2.99,3.97,-0.31
47.7700,0.07,0.13,-0.99,3.11,4.27,0.79
47.7870,0.07,0.12,-0.99,3.17,3.66,1.40
47.8030,0.07,0.13,-0.99,3.23,3.72,1.59
47.8200,0.07,0.11,-1.00,3.23,3.60,1.22
47.8360,0.07,0.12,-0.99,3.36,3.78,0.31
47.8530,0.07,0.11,-0.99,3.42,4.21,-0.67
47.8690,0.07,0.12,-0.99,3.36,4.27,-1.46
47.8840,0.07,0.12,-0.99,3.78,3.78,-1.10
47.9000,0.07,0.13,-1.00,3.72,4.21,-0.43
47.9160,0.06,0.12,-0.99,3.60,3.97,-0.12
47.9320,0.07,0.12,-1.00,3.36,4.21,-0.55
47.9370,0.07,0.12,-0.99,3.30,4.46,-1.46
47.9650,0.07,0.14,-0.99,3.17,4.46,-1.95
47.9700,0.07,0.13,-0.99,3.78,3.97,-0.85
47.9950,0.07,0.12,-0.99,3.48,3.85,0.43
48.0110,0.07,0.13,-0.99,3.66,3.66,0.98
48.0260,0.07,0.12,-0.99,3.30,3.78,1.28
48.0370,0.07,0.12,-0.99,3.42,3.91,1.46
48.0530,0.07,0.12,-0.99,3.36,4.03,0.49
48.0690,0.07,0.12,-0.99,3.48,4.21,-0.79
48.0870,0.07,0.12,-0.99,3.42,4.52,-0.67
48.1030,0.07,0.13,-0.99,3.30,4.39,-0.18
48.1200,0.07,0.13,-0.99,3.23,3.78,0.79
48.1350,0.07,0.12,-0.99,3.17,3.97,1.28
48.1510,0.07,0.12,-0.99,3.23,3.91,1.10
48.1670,0.07,0.13,-0.99,3.05,3.78,0.67
48.1820,0.07,0.12,-0.99,3.23,3.97,0.61
48.1970,0.07,0.13,-0.99,3.17,4.09,0.61
48.2130,0.07,0.12,-0.99,3.42,3.91,1.04
48.2280,0.07,0.12,-1.00,3.36,3.85,1.65
48.2370,0.07,0.12,-0.99,2.99,3.66,1.83
