Timestamp, AccX, AccY, AccZ, GyroX, GyroY, GyroZ
0.0120,0.07,0.12,-0.99,2.62,2.75,1.89
0.0270,0.07,0.13,-0.99,2.56,2.69,1.89
0.0340,0.07,0.12,-0.99,2.50,2.44,1.83
0.0510,0.07,0.12,-0.99,2.99,2.62,1.83
0.0680,0.07,0.12,-0.99,3.54,2.38,1.77
0.0870,0.07,0.12,-0.99,3.85,1.77,1.71
0.1000,0.07,0.13,-0.99,3.72,1.65,1.59
0.1170,0.07,0.13,-1.00,3.66,1.65,1.65
0.1330,0.07,0.13,-0.99,3.54,1.59,1.83
0.1340,0.07,0.12,-0.99,3.11,2.14,1.71
0.1620,0.07,0.12,-0.99,3.23,1.83,1.77
0.1770,0.07,0.12,-0.99,3.30,1.59,1.77
0.1930,0.07,0.13,-0.99,3.36,1.77,1.83
0.2020,0.07,0.12,-0.99,3.42,1.89,1.83
0.2170,0.07,0.12,-0.99,3.54,1.95,1.77
0.2340,0.07,0.12,-0.99,3.66,1.40,1.89
0.2510,0.07,0.12,-0.99,3.54,1.59,1.71
0.2670,0.07,0.12,-0.99,3.60,2.01,1.77
0.2820,0.07,0.12,-0.99,3.60,1.89,1.77
0.2860,0.07,0.12,-0.99,3.48,1.46,1.71
0.3010,0.07,0.12,-0.99,3.11,1.34,1.71
0.3170,0.07,0.12,-0.99,3.60,1.59,1.71
0.3340,0.07,0.12,-0.99,3.85,1.65,1.77
0.3580,0.07,0.12,-0.99,3.60,1.71,1.77
0.3670,0.07,0.12,-0.99,3.42,1.59,1.71
0.3860,0.07,0.13,-1.00,3.72,1.46,1.95
0.4010,0.07,0.13,-0.99,3.66,1.71,1.83
0.4180,0.07,0.13,-0.99,3.48,1.77,1.83
0.4330,0.07,0.12,-0.99,3.54,2.01,1.65
0.4510,0.07,0.12,-0.99,3.91,1.95,1.89
0.4670,0.07,0.12,-0.99,3.85,1.89,1.89
0.4830,0.07,0.13,-0.99,4.03,1.95,1.83
0.4870,0.07,0.12,-0.99,3.48,1.40,1.77
0.5140,0.07,0.12,-0.99,3.48,0.85,1.53
0.5290,0.07,0.13,-0.99,3.66,1.53,1.83
0.5380,0.07,0.12,-0.99,3.48,1.65,1.89
0.5540,0.07,0.12,-0.99,3.54,1.28,1.89
0.5710,0.07,0.13,-0.99,3.91,1.65,1.95
0.5880,0.07,0.13,-0.99,3.42,1.89,1.83
0.6040,0.07,0.12,-0.99,3.11,2.20,1.71
0.6220,0.07,0.13,-0.99,3.11,1.71,1.71
0.6370,0.07,0.12,-0.99,3.11,1.77,1.71
0.6530,0.07,0.12,-0.99,3.30,1.40,1.65
0.6690,0.07,0.13,-0.99,3.30,1.53,1.77
0.6850,0.07,0.12,-0.99,3.30,1.53,1.77
0.6880,0.07,0.12,-0.99,3.54,1.77,1.77
0.7150,0.07,0.12,-0.99,3.66,2.01,1.77
0.7210,0.07,0.13,-0.99,3.91,1.83,1.77
0.7380,0.07,0.13,-0.99,3.66,1.77,1.77
0.7550,0.07,0.12,-0.99,3.23,1.89,1.71
0.7700,0.07,0.12,-0.99,3.78,1.71,1.83
0.7900,0.07,0.13,-0.99,3.72,1.83,1.89
0.8050,0.07,0.13,-0.99,3.36,1.77,1.77
0.8220,0.07,0.12,-0.99,3.85,1.53,1.71
0.8370,0.07,0.12,-0.99,3.78,1.46,1.77
0.8520,0.07,0.12,-0.99,3.91,1.71,1.71
0.8670,0.07,0.12,-0.99,4.09,1.34,1.77
0.8770,0.07,0.12,-0.98,3.60,1.59,1.65
0.8940,0.07,0.12,-0.99,4.03,1.40,1.77
0.9100,0.07,0.13,-0.99,4.03,1.77,1.83
0.9270,0.07,0.13,-0.99,3.72,1.89,1.89
0.9440,0.07,0.13,-0.99,3.54,1.95,1.83
0.9600,0.07,0.13,-0.99,3.48,1.95,1.83
0.9760,0.07,0.12,-0.99,3.36,1.77,1.77
0.9910,0.07,0.12,-0.99,3.23,1.34,1.65
1.0060,0.07,0.12,-0.99,3.23,1.65,1.71
1.0220,0.07,0.13,-0.99,3.36,1.59,1.71
1.0380,0.07,0.12,-0.99,3.54,1.77,2.01
1.0540,0.07,0.13,-0.99,3.72,1.83,1.77
1.0690,0.07,0.13,-0.99,3.66,1.71,1.89
1.0780,0.07,0.13,-0.99,3.54,1.89,1.77
1.0950,0.07,0.13,-0.99,3.54,1.28,1.77
1.1110,0.07,0.13,-0.99,3.60,1.34,1.89
1.1290,0.07,0.13,-0.99,3.72,1.10,1.71
1.1440,0.07,0.13,-0.99,3.66,1.28,1.83
1.1590,0.07,0.13,-0.99,3.23,1.89,1.71
1.1740,0.07,0.13,-0.99,3.11,1.46,1.83
1.1910,0.07,0.13,-0.99,3.11,1.46,1.71
1.1940,0.07,0.13,-0.99,2.81,1.71,1.71
1.2100,0.07,0.12,-0.98,2.81,1.83,2.08
1.2370,0.07,0.13,-1.00,3.66,1.89,1.83
1.2470,0.07,0.13,-0.99,3.78,1.77,1.83
1.2650,0.07,0.13,-0.99,3.30,1.89,1.77
1.2800,0.07,0.13,-0.99,3.05,1.89,1.83
1.2980,0.07,0.13,-0.99,3.42,1.40,1.77
1.3150,0.07,0.13,-0.99,3.54,1.22,1.89
1.3300,0.07,0.13,-0.99,3.11,1.28,1.71
1.3470,0.07,0.12,-0.99,3.23,1.53,1.65
1.3630,0.07,0.12,-0.99,3.42,1.65,1.65
1.3790,0.07,0.12,-0.99,3.48,2.14,1.83
1.3940,0.07,0.13,-0.99,3.23,1.89,1.77
1.4100,0.07,0.13,-0.99,3.42,2.08,1.83
1.4250,0.07,0.13,-0.99,3.17,2.08,1.77
1.4400,0.07,0.12,-0.99,3.48,1.77,1.71
1.4560,0.07,0.13,-0.99,3.36,2.08,1.83
1.4720,0.07,0.13,-0.99,3.36,1.77,1.71
1.4810,0.07,0.13,-0.99,3.23,1.71,1.89
1.4970,0.07,0.13,-0.99,3.36,1.95,1.83
1.5170,0.07,0.13,-0.99,3.30,1.77,1.95
1.5330,0.07,0.13,-0.99,2.87,1.95,1.83
1.5500,0.07,0.12,-0.99,3.05,1.65,1.71
1.5540,0.07,0.12,-0.99,3.11,1.83,2.01
1.5690,0.07,0.13,-0.99,3.17,2.01,1.77
1.5880,0.07,0.12,-0.99,3.30,1.46,1.71
1.6070,0.07,0.13,-0.99,3.36,1.65,1.83
1.6250,0.07,0.12,-0.99,3.36,1.83,1.77
1.6410,0.07,0.12,-0.99,3.23,1.95,2.01
1.6580,0.07,0.12,-0.99,3.30,1.65,1.77
1.6730,0.07,0.12,-0.99,3.42,1.95,1.77
1.6880,0.07,0.12,-0.99,2.87,1.89,1.83
1.7040,0.07,0.12,-0.99,3.11,1.95,1.71
1.7200,0.07,0.13,-0.99,2.99,2.01,1.77
1.7360,0.07,0.12,-0.99,3.05,2.08,1.65
1.7510,0.07,0.13,-0.99,3.48,1.89,1.89
1.7670,0.07,0.12,-0.99,3.66,2.01,1.89
1.7740,0.07,0.12,-0.99,3.48,1.89,1.95
1.7900,0.07,0.12,-0.99,3.60,1.65,1.77
1.8090,0.07,0.12,-0.99,3.54,1.83,1.71
1.8260,0.07,0.13,-0.99,3.36,2.08,1.71
1.8420,0.07,0.12,-0.99,3.17,1.89,1.71
1.8570,0.07,0.13,-0.99,3.11,1.77,1.89
1.8730,0.07,0.13,-0.99,2.93,2.14,1.77
1.8880,0.07,0.12,-0.99,3.42,1.65,1.83
1.9030,0.07,0.12,-0.99,3.23,2.20,1.83
1.9190,0.07,0.12,-0.99,3.30,2.26,1.89
1.9350,0.07,0.12,-0.99,3.66,2.44,1.89
1.9430,0.07,0.12,-0.99,3.78,1.95,1.77
1.9580,0.07,0.12,-0.99,3.66,2.26,2.14
1.9800,0.07,0.12,-0.99,3.72,1.77,1.95
1.9970,0.07,0.12,-0.99,3.78,1.59,1.83
2.0140,0.07,0.13,-0.99,3.36,1.46,1.77
2.0150,0.07,0.12,-0.99,3.17,2.14,1.95
2.0450,0.07,0.12,-0.99,3.91,2.20,2.08
2.0600,0.07,0.12,-0.99,3.66,2.20,1.89
2.0690,0.07,0.12,-0.99,3.54,2.50,2.01
2.0890,0.07,0.12,-0.99,3.91,2.44,2.08
2.1020,0.07,0.13,-0.99,4.03,2.38,2.08
2.1210,0.07,0.13,-0.99,3.30,2.87,1.89
2.1350,0.07,0.12,-1.00,3.42,2.32,2.01
2.1530,0.07,0.12,-0.99,3.97,1.95,1.89
2.1700,0.07,0.12,-0.99,4.33,1.89,1.95
2.1870,0.07,0.13,-1.00,4.46,2.14,2.08
2.2020,0.07,0.13,-0.99,3.85,2.08,1.95
2.2190,0.07,0.13,-0.99,3.72,1.89,2.08
2.2340,0.07,0.13,-0.99,3.66,2.08,1.95
2.2500,0.07,0.12,-0.99,3.48,1.83,2.01
2.2660,0.07,0.13,-0.99,3.78,2.14,2.01
2.2810,0.07,0.13,-0.99,3.78,1.71,1.95
2.2970,0.07,0.13,-0.99,3.60,1.95,1.89
2.3130,0.07,0.12,-0.99,3.60,1.34,1.89
2.3290,0.07,0.12,-0.99,3.30,1.83,1.77
2.3430,0.07,0.12,-0.99,3.78,1.83,1.89
2.3520,0.07,0.13,-0.99,3.97,1.71,1.89
2.3700,0.07,0.13,-0.99,3.97,1.77,2.14
2.3890,0.07,0.13,-0.99,3.66,2.20,2.01
2.4020,0.07,0.13,-0.99,3.72,1.34,1.95
2.4200,0.07,0.13,-0.99,3.36,1.89,1.83
2.4350,0.07,0.12,-0.99,3.23,1.77,1.83
2.4520,0.07,0.12,-0.99,3.36,1.65,1.89
2.4690,0.07,0.13,-0.99,3.85,1.89,1.95
2.4850,0.07,0.13,-0.99,3.54,1.65,1.95
2.4890,0.07,0.13,-0.99,3.17,1.89,2.01
2.5160,0.07,0.13,-0.99,3.23,1.83,1.89
2.5320,0.07,0.13,-0.99,3.48,1.77,1.95
2.5360,0.07,0.13,-0.99,3.66,1.71,1.95
2.5620,0.07,0.13,-0.99,3.60,1.65,1.95
2.5780,0.07,0.13,-0.99,3.66,1.95,2.08
2.5930,0.07,0.13,-0.99,3.66,2.14,2.01
2.6030,0.07,0.12,-0.99,3.17,2.14,1.95
2.6190,0.07,0.13,-0.99,3.66,1.53,1.89
2.6360,0.07,0.13,-0.99,3.30,1.59,1.89
2.6530,0.07,0.13,-0.99,3.42,1.59,1.83
2.6710,0.07,0.13,-0.99,3.72,1.65,1.95
2.6850,0.07,0.13,-0.99,3.54,2.08,2.08
2.7020,0.07,0.13,-0.99,3.48,2.26,2.01
2.7030,0.07,0.13,-0.99,3.54,2.01,2.01
2.7340,0.07,0.13,-0.99,3.66,2.08,1.89
2.7360,0.07,0.13,-0.99,3.36,2.08,2.01
2.7520,0.07,0.12,-0.99,3.36,1.95,1.89
2.7810,0.07,0.13,-0.99,3.66,1.77,2.08
2.7970,0.07,0.13,-0.99,3.85,1.34,1.89
2.8080,0.07,0.13,-0.99,3.85,1.83,1.89
2.8260,0.07,0.13,-0.99,3.54,1.71,1.83
2.8420,0.07,0.13,-0.99,3.42,1.83,2.01
2.8580,0.07,0.13,-0.99,3.42,1.77,2.08
2.8730,0.07,0.13,-0.99,3.17,2.14,2.08
2.8890,0.07,0.13,-0.99,3.17,2.08,2.01
2.9050,0.07,0.13,-0.99,3.48,2.08,2.01
2.9210,0.07,0.13,-0.99,3.42,2.14,2.01
2.9380,0.07,0.13,-0.99,3.17,1.71,1.95
2.9540,0.07,0.12,-0.99,3.11,1.95,1.77
2.9690,0.07,0.12,-0.99,3.30,1.65,1.83
2.9850,0.07,0.13,-0.99,3.66,1.65,2.01
2.9920,0.07,0.13,-0.99,3.66,1.46,2.01
3.0080,0.07,0.13,-0.99,3.78,1.34,1.89
3.0300,0.07,0.13,-0.99,3.60,1.83,2.08
3.0460,0.07,0.12,-0.99,3.36,1.71,1.83
3.0620,0.07,0.12,-0.99,3.54,1.95,1.95
3.0770,0.07,0.13,-0.99,3.42,1.89,1.95
3.0920,0.07,0.13,-0.99,3.54,1.95,1.95
3.1070,0.07,0.13,-0.99,3.60,2.01,2.08
3.1230,0.07,0.13,-0.99,3.36,2.26,2.08
3.1400,0.06,0.13,-0.99,3.11,1.77,1.77
3.1560,0.06,0.12,-0.99,3.11,2.08,1.77
3.1720,0.07,0.12,-0.99,3.23,1.77,1.89
3.1880,0.07,0.13,-0.99,3.48,2.01,1.89
3.2000,0.07,0.13,-0.99,3.42,1.71,1.95
3.2160,0.07,0.13,-0.99,3.54,1.89,1.83
3.2330,0.07,0.13,-0.99,3.78,2.08,2.14
3.2480,0.07,0.13,-0.99,3.60,2.01,1.95
3.2600,0.07,0.13,-0.99,3.36,1.89,2.08
3.2760,0.07,0.13,-0.99,3.11,1.89,1.95
3.2910,0.07,0.13,-0.99,3.23,2.08,1.95
3.3070,0.07,0.13,-0.99,3.23,1.53,2.01
3.3210,0.07,0.13,-0.99,2.93,1.59,1.71
3.3370,0.07,0.12,-0.99,2.56,1.34,1.65
3.3540,0.07,0.13,-0.99,2.62,1.46,1.77
3.3700,0.07,0.12,-0.99,2.75,1.16,1.89
3.3850,0.07,0.12,-0.99,3.11,1.28,1.77
3.4020,0.07,0.12,-0.99,3.85,2.14,2.20
3.4180,0.07,0.13,-0.99,4.15,2.01,2.26
3.4330,0.07,0.13,-0.99,3.60,2.08,1.77
3.4450,0.07,0.13,-0.99,3.54,2.20,2.01
3.4630,0.07,0.13,-0.99,3.66,1.59,1.89
3.4790,0.07,0.13,-0.99,3.36,1.59,1.89
3.4920,0.07,0.12,-0.99,2.69,1.83,1.77
3.5100,0.07,0.12,-0.99,3.23,1.95,1.89
3.5220,0.07,0.12,-1.00,3.23,1.40,1.77
3.5410,0.07,0.13,-0.99,3.48,1.65,1.77
3.5540,0.07,0.13,-0.99,3.66,1.83,1.89
3.5700,0.07,0.13,-0.99,3.54,1.65,1.89
3.5870,0.06,0.13,-0.99,3.17,2.08,2.32
3.6030,0.06,0.12,-0.99,3.78,1.59,6.23
3.6180,0.07,0.11,-0.99,3.91,1.46,4.33
3.6330,0.07,0.13,-0.99,3.78,1.89,1.89
3.6500,0.07,0.13,-0.99,3.23,1.53,1.83
3.6650,0.07,0.13,-1.00,3.17,1.71,1.65
3.6810,0.07,0.13,-0.99,3.36,1.71,1.53
3.6930,0.07,0.13,-0.99,3.60,1.40,1.65
3.7090,0.07,0.12,-0.99,3.66,1.83,1.89
3.7260,0.07,0.13,-0.99,4.09,1.77,1.95
3.7420,0.07,0.13,-0.99,4.33,1.89,2.01
3.7580,0.07,0.12,-0.98,3.17,1.65,1.77
3.7740,0.07,0.13,-1.00,2.99,2.50,1.77
3.7890,0.07,0.13,-0.99,3.36,1.59,1.83
3.8060,0.07,0.13,-0.99,3.11,1.16,1.59
3.8180,0.07,0.12,-0.98,2.56,1.46,1.77
3.8350,0.07,0.13,-0.99,3.66,1.83,1.89
3.8510,0.07,0.13,-0.99,3.60,1.65,1.83
3.8640,0.07,0.13,-0.99,3.72,2.01,1.89
3.8800,0.07,0.13,-1.00,3.60,2.50,2.01
3.8970,0.07,0.13,-0.99,2.99,2.01,2.01
3.9140,0.07,0.13,-0.99,3.23,2.56,2.26
3.9300,0.07,0.13,-0.98,2.20,2.08,1.83
3.9420,0.07,0.13,-0.99,2.32,1.89,1.65
3.9590,0.07,0.13,-0.99,3.05,1.40,1.65
3.9750,0.07,0.12,-1.00,2.93,2.32,1.83
3.9920,0.06,0.11,-0.99,2.62,2.14,1.89
4.0070,0.06,0.12,-0.99,3.72,1.83,2.14
4.0240,0.07,0.14,-0.99,4.39,1.10,3.66
4.0390,0.07,0.12,-0.99,3.05,0.92,6.35
4.0540,0.07,0.10,-0.99,2.08,2.26,3.54
4.0700,0.06,0.11,-0.99,3.54,2.38,1.65
4.0860,0.06,0.12,-0.99,4.52,2.14,1.65
4.1000,0.06,0.13,-0.99,4.58,1.40,1.59
4.1130,0.08,0.14,-1.00,3.91,1.34,1.71
4.1320,0.08,0.14,-0.99,3.60,1.40,1.95
4.1470,0.08,0.14,-0.99,3.54,1.46,1.95
4.1630,0.07,0.12,-0.99,2.38,1.77,1.95
4.1770,0.06,0.11,-0.99,2.81,2.50,2.20
4.1940,0.06,0.11,-0.99,3.42,2.01,1.95
4.2100,0.06,0.12,-0.99,4.21,1.77,1.89
4.2270,0.07,0.13,-0.99,4.39,1.28,1.89
4.2420,0.07,0.14,-1.00,3.85,1.65,1.83
4.2580,0.06,0.13,-0.99,2.75,1.77,1.83
4.2740,0.06,0.13,-0.99,2.87,1.53,2.50
4.2890,0.06,0.11,-0.99,3.48,1.22,6.04
4.3050,0.07,0.13,-0.99,3.78,1.28,2.56
4.3210,0.07,0.13,-0.99,4.94,1.83,1.89
4.3320,0.08,0.14,-0.99,3.78,1.89,1.89
4.3490,0.07,0.13,-0.99,3.17,2.14,1.83
4.3650,0.06,0.12,-0.99,2.93,2.14,1.83
4.3820,0.06,0.11,-0.99,2.69,2.26,1.95
4.3990,0.07,0.13,-0.99,4.09,1.83,2.01
4.4140,0.07,0.13,-0.99,3.54,1.71,1.89
4.4310,0.08,0.13,-0.98,3.91,2.01,2.08
4.4470,0.07,0.13,-1.00,3.60,2.08,1.95
4.4630,0.06,0.12,-0.97,2.99,2.14,1.95
4.4780,0.07,0.11,-1.00,2.87,2.32,1.95
4.4940,0.06,0.12,-0.99,3.36,1.77,1.89
4.5120,0.06,0.14,-1.00,4.15,1.77,1.95
4.5240,0.07,0.15,-0.99,3.85,1.59,2.14
4.5400,0.08,0.13,-1.00,3.23,1.83,2.20
4.5570,0.07,0.12,-0.99,2.87,2.14,2.08
4.5700,0.05,0.11,-0.99,2.50,2.14,2.14
4.5850,0.03,0.10,-0.98,2.14,2.75,2.26
4.6050,0.04,0.13,-0.99,4.52,3.36,3.05
4.6170,0.07,0.15,-0.99,6.04,4.15,3.36
4.6340,0.07,0.13,-1.00,4.58,4.88,2.69
4.6480,0.09,0.14,-1.00,5.07,4.82,0.12
4.6650,0.05,0.15,-1.00,3.42,3.85,-0.31
4.6810,0.00,0.16,-1.00,2.32,4.15,0.85
4.6980,-0.01,0.15,-0.99,0.06,3.72,3.60
4.7130,0.03,0.12,-0.99,0.55,-0.18,4.33
4.7290,0.06,0.12,-0.98,3.72,-1.28,5.31
4.7430,0.07,0.14,-1.00,4.09,0.92,5.37
4.7590,0.06,0.13,-0.99,2.56,3.66,4.76
4.7730,0.04,0.13,-1.00,1.16,5.68,5.25
4.7900,0.04,0.13,-0.99,1.28,5.92,5.49
4.8060,0.03,0.13,-0.99,2.20,3.42,5.86
4.8190,0.03,0.14,-0.98,2.93,0.49,5.49
4.8350,0.04,0.14,-0.98,2.44,-0.24,5.49
4.8540,0.04,0.12,-0.97,3.11,-0.06,5.43
4.8690,0.06,0.14,-1.00,2.93,0.06,5.74
4.8830,0.06,0.14,-1.00,2.01,1.71,6.04
4.9010,0.06,0.13,-0.99,1.34,3.36,6.77
4.9170,0.05,0.14,-1.00,1.10,5.49,7.20
4.9320,0.05,0.12,-0.97,1.71,6.71,10.13
4.9470,0.05,0.12,-1.00,4.52,-0.79,21.42
4.9600,0.05,0.09,-0.99,2.26,0.24,15.50
4.9760,0.06,0.12,-1.00,2.20,-2.01,6.71
4.9920,0.07,0.11,-1.00,2.44,-2.93,7.39
5.0050,0.09,0.10,-1.00,2.99,-2.38,7.69
5.0220,0.13,0.10,-0.99,1.28,0.61,6.59
5.0380,0.12,0.08,-1.01,-0.18,3.72,4.82
5.0540,0.11,0.07,-1.00,2.93,4.64,4.82
5.0700,0.10,0.08,-1.00,5.19,3.48,4.58
5.0850,0.10,0.07,-1.00,5.25,2.56,4.09
5.0980,0.11,0.09,-1.00,4.33,1.95,2.81
5.1150,0.07,0.10,-0.99,3.11,1.89,1.77
5.1270,0.00,0.17,-0.98,2.56,3.78,1.95
5.1440,0.03,0.15,-0.99,2.38,3.42,1.95
5.1600,0.11,0.09,-0.99,2.14,1.28,1.65
5.1760,0.09,0.10,-1.00,5.62,-1.04,2.20
5.1910,0.01,0.16,-1.00,5.74,2.56,2.44
5.2070,0.05,0.08,-0.99,1.34,3.66,1.83
5.2220,0.08,0.10,-0.98,3.42,0.37,1.77
5.2380,0.07,0.14,-1.00,4.94,0.79,1.77
5.2530,0.04,0.15,-0.99,2.81,2.01,1.65
5.2700,0.07,0.12,-1.00,1.40,2.32,1.89
5.2860,0.08,0.10,-0.99,3.11,1.71,2.01
5.3010,0.04,0.12,-1.00,2.87,2.50,2.14
5.3140,0.03,0.12,-0.98,1.71,3.85,2.20
5.3270,0.06,0.11,-1.00,2.56,1.53,2.01
5.3430,0.07,0.13,-0.99,3.42,0.55,1.89
5.3610,0.05,0.14,-0.99,4.76,1.22,2.14
5.3760,0.04,0.11,-0.99,3.36,1.34,1.83
5.3910,0.06,0.10,-1.00,4.52,-0.49,1.65
5.4080,0.07,0.12,-1.00,4.27,0.31,1.71
5.4230,0.06,0.13,-0.99,2.08,3.72,2.01
5.4380,0.07,0.12,-0.99,2.01,4.46,2.50
5.4540,0.06,0.12,-0.99,3.36,4.33,2.87
5.4690,0.04,0.12,-0.99,4.39,2.87,2.87
5.4860,0.04,0.12,-1.00,3.78,1.71,2.14
5.4990,0.05,0.10,-0.99,3.72,0.85,1.71
5.5180,0.06,0.13,-0.99,5.13,-0.85,1.46
5.5350,0.06,0.13,-0.99,3.42,0.24,1.28
5.5470,0.07,0.12,-1.00,2.44,1.59,1.71
5.5620,0.07,0.12,-0.99,2.08,2.20,2.14
5.5780,0.05,0.11,-0.99,2.87,2.56,2.69
5.5940,0.04,0.13,-0.99,3.42,2.87,3.23
5.6100,0.05,0.14,-1.00,4.15,1.65,7.69
5.6250,0.07,0.10,-0.99,2.93,0.55,8.24
5.6410,0.06,0.12,-0.99,4.03,0.92,3.91
5.6560,0.06,0.14,-1.00,5.07,1.04,1.95
5.6720,0.07,0.12,-1.00,1.77,2.56,1.59
5.6870,0.05,0.10,-0.99,1.16,3.97,1.77
5.7030,0.03,0.11,-0.98,3.23,3.42,2.44
5.7190,0.05,0.12,-0.99,4.94,0.98,2.38
5.7310,0.06,0.12,-0.99,5.31,-0.31,2.14
5.7480,0.07,0.13,-1.00,4.64,-0.55,1.59
5.7640,0.06,0.13,-1.00,3.85,0.00,1.53
5.7820,0.07,0.12,-1.00,1.83,2.14,1.53
5.7980,0.06,0.10,-0.98,0.85,4.64,2.01
5.8130,0.04,0.11,-0.99,3.30,4.46,2.69
5.8300,0.04,0.13,-1.00,4.76,2.32,2.69
5.8450,0.06,0.12,-1.00,3.23,1.04,2.38
5.8600,0.06,0.12,-1.00,2.56,0.61,1.77
5.8760,0.06,0.12,-0.99,2.75,0.67,1.65
5.8920,0.05,0.11,-0.99,2.38,1.28,1.65
5.9060,0.06,0.10,-0.98,3.11,1.95,1.77
5.9230,0.06,0.12,-1.00,4.52,2.81,1.83
5.9350,0.05,0.12,-0.98,4.33,2.93,1.83
5.9530,0.05,0.13,-1.00,4.15,1.53,1.89
5.9690,0.05,0.13,-0.98,2.93,0.92,1.95
5.9850,0.06,0.11,-0.98,2.14,1.71,2.08
5.9970,0.05,0.11,-0.98,1.16,3.05,2.14
6.0160,0.05,0.10,-0.97,0.98,3.48,2.44
6.0290,0.07,0.11,-0.99,3.78,3.11,2.44
6.0470,0.06,0.12,-0.99,4.64,3.23,2.08
6.0650,0.07,0.13,-1.00,3.11,4.64,1.89
6.0800,0.04,0.12,-1.00,1.53,2.62,1.77
6.0960,0.04,0.10,-0.99,2.50,0.92,2.08
6.1090,0.05,0.10,-1.00,3.36,0.43,2.32
6.1240,0.05,0.10,-0.99,4.82,0.18,2.44
6.1400,0.07,0.13,-1.00,5.49,0.55,2.08
6.1580,0.07,0.14,-1.00,4.33,2.26,1.77
6.1730,0.05,0.13,-0.99,3.42,4.27,2.08
6.1900,0.05,0.13,-0.99,1.77,4.27,2.38
6.2040,0.04,0.10,-0.99,1.83,3.85,2.99
6.2200,0.03,0.12,-0.99,2.62,2.87,3.54
6.2350,0.04,0.14,-1.00,2.87,1.28,9.16
6.2500,0.07,0.08,-0.98,2.75,0.12,7.57
6.2620,0.07,0.13,-0.99,7.69,-1.10,1.95
6.2780,0.07,0.14,-1.01,5.62,0.06,1.22
6.2950,0.06,0.12,-1.00,3.42,1.59,0.85
6.3110,0.04,0.11,-1.01,1.71,2.75,0.79
6.3280,0.03,0.09,-0.97,4.64,0.31,2.26
6.3450,0.07,0.14,-1.00,8.73,-1.89,2.62
6.3600,0.07,0.14,-1.00,3.48,0.67,2.44
6.3750,0.06,0.11,-0.99,1.22,1.53,2.26
6.3900,0.05,0.12,-0.99,1.89,1.16,1.77
6.4040,0.05,0.11,-0.99,3.60,0.18,1.46
6.4220,0.06,0.11,-0.98,1.71,1.22,1.28
6.4370,0.05,0.10,-0.97,2.08,2.75,1.77
6.4530,0.06,0.12,-0.99,6.53,0.67,2.50
6.4660,0.07,0.14,-1.00,6.84,0.31,2.56
6.4800,0.06,0.14,-1.00,2.81,1.77,2.14
6.4950,0.06,0.12,-1.00,1.22,2.56,2.08
6.5120,0.05,0.11,-0.99,-0.37,3.42,1.65
6.5290,0.05,0.10,-0.98,0.73,2.62,1.59
6.5450,0.06,0.12,-0.99,2.99,1.46,1.77
6.5610,0.06,0.12,-1.00,3.60,2.14,2.08
6.5770,0.06,0.12,-1.00,3.11,2.56,2.20
6.5920,0.06,0.11,-1.00,2.93,2.81,2.50
6.6080,0.05,0.11,-1.00,2.62,2.99,2.44
6.6230,0.04,0.11,-0.99,2.20,1.77,2.32
6.6370,0.05,0.12,-0.99,2.56,-0.12,1.65
6.6530,0.06,0.12,-1.00,4.09,-1.34,1.59
6.6710,0.07,0.12,-1.00,3.54,0.12,1.22
6.6870,0.06,0.12,-1.00,2.01,2.14,0.79
6.7000,0.05,0.10,-0.99,1.65,2.69,1.34
6.7190,0.05,0.10,-1.00,2.44,2.87,2.20
6.7340,0.05,0.10,-0.99,3.78,2.44,2.81
6.7460,0.05,0.13,-1.00,6.04,2.26,3.85
6.7620,0.05,0.15,-1.00,5.55,2.44,8.06
6.7770,0.07,0.13,-0.99,-0.06,2.81,9.52
6.7930,0.06,0.08,-0.99,-3.42,4.03,8.30
6.8110,0.05,0.06,-0.97,12.76,2.99,2.87
6.8250,0.04,0.10,-0.99,4.88,0.61,2.08
6.8370,0.05,0.12,-1.00,6.77,-1.10,2.14
6.8560,0.07,0.12,-1.00,5.55,-0.92,1.59
6.8710,0.07,0.12,-1.00,4.09,0.79,1.65
6.8870,0.06,0.11,-0.99,4.27,1.53,1.77
6.9010,0.05,0.11,-0.99,3.72,2.50,1.83
6.9170,0.05,0.10,-0.99,2.32,3.30,1.89
6.9330,0.05,0.10,-0.99,3.66,2.38,2.01
6.9490,0.06,0.12,-1.00,4.64,2.01,2.26
6.9640,0.05,0.13,-1.00,2.99,2.32,2.08
6.9790,0.05,0.13,-1.00,2.32,2.44,2.01
6.9910,0.05,0.11,-0.99,0.79,1.95,1.83
7.0090,0.05,0.10,-0.99,1.04,1.65,1.89
7.0200,0.05,0.10,-0.99,2.44,2.26,2.08
7.0390,0.05,0.11,-0.99,3.23,2.26,2.01
7.0520,0.05,0.11,-0.99,3.11,2.14,2.01
7.0680,0.05,0.11,-0.99,4.52,1.40,2.08
7.0820,0.05,0.12,-0.99,5.19,0.73,2.01
7.0990,0.05,0.11,-0.99,4.09,0.49,1.83
7.1160,0.05,0.11,-1.00,3.66,0.55,1.59
7.1310,0.06,0.11,-0.99,3.72,0.92,1.83
7.1470,0.06,0.12,-1.00,4.15,1.40,1.95
7.1620,0.06,0.12,-1.00,3.66,2.87,2.14
7.1770,0.05,0.11,-0.99,3.54,2.99,2.01
7.1930,0.05,0.11,-1.00,2.81,2.93,1.89
7.2080,0.05,0.11,-0.99,2.44,3.30,1.53
7.2200,0.04,0.11,-0.98,3.23,2.01,1.65
7.2390,0.05,0.11,-0.98,3.60,1.16,2.01
7.2520,0.06,0.12,-0.99,5.19,0.00,1.83
7.2690,0.06,0.12,-0.99,5.07,1.10,1.95
7.2840,0.06,0.11,-1.00,4.58,0.55,1.83
7.2990,0.06,0.12,-1.01,3.05,1.71,1.71
7.3120,0.05,0.11,-0.99,2.01,2.32,1.83
7.3280,0.06,0.11,-0.99,2.08,2.56,2.26
7.3450,0.06,0.12,-0.98,2.50,2.20,2.75
7.3620,0.06,0.12,-1.00,2.87,1.83,4.52
7.3770,0.05,0.10,-1.00,3.05,2.01,3.05
7.3920,0.05,0.10,-1.00,3.72,2.08,1.04
7.4050,0.04,0.11,-1.00,4.64,1.40,0.43
7.4210,0.04,0.10,-0.98,3.48,1.22,0.79
7.4350,0.05,0.11,-0.99,5.37,0.00,1.59
7.4510,0.07,0.12,-1.00,5.68,-0.12,1.71
7.4630,0.07,0.12,-1.01,4.64,1.10,2.01
7.4820,0.05,0.12,-1.00,2.38,2.93,2.20
7.4980,0.03,0.20,-0.98,7.20,-1.16,7.14
7.5140,0.06,0.12,-0.98,4.03,-1.95,19.10
7.5270,0.05,0.07,-1.00,3.91,-1.65,13.61
7.5450,0.04,0.04,-1.00,3.11,0.79,7.08
7.5580,0.05,0.11,-0.99,5.74,0.79,1.89
7.5760,0.06,0.13,-1.00,5.74,-0.12,1.53
7.5900,0.06,0.12,-0.99,4.15,0.31,1.40
7.6030,0.07,0.12,-0.99,3.85,0.31,1.71
7.6200,0.07,0.11,-0.99,3.97,0.73,2.14
7.6360,0.06,0.12,-1.01,4.58,1.71,2.38
7.6500,0.05,0.11,-0.99,3.36,2.69,2.44
7.6660,0.05,0.11,-0.99,3.30,2.44,2.20
7.6830,0.06,0.13,-0.99,3.05,1.16,1.83
7.6980,0.06,0.13,-0.98,2.20,0.55,1.77
7.7150,0.06,0.13,-0.99,1.89,1.10,1.83
7.7320,0.07,0.13,-1.00,2.81,2.32,2.32
7.7450,0.07,0.09,-1.00,0.98,3.05,4.88
7.7610,0.06,0.09,-0.99,1.83,4.15,5.19
7.7790,0.05,0.11,-0.99,4.64,3.30,2.87
7.7920,0.05,0.13,-0.99,4.58,2.14,2.26
7.8080,0.06,0.13,-0.99,3.11,1.16,1.65
7.8240,0.05,0.11,-1.00,1.65,1.16,1.65
7.8410,0.03,0.13,-0.98,2.87,1.46,3.54
7.8540,0.07,0.09,-1.00,3.17,0.92,7.20
7.8680,0.07,0.08,-0.99,1.89,1.71,3.30
7.8860,0.07,0.12,-1.00,4.64,1.59,2.26
7.9030,0.06,0.14,-1.00,2.14,3.36,2.01
7.9150,0.03,0.17,-0.98,-1.22,4.94,4.09
7.9340,0.05,0.10,-1.00,-1.16,1.71,18.74
7.9500,0.07,0.02,-0.98,-2.32,2.14,12.15
7.9650,0.05,0.10,-0.99,5.19,1.40,1.40
7.9810,0.05,0.13,-1.00,5.07,0.43,0.24
7.9960,0.06,0.13,-1.00,3.23,0.61,0.73
8.0110,0.05,0.11,-1.00,0.79,2.20,1.40
8.0230,0.04,0.10,-0.98,2.44,1.83,3.23
8.0420,0.06,0.09,-1.01,4.46,0.12,5.37
8.0540,0.07,0.09,-0.98,4.03,1.16,1.65
8.0700,0.07,0.11,-0.99,4.88,1.59,1.22
8.0870,0.07,0.13,-0.99,3.72,2.01,-0.31
8.1040,0.04,0.12,-0.99,3.66,1.34,1.89
8.1200,0.04,0.11,-0.99,3.91,0.06,7.51
8.1320,0.05,0.09,-1.00,5.00,-1.10,10.68
8.1490,0.06,0.08,-1.00,4.94,0.49,6.04
8.1650,0.06,0.11,-1.00,5.13,0.61,1.89
8.1800,0.07,0.13,-1.00,4.70,0.55,1.83
8.1950,0.07,0.13,-1.00,0.85,2.99,1.46
8.2110,0.05,0.14,-0.94,0.12,4.33,2.14
8.2260,0.05,0.12,-0.99,5.13,-0.31,11.41
8.2420,0.05,0.08,-1.00,4.94,-0.49,13.18
8.2540,0.05,0.06,-1.00,4.52,0.67,5.86
8.2700,0.05,0.10,-0.99,4.64,0.85,2.93
8.2870,0.07,0.14,-1.00,5.92,0.12,1.40
8.3030,0.06,0.12,-1.00,1.77,2.50,1.40
8.3190,0.03,0.09,-0.98,2.01,3.48,1.28
8.3340,0.05,0.10,-0.99,3.97,1.16,2.08
8.3490,0.05,0.11,-0.99,4.15,0.37,1.95
8.3660,0.06,0.12,-1.00,3.54,-0.06,1.89
8.3800,0.07,0.13,-1.00,2.50,1.46,1.77
8.3960,0.06,0.12,-1.00,0.49,2.75,2.01
8.4140,0.04,0.15,-0.98,2.38,3.60,6.47
8.4290,0.05,0.10,-0.99,2.87,1.77,12.08
8.4440,0.07,0.04,-1.00,2.44,1.34,7.02
8.4560,0.05,0.08,-0.97,7.39,-0.31,1.40
8.4720,0.06,0.15,-1.02,7.75,-0.85,0.85
8.4900,0.06,0.12,-1.00,1.53,1.77,1.59
8.5060,0.06,0.10,-0.99,0.06,2.93,2.08
8.5210,0.05,0.10,-0.99,2.14,2.62,2.56
8.5330,0.05,0.10,-1.00,3.60,1.83,2.93
8.5480,0.06,0.10,-0.99,4.39,1.16,2.56
8.5670,0.06,0.12,-1.00,4.88,1.22,1.89
8.5800,0.06,0.12,-1.00,2.87,1.16,1.77
8.5970,0.05,0.12,-0.99,1.22,1.89,1.95
8.6090,0.04,0.12,-0.97,2.32,1.59,5.43
8.6290,0.06,0.09,-0.99,2.69,0.55,7.81
8.6430,0.07,0.06,-1.00,3.23,1.22,7.32
8.6550,0.06,0.10,-0.99,5.00,1.46,1.83
8.6720,0.06,0.13,-1.00,6.10,1.83,1.65
8.6890,0.07,0.12,-0.99,4.70,1.89,0.61
8.7040,0.05,0.13,-0.99,5.43,1.10,2.26
8.7200,0.05,0.12,-0.99,5.37,0.49,5.25
8.7360,0.05,0.09,-1.00,3.48,0.67,6.16
8.7520,0.05,0.09,-0.99,2.99,0.98,3.23
8.7680,0.06,0.12,-0.99,4.76,0.73,1.77
8.7840,0.06,0.11,-0.99,4.64,1.16,1.83
8.7990,0.06,0.11,-1.00,3.78,1.46,2.08
8.8110,0.05,0.12,-1.00,2.87,2.44,2.56
8.8300,0.05,0.14,-0.98,2.50,2.75,6.10
8.8450,0.06,0.11,-0.99,2.93,1.89,7.14
8.8600,0.07,0.07,-0.99,2.08,1.77,4.82
8.8750,0.06,0.11,-0.99,4.58,2.44,1.59
8.8910,0.05,0.13,-0.99,5.92,0.55,2.32
8.9060,0.04,0.12,-1.00,4.58,0.37,5.31
8.9220,0.05,0.11,-1.00,3.60,0.55,5.86
8.9350,0.06,0.10,-0.99,2.56,0.49,5.92
8.9540,0.07,0.10,-1.00,2.93,0.73,3.23
8.9680,0.07,0.12,-1.00,4.15,1.34,1.65
8.9860,0.06,0.12,-1.00,2.62,2.26,1.77
9.0000,0.05,0.12,-0.99,2.26,2.81,2.44
9.0180,0.05,0.14,-0.99,4.33,1.71,5.86
9.0320,0.05,0.11,-0.99,2.44,1.04,8.54
9.0500,0.06,0.08,-1.00,2.81,1.04,7.63
9.0640,0.06,0.08,-0.99,3.54,0.73,2.20
9.0800,0.06,0.12,-1.00,4.94,1.28,2.14
9.0970,0.06,0.11,-0.99,3.23,0.98,2.08
9.1110,0.06,0.11,-1.00,3.42,1.83,2.38
9.1270,0.06,0.12,-0.99,2.93,2.56,2.81
9.1390,0.06,0.11,-1.00,2.32,2.44,3.05
9.1560,0.05,0.12,-1.00,2.32,2.50,2.56
9.1710,0.05,0.12,-0.99,2.56,1.95,2.93
9.1880,0.05,0.11,-0.99,3.23,0.43,4.94
9.2050,0.04,0.12,-0.98,3.66,0.67,5.92
9.2210,0.07,0.11,-1.00,4.82,-0.43,6.90
9.2360,0.07,0.11,-1.00,2.14,1.28,5.07
9.2530,0.06,0.10,-0.99,1.65,2.62,3.85
9.2690,0.05,0.12,-0.99,2.69,2.87,3.11
9.2850,0.05,0.12,-0.99,4.33,1.34,4.70
9.3010,0.05,0.09,-1.00,4.27,1.16,3.11
9.3160,0.05,0.11,-0.99,4.82,0.43,1.89
9.3300,0.06,0.13,-1.00,4.64,0.49,1.83
9.3450,0.06,0.12,-1.00,1.65,1.59,2.14
9.3570,0.05,0.12,-0.99,2.14,1.83,3.48
9.3740,0.05,0.11,-0.99,1.95,1.83,4.03
9.3910,0.06,0.09,-0.99,3.23,1.28,3.11
9.4050,0.06,0.12,-1.00,5.80,0.55,1.83
9.4210,0.06,0.12,-1.00,4.27,1.28,1.95
9.4360,0.06,0.12,-1.00,3.48,1.83,2.01
9.4520,0.06,0.12,-1.00,3.05,1.71,2.56
9.4650,0.04,0.15,-0.97,4.94,0.85,4.03
9.4810,0.06,0.10,-1.01,3.23,0.37,6.84
9.5000,0.05,0.07,-1.00,3.05,1.22,4.15
9.5150,0.06,0.11,-0.99,3.72,2.44,2.01
9.5320,0.05,0.14,-0.99,4.52,1.95,2.01
9.5470,0.04,0.14,-0.99,4.27,-0.18,6.29
9.5630,0.05,0.11,-1.00,3.23,-0.79,10.19
9.5790,0.06,0.11,-0.99,2.87,0.43,9.77
9.5910,0.07,0.07,-1.01,2.38,1.04,7.51
9.6080,0.06,0.10,-0.99,2.20,2.69,2.14
9.6240,0.06,0.12,-0.99,3.36,2.87,1.34
9.6400,0.05,0.11,-0.99,2.69,2.08,1.46
9.6550,0.05,0.11,-0.99,4.09,1.34,1.95
9.6710,0.05,0.12,-0.99,4.70,1.16,2.26
9.6860,0.06,0.14,-1.00,5.31,-0.12,4.39
9.7020,0.06,0.12,-0.99,3.30,1.28,6.53
9.7170,0.06,0.08,-1.00,3.54,0.98,5.37
9.7340,0.05,0.10,-0.98,3.91,2.20,2.20
9.7480,0.06,0.13,-1.00,5.37,1.53,1.95
9.7640,0.06,0.12,-1.00,1.95,2.44,2.20
9.7780,0.05,0.12,-0.99,2.44,2.14,2.44
9.7910,0.05,0.16,-0.98,4.46,0.92,5.92
9.8050,0.07,0.13,-0.99,2.44,0.55,10.13
9.8240,0.07,0.08,-1.00,3.85,1.04,10.44
9.8370,0.07,0.07,-1.00,4.58,1.77,5.43
9.8560,0.05,0.10,-0.99,5.13,1.71,3.54
9.8720,0.04,0.12,-0.99,5.07,1.46,2.20
9.8850,0.05,0.11,-1.00,3.91,0.55,2.93
9.9010,0.06,0.11,-0.99,3.30,0.79,2.75
9.9140,0.06,0.13,-1.00,4.33,0.67,3.05
9.9300,0.06,0.13,-0.99,3.97,1.28,4.46
9.9470,0.06,0.12,-1.00,3.91,1.10,5.00
9.9630,0.06,0.10,-0.99,2.87,1.40,4.52
9.9790,0.06,0.12,-1.00,4.33,0.49,3.54
9.9940,0.06,0.13,-0.98,4.94,0.85,5.19
10.0090,0.05,0.13,-1.00,4.94,-0.31,6.65
10.0250,0.06,0.12,-1.00,3.91,0.49,7.93
10.0390,0.07,0.10,-1.00,3.17,0.92,6.41
10.0510,0.06,0.10,-0.99,2.44,2.01,2.75
10.0690,0.06,0.12,-1.00,3.17,1.89,1.65
10.0830,0.05,0.11,-0.99,2.08,2.26,1.83
10.1000,0.05,0.11,-0.99,3.66,1.71,1.95
10.1150,0.06,0.12,-0.99,4.33,0.61,2.08
10.1310,0.06,0.12,-0.99,3.66,1.22,2.32
10.1470,0.06,0.14,-0.99,4.27,2.14,4.21
10.1620,0.06,0.12,-0.99,1.89,2.44,5.19
10.1770,0.06,0.10,-0.99,3.72,1.16,5.25
10.1930,0.05,0.10,-0.99,3.91,1.04,4.76
10.2050,0.05,0.10,-1.00,4.70,0.92,4.88
10.2240,0.05,0.11,-1.00,4.09,1.28,3.23
10.2400,0.06,0.13,-1.00,3.54,1.77,3.17
10.2510,0.06,0.14,-0.98,2.56,1.34,5.74
10.2670,0.06,0.11,-0.99,2.38,0.92,8.36
10.2840,0.06,0.10,-0.98,2.75,0.37,7.63
10.3000,0.05,0.09,-1.00,5.25,-0.06,5.74
10.3150,0.06,0.11,-1.00,5.62,0.49,4.39
10.3300,0.06,0.12,-1.00,4.64,0.92,2.81
10.3450,0.06,0.13,-1.00,3.42,1.40,1.89
10.3570,0.06,0.13,-1.00,2.50,1.65,2.08
10.3730,0.05,0.15,-0.97,1.95,2.26,4.03
10.3890,0.06,0.13,-0.99,4.27,0.49,8.24
10.4070,0.06,0.10,-0.99,3.30,0.79,8.48
10.4220,0.06,0.08,-1.00,3.05,1.04,4.82
10.4370,0.06,0.13,-1.00,4.64,1.28,1.77
10.4530,0.06,0.13,-1.00,3.97,1.22,1.89
10.4690,0.07,0.17,-0.96,2.50,2.08,2.62
10.4850,0.06,0.17,-1.01,6.10,0.00,9.70
10.5000,0.06,0.11,-0.97,3.78,0.61,12.33
10.5150,0.07,0.06,-1.02,4.27,0.55,10.31
10.5290,0.05,0.10,-0.98,2.75,2.44,2.20
10.5460,0.05,0.12,-0.99,4.03,2.32,1.46
10.5570,0.06,0.12,-0.99,2.56,1.22,1.89
10.5730,0.05,0.13,-0.99,5.62,0.18,4.09
10.5880,0.06,0.11,-0.99,4.52,0.31,6.35
10.6070,0.07,0.11,-1.00,5.00,0.61,4.64
10.6220,0.06,0.12,-1.00,4.09,1.28,1.95
10.6340,0.06,0.13,-0.99,3.30,1.71,1.95
10.6520,0.07,0.16,-0.97,2.99,1.40,2.26
10.6680,0.06,0.14,-0.99,5.31,0.31,6.90
10.6830,0.05,0.12,-0.99,5.49,-0.98,9.22
10.6980,0.06,0.10,-1.00,4.39,0.00,6.96
10.7110,0.06,0.09,-1.00,3.91,0.98,4.58
10.7270,0.06,0.13,-0.99,4.39,1.22,1.77
10.7400,0.06,0.12,-0.99,2.87,1.46,1.83
10.7560,0.06,0.12,-0.99,2.75,1.71,2.08
10.7740,0.06,0.14,-0.99,4.27,1.04,3.36
10.7900,0.07,0.14,-0.99,4.46,0.92,4.88
10.8050,0.07,0.14,-0.99,2.93,1.04,4.76
10.8200,0.07,0.13,-0.99,2.69,1.16,5.37
10.8330,0.06,0.12,-0.99,2.50,1.89,5.00
10.8500,0.06,0.11,-0.99,3.17,2.08,5.68
10.8680,0.05,0.11,-0.99,4.03,0.92,5.07
10.8820,0.06,0.12,-0.99,4.76,0.55,4.27
10.8980,0.06,0.13,-0.99,4.52,0.55,3.54
10.9120,0.06,0.14,-1.00,4.15,0.73,4.39
10.9280,0.07,0.14,-0.99,2.75,1.22,4.76
10.9440,0.07,0.13,-0.99,2.69,1.59,5.07
10.9590,0.06,0.14,-0.99,4.03,0.79,6.16
10.9740,0.06,0.12,-0.99,4.09,0.61,7.08
10.9890,0.07,0.11,-0.99,4.94,0.49,6.47
11.0040,0.06,0.12,-0.99,4.03,1.34,4.03
11.0200,0.06,0.14,-0.99,3.48,0.85,4.27
11.0350,0.06,0.13,-0.99,2.20,1.34,5.13
11.0470,0.07,0.12,-0.98,2.44,0.43,5.62
11.0630,0.07,0.10,-0.99,3.72,0.79,4.88
11.0800,0.07,0.13,-0.99,4.21,1.77,1.95
11.0970,0.08,0.14,-1.00,4.27,1.34,1.77
11.1130,0.06,0.13,-1.00,3.72,1.83,3.97
11.1280,0.04,0.13,-0.99,3.11,1.28,6.59
11.1440,0.06,0.13,-0.99,2.81,0.73,8.30
11.1580,0.06,0.12,-0.99,2.87,0.43,8.54
11.1740,0.07,0.10,-0.99,2.26,0.85,6.47
11.1890,0.07,0.13,-0.99,3.60,1.16,2.44
11.2040,0.06,0.14,-0.99,3.05,2.32,1.71
11.2190,0.06,0.13,-0.99,1.46,2.56,2.01
11.2370,0.06,0.13,-0.99,2.20,2.14,2.32
11.2520,0.06,0.15,-0.98,2.81,1.10,4.58
11.2690,0.07,0.14,-1.00,2.62,1.65,6.77
11.2850,0.07,0.13,-0.99,1.59,2.62,5.49
11.3010,0.07,0.10,-1.00,1.34,2.50,4.52
11.3140,0.06,0.13,-0.99,1.71,2.44,1.71
11.3300,0.05,0.13,-0.99,1.53,2.44,2.32
11.3450,0.05,0.14,-0.99,3.91,0.31,6.65
11.3610,0.07,0.13,-1.00,4.09,0.24,8.36
11.3780,0.08,0.10,-1.00,2.75,0.98,7.08
11.3940,0.06,0.12,-0.98,3.36,2.08,3.05
11.4100,0.06,0.14,-1.00,4.09,1.95,1.83
11.4250,0.06,0.12,-0.99,1.10,2.20,2.01
11.4410,0.05,0.14,-0.99,3.91,0.92,5.37
11.4550,0.04,0.16,-0.99,1.65,0.18,7.93
11.4670,0.05,0.15,-0.98,0.67,0.31,9.58
11.4830,0.07,0.09,-0.99,-0.24,0.85,9.22
11.5010,0.09,0.08,-0.98,1.46,1.28,4.27
11.5170,0.07,0.12,-0.99,4.64,1.95,2.08
11.5340,0.06,0.12,-0.99,4.76,1.95,1.95
11.5480,0.08,0.13,-0.98,3.85,1.71,1.71
11.5640,0.05,0.15,-1.00,6.10,0.18,0.61
11.5800,0.06,0.14,-1.00,5.07,0.67,0.85
11.5960,0.07,0.13,-0.99,3.36,1.77,1.40
11.6120,0.05,0.14,-0.99,3.78,1.59,3.17
11.6280,0.05,0.13,-0.98,3.30,1.53,6.47
11.6400,0.07,0.10,-1.00,4.64,0.18,8.48
11.6550,0.06,0.11,-0.98,4.09,1.16,4.39
11.6720,0.07,0.12,-0.99,5.68,1.04,3.66
11.6890,0.07,0.14,-0.99,5.00,1.59,3.85
11.7040,0.07,0.13,-0.99,3.85,1.10,7.75
11.7190,0.05,0.10,-0.99,3.36,0.85,6.77
11.7320,0.05,0.11,-0.99,3.48,1.10,2.93
11.7480,0.07,0.13,-0.99,4.88,0.49,2.01
11.7650,0.07,0.13,-0.99,4.82,0.55,2.08
11.7800,0.07,0.13,-0.99,3.05,1.77,2.50
11.7920,0.06,0.14,-0.99,2.01,2.20,3.48
11.8080,0.07,0.14,-0.99,2.50,1.95,6.59
11.8250,0.07,0.13,-0.99,2.26,1.53,6.96
11.8420,0.06,0.13,-0.99,2.69,1.04,7.45
11.8570,0.07,0.14,-0.99,3.17,0.85,8.00
11.8730,0.06,0.13,-0.99,2.08,1.22,8.91
11.8880,0.05,0.14,-0.99,1.34,0.49,10.25
11.9050,0.06,0.10,-0.98,1.65,0.73,12.57
11.9200,0.08,0.05,-1.00,3.48,0.79,8.30
11.9340,0.07,0.13,-1.00,6.65,0.79,1.71
11.9500,0.07,0.15,-1.00,3.60,2.20,1.83
11.9640,0.06,0.13,-0.99,1.28,2.87,1.95
11.9820,0.07,0.16,-0.96,1.46,2.38,3.36
11.9960,0.06,0.12,-1.00,3.97,0.18,9.22
12.0130,0.07,0.10,-0.99,1.77,0.43,7.87
12.0280,0.06,0.09,-0.99,3.23,1.28,3.48
12.0420,0.06,0.12,-0.99,5.37,1.46,1.65
12.0580,0.06,0.14,-1.00,4.39,1.89,1.71
12.0750,0.06,0.13,-1.00,2.50,2.38,2.08
12.0900,0.07,0.15,-0.97,2.01,2.26,2.87
12.1060,0.07,0.15,-1.00,3.66,0.37,7.81
12.1180,0.07,0.10,-0.99,1.71,0.73,9.28
12.1360,0.07,0.09,-1.00,2.32,2.14,5.07
12.1520,0.06,0.11,-0.98,1.95,2.44,2.14
12.1640,0.05,0.12,-0.99,3.36,2.01,1.71
12.1830,0.06,0.12,-0.99,3.30,1.34,2.14
12.1990,0.06,0.13,-0.99,4.03,0.73,3.66
12.2140,0.07,0.13,-0.99,3.42,0.61,6.10
12.2290,0.07,0.10,-0.99,1.46,1.46,4.88
12.2460,0.07,0.11,-0.99,1.89,1.95,2.01
12.2600,0.07,0.14,-0.98,1.77,3.11,2.26
12.2760,0.06,0.15,-0.99,4.15,2.01,4.82
12.2910,0.06,0.14,-0.99,3.30,0.49,7.63
12.3070,0.05,0.11,-0.99,3.17,0.00,7.69
12.3210,0.06,0.11,-1.03,3.48,-0.55,7.87
12.3370,0.07,0.12,-1.00,3.23,0.12,5.62
12.3520,0.07,0.11,-0.99,2.93,1.89,5.86
12.3660,0.07,0.12,-0.99,3.05,1.40,4.70
12.3810,0.06,0.12,-0.99,3.97,1.65,5.31
12.3990,0.08,0.12,-0.99,5.07,0.92,5.43
12.4110,0.07,0.13,-0.99,5.25,0.24,5.86
12.4280,0.05,0.14,-1.00,5.07,-0.24,7.45
12.4440,0.05,0.10,-0.99,1.77,0.98,7.57
12.4600,0.06,0.07,-0.98,2.69,1.77,4.58
12.4760,0.08,0.13,-0.99,8.61,-0.98,1.89
12.4910,0.07,0.17,-1.00,8.48,-0.37,2.20
12.5070,0.06,0.16,-1.00,2.93,1.83,2.14
12.5230,0.06,0.13,-0.99,1.04,2.56,2.62
12.5370,0.06,0.13,-0.98,1.65,1.40,6.77
12.5520,0.05,0.12,-1.00,2.32,0.79,8.73
12.5650,0.06,0.11,-0.98,1.77,1.59,7.51
12.5790,0.07,0.10,-0.98,3.42,0.37,7.63
12.5970,0.08,0.11,-1.00,4.52,0.61,5.68
12.6110,0.06,0.14,-1.00,5.31,2.50,2.08
12.6280,0.08,0.15,-0.96,2.62,2.44,1.77
12.6450,0.08,0.13,-1.01,5.31,-0.24,7.75
12.6610,0.05,0.13,-1.00,4.03,0.55,8.54
12.6770,0.05,0.13,-0.99,4.21,0.92,9.70
12.6930,0.06,0.11,-0.99,4.33,0.79,9.52
12.7110,0.06,0.08,-0.99,3.11,0.24,6.35
12.7270,0.05,0.15,-1.00,4.70,0.61,1.71
12.7420,0.06,0.12,-1.00,3.66,0.49,1.77
12.7570,0.08,0.12,-0.99,2.93,1.04,1.89
12.7720,0.07,0.14,-0.99,3.11,1.89,1.95
12.7870,0.06,0.14,-0.99,1.95,2.75,2.20
12.8030,0.06,0.14,-0.99,2.20,2.50,4.09
12.8190,0.07,0.12,-0.99,1.71,2.38,6.41
12.8310,0.07,0.12,-0.99,2.14,1.83,6.10
12.8490,0.07,0.14,-0.98,2.26,2.44,3.91
12.8650,0.06,0.13,-1.00,3.23,1.46,6.59
12.8790,0.05,0.14,-0.99,2.20,0.98,7.75
12.8950,0.05,0.14,-0.99,2.26,1.34,8.61
12.9110,0.05,0.11,-0.99,1.59,0.73,9.64
12.9230,0.08,0.07,-0.99,2.01,0.18,7.45
12.9360,0.07,0.12,-0.99,5.13,0.85,1.83
12.9530,0.06,0.14,-1.00,4.33,1.65,1.89
12.9710,0.06,0.13,-0.98,2.38,2.20,2.20
12.9860,0.05,0.16,-0.97,4.70,0.61,4.64
13.0040,0.06,0.12,-1.00,5.43,-0.61,9.64
13.0190,0.06,0.11,-1.00,3.60,-0.31,8.79
13.0330,0.06,0.09,-1.00,3.23,0.43,6.47
13.0500,0.06,0.11,-0.98,1.77,1.40,2.69
13.0650,0.06,0.14,-1.00,4.03,1.65,1.95
13.0810,0.06,0.15,-0.98,2.50,2.32,2.99
13.0950,0.05,0.16,-0.99,3.11,1.71,7.63
13.1110,0.06,0.16,-0.98,2.75,0.43,9.70
13.1250,0.07,0.13,-1.00,2.14,0.43,9.64
13.1420,0.08,0.09,-0.99,0.43,1.83,9.58
13.1550,0.08,0.10,-0.98,1.95,2.62,8.36
13.1730,0.06,0.12,-0.99,5.07,1.59,5.92
13.1880,0.06,0.13,-0.99,5.80,0.24,5.55
13.2040,0.06,0.13,-0.99,5.80,-0.43,6.35
13.2190,0.06,0.11,-1.00,4.15,0.18,5.49
13.2350,0.07,0.13,-0.99,4.46,0.98,3.30
13.2500,0.07,0.14,-0.99,3.30,1.95,2.99
13.2650,0.07,0.13,-0.99,2.32,2.38,4.94
13.2790,0.06,0.13,-0.98,3.97,1.53,7.02
13.2950,0.06,0.12,-0.99,3.54,1.46,6.16
13.3120,0.06,0.13,-0.98,4.82,-0.24,5.74
13.3280,0.07,0.14,-1.00,5.25,-0.43,6.71
13.3440,0.06,0.15,-0.99,3.36,0.49,7.75
13.3590,0.07,0.11,-0.99,2.69,0.55,8.00
13.3740,0.08,0.09,-1.00,3.85,1.04,5.37
13.3900,0.08,0.10,-0.99,5.86,1.28,1.22
13.4040,0.07,0.15,-0.99,6.23,1.16,1.59
13.4170,0.07,0.14,-0.99,5.07,0.12,6.16
13.4330,0.05,0.12,-0.99,3.85,0.31,8.30
13.4500,0.06,0.13,-0.99,3.42,0.61,6.47
13.4660,0.06,0.12,-0.99,3.23,1.10,6.35
13.4810,0.06,0.13,-0.99,3.85,1.22,5.13
13.4940,0.06,0.11,-0.99,4.27,0.92,5.31
13.5120,0.06,0.13,-0.98,4.58,0.73,2.20
13.5270,0.07,0.14,-1.00,5.13,0.79,1.83
13.5410,0.07,0.14,-0.99,2.93,1.40,2.01
13.5570,0.07,0.13,-0.99,2.20,1.46,2.14
13.5740,0.06,0.14,-0.98,1.59,2.01,3.05
13.5890,0.06,0.15,-0.98,3.05,0.98,6.90
13.6050,0.07,0.14,-1.01,4.03,0.06,10.68
13.6210,0.06,0.11,-0.99,2.50,0.55,9.46
13.6370,0.07,0.09,-0.98,2.32,0.92,4.39
13.6530,0.08,0.15,-1.01,5.13,1.04,1.77
13.6650,0.07,0.13,-0.99,1.16,2.69,1.89
13.6800,0.06,0.12,-0.99,0.92,3.17,2.14
13.6980,0.06,0.13,-0.98,0.43,3.91,2.99
13.7130,0.06,0.15,-0.98,2.62,2.14,5.98
13.7300,0.07,0.13,-1.00,2.50,0.18,7.39
13.7450,0.07,0.10,-1.00,1.71,1.28,6.10
13.7610,0.07,0.13,-0.99,1.34,2.44,1.89
13.7780,0.06,0.13,-0.99,1.10,3.17,2.20
13.7940,0.07,0.14,-0.97,4.39,1.71,4.33
13.8100,0.06,0.13,-0.99,5.55,0.43,5.13
13.8250,0.07,0.13,-0.98,5.43,0.12,6.29
13.8410,0.07,0.14,-1.00,4.82,0.49,6.77
13.8570,0.06,0.15,-0.99,2.99,1.28,7.63
13.8700,0.05,0.16,-0.99,1.89,0.92,9.34
13.8870,0.06,0.10,-0.98,0.73,1.46,11.29
13.8990,0.07,0.06,-1.00,2.08,1.46,6.41
13.9170,0.07,0.11,-0.98,4.03,1.53,2.08
13.9350,0.06,0.15,-0.99,5.86,1.53,1.16
13.9500,0.06,0.13,-1.00,2.75,1.65,2.14
13.9670,0.06,0.14,-0.99,2.81,1.59,3.66
13.9800,0.05,0.16,-0.99,3.36,1.77,7.26
13.9990,0.06,0.14,-0.98,1.71,1.22,8.54
14.0130,0.08,0.10,-1.00,1.89,2.01,9.58
14.0310,0.07,0.08,-0.99,2.32,2.20,5.62
14.0460,0.07,0.10,-1.00,3.66,2.99,1.34
14.0600,0.06,0.14,-0.98,5.37,2.20,1.34
14.0730,0.06,0.15,-0.99,5.19,0.06,4.21
14.0890,0.06,0.14,-0.99,5.31,-0.31,7.14
14.1060,0.06,0.13,-0.99,4.70,-0.06,8.00
14.1230,0.07,0.13,-1.00,4.21,0.55,8.12
14.1370,0.06,0.13,-0.99,4.09,0.73,7.69
14.1520,0.06,0.12,-1.00,5.07,0.92,7.45
14.1660,0.06,0.11,-0.99,4.27,0.92,5.19
14.1800,0.06,0.13,-0.99,4.88,0.98,2.14
14.1960,0.06,0.14,-0.98,6.16,-0.37,3.60
14.2120,0.07,0.14,-1.02,6.47,-0.67,5.68
14.2280,0.08,0.15,-0.99,5.62,0.12,6.04
14.2460,0.07,0.14,-0.99,4.64,0.98,7.20
14.2610,0.06,0.12,-0.99,2.99,1.71,5.49
14.2770,0.06,0.12,-0.99,1.53,2.20,3.17
14.2940,0.06,0.14,-0.99,3.36,1.10,3.30
14.3090,0.06,0.14,-0.99,3.97,0.85,4.03
14.3240,0.06,0.15,-0.99,3.78,1.04,5.80
14.3400,0.07,0.14,-0.99,2.99,0.79,6.84
14.3540,0.07,0.11,-0.99,2.20,1.65,5.37
14.3700,0.07,0.14,-0.99,2.01,2.14,2.99
14.3830,0.06,0.14,-0.99,2.01,2.32,3.42
14.4000,0.06,0.14,-0.98,2.32,2.50,5.13
14.4120,0.06,0.15,-0.99,3.11,1.53,6.16
14.4310,0.06,0.13,-0.99,3.17,0.98,6.10
14.4470,0.06,0.11,-0.99,3.23,0.67,5.43
14.4630,0.07,0.12,-0.99,3.54,0.85,2.87
14.4790,0.07,0.14,-1.00,2.87,1.59,1.89
14.4940,0.07,0.14,-1.00,1.28,2.26,2.75
14.5100,0.07,0.13,-0.98,0.85,3.48,4.64
14.5260,0.08,0.15,-0.98,4.09,2.44,4.82
14.5390,0.06,0.13,-0.99,5.13,0.67,5.74
14.5560,0.05,0.11,-1.00,4.27,0.49,5.62
14.5710,0.06,0.12,-1.00,3.72,0.79,2.81
14.5880,0.07,0.14,-0.99,4.27,0.79,1.95
14.6030,0.07,0.14,-0.99,3.05,1.59,2.26
14.6200,0.06,0.14,-0.99,3.11,1.65,4.15
14.6350,0.06,0.14,-0.98,3.85,1.40,7.20
14.6490,0.06,0.14,-0.99,3.91,1.04,7.87
14.6630,0.07,0.09,-1.00,3.72,0.55,6.65
14.6780,0.07,0.14,-0.99,4.33,1.22,1.89
14.6940,0.07,0.14,-0.99,2.99,1.89,2.14
14.7110,0.06,0.13,-0.98,2.08,2.26,2.20
14.7270,0.06,0.14,-0.99,3.23,1.40,3.97
14.7440,0.06,0.15,-0.99,3.54,1.04,6.47
14.7600,0.07,0.13,-1.00,3.30,1.28,7.39
14.7760,0.06,0.14,-0.98,2.87,1.40,6.47
14.7920,0.07,0.11,-0.99,2.08,1.10,6.96
14.8060,0.06,0.14,-0.98,1.22,2.32,3.60
14.8230,0.06,0.14,-1.00,3.60,2.08,5.92
14.8380,0.05,0.13,-0.98,2.93,1.46,5.98
14.8520,0.06,0.12,-0.99,3.78,0.67,6.84
14.8640,0.05,0.13,-0.98,3.60,0.85,6.29
14.8830,0.07,0.13,-0.99,3.85,0.31,6.16
14.8990,0.08,0.14,-1.00,2.75,0.98,5.13
14.9150,0.07,0.12,-0.99,1.28,2.81,4.58
14.9320,0.06,0.14,-0.98,2.56,2.81,3.42
14.9460,0.06,0.14,-0.99,3.91,1.34,5.31
14.9620,0.06,0.12,-0.98,3.23,1.40,4.03
14.9770,0.06,0.12,-0.99,3.30,1.22,3.30
14.9940,0.06,0.14,-1.00,3.48,1.53,2.01
15.0090,0.06,0.14,-0.99,2.08,1.22,2.69
15.0250,0.06,0.14,-1.00,3.42,0.18,5.49
15.0380,0.07,0.14,-0.98,3.42,0.61,6.29
15.0530,0.07,0.12,-1.00,4.70,0.49,6.65
15.0710,0.07,0.12,-0.99,3.91,1.95,4.58
15.0870,0.08,0.14,-0.99,4.03,2.26,2.99
15.1020,0.06,0.15,-0.98,3.54,1.59,4.46
15.1190,0.04,0.12,-1.00,3.23,0.31,8.12
15.1350,0.05,0.11,-0.99,2.93,1.22,5.86
15.1510,0.06,0.12,-0.99,5.31,0.31,4.64
15.1670,0.07,0.14,-1.00,5.43,1.40,2.99
15.1830,0.06,0.14,-0.99,3.66,1.71,2.50
15.1990,0.06,0.14,-0.99,2.50,2.26,2.99
15.2140,0.06,0.14,-0.99,2.81,1.46,3.72
15.2270,0.07,0.14,-0.98,2.56,1.83,4.88
15.2440,0.08,0.15,-1.00,5.25,0.37,7.75
15.2570,0.07,0.14,-0.99,4.76,-0.12,9.03
15.2720,0.04,0.12,-1.02,4.82,0.12,9.40
15.2890,0.05,0.12,-1.00,3.23,0.73,7.93
15.3040,0.06,0.10,-0.97,2.38,1.04,4.15
15.3220,0.07,0.15,-1.00,4.64,0.55,1.59
15.3380,0.06,0.13,-0.99,1.04,2.56,2.01
15.3530,0.06,0.13,-0.98,2.81,2.32,2.56
15.3690,0.06,0.15,-0.99,3.72,1.28,3.60
15.3840,0.04,0.15,-0.98,2.93,0.85,6.90
15.4000,0.07,0.14,-1.01,2.99,-0.06,10.01
15.4120,0.07,0.10,-0.99,0.85,1.34,6.84
15.4270,0.07,0.12,-0.99,2.14,1.77,3.42
15.4440,0.06,0.13,-0.99,3.78,2.26,2.75
15.4600,0.06,0.14,-0.98,4.03,2.44,3.11
15.4770,0.06,0.14,-0.99,5.19,1.28,5.55
15.4940,0.06,0.13,-1.00,3.97,1.22,5.00
15.5100,0.06,0.13,-0.99,3.36,1.83,3.66
15.5270,0.06,0.14,-0.99,2.50,2.08,3.60
15.5430,0.06,0.13,-0.99,2.93,2.01,3.97
15.5580,0.06,0.12,-1.00,3.85,1.71,3.66
15.5730,0.06,0.12,-0.99,5.00,1.40,2.56
15.5890,0.06,0.13,-0.99,6.35,0.61,2.32
15.6020,0.07,0.15,-1.00,5.68,0.43,1.77
15.6170,0.06,0.13,-0.99,2.69,1.10,2.38
15.6320,0.06,0.14,-0.99,2.87,1.46,3.23
15.6510,0.05,0.15,-0.99,1.71,2.26,4.15
15.6640,0.06,0.14,-0.99,0.37,2.56,8.54
15.6820,0.06,0.12,-0.97,0.06,1.71,8.30
15.6960,0.07,0.12,-1.00,2.99,1.28,6.47
15.7130,0.06,0.14,-0.99,3.72,1.89,3.72
15.7290,0.06,0.14,-0.99,3.54,1.89,4.27
15.7420,0.05,0.14,-0.99,3.42,1.53,4.82
15.7570,0.06,0.13,-0.99,3.36,0.92,7.63
15.7740,0.07,0.14,-0.99,3.97,-0.06,8.73
15.7890,0.07,0.11,-0.99,4.09,1.40,8.30
15.8060,0.07,0.14,-0.99,4.46,1.46,2.81
15.8200,0.06,0.14,-0.99,3.60,2.14,1.95
15.8360,0.06,0.14,-0.98,3.05,1.65,3.36
15.8530,0.05,0.15,-0.98,4.21,0.92,4.52
15.8680,0.06,0.12,-0.99,5.13,0.18,6.41
15.8840,0.06,0.13,-0.99,4.94,0.43,5.37
15.9000,0.07,0.14,-0.99,4.27,1.16,3.54
15.9160,0.06,0.17,-0.98,3.97,2.01,4.33
15.9320,0.06,0.13,-0.99,6.10,1.10,8.12
15.9450,0.07,0.13,-0.99,5.13,0.67,9.83
15.9620,0.06,0.12,-1.00,6.41,0.49,8.00
15.9750,0.05,0.12,-0.99,5.13,0.31,5.43
15.9910,0.06,0.12,-0.99,4.94,0.06,3.85
16.0080,0.06,0.15,-0.99,4.94,0.92,2.87
16.0230,0.06,0.17,-0.99,3.91,0.55,5.19
16.0400,0.06,0.15,-0.98,3.48,1.10,9.03
16.0550,0.07,0.12,-0.99,2.08,1.22,8.18
16.0710,0.07,0.10,-0.99,3.11,1.40,5.49
16.0870,0.06,0.14,-0.99,5.13,1.40,2.14
16.1000,0.06,0.14,-0.99,4.82,0.79,1.53
16.1160,0.06,0.14,-0.99,3.05,0.61,1.16
16.1300,0.06,0.14,-0.99,2.81,0.31,1.53
16.1470,0.07,0.14,-0.99,2.93,0.55,1.59
16.1630,0.07,0.14,-0.99,2.08,1.40,1.83
16.1800,0.07,0.14,-1.00,2.01,2.50,1.95
16.1960,0.06,0.14,-0.99,2.38,2.93,1.95
16.2130,0.06,0.14,-0.99,2.08,3.05,1.53
16.2290,0.06,0.13,-0.99,2.32,2.75,1.65
16.2450,0.07,0.14,-0.99,3.54,2.01,0.31
16.2610,0.07,0.13,-0.99,2.08,2.26,-1.46
16.2770,0.05,0.15,-0.99,1.34,2.81,-1.16
16.2930,0.05,0.13,-0.99,2.08,1.83,1.46
16.3090,0.06,0.13,-0.99,3.17,1.10,2.08
16.3240,0.06,0.14,-0.99,4.88,0.12,2.08
16.3390,0.07,0.13,-0.99,4.09,-0.49,1.95
16.3550,0.07,0.13,-0.97,4.33,-0.67,1.65
16.3670,0.06,0.14,-0.99,4.82,-0.92,1.34
16.3840,0.07,0.14,-0.99,5.07,-1.46,1.46
16.3970,0.07,0.14,-0.99,5.49,-1.95,1.28
16.4130,0.07,0.14,-0.99,6.53,-2.62,0.49
16.4310,0.07,0.14,-0.99,5.86,-1.16,0.79
16.4460,0.07,0.14,-0.99,4.33,0.73,1.53
16.4630,0.08,0.14,-0.99,2.75,2.32,1.89
16.4790,0.07,0.14,-0.99,1.59,4.58,2.26
16.4950,0.07,0.14,-0.98,1.40,7.75,2.62
16.5100,0.08,0.12,-1.00,1.34,8.42,2.69
16.5260,0.04,0.14,-0.99,2.81,8.54,2.81
16.5420,0.06,0.14,-1.04,3.91,3.36,2.44
16.5580,0.06,0.13,-0.95,5.25,1.40,2.38
16.5730,0.07,0.15,-1.01,3.78,1.83,2.38
16.5880,0.06,0.14,-0.98,2.56,1.95,1.89
16.6010,0.06,0.14,-0.99,3.05,1.71,1.95
16.6170,0.06,0.14,-0.99,3.54,1.53,1.83
16.6350,0.06,0.14,-0.99,2.93,1.59,1.83
16.6510,0.06,0.14,-0.99,3.17,1.65,1.83
16.6640,0.06,0.14,-0.99,3.42,1.65,1.83
16.6830,0.06,0.14,-0.99,4.09,1.46,2.01
16.6980,0.07,0.14,-0.99,4.15,1.65,1.77
16.7140,0.06,0.14,-0.99,3.78,1.40,1.16
16.7290,0.06,0.14,-0.98,3.23,1.59,1.16
16.7450,0.06,0.14,-0.99,2.99,1.53,1.83
16.7590,0.06,0.14,-0.99,3.42,1.28,1.83
16.7760,0.06,0.14,-0.99,4.15,0.92,1.95
16.7930,0.07,0.14,-0.99,5.07,0.06,1.83
16.8090,0.07,0.14,-0.99,4.21,0.06,1.53
16.8260,0.07,0.14,-0.99,3.85,-0.06,0.67
16.8420,0.07,0.14,-0.99,3.36,0.73,-0.12
16.8560,0.08,0.14,-0.99,2.93,1.28,0.06
16.8720,0.08,0.14,-0.99,2.87,1.77,-0.92
16.8840,0.07,0.13,-0.99,3.30,1.77,-2.75
16.9000,0.06,0.12,-0.99,3.48,1.65,-4.76
16.9150,0.07,0.13,-0.99,2.69,1.77,-6.59
16.9320,0.04,0.17,-0.98,1.46,2.62,-5.25
16.9490,0.06,0.13,-0.98,2.20,2.56,1.22
16.9630,0.06,0.13,-0.99,3.54,2.20,1.53
16.9790,0.07,0.14,-0.99,4.76,1.89,2.20
16.9960,0.07,0.14,-0.99,3.78,2.20,2.20
17.0090,0.09,0.13,-1.00,4.03,1.83,1.16
17.0250,0.07,0.15,-0.99,4.09,1.65,-2.01
17.0410,0.05,0.15,-0.99,2.87,1.71,-0.43
17.0560,0.04,0.13,-0.99,2.01,1.65,0.73
17.0690,0.06,0.13,-0.98,2.81,1.53,2.38
17.0850,0.07,0.14,-0.98,3.72,1.34,2.75
17.1000,0.07,0.14,-0.99,4.09,1.28,2.69
17.1180,0.07,0.14,-0.99,3.91,1.59,2.01
17.1330,0.07,0.15,-1.00,2.50,1.95,1.77
17.1470,0.07,0.14,-0.99,2.20,2.32,1.71
17.1660,0.10,0.15,-0.97,2.44,2.44,1.71
17.1810,0.05,0.13,-0.99,3.11,1.77,2.56
17.1970,0.07,0.13,-0.99,2.50,1.83,2.26
17.2090,0.06,0.13,-0.99,2.93,1.83,2.01
17.2250,0.07,0.14,-0.99,3.11,1.22,1.59
17.2410,0.07,0.14,-1.00,2.44,1.53,1.16
17.2580,0.10,0.15,-0.98,2.38,2.14,-0.85
17.2740,0.08,0.15,-0.99,2.56,1.89,-0.37
17.2910,0.05,0.13,-0.99,3.42,1.71,1.46
17.3060,0.05,0.11,-0.99,3.11,1.53,2.69
17.3210,0.06,0.12,-0.99,3.60,1.46,2.01
17.3360,0.07,0.14,-0.99,4.21,1.40,1.95
17.3510,0.07,0.14,-0.99,3.91,1.40,1.83
17.3650,0.07,0.14,-0.99,2.20,2.20,1.71
17.3810,0.06,0.14,-0.98,2.93,1.95,2.26
17.3960,0.07,0.12,-0.99,3.60,1.95,3.11
17.4090,0.07,0.13,-0.99,3.23,2.32,1.59
17.4260,0.08,0.13,-0.99,3.85,1.95,1.34
17.4420,0.08,0.13,-0.99,4.03,2.01,0.12
17.4580,0.07,0.13,-0.99,3.54,1.34,-2.01
17.4730,0.05,0.14,-0.99,3.54,1.46,-1.34
17.4890,0.04,0.14,-0.99,3.36,1.40,0.31
17.5040,0.07,0.13,-0.99,2.87,1.40,1.71
17.5160,0.07,0.13,-0.99,2.99,1.22,1.71
17.5340,0.08,0.14,-1.00,2.08,1.89,1.65
17.5460,0.08,0.14,-0.98,1.59,2.14,0.12
17.5650,0.06,0.13,-0.99,1.95,2.01,0.55
17.5800,0.05,0.13,-0.99,2.44,1.77,0.85
17.5960,0.05,0.12,-0.99,3.36,1.53,1.04
17.6120,0.08,0.13,-0.99,3.60,1.40,0.85
17.6260,0.07,0.14,-0.99,3.05,1.77,0.31
17.6440,0.07,0.13,-0.98,2.56,1.89,0.24
17.6590,0.06,0.12,-0.99,2.81,2.08,0.98
17.6760,0.07,0.13,-0.99,3.97,1.46,1.28
17.6910,0.09,0.13,-0.99,4.52,1.10,0.43
17.7070,0.08,0.14,-0.99,4.09,1.77,-1.77
17.7220,0.08,0.15,-0.99,3.30,1.95,-1.83
17.7370,0.05,0.14,-0.99,2.08,2.01,-0.43
17.7520,0.06,0.13,-0.99,1.95,1.71,0.55
17.7670,0.05,0.11,-1.00,3.11,2.38,1.71
17.7810,0.07,0.12,-0.99,4.27,1.53,2.01
17.7970,0.07,0.13,-0.99,4.76,1.16,1.65
17.8120,0.08,0.13,-0.99,3.36,2.20,1.34
17.8280,0.08,0.13,-0.99,3.11,1.53,-0.73
17.8420,0.07,0.12,-0.98,3.66,1.77,0.12
17.8550,0.07,0.13,-0.99,4.27,1.40,0.49
17.8710,0.08,0.13,-0.99,3.97,1.34,0.79
17.8880,0.07,0.13,-0.99,2.93,1.16,0.61
17.9040,0.06,0.13,-0.99,2.99,1.16,-0.43
17.9200,0.07,0.13,-0.99,3.11,0.92,-1.10
17.9340,0.06,0.13,-0.99,2.93,1.16,-0.61
17.9500,0.06,0.13,-0.99,2.93,1.71,0.67
17.9680,0.07,0.12,-0.99,2.81,2.08,1.71
17.9830,0.08,0.13,-0.99,3.23,2.32,1.71
18.0000,0.08,0.13,-0.99,2.75,2.20,0.61
18.0170,0.08,0.13,-0.99,3.30,2.32,-0.73
18.0320,0.08,0.13,-0.99,2.69,2.08,-0.85
18.0450,0.06,0.13,-0.99,2.38,1.59,-0.31
18.0610,0.05,0.12,-0.99,2.75,1.77,0.79
18.0770,0.06,0.11,-0.98,3.60,1.59,1.53
18.0920,0.07,0.12,-0.99,5.31,0.98,1.53
18.1070,0.09,0.12,-0.99,5.55,0.92,1.16
18.1220,0.10,0.11,-1.00,5.31,1.04,-2.44
18.1370,0.09,0.14,-0.99,3.54,1.28,-5.98
18.1510,0.04,0.16,-1.00,2.50,1.46,-4.58
18.1680,0.05,0.16,-0.97,0.37,1.59,-1.59
18.1810,0.04,0.13,-0.99,0.73,1.95,-0.06
18.1970,0.06,0.12,-0.99,1.53,2.38,1.59
18.2140,0.07,0.12,-0.99,3.11,1.46,2.20
18.2310,0.08,0.13,-0.99,4.15,1.65,2.44
18.2470,0.07,0.12,-0.99,3.54,2.62,2.08
18.2630,0.08,0.12,-0.99,4.52,2.81,2.01
18.2790,0.10,0.12,-0.99,5.55,2.69,2.01
18.2970,0.07,0.13,-0.99,4.76,1.89,2.56
18.3130,0.06,0.13,-0.99,2.62,1.89,2.99
18.3280,0.05,0.13,-0.99,2.14,1.77,2.99
18.3420,0.06,0.13,-0.99,1.89,1.77,3.05
18.3580,0.07,0.13,-0.99,1.59,2.62,3.05
18.3730,0.07,0.13,-0.99,1.65,2.62,5.19
18.3890,0.09,0.10,-0.99,3.30,2.14,5.37
18.4050,0.11,0.10,-1.00,5.62,1.65,0.92
18.4190,0.09,0.14,-0.99,5.13,1.28,-2.50
18.4350,0.08,0.14,-0.98,4.21,1.46,-0.98
18.4510,0.04,0.16,-0.99,3.48,1.71,0.92
18.4670,0.02,0.13,-0.99,1.89,1.53,5.19
18.4830,0.05,0.09,-0.98,1.71,1.65,6.23
18.4990,0.08,0.12,-0.99,5.68,0.06,2.14
18.5150,0.08,0.14,-1.00,5.86,0.92,1.22
18.5310,0.09,0.13,-1.00,2.93,2.14,-1.71
18.5470,0.08,0.13,-0.98,2.81,3.05,-3.30
18.5620,0.07,0.13,-0.99,3.72,2.87,-3.23
18.5780,0.06,0.14,-1.00,2.99,2.08,-0.79
18.5930,0.07,0.13,-0.99,1.53,2.08,1.28
18.6060,0.08,0.13,-0.98,2.32,1.95,2.08
18.6230,0.07,0.12,-0.99,3.23,1.65,2.50
18.6380,0.08,0.12,-0.99,3.23,2.01,1.34
18.6530,0.08,0.12,-0.99,4.64,1.34,0.49
18.6660,0.08,0.13,-0.99,4.76,1.95,-0.24
18.6820,0.07,0.13,-0.99,4.46,2.20,-0.43
18.6970,0.07,0.13,-0.99,3.78,1.95,0.31
18.7110,0.07,0.14,-0.99,3.48,1.89,0.79
18.7270,0.06,0.14,-0.98,3.78,1.04,3.11
18.7440,0.07,0.13,-0.98,3.97,0.73,6.84
18.7590,0.08,0.11,-0.99,4.09,1.22,6.35
18.7760,0.09,0.11,-0.99,5.37,1.59,2.32
18.7910,0.08,0.13,-0.98,5.62,1.65,0.67
18.8070,0.07,0.13,-0.98,4.94,1.71,0.43
18.8220,0.05,0.13,-0.98,4.58,2.20,0.43
18.8380,0.05,0.12,-0.99,3.78,1.95,1.10
18.8540,0.07,0.12,-0.98,4.33,1.59,1.65
18.8690,0.08,0.13,-0.99,5.19,1.40,1.89
18.8850,0.08,0.13,-0.99,4.46,1.83,1.46
18.9010,0.11,0.12,-0.99,3.48,1.53,-1.10
18.9160,0.08,0.13,-0.99,3.85,1.95,-0.55
18.9320,0.05,0.14,-0.99,3.48,2.50,-0.24
18.9470,0.07,0.13,-0.99,2.75,1.71,0.73
18.9630,0.07,0.12,-0.99,1.95,2.08,1.10
18.9780,0.08,0.12,-0.98,2.75,1.53,1.04
18.9940,0.08,0.13,-1.00,3.30,1.77,0.73
19.0080,0.09,0.12,-0.99,3.91,2.14,-0.37
19.0240,0.09,0.13,-0.98,4.03,2.26,-0.85
19.0370,0.08,0.13,-0.99,3.48,2.38,-1.34
19.0540,0.08,0.12,-0.98,2.87,2.26,-1.10
19.0690,0.06,0.14,-0.99,3.23,2.20,-2.08
19.0880,0.06,0.14,-0.99,2.01,2.38,-1.16
19.1030,0.06,0.13,-1.00,2.32,2.08,0.31
19.1160,0.06,0.12,-0.98,3.54,1.46,1.40
19.1340,0.07,0.13,-0.99,4.09,1.53,1.71
19.1490,0.08,0.13,-0.99,3.42,1.89,1.71
19.1640,0.08,0.12,-0.99,2.75,2.38,1.53
19.1800,0.09,0.12,-0.99,3.30,2.26,-1.77
19.1950,0.08,0.13,-0.99,2.38,2.69,-3.97
19.2100,0.06,0.14,-0.99,1.71,2.75,-3.54
19.2260,0.06,0.14,-0.99,1.89,2.69,-0.98
19.2390,0.04,0.12,-0.99,2.50,1.83,0.55
19.2570,0.07,0.12,-0.98,3.48,1.22,1.77
19.2720,0.08,0.13,-0.99,4.15,1.28,2.14
19.2870,0.08,0.13,-0.99,2.99,2.08,1.83
19.3000,0.08,0.13,-0.99,2.32,2.56,1.77
19.3170,0.07,0.13,-0.99,1.34,2.26,1.53
19.3340,0.07,0.12,-0.98,1.34,2.99,1.53
19.3480,0.09,0.12,-0.99,3.48,1.77,2.26
19.3650,0.08,0.12,-0.99,4.52,1.22,2.75
19.3810,0.09,0.13,-0.99,4.94,1.59,2.32
19.3960,0.07,0.14,-1.00,3.42,1.53,1.40
19.4110,0.05,0.13,-0.99,3.42,1.53,0.79
19.4280,0.06,0.13,-0.99,2.62,2.01,0.67
19.4440,0.06,0.12,-0.98,2.56,1.89,1.22
19.4590,0.07,0.12,-0.99,3.91,1.28,1.95
19.4710,0.08,0.13,-0.99,4.33,1.53,1.77
19.4870,0.11,0.13,-0.99,3.60,1.22,1.71
19.5040,0.09,0.14,-1.00,3.36,0.92,0.92
19.5210,0.09,0.14,-0.98,2.08,1.59,0.73
19.5360,0.07,0.12,-0.99,3.36,1.40,1.22
19.5530,0.05,0.12,-0.99,3.60,0.92,1.40
19.5690,0.04,0.12,-1.00,3.97,0.67,1.71
19.5850,0.08,0.12,-0.99,5.00,1.28,1.46
19.6010,0.11,0.13,-0.99,4.76,1.59,0.85
19.6170,0.09,0.13,-0.98,2.08,2.56,-1.53
19.6330,0.09,0.12,-1.00,3.36,2.08,-1.04
19.6480,0.06,0.13,-0.99,3.36,1.71,0.31
19.6620,0.06,0.12,-0.99,3.48,1.34,0.98
19.6780,0.07,0.13,-0.99,3.66,1.46,1.16
19.6930,0.07,0.12,-0.99,3.05,2.01,1.59
19.7060,0.09,0.12,-0.99,3.36,1.95,1.46
19.7220,0.11,0.12,-0.99,3.05,2.01,0.85
19.7380,0.09,0.12,-0.98,2.14,2.20,-1.34
19.7550,0.09,0.11,-0.97,3.11,1.89,-1.77
19.7710,0.08,0.13,-0.99,3.85,1.59,-1.04
19.7880,0.07,0.14,-1.00,3.17,0.92,-0.49
19.8030,0.05,0.13,-0.99,3.17,1.71,0.67
19.8190,0.05,0.12,-0.99,2.50,1.95,1.59
19.8350,0.07,0.12,-0.99,2.87,1.65,1.77
19.8510,0.08,0.12,-0.99,3.30,1.89,1.77
19.8680,0.08,0.13,-1.00,2.56,2.14,1.65
19.8840,0.09,0.12,-0.98,1.22,2.69,1.40
19.9000,0.07,0.12,-0.99,3.97,1.71,1.28
19.9150,0.06,0.13,-0.99,4.39,1.28,1.65
19.9300,0.07,0.12,-0.99,3.60,1.65,1.46
19.9450,0.07,0.12,-0.99,3.60,1.71,1.40
19.9580,0.09,0.13,-0.99,3.17,1.89,1.59
19.9720,0.09,0.13,-0.99,2.56,1.71,1.34
19.9880,0.09,0.12,-0.98,1.95,2.08,1.28
20.0050,0.11,0.09,-0.95,3.36,1.46,1.04
20.0210,0.10,0.12,-0.99,4.70,1.34,1.16
20.0360,0.09,0.14,-1.00,5.68,0.85,1.04
20.0510,0.07,0.13,-0.99,5.25,1.59,1.16
20.0670,0.07,0.14,-1.00,3.97,1.40,0.79
20.0810,0.07,0.13,-0.99,3.05,1.71,1.04
20.0970,0.06,0.13,-0.99,1.95,1.22,1.59
20.1130,0.04,0.10,-0.99,2.08,1.28,2.50
20.1280,0.07,0.11,-0.98,4.09,1.34,1.95
20.1450,0.08,0.13,-0.99,7.57,0.55,2.38
20.1620,0.09,0.14,-1.00,5.55,1.40,2.32
20.1780,0.08,0.14,-1.00,4.39,1.83,1.65
20.1940,0.08,0.13,-0.99,2.50,2.14,1.65
20.2110,0.08,0.12,-0.99,2.38,1.89,1.59
20.2270,0.08,0.12,-0.98,2.32,2.01,1.83
20.2410,0.08,0.12,-0.99,3.48,1.77,2.08
20.2570,0.08,0.13,-0.99,3.54,2.26,1.83
20.2720,0.08,0.14,-1.00,2.75,2.69,1.46
20.2870,0.08,0.13,-0.99,1.59,2.81,1.10
20.3020,0.08,0.11,-0.98,1.95,1.89,1.16
20.3170,0.07,0.12,-0.99,3.66,1.22,1.22
20.3340,0.08,0.12,-0.99,4.46,1.04,1.65
20.3510,0.08,0.12,-0.99,4.64,1.59,1.83
20.3670,0.12,0.12,-1.00,4.39,2.14,1.46
20.3830,0.10,0.12,-0.99,2.62,1.95,-2.08
20.4000,0.11,0.09,-0.94,3.30,2.38,-3.85
20.4150,0.07,0.14,-0.98,3.23,2.14,-4.03
20.4290,0.06,0.13,-0.98,3.72,1.77,-3.42
20.4450,0.01,0.14,-0.99,3.48,2.01,-1.53
20.4600,0.06,0.11,-0.99,1.83,2.26,1.10
20.4720,0.08,0.12,-0.98,3.78,0.67,2.32
20.4880,0.08,0.13,-0.99,3.72,1.34,3.30
20.5060,0.09,0.12,-0.99,2.32,1.71,3.30
20.5220,0.09,0.12,-0.99,2.08,2.26,2.75
20.5380,0.08,0.12,-0.99,3.42,1.95,1.65
20.5530,0.08,0.13,-0.99,4.21,2.44,1.65
20.5690,0.08,0.13,-0.99,4.46,1.89,1.34
20.5920,0.08,0.13,-0.99,3.66,2.20,0.73
20.6070,0.07,0.12,-0.99,2.93,1.89,1.22
20.6220,0.08,0.12,-0.99,3.97,1.28,1.53
20.6380,0.08,0.13,-0.99,4.64,1.28,1.83
20.6530,0.08,0.13,-0.99,4.33,1.40,1.59
20.6680,0.13,0.11,-1.00,2.69,2.01,0.43
20.6820,0.08,0.12,-0.98,1.95,2.38,-3.42
20.7000,0.06,0.13,-0.98,1.83,2.14,-1.65
20.7150,0.05,0.12,-0.98,1.95,2.14,-0.43
20.7310,0.07,0.12,-0.98,3.54,1.40,1.59
20.7470,0.08,0.12,-0.99,4.33,1.22,1.95
20.7630,0.08,0.12,-0.99,5.07,0.85,1.83
20.7750,0.09,0.13,-0.99,4.03,2.14,1.46
20.7920,0.12,0.12,-0.99,2.93,1.53,-1.53
20.8050,0.07,0.12,-0.98,2.87,2.08,-1.22
20.8220,0.06,0.13,-1.00,3.85,1.59,0.43
20.8380,0.08,0.13,-0.99,4.03,0.85,1.59
20.8510,0.08,0.12,-0.99,3.42,1.40,1.65
20.8670,0.08,0.12,-0.99,3.60,1.65,1.59
20.8830,0.08,0.13,-0.99,3.85,2.01,1.53
20.8970,0.08,0.13,-0.99,2.32,2.32,1.28
20.9100,0.08,0.12,-0.99,1.95,1.95,0.55
20.9260,0.07,0.11,-0.98,2.56,1.83,1.22
20.9430,0.08,0.12,-0.99,3.54,1.59,1.40
20.9590,0.10,0.13,-0.99,3.85,1.59,1.65
20.9720,0.11,0.12,-0.99,4.46,1.83,-0.37
20.9910,0.10,0.12,-0.98,3.42,2.01,-2.81
21.0060,0.09,0.12,-0.98,4.64,2.08,-3.30
21.0220,0.07,0.11,-0.98,3.78,1.83,-2.14
21.0370,0.06,0.13,-0.99,4.52,1.71,-0.85
21.0510,0.06,0.12,-0.99,3.30,2.01,0.06
21.0670,0.07,0.12,-0.99,3.97,2.01,0.92
21.0840,0.08,0.13,-0.99,4.64,1.77,0.92
21.0990,0.07,0.13,-0.99,2.56,2.26,1.04
21.1140,0.06,0.12,-1.00,2.26,2.08,1.46
21.1260,0.07,0.12,-0.99,2.44,1.46,1.83
21.1440,0.08,0.12,-0.99,2.81,1.40,1.83
21.1580,0.08,0.12,-0.99,3.72,1.71,1.77
21.1750,0.08,0.12,-0.99,3.48,2.38,1.59
21.1910,0.11,0.12,-0.99,3.54,2.32,1.40
21.2060,0.08,0.12,-0.99,3.60,1.71,0.61
21.2220,0.07,0.11,-0.98,3.72,1.71,0.67
21.2340,0.10,0.14,-1.02,5.68,2.20,1.10
21.2520,0.08,0.13,-0.98,2.69,1.65,0.79
21.2670,0.09,0.13,-0.99,3.72,1.65,1.04
21.2830,0.10,0.13,-0.99,2.44,1.65,0.73
21.2980,0.09,0.12,-0.99,2.69,2.14,0.37
21.3110,0.09,0.11,-0.99,1.95,2.44,0.06
21.3290,0.09,0.11,-0.99,2.50,2.56,-1.10
21.3420,0.07,0.11,-0.98,3.60,2.20,-1.04
21.3580,0.07,0.13,-0.99,4.82,1.71,-0.61
21.3750,0.05,0.14,-0.99,4.09,1.95,0.00
21.3920,0.06,0.14,-1.00,3.66,1.34,0.43
21.4080,0.06,0.12,-0.99,2.44,1.83,1.28
21.4240,0.07,0.12,-0.99,2.62,1.77,1.53
21.4390,0.08,0.12,-0.99,4.03,1.59,1.77
21.4560,0.08,0.12,-0.98,4.27,1.53,1.89
21.4710,0.08,0.13,-0.99,3.97,1.83,1.59
21.4880,0.08,0.12,-0.99,3.36,1.95,1.77
21.5050,0.10,0.12,-0.98,3.42,2.08,1.53
21.5200,0.10,0.13,-0.99,2.87,1.65,1.46
21.5370,0.07,0.12,-0.99,3.11,1.77,2.08
21.5510,0.09,0.12,-0.99,4.03,2.20,1.59
21.5660,0.07,0.12,-0.98,3.66,1.77,1.53
21.5820,0.07,0.11,-0.96,4.39,1.71,1.40
21.5950,0.08,0.13,-0.99,4.33,1.22,1.40
21.6120,0.08,0.14,-0.99,2.99,1.16,1.71
21.6280,0.08,0.14,-0.98,2.08,1.04,3.72
21.6450,0.07,0.11,-0.99,2.69,0.24,7.57
21.6610,0.05,0.10,-0.99,2.87,1.40,4.64
21.6770,0.06,0.11,-0.99,4.64,1.89,2.08
21.6920,0.08,0.12,-0.99,5.86,1.77,1.77
21.7050,0.10,0.12,-0.99,4.58,1.83,0.92
21.7210,0.09,0.12,-0.98,4.39,1.95,0.73
21.7340,0.10,0.13,-0.99,3.66,2.50,0.73
21.7500,0.08,0.14,-1.00,2.20,1.22,0.73
21.7660,0.08,0.11,-0.99,2.81,1.53,1.16
21.7810,0.07,0.12,-0.99,3.17,1.77,1.46
21.7990,0.09,0.12,-0.99,3.78,1.95,0.92
21.8150,0.08,0.14,-0.99,3.30,2.50,-0.43
21.8290,0.07,0.13,-0.99,3.05,2.08,-0.37
21.8460,0.07,0.13,-0.99,2.32,1.83,0.67
21.8590,0.07,0.13,-0.99,2.38,1.53,1.40
21.8750,0.06,0.12,-0.99,2.32,1.53,1.46
21.8920,0.07,0.12,-0.99,3.05,1.71,1.89
21.9080,0.08,0.13,-0.99,3.72,1.77,1.77
21.9230,0.08,0.13,-0.99,3.23,2.01,1.77
21.9380,0.10,0.12,-0.99,2.87,2.32,1.65
21.9540,0.09,0.12,-0.98,2.62,1.65,1.34
21.9660,0.08,0.13,-0.99,2.99,1.34,1.71
21.9830,0.07,0.12,-0.99,2.69,1.28,2.32
21.9960,0.08,0.12,-0.99,2.87,2.01,2.50
22.0120,0.09,0.13,-0.99,3.23,1.59,2.26
22.0290,0.09,0.13,-0.98,2.56,2.14,2.44
22.0440,0.11,0.11,-0.97,3.23,2.32,2.32
22.0600,0.09,0.12,-0.99,5.00,1.59,2.44
22.0750,0.09,0.13,-1.00,5.19,1.22,2.50
22.0870,0.08,0.13,-0.99,5.00,1.04,2.56
22.1050,0.07,0.13,-0.99,4.09,1.34,2.93
22.1180,0.06,0.13,-0.99,3.72,1.65,2.69
22.1340,0.05,0.12,-0.99,3.30,1.46,2.81
22.1520,0.06,0.12,-0.99,3.42,2.14,2.26
22.1640,0.06,0.12,-0.99,4.21,2.08,2.20
22.1800,0.08,0.13,-0.99,5.25,1.59,2.14
22.1970,0.08,0.13,-0.99,4.58,1.77,1.77
22.2130,0.08,0.13,-0.99,4.09,1.65,1.65
22.2300,0.10,0.12,-0.99,3.42,2.14,1.46
22.2470,0.07,0.13,-0.99,2.69,1.53,1.53
22.2630,0.08,0.13,-0.99,3.17,1.83,1.77
22.2790,0.09,0.12,-0.99,3.11,1.83,1.89
22.2960,0.09,0.12,-0.99,3.23,1.71,1.71
22.3110,0.09,0.12,-0.99,3.30,1.71,1.22
22.3260,0.13,0.13,-1.01,4.21,2.38,-0.24
22.3410,0.09,0.12,-0.99,2.81,2.14,-1.28
22.3570,0.05,0.14,-0.99,3.30,2.01,-0.73
22.3720,0.04,0.13,-1.00,2.87,1.89,0.92
22.3870,0.06,0.11,-0.98,2.81,2.01,1.71
22.4020,0.08,0.12,-0.99,5.43,1.40,2.14
22.4180,0.09,0.14,-1.00,5.00,1.71,1.77
22.4300,0.09,0.13,-0.99,2.56,3.05,0.98
22.4470,0.11,0.11,-0.98,1.71,2.44,-0.12
22.4640,0.07,0.12,-0.98,3.11,2.08,-0.12
22.4800,0.07,0.14,-1.00,4.33,1.95,0.73
22.4970,0.06,0.12,-1.00,2.44,1.71,1.53
22.5130,0.07,0.12,-0.99,4.15,1.10,2.26
22.5290,0.07,0.13,-0.99,3.60,1.53,4.39
22.5440,0.11,0.14,-0.99,2.99,1.95,4.15
22.5590,0.11,0.14,-0.99,2.56,2.32,2.26
22.5750,0.09,0.13,-0.99,1.53,2.50,1.77
22.5890,0.08,0.12,-0.99,1.10,3.11,1.53
22.6050,0.07,0.11,-0.99,2.62,2.26,1.83
22.6210,0.08,0.13,-0.99,4.15,1.89,1.95
22.6370,0.08,0.13,-0.99,4.09,1.53,2.14
22.6520,0.08,0.12,-0.99,4.15,1.34,1.89
22.6670,0.08,0.13,-0.99,4.58,1.71,1.83
22.6830,0.08,0.13,-0.99,3.48,2.01,1.53
22.6970,0.08,0.12,-0.99,2.69,2.26,1.59
22.7100,0.08,0.12,-0.99,3.36,1.59,1.59
22.7260,0.08,0.12,-0.99,3.36,1.28,1.65
22.7430,0.08,0.12,-0.99,3.42,1.34,1.83
22.7600,0.08,0.12,-0.99,3.91,1.77,1.89
22.7760,0.08,0.13,-0.99,4.33,1.77,1.83
22.7920,0.08,0.12,-0.99,3.54,1.89,1.53
22.8080,0.08,0.12,-0.99,3.30,1.59,1.59
22.8230,0.08,0.12,-0.99,3.42,2.01,1.89
22.8380,0.08,0.12,-0.99,3.17,2.38,1.77
22.8510,0.08,0.12,-0.99,3.30,2.26,1.89
22.8670,0.08,0.13,-0.99,3.78,1.59,1.83
22.8830,0.08,0.12,-0.99,3.85,2.08,1.71
22.8980,0.08,0.12,-0.99,4.58,1.46,1.89
22.9130,0.08,0.12,-0.99,5.07,1.53,1.65
22.9290,0.08,0.12,-0.99,4.82,1.59,1.83
22.9410,0.08,0.12,-0.98,5.49,0.98,1.77
22.9600,0.08,0.12,-1.00,7.45,-0.55,1.83
22.9750,0.08,0.13,-0.99,9.52,-0.98,1.95
22.9900,0.09,0.14,-0.99,8.54,-0.98,1.95
23.0010,0.09,0.14,-1.00,7.02,0.12,1.83
23.0200,0.09,0.14,-0.99,4.82,1.16,1.83
23.0320,0.09,0.14,-0.99,2.93,2.38,1.65
23.0500,0.08,0.13,-0.99,1.83,3.30,1.95
23.0650,0.08,0.13,-1.00,1.22,3.85,2.14
23.0820,0.08,0.13,-0.98,-0.18,3.97,2.14
23.0990,0.08,0.13,-0.99,-0.43,4.09,1.53
23.1150,0.07,0.12,-0.97,-1.22,4.46,1.22
23.1300,0.08,0.12,-0.99,-1.28,4.70,0.98
23.1460,0.07,0.12,-0.98,-2.81,3.97,-0.98
23.1630,0.04,0.15,-1.03,5.37,1.46,-0.55
23.1760,0.07,0.10,-0.93,1.77,0.12,1.40
23.1920,0.07,0.12,-0.98,4.09,2.38,2.01
23.2080,0.08,0.12,-0.98,4.64,1.65,1.53
23.2230,0.08,0.13,-0.99,5.07,2.01,1.59
23.2380,0.08,0.13,-1.00,4.39,2.01,1.40
23.2540,0.08,0.12,-0.99,3.78,2.44,1.59
23.2690,0.08,0.12,-0.99,4.64,1.95,1.71
23.2840,0.08,0.13,-0.99,3.85,2.26,1.77
23.2990,0.07,0.12,-0.99,3.91,1.89,1.89
23.3130,0.08,0.13,-0.98,3.97,1.46,1.77
23.3260,0.08,0.13,-0.99,3.48,2.14,1.71
23.3430,0.08,0.13,-0.99,3.60,2.14,1.89
23.3590,0.07,0.12,-0.99,4.33,2.20,1.28
23.3730,0.09,0.11,-0.99,5.55,2.20,-1.65
23.3910,0.09,0.12,-0.99,5.25,2.56,-3.78
23.4060,0.08,0.15,-0.98,4.58,3.91,-5.74
23.4210,0.06,0.14,-0.99,1.95,2.56,-1.40
23.4370,0.07,0.11,-0.99,1.10,1.83,1.16
23.4530,0.08,0.12,-0.99,2.81,1.77,1.83
23.4680,0.08,0.13,-0.99,3.36,1.22,1.89
23.4800,0.08,0.14,-0.99,3.05,1.65,1.77
23.4970,0.08,0.13,-0.99,2.32,2.14,1.71
23.5130,0.08,0.12,-0.99,2.62,1.83,1.65
23.5300,0.08,0.12,-0.99,3.05,1.71,1.40
23.5470,0.08,0.12,-0.99,3.36,1.77,1.40
23.5630,0.09,0.12,-0.99,4.46,1.40,1.46
23.5790,0.08,0.13,-0.98,4.64,1.16,-0.55
23.5950,0.07,0.13,-0.99,4.33,1.34,-1.04
23.6110,0.07,0.14,-1.00,4.21,1.10,-0.55
23.6270,0.08,0.13,-0.99,3.30,1.40,-0.24
23.6420,0.08,0.13,-0.99,2.81,1.77,0.92
23.6540,0.09,0.12,-0.99,2.93,2.14,0.79
23.6720,0.09,0.12,-0.99,2.56,2.87,-0.61
23.6890,0.09,0.12,-1.00,2.50,2.44,-2.08
23.7010,0.09,0.12,-0.98,1.95,2.81,-3.66
23.7190,0.07,0.13,-0.99,2.26,2.75,-3.97
23.7320,0.05,0.14,-0.98,2.44,2.69,-1.65
23.7490,0.08,0.12,-0.99,2.87,1.77,1.65
23.7650,0.08,0.12,-0.99,3.78,1.65,1.83
23.7820,0.08,0.12,-0.99,4.03,1.95,1.71
23.7970,0.08,0.12,-0.99,3.85,2.14,1.53
23.8090,0.10,0.10,-0.99,3.30,2.14,0.61
23.8250,0.08,0.11,-0.99,3.30,2.99,-3.66
23.8400,0.05,0.13,-0.98,3.97,2.50,-2.44
23.8560,0.08,0.13,-0.99,4.58,1.71,1.46
23.8720,0.08,0.12,-0.98,3.05,1.46,2.32
23.8880,0.09,0.13,-0.99,3.48,2.14,1.89
23.9050,0.08,0.13,-0.99,3.30,2.14,1.71
23.9210,0.09,0.11,-1.00,3.17,2.56,1.22
23.9370,0.09,0.11,-0.99,1.95,3.05,-3.60
23.9530,0.07,0.11,-0.99,3.48,2.56,-2.62
23.9690,0.06,0.14,-0.98,3.91,1.95,-0.67
23.9810,0.08,0.16,-0.98,3.91,2.14,1.04
23.9970,0.08,0.13,-0.99,3.17,1.65,1.71
24.0140,0.08,0.12,-0.99,2.81,1.77,1.53
24.0280,0.08,0.12,-0.99,3.91,2.38,1.65
24.0460,0.07,0.11,-1.00,4.33,2.62,0.49
24.0630,0.07,0.11,-0.99,3.66,2.44,-0.37
24.0790,0.08,0.11,-0.98,3.85,1.95,-0.06
24.0950,0.08,0.12,-0.99,3.85,2.20,-1.16
24.1110,0.08,0.13,-0.99,3.48,2.87,-2.08
24.1280,0.07,0.13,-0.99,3.97,2.32,-2.32
24.1420,0.07,0.14,-0.98,2.81,2.56,-1.16
24.1590,0.08,0.13,-0.99,3.72,1.95,1.40
24.1750,0.08,0.12,-0.99,2.38,2.14,1.53
24.1920,0.08,0.10,-1.00,3.11,2.14,1.22
24.2060,0.08,0.08,-1.00,2.56,2.38,-0.61
24.2220,0.08,0.10,-0.99,2.38,3.05,-3.91
24.2350,0.07,0.14,-0.99,4.15,2.20,-3.23
24.2520,0.07,0.18,-0.98,4.58,1.59,-0.06
24.2640,0.08,0.15,-1.00,4.39,1.71,1.53
24.2830,0.08,0.11,-0.99,1.10,2.20,1.34
24.2970,0.08,0.12,-0.99,3.42,2.44,1.71
24.3120,0.08,0.13,-0.99,3.85,2.08,1.53
24.3310,0.08,0.11,-0.99,2.75,1.89,1.40
24.3460,0.08,0.11,-0.99,3.85,1.65,0.49
24.3600,0.08,0.12,-0.99,4.21,1.46,-0.24
24.3760,0.08,0.12,-0.99,3.91,1.71,-0.43
24.3940,0.08,0.12,-1.00,3.85,2.14,-1.22
24.4090,0.07,0.12,-0.99,3.23,2.38,-2.26
24.4260,0.07,0.14,-0.98,2.69,2.50,-2.32
24.4410,0.08,0.14,-0.98,2.99,2.01,0.43
24.4550,0.08,0.12,-0.99,2.69,1.95,1.71
24.4710,0.08,0.11,-0.99,3.36,1.89,1.65
24.4870,0.08,0.12,-1.00,4.52,1.53,1.53
24.5030,0.09,0.09,-1.00,3.42,1.95,0.00
24.5190,0.08,0.09,-0.99,2.50,2.50,-2.75
24.5330,0.05,0.05,-0.98,3.48,2.14,-2.44
24.5500,0.06,0.13,-0.97,2.81,2.08,-2.50
24.5660,0.09,0.15,-0.99,4.46,1.40,0.92
24.5820,0.09,0.13,-1.00,3.78,1.89,1.34
24.5950,0.08,0.10,-1.00,2.75,3.11,-0.85
24.6120,0.07,0.11,-0.98,2.69,3.60,-3.78
24.6250,0.07,0.14,-0.99,4.03,2.81,-3.17
24.6420,0.08,0.13,-0.99,4.64,0.85,1.59
24.6590,0.08,0.12,-0.98,3.60,0.98,2.14
24.6750,0.09,0.13,-0.99,4.03,1.59,1.95
24.6910,0.08,0.13,-0.99,3.78,2.20,1.53
24.7060,0.08,0.12,-1.00,2.87,2.81,1.04
24.7220,0.07,0.11,-0.99,2.87,2.81,0.37
24.7380,0.05,0.10,-1.00,4.03,2.08,0.73
24.7540,0.08,0.12,-0.99,3.48,1.89,0.85
24.7700,0.10,0.14,-0.98,4.21,1.46,1.77
24.7850,0.09,0.13,-0.99,3.72,1.46,1.83
24.8000,0.08,0.12,-1.00,2.93,2.26,1.40
24.8160,0.10,0.08,-1.00,3.42,2.08,-0.43
24.8310,0.06,0.08,-1.01,2.38,3.60,-7.39
24.8490,0.03,0.12,-0.98,0.85,3.78,-6.41
24.8640,0.05,0.13,-0.97,2.87,1.77,-1.53
24.8770,0.09,0.15,-0.97,3.85,0.85,0.73
24.8960,0.12,0.15,-0.99,3.72,0.61,3.72
24.9110,0.09,0.12,-0.99,1.83,2.08,2.26
24.9270,0.07,0.12,-0.99,2.50,3.23,1.83
24.9420,0.07,0.12,-1.00,3.48,2.69,1.59
24.9570,0.07,0.11,-0.99,4.46,2.14,1.59
24.9700,0.08,0.12,-0.99,5.19,1.53,1.65
24.9880,0.08,0.12,-0.99,4.94,1.46,1.46
25.0040,0.08,0.12,-0.99,4.70,1.10,1.28
25.0180,0.08,0.12,-0.99,5.25,1.16,0.43
25.0350,0.08,0.13,-0.99,4.94,1.71,0.67
25.0500,0.08,0.12,-1.00,4.21,2.32,0.85
25.0650,0.09,0.10,-1.00,4.03,2.44,-0.06
25.0800,0.08,0.12,-0.99,4.76,2.56,-4.03
25.0970,0.06,0.15,-0.99,4.64,2.81,-3.66
25.1110,0.07,0.13,-0.99,4.03,1.34,0.92
25.1270,0.08,0.12,-0.99,3.23,1.10,1.59
25.1430,0.08,0.12,-0.99,4.15,0.92,1.83
25.1580,0.08,0.12,-0.99,4.52,0.98,1.83
25.1730,0.08,0.12,-0.99,4.39,1.40,1.59
25.1860,0.09,0.09,-1.00,3.23,2.50,0.61
25.2020,0.08,0.11,-0.98,2.93,3.30,-3.78
25.2190,0.07,0.13,-0.99,4.46,2.26,-2.56
25.2350,0.06,0.16,-0.99,5.07,1.40,-0.18
25.2510,0.08,0.14,-1.00,4.76,1.04,1.59
25.2670,0.08,0.12,-0.99,2.99,1.04,1.40
25.2830,0.08,0.12,-0.99,4.88,1.71,1.83
25.2980,0.07,0.11,-1.00,3.78,1.95,1.71
25.3130,0.08,0.11,-0.99,3.60,2.56,-0.73
25.3260,0.08,0.12,-0.98,4.70,2.56,-1.10
25.3420,0.08,0.13,-0.99,4.58,2.08,-0.18
25.3580,0.07,0.14,-0.99,4.15,2.08,1.22
25.3720,0.08,0.11,-0.99,3.60,1.34,1.77
25.3870,0.07,0.11,-1.00,2.99,2.32,0.06
25.4050,0.07,0.10,-0.99,4.15,2.01,-2.44
25.4220,0.08,0.11,-0.99,4.76,2.26,-2.99
25.4370,0.09,0.13,-0.98,4.88,1.59,-2.62
25.4540,0.09,0.17,-0.98,5.31,1.10,0.85
25.4670,0.08,0.14,-1.00,4.03,1.83,1.34
25.4830,0.08,0.11,-0.99,2.38,2.50,0.98
25.4980,0.08,0.11,-0.99,3.42,1.77,-0.85
25.5150,0.07,0.11,-0.99,3.60,2.32,-2.01
25.5330,0.07,0.13,-0.99,2.93,2.14,-1.65
25.5480,0.07,0.13,-0.99,2.81,1.34,0.31
25.5620,0.09,0.12,-0.98,2.26,2.08,0.98
25.5770,0.10,0.13,-0.99,2.81,2.56,-0.31
25.5930,0.09,0.12,-0.99,2.81,2.81,-1.83
25.6110,0.08,0.11,-0.99,2.93,3.11,-2.32
25.6270,0.07,0.11,-0.99,2.93,2.44,-1.77
25.6430,0.06,0.11,-0.99,3.17,2.01,-1.53
25.6550,0.05,0.13,-0.99,2.44,2.01,-2.44
25.6710,0.06,0.12,-0.99,3.60,2.26,-2.69
25.6880,0.08,0.14,-0.98,4.27,2.14,-2.99
25.7030,0.11,0.17,-0.98,4.46,1.71,-1.28
25.7190,0.09,0.13,-0.99,3.36,0.85,1.77
25.7350,0.08,0.12,-1.00,2.38,2.32,1.40
25.7510,0.07,0.12,-1.00,4.09,2.08,1.53
25.7660,0.08,0.11,-1.00,3.78,1.95,-0.18
25.7820,0.07,0.10,-0.99,2.62,2.69,-2.50
25.7980,0.07,0.11,-0.98,2.99,2.26,-1.46
25.8120,0.08,0.15,-0.98,3.48,1.71,-0.55
25.8300,0.09,0.14,-0.99,4.39,0.92,1.71
25.8440,0.08,0.12,-0.99,2.14,1.46,1.65
25.8610,0.08,0.12,-0.99,3.78,1.40,1.65
25.8780,0.07,0.12,-1.00,4.21,1.53,1.77
25.8930,0.07,0.09,-0.99,2.69,2.14,1.83
25.9050,0.07,0.09,-0.99,3.91,3.23,-2.08
25.9230,0.08,0.11,-0.99,4.46,3.23,-2.38
25.9380,0.09,0.15,-0.97,4.39,2.44,-0.79
25.9550,0.08,0.15,-0.98,3.30,1.83,1.77
25.9710,0.08,0.12,-0.99,3.66,1.34,1.65
25.9870,0.07,0.09,-1.00,3.78,1.46,0.85
26.0020,0.06,0.07,-0.99,2.75,2.50,-3.36
26.0180,0.07,0.11,-0.97,4.15,2.38,-4.64
26.0340,0.09,0.15,-0.99,4.76,1.65,-0.12
26.0490,0.10,0.17,-0.98,4.46,1.16,1.83
26.0620,0.08,0.12,-0.99,2.69,1.22,1.95
26.0800,0.08,0.12,-0.99,3.54,1.95,1.71
26.0950,0.08,0.12,-1.00,4.46,1.77,1.65
26.1090,0.08,0.11,-1.00,3.78,2.08,1.10
26.1260,0.07,0.12,-0.99,4.09,1.53,0.92
26.1430,0.08,0.13,-0.99,4.15,1.46,1.59
26.1560,0.08,0.12,-0.99,3.60,1.34,1.65
26.1720,0.08,0.12,-0.99,4.03,1.53,1.77
26.1880,0.08,0.12,-0.99,3.91,1.83,1.59
26.2010,0.10,0.08,-1.00,2.38,2.14,-3.36
26.2180,0.07,0.08,-0.99,2.81,3.30,-8.42
26.2340,0.06,0.10,-0.99,2.87,3.30,-8.06
26.2510,0.05,0.07,-1.00,3.23,2.81,-6.47
26.2670,0.07,0.13,-0.99,4.21,2.75,-7.63
26.2810,0.08,0.15,-0.98,4.70,2.38,-5.07
26.2970,0.09,0.16,-0.98,5.25,2.14,-2.50
26.3150,0.09,0.15,-0.98,4.76,1.89,-0.31
26.3310,0.08,0.12,-0.99,3.78,2.14,1.53
26.3450,0.08,0.09,-1.00,3.78,2.75,0.49
26.3630,0.08,0.09,-0.99,4.27,2.81,-1.53
26.3790,0.09,0.11,-0.99,4.88,2.69,-2.32
26.3910,0.07,0.15,-0.98,4.39,1.40,-1.34
26.4100,0.07,0.19,-0.98,4.09,1.04,0.43
26.4250,0.08,0.12,-0.99,1.59,1.22,1.28
26.4380,0.08,0.12,-0.99,3.48,1.71,1.65
26.4560,0.08,0.12,-0.99,4.94,1.71,1.83
26.4720,0.07,0.08,-0.99,2.62,2.50,0.06
26.4840,0.08,0.09,-0.99,2.44,3.23,-2.26
26.5010,0.08,0.13,-0.99,4.88,2.69,-3.48
26.5170,0.07,0.19,-0.97,4.27,2.20,-1.40
26.5330,0.08,0.13,-0.99,1.71,1.77,1.46
26.5490,0.08,0.11,-0.98,1.89,0.79,1.34
26.5660,0.08,0.13,-0.99,4.58,1.53,1.65
26.5810,0.08,0.12,-0.99,3.91,1.40,1.46
26.5970,0.08,0.12,-0.98,4.03,1.95,1.40
26.6130,0.08,0.09,-1.00,3.11,2.32,-0.92
26.6290,0.09,0.12,-0.99,3.72,2.81,-1.10
26.6450,0.08,0.14,-0.99,4.27,2.32,0.24
26.6580,0.08,0.14,-0.99,3.72,2.20,0.92
26.6740,0.08,0.12,-0.99,2.93,1.95,-0.43
26.6880,0.08,0.09,-1.00,3.11,2.50,-3.05
26.7040,0.08,0.08,-0.99,3.17,3.78,-5.31
26.7210,0.09,0.13,-1.00,2.99,4.03,-5.13
26.7380,0.07,0.13,-1.00,4.39,3.11,-5.43
26.7540,0.06,0.16,-0.98,3.66,2.26,-4.64
26.7660,0.09,0.17,-0.98,3.97,1.89,-2.01
26.7820,0.09,0.13,-1.00,2.56,1.04,1.46
26.7990,0.08,0.12,-0.99,1.89,1.40,1.53
26.8150,0.08,0.12,-0.99,2.87,2.01,1.77
26.8300,0.08,0.12,-0.99,3.66,1.34,1.65
26.8420,0.08,0.12,-0.99,4.15,1.53,1.71
26.8600,0.08,0.12,-0.98,4.15,1.40,1.65
26.8730,0.07,0.09,-1.00,2.93,2.01,1.53
26.8890,0.07,0.10,-0.98,2.26,2.75,-1.28
26.9050,0.09,0.13,-0.99,4.82,2.44,-1.16
26.9230,0.08,0.14,-0.98,4.33,2.38,-0.12
26.9380,0.08,0.12,-0.99,3.17,2.50,1.71
26.9540,0.06,0.08,-1.01,3.05,2.38,1.04
26.9690,0.06,0.06,-1.00,1.95,4.03,-4.27
26.9810,0.06,0.07,-1.00,2.44,4.33,-5.74
26.9990,0.06,0.13,-0.98,3.30,4.09,-6.29
27.0140,0.09,0.19,-0.98,4.82,1.46,-0.79
27.0280,0.10,0.16,-0.99,3.42,0.43,3.60
27.0440,0.10,0.12,-0.99,1.40,2.20,2.32
27.0580,0.08,0.12,-0.99,1.71,2.56,1.59
27.0730,0.07,0.11,-0.99,2.50,2.62,1.71
27.0900,0.07,0.11,-0.99,3.60,2.26,1.83
27.1060,0.07,0.11,-0.98,4.46,1.65,1.83
27.1220,0.07,0.11,-1.00,5.55,1.16,2.38
27.1370,0.08,0.13,-1.00,5.13,1.53,1.59
27.1530,0.09,0.14,-0.99,3.78,1.28,1.16
27.1690,0.09,0.13,-0.99,3.11,1.53,1.10
27.1850,0.08,0.12,-0.99,2.20,2.01,1.22
27.1970,0.07,0.12,-0.99,3.23,2.62,1.40
27.2130,0.07,0.11,-0.99,3.72,1.77,1.46
27.2300,0.06,0.10,-1.01,4.15,1.65,1.22
27.2450,0.08,0.11,-0.99,3.17,2.44,-1.59
27.2620,0.08,0.10,-0.99,2.87,2.99,-3.66
27.2790,0.08,0.12,-0.98,2.93,3.23,-4.64
27.2950,0.09,0.15,-0.98,3.42,2.81,-3.23
27.3120,0.07,0.14,-1.00,4.03,2.01,0.43
27.3270,0.07,0.11,-0.99,2.99,1.65,1.71
27.3430,0.08,0.13,-0.99,4.88,1.22,1.83
27.3580,0.08,0.13,-0.99,3.66,1.22,1.53
27.3740,0.08,0.11,-0.99,3.36,1.59,1.28
27.3880,0.08,0.09,-0.99,3.54,2.38,-1.34
27.4010,0.07,0.09,-0.99,4.09,2.69,-2.32
27.4170,0.07,0.11,-0.99,4.82,2.87,-1.34
27.4350,0.08,0.13,-0.99,4.88,2.38,-0.98
27.4500,0.08,0.13,-0.99,4.09,2.20,-1.59
27.4660,0.09,0.12,-1.00,3.78,2.81,-2.62
27.4820,0.08,0.12,-1.00,4.70,2.99,-4.52
27.4980,0.08,0.14,-0.99,4.15,2.81,-3.85
27.5140,0.08,0.14,-0.99,4.09,2.14,-2.32
27.5270,0.08,0.10,-0.98,3.30,2.38,-1.59
27.5460,0.08,0.09,-1.00,4.21,2.14,-3.11
27.5620,0.07,0.14,-0.99,4.21,2.20,-4.58
27.5760,0.07,0.17,-0.98,4.15,2.01,-1.34
27.5930,0.08,0.13,-0.99,3.85,1.53,1.71
27.6080,0.08,0.11,-0.99,2.56,2.50,1.71
27.6230,0.09,0.11,-0.99,3.48,2.44,1.65
27.6390,0.09,0.07,-0.99,3.36,2.87,-2.44
27.6550,0.08,0.12,-0.98,3.78,2.93,-4.58
27.6700,0.05,0.17,-0.98,3.85,2.38,-1.53
27.6840,0.07,0.13,-1.00,3.23,0.92,1.77
27.7000,0.08,0.12,-0.99,2.44,1.04,2.01
27.7150,0.06,0.10,-0.99,3.60,1.28,3.60
27.7300,0.08,0.11,-1.00,4.09,1.83,3.36
27.7460,0.09,0.09,-0.98,2.81,3.54,-3.05
27.7610,0.09,0.11,-0.99,3.42,3.91,-5.19
27.7760,0.08,0.13,-0.98,3.54,3.30,-4.52
27.7910,0.07,0.15,-0.98,2.81,3.23,-3.48
27.8060,0.08,0.14,-1.00,3.54,2.87,-1.83
27.8220,0.07,0.10,-0.99,2.26,2.87,-1.59
27.8380,0.08,0.05,-1.00,2.75,4.33,-5.49
27.8530,0.08,0.04,-1.00,3.42,5.55,-14.83
27.8690,0.07,0.15,-0.98,5.31,5.07,-16.48
27.8850,0.07,0.21,-0.98,5.43,3.78,-12.08
27.9000,0.09,0.25,-0.97,4.27,1.34,-2.20
27.9150,0.08,0.11,-0.99,-1.34,1.83,1.46
27.9300,0.07,0.10,-0.98,1.71,2.50,1.53
27.9460,0.07,0.12,-0.99,4.15,1.89,1.53
27.9610,0.07,0.12,-0.99,3.17,2.01,1.40
27.9770,0.08,0.11,-0.99,3.60,1.77,0.85
27.9910,0.07,0.12,-0.99,4.21,1.71,0.85
28.0070,0.08,0.12,-1.00,4.46,1.22,1.28
28.0220,0.09,0.11,-1.00,2.38,1.59,-0.06
28.0380,0.09,0.09,-1.00,1.83,2.26,-2.69
28.0540,0.07,0.11,-0.99,2.44,2.32,-5.49
28.0700,0.06,0.13,-0.98,2.56,2.26,-5.13
28.0850,0.05,0.15,-0.98,3.30,1.89,-2.50
28.1010,0.05,0.12,-0.99,2.93,-0.18,1.77
28.1170,0.09,0.11,-0.99,4.33,0.98,2.38
28.1340,0.10,0.12,-1.00,5.37,1.59,2.38
28.1480,0.08,0.13,-1.00,4.46,2.14,1.77
28.1640,0.07,0.11,-0.99,3.17,2.26,1.22
28.1790,0.07,0.10,-0.99,3.91,1.83,-0.31
28.1950,0.07,0.10,-0.98,3.85,2.01,-0.79
28.2110,0.08,0.13,-0.98,5.43,1.10,-1.65
28.2270,0.09,0.14,-1.00,5.07,1.34,-1.40
28.2420,0.08,0.12,-0.99,3.17,2.32,-1.83
28.2580,0.07,0.11,-1.00,3.60,2.01,-2.69
28.2750,0.06,0.11,-0.99,3.36,2.75,-2.56
28.2910,0.06,0.10,-0.99,2.69,2.32,-1.34
28.3060,0.06,0.08,-0.99,3.91,2.93,-3.05
28.3220,0.08,0.12,-1.01,4.82,3.11,-5.98
28.3370,0.09,0.14,-0.99,5.49,2.62,-5.13
28.3530,0.09,0.15,-0.99,4.15,2.93,-2.99
28.3690,0.08,0.12,-0.99,3.23,2.69,-0.98
28.3840,0.07,0.08,-0.99,3.05,2.99,-1.16
28.4000,0.06,0.06,-0.99,3.54,3.78,-5.55
28.4160,0.06,0.12,-0.99,4.21,3.85,-9.40
28.4320,0.07,0.17,-0.98,4.82,2.14,-4.76
28.4480,0.11,0.21,-0.98,4.39,1.10,2.62
28.4630,0.09,0.11,-0.99,0.43,1.46,2.44
28.4800,0.08,0.11,-0.99,3.36,2.56,1.71
28.4950,0.07,0.12,-0.99,3.78,2.14,1.40
28.5110,0.08,0.10,-1.00,4.33,2.26,1.10
28.5250,0.07,0.11,-0.98,2.87,2.38,-2.87
28.5410,0.06,0.13,-0.98,4.33,1.40,-0.67
28.5570,0.08,0.14,-0.99,4.21,1.10,1.59
28.5720,0.08,0.12,-0.99,2.50,1.53,1.71
28.5880,0.08,0.11,-0.99,3.30,1.53,1.46
28.6030,0.08,0.10,-1.00,3.78,1.40,1.16
28.6190,0.07,0.06,-0.99,2.20,3.30,-5.74
28.6340,0.07,0.09,-1.00,4.46,3.54,-9.40
28.6490,0.08,0.08,-0.99,4.33,4.33,-10.62
28.6650,0.06,0.17,-0.96,2.56,3.91,-10.13
28.6800,0.07,0.23,-0.98,6.04,1.28,-1.53
28.6950,0.07,0.12,-0.99,-0.24,0.85,1.83
28.7120,0.08,0.10,-0.99,2.38,0.85,3.11
28.7270,0.07,0.12,-0.99,4.52,0.98,2.26
28.7430,0.07,0.12,-0.99,3.23,0.92,3.05
28.7580,0.08,0.11,-0.99,3.42,0.79,2.50
28.7720,0.08,0.11,-0.99,5.00,0.92,1.77
28.7880,0.08,0.12,-0.99,5.13,1.04,1.77
28.8020,0.08,0.11,-1.00,4.21,1.28,1.77
28.8190,0.08,0.11,-0.99,4.33,1.95,2.56
28.8350,0.06,0.11,-0.99,4.21,1.83,4.39
28.8510,0.07,0.12,-0.99,3.60,1.46,4.58
28.8670,0.10,0.13,-0.98,3.85,1.83,3.54
28.8830,0.09,0.12,-0.99,3.72,1.16,2.14
28.8990,0.08,0.12,-0.99,3.97,1.46,1.89
28.9140,0.08,0.12,-0.99,4.46,1.53,1.89
28.9300,0.08,0.11,-0.99,4.21,2.08,1.59
28.9450,0.08,0.12,-0.99,4.64,2.20,1.28
28.9590,0.08,0.10,-1.00,4.03,2.26,-0.37
28.9750,0.07,0.13,-0.99,3.91,2.14,-2.87
28.9910,0.08,0.13,-0.99,3.36,0.85,1.04
29.0070,0.07,0.11,-0.99,2.44,0.49,1.65
29.0230,0.09,0.12,-0.99,3.36,1.16,2.38
29.0380,0.09,0.10,-0.99,3.66,1.83,0.85
29.0530,0.09,0.09,-0.99,4.15,2.87,-1.22
29.0690,0.08,0.14,-0.99,5.49,3.23,-4.39
29.0850,0.07,0.13,-0.99,4.88,1.89,-0.61
29.1000,0.08,0.12,-0.98,2.50,0.79,1.22
29.1160,0.08,0.11,-0.99,3.36,1.28,1.46
29.1310,0.09,0.11,-0.99,5.43,2.20,1.53
29.1470,0.10,0.09,-0.97,4.70,3.54,-4.58
29.1630,0.07,0.07,-0.99,5.25,4.03,-7.75
29.1770,0.06,0.13,-0.98,3.78,3.60,-5.86
29.1930,0.07,0.18,-0.98,4.33,1.59,-0.12
29.2110,0.08,0.13,-0.99,1.53,0.31,2.14
29.2250,0.08,0.10,-0.99,1.71,1.34,2.01
29.2410,0.09,0.12,-1.00,5.07,2.14,1.83
29.2570,0.10,0.12,-1.00,4.15,2.75,1.10
29.2720,0.10,0.09,-1.00,3.66,2.81,-0.85
29.2880,0.07,0.10,-0.99,3.85,3.05,-6.23
29.3030,0.05,0.14,-0.99,4.39,2.20,-4.52
29.3170,0.07,0.14,-0.99,3.42,1.10,0.79
29.3320,0.08,0.11,-0.98,2.08,1.40,2.38
29.3480,0.09,0.12,-0.98,3.36,1.34,2.26
29.3640,0.09,0.12,-1.00,4.33,1.71,1.28
29.3800,0.09,0.09,-0.99,2.50,2.99,-1.53
29.3950,0.08,0.10,-0.99,3.54,3.42,-6.10
29.4120,0.05,0.11,-1.00,4.76,2.44,-6.77
29.4270,0.06,0.14,-0.98,3.30,2.20,-2.75
29.4430,0.09,0.14,-0.99,5.25,1.40,-1.28
29.4580,0.10,0.14,-0.99,4.88,1.10,-1.40
29.4740,0.10,0.11,-1.01,3.97,1.89,-1.53
29.4890,0.09,0.08,-0.99,3.23,3.91,-5.98
29.5050,0.06,0.11,-0.99,4.46,4.27,-7.57
29.5200,0.05,0.18,-0.97,4.21,1.89,-2.38
29.5360,0.06,0.13,-0.99,2.32,0.43,2.56
29.5510,0.06,0.12,-0.99,1.71,1.16,3.85
29.5660,0.09,0.11,-0.99,3.23,1.22,2.38
29.5810,0.09,0.11,-0.99,3.85,1.71,1.59
29.5970,0.09,0.10,-1.00,3.05,2.44,0.67
29.6120,0.07,0.09,-0.98,3.42,3.36,-4.39
29.6280,0.07,0.12,-0.99,5.19,3.30,-4.82
29.6440,0.06,0.14,-0.98,3.66,2.50,-2.81
29.6590,0.07,0.13,-0.99,3.91,2.20,-1.04
29.6740,0.08,0.12,-0.98,3.11,2.08,-1.16
29.6900,0.09,0.09,-1.00,4.46,2.62,-2.32
29.7050,0.11,0.10,-1.00,4.94,4.46,-6.41
29.7200,0.06,0.16,-0.98,3.60,4.33,-6.41
29.7360,0.06,0.17,-0.99,1.46,2.75,1.46
29.7530,0.06,0.12,-0.99,0.06,1.83,3.11
29.7680,0.07,0.12,-0.99,2.14,-0.12,4.39
29.7830,0.09,0.11,-1.00,2.01,-0.12,3.72
29.7990,0.08,0.11,-0.99,3.78,1.04,1.65
29.8150,0.09,0.12,-0.99,4.15,2.20,1.04
29.8310,0.10,0.09,-0.99,2.44,2.75,-2.69
29.8460,0.07,0.09,-0.98,2.99,3.91,-8.24
29.8610,0.07,0.09,-1.00,4.46,3.54,-8.54
29.8760,0.04,0.16,-0.97,3.23,2.75,-6.65
29.8930,0.07,0.13,-1.00,3.36,1.53,1.59
29.9090,0.09,0.11,-0.99,1.65,0.67,1.83
29.9240,0.08,0.12,-0.99,3.42,1.65,1.71
29.9400,0.08,0.11,-1.00,3.30,2.32,1.34
29.9560,0.10,0.09,-0.99,3.23,3.05,0.55
29.9720,0.09,0.07,-0.99,2.87,3.30,-6.41
29.9870,0.09,0.07,-1.00,4.58,3.36,-7.93
30.0020,0.04,0.14,-0.98,4.88,2.62,-7.45
30.0170,0.05,0.18,-0.99,4.82,0.92,-1.04
30.0330,0.06,0.12,-0.99,1.22,0.24,1.89
30.0480,0.08,0.10,-0.99,3.36,2.26,0.61
30.0630,0.09,0.10,-0.99,3.48,2.62,-0.37
30.0780,0.08,0.09,-0.99,2.81,3.23,-1.34
30.0920,0.08,0.11,-0.98,4.03,3.30,-2.20
30.1080,0.08,0.12,-0.99,4.94,2.50,-1.16
30.1230,0.10,0.13,-0.99,5.13,2.14,0.43
30.1380,0.09,0.12,-1.00,5.13,2.20,0.31
30.1550,0.12,0.06,-1.02,3.78,3.42,-2.38
30.1720,0.12,-0.02,-1.01,1.95,4.64,-11.78
30.1870,0.06,0.07,-1.00,0.49,6.59,-21.24
30.2030,-0.04,0.29,-0.96,0.18,5.55,-12.88
30.2180,-0.03,0.23,-0.97,-0.92,-0.37,3.11
30.2320,0.07,0.14,-0.93,1.46,-0.37,11.23
30.2480,0.11,0.08,-1.01,7.14,-2.26,12.27
30.2640,0.17,0.02,-1.02,3.72,0.61,7.14
30.2790,0.10,0.08,-0.97,3.23,2.75,1.53
30.2950,0.12,0.09,-1.01,6.71,5.00,-0.98
30.3110,0.07,0.12,-1.00,3.66,3.60,-3.30
30.3270,0.01,0.15,-0.98,2.32,2.56,1.22
30.3430,0.05,0.11,-0.99,2.38,0.79,2.50
30.3580,0.07,0.12,-0.99,2.62,-0.49,4.94
30.3730,0.11,0.11,-1.00,3.66,0.06,3.60
30.3890,0.09,0.11,-1.00,4.03,1.95,1.28
30.4050,0.08,0.08,-1.01,1.10,3.91,-1.34
30.4200,0.05,0.08,-0.96,0.24,5.19,-6.04
30.4350,0.06,0.11,-0.98,3.97,2.44,-2.44
30.4500,0.08,0.12,-0.97,6.47,0.24,1.89
30.4670,0.10,0.14,-1.01,6.65,-0.12,2.38
30.4810,0.08,0.11,-0.99,2.81,1.71,1.71
30.4960,0.08,0.11,-0.99,4.09,2.38,1.59
30.5120,0.09,0.09,-1.01,4.03,2.69,1.16
30.5260,0.09,0.09,-0.97,3.23,4.15,-5.92
30.5440,0.06,0.11,-0.98,5.43,2.44,-2.69
30.5580,0.07,0.14,-0.98,5.37,1.53,-0.43
30.5750,0.08,0.11,-0.99,3.72,0.55,1.89
30.5910,0.08,0.12,-1.00,4.09,1.16,1.77
30.6070,0.08,0.12,-0.99,4.09,1.77,1.22
30.6230,0.09,0.07,-1.00,3.78,1.46,-0.85
30.6390,0.06,0.08,-0.98,4.64,3.05,-10.44
30.6540,0.06,0.12,-0.98,5.62,4.15,-12.70
30.6700,0.08,0.18,-0.98,4.64,3.05,-7.14
30.6860,0.08,0.13,-1.00,3.17,2.01,1.95
30.7010,0.07,0.10,-0.99,0.79,2.14,2.44
30.7160,0.07,0.11,-1.00,4.27,1.53,3.05
30.7310,0.08,0.11,-1.00,5.07,1.22,2.26
30.7470,0.06,0.09,-1.00,5.00,1.53,1.16
30.7630,0.07,0.05,-0.98,2.87,2.87,-5.86
30.7790,0.09,0.08,-0.99,4.70,3.54,-9.58
30.7950,0.06,0.05,-0.99,5.13,4.09,-12.39
30.8100,0.07,0.20,-0.97,2.38,3.78,-11.41
30.8250,0.08,0.12,-1.00,1.10,1.40,0.49
30.8410,0.04,0.09,-0.99,2.50,1.28,1.95
30.8550,0.05,0.09,-1.00,6.59,1.71,0.73
30.8720,0.03,0.08,-1.00,6.35,3.60,-6.59
30.8880,0.08,0.07,-0.99,7.20,4.76,-14.16
30.9040,0.12,0.17,-0.99,6.53,5.07,-14.59
30.9200,0.10,0.14,-1.00,4.76,2.08,0.00
30.9360,0.07,0.11,-0.98,-0.61,4.39,3.23
30.9520,0.10,0.10,-1.01,0.49,3.05,11.54
30.9680,0.05,0.12,-0.99,1.22,1.28,7.32
30.9840,0.04,0.11,-0.99,1.59,1.83,1.77
30.9990,0.07,0.10,-0.99,2.69,-0.31,0.49
31.0160,0.07,0.11,-0.99,3.11,-1.04,0.43
31.0320,0.08,0.11,-0.99,2.38,0.00,0.67
31.0460,0.08,0.11,-0.99,2.08,0.61,0.98
31.0630,0.08,0.11,-1.00,3.36,1.65,1.59
31.0780,0.09,0.10,-1.00,3.60,2.75,1.46
31.0930,0.09,0.08,-0.99,4.09,3.54,-2.26
31.1090,0.07,0.10,-0.99,4.88,3.17,-5.74
31.1250,0.04,0.13,-0.98,4.21,1.59,-5.25
31.1400,0.05,0.13,-0.99,4.27,0.73,-3.36
31.1560,0.07,0.11,-0.99,2.50,-0.92,0.31
31.1720,0.08,0.10,-0.99,2.81,-0.49,0.00
31.1880,0.09,0.09,-1.00,5.19,1.83,-1.71
31.2040,0.11,0.05,-1.00,6.10,4.27,-8.18
31.2200,0.07,0.13,-1.00,7.08,5.92,-16.54
31.2360,0.02,0.18,-0.97,3.91,3.97,-5.68
31.2520,0.06,0.12,-0.99,0.98,1.65,2.62
31.2670,0.06,0.13,-0.97,1.77,-1.22,10.68
31.2830,0.08,0.11,-1.01,2.14,-1.28,12.57
31.2980,0.07,0.08,-0.99,1.10,0.24,9.22
31.3130,0.07,0.08,-0.98,2.69,1.10,3.23
31.3290,0.08,0.12,-1.00,5.62,0.98,1.77
31.3450,0.08,0.11,-0.99,4.52,1.22,1.22
31.3600,0.08,0.11,-0.99,3.97,0.98,0.98
31.3770,0.08,0.11,-0.99,4.21,1.28,1.34
31.3930,0.08,0.10,-0.99,5.68,1.34,1.28
31.4090,0.09,0.10,-1.00,5.92,2.26,-0.06
31.4260,0.09,0.09,-1.00,5.55,4.21,-5.31
31.4410,0.06,0.16,-0.99,4.33,5.07,-7.63
31.4570,0.06,0.13,-1.00,1.65,3.11,1.46
31.4730,0.05,0.11,-0.98,0.18,1.34,5.00
31.4880,0.08,0.10,-0.99,3.17,-0.49,6.90
31.5040,0.09,0.10,-1.00,4.09,-0.06,3.54
31.5200,0.07,0.10,-0.99,5.07,1.40,1.53
31.5350,0.07,0.11,-1.00,5.31,2.01,2.01
31.5500,0.08,0.11,-1.00,4.39,2.56,1.95
31.5670,0.07,0.11,-0.99,2.93,2.81,1.89
31.5830,0.07,0.11,-0.99,2.99,2.93,2.44
31.5990,0.06,0.11,-0.98,2.81,2.14,2.75
31.6160,0.07,0.11,-1.00,3.85,0.98,2.56
31.6320,0.08,0.09,-1.00,5.62,2.01,-1.16
31.6480,0.09,0.13,-1.00,6.29,3.05,-8.79
31.6640,0.09,0.14,-0.99,5.74,2.56,-4.52
31.6800,0.07,0.11,-1.00,3.42,1.71,1.89
31.6950,0.06,0.10,-0.99,3.48,1.40,3.05
31.7100,0.06,0.12,-0.98,2.99,1.71,5.43
31.7260,0.10,0.12,-0.98,2.56,0.55,5.86
31.7410,0.10,0.11,-0.99,3.42,1.46,2.75
31.7560,0.08,0.11,-0.99,4.88,2.81,1.59
31.7730,0.07,0.11,-1.00,4.39,2.62,1.34
31.7880,0.06,0.11,-0.98,3.66,2.69,1.16
31.8020,0.07,0.12,-0.99,2.38,1.65,1.53
31.8170,0.08,0.11,-0.99,2.08,0.79,1.89
31.8330,0.09,0.11,-0.99,4.94,0.55,2.01
31.8480,0.08,0.12,-1.00,5.80,1.46,1.40
31.8630,0.07,0.12,-0.99,5.07,1.83,1.22
31.8780,0.07,0.11,-0.99,3.60,2.08,1.04
31.8930,0.07,0.11,-0.99,2.56,2.14,1.28
31.9080,0.07,0.11,-0.98,1.83,1.28,1.65
31.9240,0.10,0.11,-0.99,2.44,0.98,2.44
31.9390,0.10,0.11,-0.99,4.09,0.37,2.50
31.9540,0.09,0.11,-0.99,9.83,0.00,2.56
31.9700,0.13,0.11,-1.00,9.09,0.98,2.50
31.9850,0.10,0.11,-1.00,6.10,0.43,4.76
32.0000,0.05,0.14,-0.99,3.54,1.34,4.09
32.0140,0.00,0.16,-0.99,2.26,2.69,2.14
32.0300,0.05,0.13,-1.00,-1.22,3.54,1.71
32.0460,0.06,0.12,-0.99,-3.36,2.01,1.95
32.0610,0.10,0.11,-1.01,-2.20,3.85,3.85
32.0760,0.10,0.09,-0.99,-1.53,6.10,2.20
32.0920,0.07,0.07,-0.95,0.61,4.70,1.46
32.1070,0.03,0.17,-1.08,5.43,2.32,0.79
32.1220,0.06,0.10,-0.97,3.36,0.67,1.77
32.1370,0.09,0.11,-0.98,2.20,2.62,2.56
32.1510,0.06,0.11,-0.99,3.23,0.85,1.10
32.1660,0.10,0.11,-0.98,4.70,1.53,-0.37
32.1810,0.09,0.11,-1.00,4.88,1.83,-0.55
32.1980,0.08,0.12,-1.00,4.58,1.95,-0.12
32.2130,0.06,0.11,-0.99,3.54,2.26,1.28
32.2280,0.06,0.11,-0.99,2.87,2.14,2.01
32.2440,0.07,0.11,-0.99,1.95,1.34,2.08
32.2610,0.07,0.11,-0.99,1.71,1.10,2.08
32.2760,0.07,0.10,-0.99,1.77,1.40,1.95
32.2900,0.08,0.11,-0.99,3.23,1.46,1.65
32.3050,0.08,0.11,-1.00,3.05,2.20,1.53
32.3210,0.06,0.11,-0.99,2.50,2.56,1.59
32.3370,0.07,0.11,-0.99,2.62,2.01,1.59
32.3520,0.07,0.12,-1.00,1.77,1.16,1.65
32.3670,0.09,0.10,-0.99,1.46,1.77,2.08
32.3830,0.08,0.10,-1.00,2.62,1.77,1.65
32.3990,0.07,0.10,-0.99,4.39,1.77,1.53
32.4140,0.09,0.10,-1.00,5.13,2.75,1.34
32.4290,0.08,0.09,-1.00,1.53,4.15,-1.71
32.4450,0.06,0.11,-0.98,1.59,3.85,-0.79
32.4610,0.04,0.16,-0.98,2.56,2.99,1.40
32.4770,0.07,0.11,-0.99,1.71,0.92,1.77
32.4930,0.07,0.09,-0.99,1.40,1.34,1.77
32.5070,0.07,0.10,-1.00,3.48,1.89,1.95
32.5230,0.07,0.11,-1.00,3.85,1.34,1.77
32.5390,0.07,0.11,-0.99,1.59,2.26,1.53
32.5550,0.06,0.10,-0.98,0.43,1.95,1.40
32.5710,0.06,0.11,-0.99,0.92,1.40,2.75
32.5860,0.07,0.09,-0.99,0.67,2.32,3.30
32.6020,0.09,0.08,-0.99,3.23,1.53,2.69
32.6180,0.08,0.09,-0.99,6.04,2.01,2.01
32.6330,0.07,0.12,-1.00,6.77,1.65,1.53
32.6480,0.06,0.11,-1.00,3.48,1.53,0.55
32.6630,0.07,0.10,-0.99,1.83,1.04,1.22
32.6800,0.07,0.10,-1.00,1.40,1.22,1.10
32.6950,0.08,0.10,-0.99,0.85,2.14,1.95
32.7110,0.08,0.10,-0.99,0.85,2.38,2.14
32.7270,0.08,0.09,-0.98,1.22,3.23,2.38
32.7420,0.07,0.10,-1.00,3.54,3.05,2.38
32.7580,0.06,0.11,-0.99,5.74,1.95,1.95
32.7740,0.07,0.11,-1.00,4.09,1.16,1.53
32.7900,0.07,0.10,-1.00,3.05,0.61,1.28
32.8050,0.07,0.11,-1.00,2.93,0.85,1.28
32.8210,0.08,0.11,-1.00,1.95,1.28,1.34
32.8360,0.07,0.10,-1.00,0.67,2.32,1.65
32.8520,0.06,0.10,-0.98,0.55,2.44,2.69
32.8680,0.07,0.09,-0.99,1.40,2.26,4.52
32.8820,0.07,0.09,-0.99,3.48,2.32,3.48
32.8970,0.07,0.10,-1.00,4.15,2.08,1.95
32.9120,0.07,0.10,-0.99,2.69,1.77,1.40
32.9280,0.07,0.10,-0.99,1.89,1.04,0.98
32.9440,0.06,0.09,-0.99,1.46,0.67,1.10
32.9590,0.07,0.09,-1.00,1.95,0.37,1.28
32.9750,0.05,0.10,-0.98,3.05,1.16,1.53
32.9910,0.08,0.09,-0.99,3.48,1.28,2.08
33.0060,0.08,0.09,-0.99,4.09,1.34,2.14
33.0220,0.07,0.10,-1.00,4.09,1.83,2.20
33.0380,0.06,0.10,-0.99,3.23,1.89,2.14
33.0540,0.06,0.10,-1.00,2.32,1.40,1.89
33.0690,0.06,0.10,-1.00,1.22,0.98,1.71
33.0850,0.08,0.08,-0.99,1.65,1.71,2.81
33.1000,0.07,0.09,-0.99,3.05,1.16,2.32
33.1140,0.09,0.09,-0.99,4.70,0.67,2.26
33.1290,0.08,0.10,-1.00,3.54,0.79,1.65
33.1450,0.07,0.09,-0.98,3.42,2.01,1.59
33.1610,0.07,0.09,-0.99,4.64,2.08,1.77
33.1770,0.07,0.10,-1.01,5.37,1.65,1.59
33.1920,0.08,0.10,-1.00,4.70,1.77,1.46
33.2080,0.07,0.09,-0.99,3.60,2.14,1.59
33.2230,0.07,0.10,-1.00,4.82,2.01,1.46
33.2390,0.06,0.11,-1.00,3.85,1.22,0.98
33.2540,0.07,0.10,-0.99,2.38,1.10,1.34
33.2700,0.07,0.09,-0.98,2.87,0.55,1.34
33.2850,0.07,0.10,-1.00,3.23,0.79,1.40
33.3000,0.08,0.10,-0.99,3.30,0.92,1.53
33.3160,0.08,0.10,-1.00,3.54,1.34,1.65
33.3320,0.07,0.10,-0.99,3.60,1.46,1.77
33.3470,0.07,0.10,-1.00,2.75,1.59,1.53
33.3630,0.07,0.09,-1.00,2.20,1.65,1.53
33.3790,0.07,0.10,-1.00,1.95,1.59,1.59
33.3940,0.07,0.10,-0.99,1.65,1.71,1.59
33.4100,0.07,0.09,-0.98,1.95,1.59,1.71
33.4260,0.07,0.09,-0.99,3.91,1.16,1.59
33.4400,0.07,0.10,-1.00,5.25,0.98,1.34
33.4550,0.08,0.10,-1.00,3.97,1.04,1.59
33.4700,0.07,0.09,-1.00,2.81,2.26,1.65
33.4860,0.07,0.08,-0.99,3.54,1.59,1.59
33.5020,0.07,0.10,-1.00,5.13,1.16,1.65
33.5190,0.08,0.10,-1.00,3.54,1.89,1.65
33.5330,0.07,0.09,-0.99,2.99,1.83,1.77
33.5500,0.07,0.09,-0.99,3.30,1.46,1.53
33.5680,0.07,0.09,-1.00,2.87,1.89,1.71
33.5840,0.07,0.09,-0.99,3.97,2.38,1.71
33.6000,0.08,0.10,-0.98,4.88,1.89,2.08
33.6150,0.07,0.10,-0.99,6.29,2.32,1.95
33.6310,0.07,0.10,-0.99,7.57,1.34,1.89
33.6470,0.08,0.11,-1.00,5.74,1.77,1.71
33.6620,0.07,0.09,-1.00,3.54,2.38,1.83
33.6760,0.07,0.10,-0.99,4.27,1.77,1.71
33.6910,0.07,0.10,-0.99,5.13,0.24,1.34
33.7060,0.07,0.11,-0.99,4.03,0.49,1.28
33.7220,0.08,0.10,-0.99,3.72,0.98,1.22
33.7370,0.08,0.10,-1.00,2.93,1.59,0.37
33.7520,0.07,0.09,-0.99,2.32,2.75,-1.46
33.7680,0.06,0.10,-0.99,2.75,1.83,-0.85
33.7820,0.07,0.10,-0.99,2.87,1.77,1.77
33.7970,0.07,0.10,-0.99,3.11,1.28,1.95
33.8140,0.08,0.10,-0.99,4.03,1.16,1.89
33.8290,0.08,0.10,-0.99,4.09,1.77,1.95
33.8450,0.07,0.11,-0.99,4.52,1.65,1.65
33.8610,0.07,0.10,-0.99,3.72,1.16,1.46
33.8770,0.06,0.10,-1.00,3.11,1.40,1.53
33.8930,0.06,0.10,-0.99,2.69,1.95,1.77
33.9090,0.06,0.09,-0.99,2.08,2.08,2.08
33.9240,0.07,0.09,-1.00,1.89,1.77,2.14
33.9400,0.07,0.09,-0.99,2.81,2.20,2.08
33.9550,0.08,0.09,-0.99,4.39,2.50,2.20
33.9700,0.10,0.09,-0.99,4.39,2.50,1.95
33.9860,0.10,0.09,-0.99,3.05,2.62,1.10
34.0030,0.07,0.10,-1.00,2.99,2.93,-0.73
34.0180,0.08,0.10,-0.99,2.20,3.60,-1.53
34.0320,0.06,0.11,-1.00,2.87,3.30,-1.40
34.0480,0.02,0.02,-0.83,2.69,2.99,0.00
34.0640,0.07,0.14,-1.03,18.49,-6.29,0.98
34.0800,0.10,0.14,-1.02,15.69,-5.80,1.28
34.0940,0.09,0.12,-1.00,7.02,-1.40,1.34
34.1110,0.07,0.11,-1.00,5.25,-0.12,-1.16
34.1270,0.07,0.09,-0.99,4.27,1.46,-0.79
34.1430,0.06,0.08,-1.00,5.43,1.40,0.24
34.1580,0.08,0.12,-1.00,6.77,1.16,2.20
34.1730,0.09,0.12,-0.99,4.52,2.99,2.50
34.1880,0.08,0.13,-1.00,1.34,4.76,2.32
34.2040,0.08,0.12,-1.00,-1.04,4.21,1.71
34.2200,0.11,0.12,-1.04,-1.53,4.27,1.77
34.2360,0.07,0.11,-1.00,-5.55,6.84,1.71
34.2520,0.06,0.10,-0.99,-6.16,5.86,1.28
34.2670,0.09,0.11,-1.03,0.00,2.93,1.22
34.2830,0.07,0.07,-0.97,-0.98,2.14,2.01
34.2980,0.07,0.10,-1.00,2.44,2.08,3.17
34.3130,0.08,0.09,-0.98,3.42,1.40,2.99
34.3290,0.07,0.10,-1.00,4.64,1.65,1.77
34.3440,0.07,0.10,-0.99,3.85,1.83,1.53
34.3600,0.07,0.09,-0.98,3.54,1.34,1.40
34.3750,0.07,0.10,-0.99,4.33,1.46,1.77
34.3900,0.07,0.11,-1.00,3.48,1.95,1.77
34.4050,0.07,0.10,-0.99,2.14,1.77,1.59
34.4200,0.07,0.10,-0.99,1.89,1.95,1.59
34.4360,0.07,0.10,-1.00,1.71,1.89,2.08
34.4500,0.07,0.09,-1.00,2.50,1.16,2.32
34.4660,0.07,0.10,-1.00,3.60,1.04,1.71
34.4810,0.07,0.09,-0.99,2.56,1.34,1.46
34.4960,0.07,0.09,-1.00,3.17,0.98,1.77
34.5110,0.07,0.10,-0.99,3.78,0.73,1.83
34.5280,0.07,0.10,-0.99,3.72,1.16,3.17
34.5430,0.06,0.10,-0.99,4.03,1.28,2.81
34.5590,0.08,0.10,-0.99,4.58,2.01,2.08
34.5730,0.08,0.10,-1.00,3.72,2.08,1.40
34.5880,0.07,0.10,-1.00,3.30,2.20,1.34
34.6030,0.05,0.11,-1.00,3.91,2.20,2.81
34.6180,0.07,0.08,-0.99,5.62,1.95,6.10
34.6340,0.10,0.09,-1.00,6.90,0.79,4.88
34.6490,0.09,0.10,-1.00,5.19,0.85,1.95
34.6630,0.07,0.10,-0.99,4.03,1.34,1.46
34.6780,0.07,0.10,-0.99,3.30,1.65,1.46
34.6930,0.07,0.11,-1.00,3.54,1.65,1.83
34.7080,0.00,0.13,-0.99,2.08,2.01,1.83
34.7230,0.07,0.11,-0.99,2.69,2.62,4.03
34.7390,0.07,0.10,-1.00,3.48,2.20,4.03
34.7550,0.10,0.08,-0.99,4.46,0.85,2.87
34.7710,0.09,0.09,-0.99,5.55,0.43,1.77
34.7860,0.08,0.10,-0.99,6.71,2.62,1.65
34.8000,0.06,0.11,-1.00,6.16,2.44,1.16
34.8160,0.05,0.11,-0.99,5.31,2.20,0.92
34.8310,0.06,0.15,-0.99,8.61,0.37,2.20
34.8450,0.07,0.11,-1.00,4.58,-0.24,1.53
34.8600,0.07,0.10,-1.00,4.52,-0.06,0.43
34.8750,0.07,0.09,-0.98,4.64,1.53,-3.30
34.8900,0.07,0.10,-0.97,3.91,2.50,-3.85
34.9050,0.10,0.12,-1.00,4.21,1.65,0.12
34.9200,0.08,0.10,-0.99,3.36,2.14,2.50
34.9350,0.07,0.11,-1.00,3.72,2.20,2.38
34.9500,0.07,0.11,-1.00,3.42,2.26,2.01
34.9660,0.07,0.11,-0.99,1.83,1.77,1.28
34.9800,0.08,0.11,-1.00,1.65,0.98,1.22
34.9970,0.07,0.10,-0.99,2.26,1.16,1.53
35.0120,0.07,0.11,-0.99,2.08,2.38,2.14
35.0270,0.05,0.10,-0.98,2.44,1.77,2.99
35.0420,0.07,0.09,-0.98,3.48,1.59,3.36
35.0570,0.09,0.10,-1.00,6.10,0.73,3.48
35.0720,0.08,0.10,-0.99,5.62,1.40,2.44
35.0880,0.08,0.11,-0.99,4.58,1.89,1.22
35.1030,0.07,0.13,-1.00,1.71,3.72,0.73
35.1190,0.07,0.10,-0.99,1.16,3.85,1.71
35.1330,0.08,0.08,-0.98,3.91,2.69,4.64
35.1480,0.09,0.10,-1.00,5.68,1.46,3.36
35.1640,0.07,0.11,-1.00,4.82,2.01,1.77
35.1790,0.07,0.11,-0.99,4.64,1.95,1.65
35.1950,0.07,0.11,-1.00,4.33,1.65,1.71
35.2090,0.05,0.11,-0.98,3.05,1.77,2.08
35.2240,0.05,0.11,-0.99,4.88,1.04,5.92
35.2390,0.07,0.09,-0.99,5.13,1.59,5.13
35.2550,0.08,0.09,-1.01,7.45,0.85,1.10
35.2710,0.11,0.08,-1.01,7.32,1.10,-5.98
35.2860,0.10,0.11,-0.99,6.10,3.48,-10.01
35.3010,0.07,0.17,-0.98,6.35,3.23,-6.71
35.3160,0.07,0.12,-1.00,0.49,2.32,1.28
35.3320,0.06,0.10,-0.98,-1.95,2.99,2.20
35.3480,0.07,0.09,-0.99,1.83,2.08,2.87
35.3630,0.08,0.11,-0.99,4.09,0.79,2.56
35.3790,0.08,0.11,-1.00,5.55,0.61,1.40
35.3940,0.07,0.11,-0.99,4.39,1.40,1.34
35.4090,0.07,0.10,-0.99,3.91,1.53,1.16
35.4240,0.07,0.11,-0.99,3.42,2.01,1.16
35.4390,0.07,0.11,-0.99,2.32,2.38,1.77
35.4540,0.07,0.11,-1.00,1.77,2.50,1.59
35.4690,0.07,0.11,-0.99,1.71,2.14,1.46
35.4860,0.07,0.11,-0.99,2.08,1.53,1.10
35.5020,0.07,0.11,-0.99,1.53,1.65,1.10
35.5180,0.07,0.10,-0.99,0.73,1.71,1.40
35.5340,0.04,0.12,-0.98,2.44,1.95,1.59
35.5480,0.08,0.11,-1.00,2.87,1.89,2.93
35.5630,0.08,0.10,-0.99,2.26,1.95,3.48
35.5780,0.08,0.09,-0.98,3.05,1.34,2.87
35.5940,0.07,0.11,-1.00,5.86,1.22,2.08
35.6110,0.07,0.11,-1.00,3.91,1.46,1.65
35.6270,0.07,0.11,-1.00,2.38,1.83,1.77
35.6430,0.03,0.13,-0.99,1.22,2.32,2.14
35.6570,0.07,0.11,-0.99,1.40,2.20,2.99
35.6740,0.07,0.09,-0.99,2.20,2.14,2.62
35.6890,0.09,0.09,-0.99,5.80,1.59,2.38
35.7050,0.08,0.10,-0.99,5.74,1.04,1.59
35.7210,0.09,0.11,-1.00,4.52,1.53,1.22
35.7360,0.07,0.10,-0.99,2.87,1.53,1.28
35.7520,0.07,0.10,-0.99,2.62,1.53,1.65
35.7670,0.07,0.10,-0.99,3.23,1.65,1.95
35.7820,0.06,0.11,-1.00,5.13,1.53,3.48
35.7970,0.06,0.11,-0.99,5.49,0.73,4.70
35.8130,0.08,0.11,-1.00,5.86,1.10,4.64
35.8300,0.07,0.11,-0.99,4.33,0.79,3.85
35.8460,0.05,0.13,-1.00,2.32,2.26,3.11
35.8600,0.06,0.12,-0.99,0.31,3.48,3.36
35.8760,0.06,0.11,-0.99,0.49,3.54,3.85
35.8910,0.09,0.08,-0.99,2.38,1.83,4.46
35.9060,0.09,0.07,-0.98,4.52,1.40,3.48
35.9210,0.08,0.10,-0.99,7.45,0.18,2.08
35.9350,0.08,0.12,-1.00,7.51,0.92,1.89
35.9510,0.08,0.12,-1.00,5.62,1.77,1.89
35.9660,0.07,0.11,-0.99,2.14,2.87,1.71
35.9810,0.07,0.10,-0.99,2.87,1.77,1.89
35.9980,0.07,0.10,-0.99,4.46,1.10,2.14
36.0140,0.09,0.10,-1.00,5.13,1.77,1.65
36.0300,0.07,0.10,-0.99,4.94,1.34,1.04
36.0460,0.07,0.10,-0.99,5.43,2.32,-2.99
36.0610,0.07,0.12,-0.99,6.10,2.44,-3.97
36.0760,0.08,0.15,-1.00,5.37,2.01,-1.53
36.0900,0.07,0.11,-0.99,1.34,2.99,1.71
36.1070,0.07,0.10,-0.99,1.28,3.23,1.65
36.1220,0.07,0.11,-0.99,4.39,1.65,1.59
36.1380,0.07,0.11,-1.00,5.13,1.16,1.40
36.1540,0.08,0.08,-1.00,3.72,2.44,-0.79
36.1700,0.06,0.11,-0.98,3.78,4.21,-5.98
36.1850,0.06,0.11,-0.99,5.98,1.89,-2.56
36.2010,0.07,0.12,-0.99,5.74,1.77,-0.06
36.2170,0.08,0.12,-1.00,4.39,2.44,0.98
36.2330,0.07,0.12,-1.00,2.44,3.11,-0.85
36.2490,0.06,0.11,-0.99,1.28,3.54,-2.44
36.2640,0.05,0.12,-0.99,1.16,3.42,-2.20
36.2800,0.04,0.12,-0.98,1.46,3.60,-1.65
36.2950,0.07,0.10,-0.98,2.93,2.81,0.49
36.3090,0.10,0.10,-1.00,4.52,1.71,0.61
36.3240,0.10,0.11,-1.00,4.52,1.34,-0.06
36.3400,0.08,0.10,-1.00,3.78,3.23,-1.53
36.3560,0.06,0.11,-0.98,3.42,3.72,-3.05
36.3710,0.06,0.14,-0.99,3.11,3.11,-1.71
36.3860,0.02,0.14,-0.99,-0.61,2.56,2.44
36.4010,0.07,0.11,-0.98,-0.98,3.36,8.06
36.4160,0.10,0.06,-1.01,-0.61,2.99,8.00
36.4310,0.09,0.07,-1.00,-0.18,2.69,1.89
36.4470,0.06,0.09,-0.98,3.97,2.87,1.53
36.4620,0.06,0.11,-1.00,7.51,0.61,1.22
36.4770,0.05,0.10,-0.99,7.45,-0.06,0.31
36.4950,0.06,0.08,-1.01,8.91,-1.34,-1.40
36.5090,0.04,0.09,-1.00,7.51,2.75,-8.24
36.5240,0.05,0.11,-1.00,5.74,4.33,-9.16
36.5400,0.07,0.15,-0.99,4.39,4.46,-8.06
36.5560,0.09,0.16,-0.99,1.77,3.17,-1.10
36.5710,0.08,0.11,-0.98,-1.34,3.60,5.86
36.5870,0.09,0.08,-0.99,-0.24,4.15,6.47
36.6030,0.06,0.12,-0.99,3.66,2.87,2.20
36.6200,0.06,0.11,-0.99,2.87,2.44,1.59
36.6350,0.06,0.11,-1.00,2.26,1.71,1.71
36.6520,0.03,0.13,-0.99,2.14,2.14,2.69
36.6670,0.05,0.13,-1.00,0.67,2.99,8.06
36.6830,0.07,0.09,-0.99,-0.24,2.75,9.03
36.6980,0.08,0.07,-0.99,0.55,1.83,6.10
36.7130,0.07,0.10,-0.99,4.70,1.65,1.95
36.7290,0.06,0.12,-0.99,4.64,2.32,1.34
36.7440,0.06,0.12,-0.97,1.28,2.69,1.40
36.7610,0.05,0.11,-0.99,0.31,2.20,1.65
36.7770,0.01,0.12,-0.98,0.00,2.38,3.97
36.7920,0.05,0.10,-0.99,0.85,2.87,5.74
36.8060,0.09,0.07,-0.99,1.46,1.65,4.88
36.8210,0.08,0.08,-0.99,5.13,0.55,2.81
36.8380,0.07,0.11,-1.01,5.31,1.65,1.77
36.8530,0.06,0.11,-1.00,2.08,2.81,0.79
36.8670,0.05,0.12,-1.00,1.34,3.17,0.55
36.8830,0.05,0.10,-0.99,-0.12,2.01,1.34
36.8980,0.05,0.09,-0.99,1.59,-0.18,1.40
36.9140,0.06,0.08,-0.98,3.72,2.38,-0.24
36.9310,0.05,0.09,-1.00,6.47,0.85,-2.08
36.9460,0.08,0.10,-1.00,6.29,1.95,-3.72
36.9620,0.09,0.10,-1.00,5.37,2.75,-3.30
36.9770,0.09,0.12,-0.99,4.21,3.11,-2.26
36.9930,0.07,0.12,-1.01,1.95,2.75,1.53
37.0070,0.06,0.10,-0.99,-1.77,4.03,1.71
37.0220,0.05,0.08,-0.99,1.89,2.14,1.59
37.0390,0.06,0.10,-1.00,4.88,-0.31,1.46
37.0540,0.06,0.09,-0.98,4.27,0.43,1.40
37.0700,0.06,0.10,-1.00,4.46,0.73,1.34
37.0840,0.06,0.10,-0.99,4.03,0.85,1.65
37.0990,0.06,0.10,-0.99,4.21,0.43,1.77
37.1160,0.07,0.10,-0.98,3.23,2.62,1.59
37.1310,0.05,0.10,-1.02,4.27,1.28,2.87
37.1470,0.08,0.09,-0.99,4.52,1.46,2.69
37.1620,0.09,0.09,-0.99,5.92,1.40,2.14
37.1770,0.06,0.11,-1.00,5.68,2.44,1.71
37.1920,0.06,0.11,-1.00,3.60,2.26,1.04
37.2090,0.06,0.10,-0.99,2.62,1.59,1.34
37.2240,0.02,0.11,-1.00,3.42,0.55,0.98
37.2390,0.04,0.11,-0.99,3.11,2.26,-0.31
37.2540,0.05,0.09,-0.99,3.72,1.83,1.89
37.2700,0.07,0.10,-1.00,5.25,1.59,2.44
37.2850,0.09,0.10,-1.00,4.70,1.16,2.20
37.3010,0.09,0.11,-0.99,2.50,1.77,2.08
37.3160,0.07,0.11,-1.00,1.10,1.77,1.77
37.3320,0.07,0.10,-1.00,0.31,1.89,1.77
37.3480,0.05,0.08,-0.98,2.01,1.71,2.20
37.3640,0.05,0.11,-1.00,5.98,0.43,2.62
37.3800,0.04,0.12,-1.00,3.66,0.61,3.60
37.3960,0.03,0.10,-0.99,0.49,1.46,5.00
37.4120,0.04,0.08,-0.99,1.46,0.55,6.90
37.4280,0.04,0.08,-1.00,3.85,-0.55,7.63
37.4440,0.08,0.06,-0.97,6.35,-0.31,6.35
37.4590,0.11,0.09,-1.00,11.29,-0.43,0.37
37.4740,0.11,0.11,-1.01,11.47,0.18,-1.83
37.4890,0.10,0.15,-0.99,7.45,1.89,-3.66
37.5050,0.08,0.15,-1.01,1.71,2.99,-0.49
37.5200,0.06,0.10,-0.99,-4.76,5.49,0.98
37.5370,0.05,0.08,-0.98,-2.26,3.72,1.22
37.5520,0.05,0.09,-0.99,3.66,0.55,1.59
37.5680,0.06,0.10,-1.00,5.86,-0.73,1.71
37.5830,0.04,0.11,-1.01,4.76,0.31,1.53
37.5990,0.07,0.11,-1.00,1.71,1.22,2.01
37.6140,0.08,0.10,-0.99,0.31,2.44,2.75
37.6300,0.07,0.08,-0.98,1.95,2.62,2.14
37.6440,0.06,0.09,-0.99,6.35,2.20,1.77
37.6600,0.06,0.09,-0.99,7.57,1.28,1.65
37.6750,0.06,0.11,-1.00,8.61,-0.24,0.98
37.6910,0.07,0.13,-1.01,5.74,-0.06,1.22
37.7060,0.07,0.11,-1.00,0.61,1.40,1.53
37.7200,0.06,0.10,-0.99,-2.14,3.66,2.01
37.7360,0.06,0.09,-0.99,-2.38,3.91,2.20
37.7520,0.05,0.07,-0.98,-0.24,3.05,2.14
37.7680,0.06,0.09,-0.99,5.19,0.49,2.01
37.7840,0.06,0.12,-1.00,6.90,-0.67,1.59
37.7990,0.07,0.11,-1.00,3.42,1.53,2.32
37.8140,0.07,0.10,-1.00,1.53,1.65,2.20
37.8300,0.06,0.10,-0.99,0.43,2.08,2.99
37.8460,0.07,0.09,-0.99,0.06,2.32,5.07
37.8610,0.07,0.08,-0.99,0.24,2.50,5.31
37.8770,0.07,0.08,-0.98,3.42,0.85,3.17
37.8930,0.07,0.10,-1.00,7.51,-0.37,2.01
37.9080,0.07,0.11,-1.01,5.74,0.49,1.53
37.9230,0.06,0.10,-0.99,2.81,1.95,1.40
37.9390,0.06,0.10,-0.99,3.85,2.08,1.59
37.9530,0.06,0.09,-0.99,4.70,1.22,1.59
37.9700,0.06,0.09,-0.98,9.22,-0.55,1.83
37.9850,0.07,0.11,-1.01,11.72,-1.40,1.34
38.0010,0.06,0.11,-1.01,8.06,-0.12,-1.77
38.0150,0.06,0.12,-1.00,4.70,0.37,-3.91
38.0300,0.06,0.13,-1.00,3.23,-0.18,-1.22
38.0450,0.05,0.11,-0.99,2.62,0.18,0.24
38.0600,0.05,0.10,-0.98,4.94,-0.43,2.26
38.0770,0.04,0.10,-1.00,8.48,-1.10,4.15
38.0930,0.08,0.11,-1.00,8.36,-0.79,4.33
38.1080,0.09,0.11,-0.99,4.88,0.73,2.99
38.1240,0.11,0.11,-1.00,3.60,0.49,2.20
38.1380,0.09,0.12,-0.99,3.54,0.43,2.20
38.1540,0.08,0.11,-0.98,3.42,0.92,2.50
38.1690,0.07,0.12,-1.00,3.78,1.10,2.69
38.1830,0.06,0.12,-1.00,1.46,1.59,3.30
38.1980,0.06,0.12,-1.00,0.00,1.22,4.09
38.2130,0.07,0.10,-1.00,0.61,1.34,3.85
38.2280,0.09,0.10,-0.99,2.01,1.28,2.99
38.2440,0.10,0.09,-0.99,4.46,1.53,2.62
38.2590,0.08,0.11,-0.99,5.37,1.89,1.95
38.2740,0.08,0.12,-1.00,2.69,2.87,1.71
38.2890,0.06,0.10,-0.99,2.08,2.87,1.59
38.3050,0.07,0.10,-0.99,3.97,2.50,1.59
38.3190,0.07,0.11,-0.99,6.10,1.40,1.89
38.3340,0.08,0.12,-1.00,6.65,0.79,1.95
38.3490,0.07,0.11,-0.99,5.98,0.67,1.89
38.3650,0.08,0.12,-1.00,5.80,1.22,1.95
38.3800,0.07,0.12,-0.99,2.50,1.71,1.77
38.3960,0.07,0.10,-0.99,1.40,2.01,1.71
38.4120,0.04,0.11,-1.00,3.42,1.34,2.08
38.4270,0.06,0.11,-0.99,4.15,1.40,2.69
38.4430,0.07,0.11,-0.99,5.07,1.22,3.05
38.4580,0.06,0.12,-1.00,5.07,1.22,2.81
38.4740,0.08,0.12,-0.99,3.54,0.98,2.93
38.4900,0.06,0.12,-1.00,2.01,0.43,2.56
38.5060,0.07,0.10,-0.98,2.87,1.28,3.23
38.5220,0.08,0.11,-0.99,5.43,1.71,2.69
38.5370,0.08,0.12,-0.99,4.39,1.71,2.01
38.5520,0.08,0.12,-0.99,3.05,1.65,2.14
38.5690,0.08,0.11,-0.99,2.75,1.71,2.32
38.5830,0.08,0.10,-0.99,3.48,1.40,2.50
38.5990,0.07,0.11,-0.99,5.43,1.89,2.08
38.6160,0.07,0.12,-1.00,6.16,1.34,2.14
38.6320,0.04,0.12,-0.99,5.37,1.22,2.14
38.6470,0.06,0.12,-0.99,4.52,1.83,3.66
38.6630,0.03,0.12,-1.00,3.60,0.85,5.37
38.6780,0.06,0.12,-0.99,3.11,0.18,8.36
38.6930,0.09,0.11,-0.99,2.99,0.06,8.00
38.7080,0.10,0.12,-0.99,3.42,0.24,5.25
38.7230,0.10,0.12,-0.99,2.62,1.10,3.30
38.7390,0.09,0.11,-0.99,3.30,1.71,2.75
38.7550,0.08,0.10,-0.98,5.62,1.22,3.17
38.7710,0.07,0.11,-0.99,6.77,0.85,3.60
38.7860,0.08,0.12,-1.00,7.51,0.85,3.66
38.8010,0.08,0.13,-1.00,6.04,0.67,3.78
38.8170,0.09,0.14,-0.99,3.54,0.98,2.87
38.8330,0.08,0.12,-0.98,0.67,2.62,1.77
38.8490,0.07,0.11,-0.99,1.71,2.93,2.14
38.8650,0.06,0.11,-0.99,3.97,2.32,2.87
38.8810,0.05,0.09,-0.99,5.62,3.05,3.17
38.8970,0.07,0.11,-1.00,6.10,2.26,1.34
38.9120,0.09,0.11,-1.00,6.41,3.05,-0.55
38.9280,0.08,0.13,-0.99,5.74,3.48,-2.99
38.9430,0.09,0.14,-0.98,4.52,3.42,-2.01
38.9580,0.09,0.15,-0.99,2.14,2.50,0.37
38.9730,0.08,0.12,-0.99,0.61,1.53,1.22
38.9890,0.08,0.11,-0.99,2.20,2.14,1.28
39.0050,0.08,0.11,-0.99,3.72,2.01,1.40
39.0200,0.07,0.10,-0.99,4.21,2.69,-1.65
39.0360,0.07,0.13,-0.99,4.94,2.75,-3.36
39.0530,0.07,0.13,-0.99,4.76,2.01,-0.06
39.0680,0.07,0.13,-0.99,2.69,1.53,1.77
39.0840,0.07,0.13,-0.99,0.73,1.83,3.42
39.1010,0.05,0.13,-0.99,-0.85,1.46,5.37
39.1160,0.10,0.09,-0.98,-1.28,2.93,5.37
39.1310,0.08,0.10,-0.99,0.43,2.87,2.62
39.1460,0.07,0.11,-0.98,4.58,2.56,1.77
39.1610,0.07,0.12,-0.99,5.92,1.34,1.95
39.1770,0.07,0.13,-0.99,3.91,1.10,1.77
39.1930,0.07,0.12,-1.00,1.46,1.59,1.65
39.2100,0.08,0.11,-0.98,0.49,2.56,3.30
39.2260,0.06,0.12,-0.99,1.59,2.32,2.99
39.2420,0.07,0.10,-0.99,2.44,1.95,2.50
39.2580,0.08,0.11,-1.00,5.37,1.40,1.77
39.2730,0.07,0.11,-1.00,5.31,1.22,0.37
39.2900,0.07,0.11,-0.99,4.33,1.89,-0.98
39.3060,0.07,0.13,-1.00,3.60,2.50,-1.04
39.3200,0.05,0.12,-0.99,1.71,2.56,-0.18
39.3360,0.05,0.11,-0.99,1.89,2.38,0.79
39.3510,0.04,0.11,-0.99,3.36,2.38,1.71
39.3670,0.05,0.11,-0.99,3.85,2.08,1.77
39.3810,0.07,0.11,-1.00,3.42,2.01,1.95
39.3970,0.08,0.12,-0.99,0.92,2.01,0.55
39.4120,0.09,0.13,-0.99,-0.43,2.26,0.49
39.4280,0.09,0.13,-0.98,-0.61,1.77,2.14
39.4440,0.09,0.12,-0.98,0.55,0.61,5.49
39.4600,0.11,0.11,-0.99,2.81,0.85,6.04
39.4750,0.10,0.10,-0.99,5.00,0.67,4.09
39.4910,0.08,0.11,-0.98,6.04,2.38,2.26
39.5070,0.07,0.13,-1.00,5.80,2.44,2.01
39.5220,0.07,0.12,-1.00,1.59,3.17,1.65
39.5380,0.06,0.10,-0.98,0.55,2.81,1.59
39.5530,0.06,0.11,-0.99,2.44,1.16,1.89
39.5690,0.06,0.12,-1.00,3.36,1.04,5.13
39.5850,0.08,0.12,-1.00,2.44,1.22,7.02
39.6010,0.08,0.10,-0.99,0.55,2.38,5.62
39.6170,0.07,0.10,-0.98,1.65,2.38,2.08
39.6330,0.07,0.11,-1.00,3.66,1.59,1.65
39.6480,0.05,0.13,-1.00,2.01,1.28,1.77
39.6640,0.05,0.13,-0.99,1.59,1.53,8.85
39.6800,0.05,0.13,-1.02,-1.28,1.77,12.21
39.6940,0.10,0.08,-1.00,-2.20,2.69,11.41
39.7100,0.09,0.06,-0.96,-0.18,2.99,4.39
39.7240,0.07,0.10,-0.99,6.96,0.55,1.22
39.7380,0.07,0.11,-1.00,7.81,0.06,0.31
39.7550,0.07,0.13,-1.00,6.04,-0.12,0.55
39.7710,0.07,0.12,-0.99,2.81,0.92,1.34
39.7870,0.07,0.12,-1.00,1.34,1.22,1.77
39.8040,0.03,0.14,-1.00,0.92,1.89,2.99
39.8190,0.07,0.11,-0.99,0.24,2.99,5.25
39.8330,0.08,0.05,-0.99,2.26,2.50,4.76
39.8490,0.07,0.08,-0.98,8.30,-0.24,1.65
39.8630,0.07,0.10,-0.99,11.66,-0.85,1.34
39.8790,0.08,0.13,-1.01,8.73,-0.18,-0.18
39.8960,0.07,0.12,-0.99,3.60,2.50,-0.79
39.9100,0.07,0.11,-1.00,3.11,2.14,0.92
39.9260,0.07,0.10,-0.99,2.20,1.77,1.53
39.9420,0.07,0.11,-0.99,4.21,0.85,1.65
39.9580,0.07,0.11,-0.99,4.33,0.92,1.71
39.9730,0.07,0.12,-0.99,3.91,1.10,1.46
39.9870,0.08,0.12,-1.00,2.14,1.34,1.53
40.0030,0.04,0.12,-0.97,-0.12,2.32,1.22
40.0180,0.05,0.11,-0.99,3.85,0.79,1.04
40.0330,0.05,0.10,-0.99,6.96,0.43,1.28
40.0490,0.05,0.10,-1.00,8.67,-0.55,0.92
40.0640,0.07,0.10,-1.00,9.89,-0.55,-0.37
40.0800,0.04,0.12,-1.00,7.87,-0.43,-1.46
40.0960,0.09,0.14,-1.00,5.25,0.55,-0.73
40.1110,0.09,0.13,-0.99,2.01,0.43,0.73
40.1260,0.09,0.11,-0.99,-0.67,1.59,1.89
40.1420,0.09,0.11,-0.99,-0.24,1.95,2.14
40.1580,0.09,0.09,-0.99,2.14,2.38,1.65
40.1720,0.08,0.11,-0.99,5.19,1.95,1.71
40.1880,0.07,0.11,-0.99,5.62,1.77,1.83
40.2030,0.07,0.11,-0.99,4.82,1.95,1.95
40.2190,0.07,0.11,-0.99,4.58,1.65,2.01
40.2350,0.07,0.11,-0.99,3.78,1.16,1.95
40.2510,0.07,0.12,-0.99,3.23,0.92,1.83
40.2650,0.04,0.13,-0.99,2.44,1.65,2.69
40.2800,0.07,0.12,-0.99,4.33,1.10,2.87
40.2950,0.08,0.11,-0.99,5.86,0.55,2.81
40.3100,0.08,0.10,-0.99,7.08,0.43,2.44
40.3260,0.09,0.12,-0.99,7.51,0.49,2.01
40.3420,0.08,0.13,-0.99,4.52,1.59,1.71
40.3570,0.07,0.12,-0.99,1.28,2.50,1.40
40.3730,0.07,0.12,-0.99,2.14,1.89,1.53
40.3880,0.00,0.15,-0.99,2.93,1.59,1.95
40.4040,0.06,0.11,-0.99,4.27,1.71,2.38
40.4200,0.05,0.12,-1.00,4.64,1.65,1.89
40.4350,0.06,0.10,-0.99,3.97,1.77,2.26
40.4500,0.09,0.11,-0.99,4.15,1.95,-0.12
40.4660,0.11,0.12,-0.99,3.91,2.32,-0.18
40.4800,0.13,0.12,-0.98,4.39,1.95,1.59
40.4960,0.12,0.13,-0.99,4.46,1.89,2.08
40.5110,0.08,0.13,-1.00,2.87,2.26,1.77
40.5270,0.07,0.11,-0.99,0.06,3.36,1.40
40.5420,0.07,0.11,-0.99,0.43,3.42,1.53
40.5590,0.07,0.11,-0.99,1.71,2.32,1.71
40.5750,0.07,0.11,-0.99,4.09,1.53,1.95
40.5900,0.08,0.11,-0.99,5.62,1.28,1.95
40.6070,0.08,0.13,-1.00,4.82,1.65,1.89
40.6210,0.08,0.12,-1.00,2.08,2.38,1.53
40.6360,0.07,0.11,-0.99,1.89,2.62,1.46
40.6520,0.07,0.11,-0.99,2.81,2.08,1.77
40.6670,0.07,0.12,-0.99,5.00,0.61,1.77
40.6820,0.07,0.12,-1.00,4.76,0.79,1.83
40.6980,0.08,0.11,-0.98,3.85,1.89,2.08
40.7130,0.05,0.12,-1.00,4.33,1.59,1.89
40.7280,0.06,0.13,-0.99,2.38,1.53,1.22
40.7440,0.06,0.13,-0.98,-1.46,0.18,3.23
40.7590,0.05,0.11,-1.00,-2.20,-0.55,5.55
40.7740,0.08,0.08,-0.98,1.34,-0.92,6.47
40.7890,0.10,0.07,-0.98,4.15,-0.24,4.94
40.8050,0.12,0.10,-0.99,7.69,0.55,3.72
40.8210,0.14,0.14,-0.99,6.77,1.95,1.22
40.8370,0.09,0.13,-1.00,3.11,3.30,1.34
40.8520,0.07,0.11,-0.99,-1.10,4.52,1.28
40.8690,0.05,0.09,-0.99,2.75,1.77,1.04
40.8850,0.07,0.11,-0.99,6.84,-0.18,1.59
40.9000,0.07,0.11,-1.00,6.96,-0.31,1.77
40.9160,0.08,0.11,-0.99,6.41,0.43,1.77
40.9320,0.02,0.11,-1.00,5.68,1.16,1.28
40.9460,0.08,0.11,-0.99,5.13,2.99,-1.77
40.9610,0.09,0.13,-0.99,4.88,2.20,0.73
40.9760,0.09,0.13,-0.98,1.04,2.20,3.42
40.9930,0.07,0.12,-0.99,1.34,2.20,4.15
41.0100,0.08,0.11,-0.99,2.14,1.83,4.33
41.0240,0.08,0.11,-0.99,2.69,1.95,4.03
41.0390,0.07,0.12,-0.99,3.36,0.85,3.72
41.0550,0.07,0.12,-0.99,3.91,1.40,4.58
41.0700,0.07,0.12,-0.99,3.42,1.59,5.25
41.0850,0.10,0.11,-1.00,2.69,1.65,6.41
41.1000,0.09,0.11,-0.99,2.81,1.59,5.43
41.1150,0.09,0.11,-0.98,4.33,1.22,3.36
41.1320,0.06,0.12,-0.99,5.31,1.65,2.20
41.1480,0.06,0.12,-0.99,5.74,1.16,3.17
41.1630,0.06,0.12,-0.99,5.92,1.10,4.09
41.1780,0.06,0.12,-0.99,4.39,1.10,4.64
41.1940,0.09,0.12,-0.99,2.93,1.28,4.46
41.2100,0.11,0.12,-0.99,3.05,1.71,3.97
41.2260,0.12,0.12,-0.98,2.81,2.20,2.50
41.2410,0.09,0.12,-0.99,2.44,2.87,1.77
41.2560,0.08,0.12,-0.99,2.32,2.99,1.59
41.2720,0.07,0.11,-0.99,2.87,2.38,1.71
41.2870,0.08,0.11,-0.99,4.52,0.49,1.83
41.3020,0.08,0.12,-1.00,5.37,0.79,2.01
41.3180,0.08,0.12,-0.99,5.31,1.71,1.89
41.3340,0.08,0.12,-0.99,4.39,2.26,1.95
41.3510,0.08,0.13,-0.99,3.91,2.38,1.95
41.3670,0.07,0.12,-0.99,3.54,1.83,2.01
41.3820,0.08,0.11,-0.99,4.03,1.28,1.83
41.3990,0.08,0.12,-0.99,4.39,0.92,1.77
41.4140,0.08,0.12,-0.99,3.97,2.01,1.77
41.4300,0.08,0.13,-0.99,3.36,2.20,1.83
41.4460,0.08,0.13,-0.99,3.17,2.50,1.71
41.4620,0.07,0.12,-0.99,2.56,1.77,1.59
41.4770,0.07,0.11,-0.99,2.87,1.34,1.71
41.4930,0.09,0.12,-1.00,3.78,1.16,1.77
41.5070,0.08,0.13,-1.00,5.00,1.04,1.83
41.5230,0.08,0.13,-0.99,4.21,2.01,1.65
41.5380,0.08,0.12,-0.99,3.91,2.20,1.65
41.5530,0.07,0.12,-0.99,4.09,1.71,1.59
41.5690,0.08,0.12,-1.00,5.07,0.37,1.53
41.5850,0.08,0.12,-0.99,5.19,-0.12,1.65
41.6020,0.09,0.13,-0.99,4.33,1.65,1.65
41.6180,0.09,0.13,-0.99,2.38,3.72,1.95
41.6350,0.09,0.13,-1.00,0.00,8.00,2.44
41.6500,0.05,0.12,-0.99,-3.36,10.13,2.26
41.6650,0.07,0.11,-1.00,-3.17,5.92,1.65
41.6820,0.07,0.04,-0.85,6.16,-0.85,0.85
41.6970,0.08,0.09,-0.91,4.58,-0.79,1.40
41.7120,0.08,0.12,-0.99,5.86,0.98,1.89
41.7270,0.08,0.12,-0.99,5.19,1.89,2.08
41.7420,0.08,0.12,-0.99,4.82,2.38,2.01
41.7570,0.08,0.13,-0.99,4.33,2.99,2.01
41.7730,0.07,0.13,-0.99,3.30,2.87,1.77
41.7880,0.07,0.12,-0.99,1.77,2.62,1.53
41.8040,0.07,0.11,-0.99,2.26,2.69,1.65
41.8200,0.07,0.12,-0.99,3.97,2.20,1.89
41.8350,0.07,0.12,-0.99,3.60,2.26,1.59
41.8500,0.08,0.12,-0.99,3.72,1.83,1.59
41.8660,0.07,0.12,-0.99,3.66,1.46,1.59
41.8810,0.07,0.12,-0.99,3.05,1.89,1.65
41.8960,0.08,0.12,-0.99,2.50,2.56,1.65
41.9120,0.07,0.12,-0.99,2.08,2.50,1.59
41.9280,0.08,0.12,-1.00,2.38,2.62,1.59
41.9440,0.08,0.12,-1.00,2.08,2.01,1.40
41.9600,0.08,0.11,-0.99,2.38,2.69,1.46
41.9750,0.07,0.11,-0.99,2.87,2.69,1.65
41.9910,0.07,0.11,-0.99,3.36,2.69,1.89
42.0080,0.07,0.12,-0.99,4.15,2.08,2.01
42.0220,0.07,0.12,-1.00,3.17,1.65,1.77
42.0380,0.07,0.12,-0.99,2.62,1.77,1.59
42.0540,0.07,0.12,-0.99,1.53,2.01,1.53
42.0680,0.07,0.12,-1.00,0.85,1.59,1.34
42.0830,0.08,0.11,-0.99,0.12,2.14,1.34
42.0990,0.08,0.11,-0.99,0.43,3.78,1.40
42.1140,0.08,0.11,-0.99,2.50,2.69,0.92
42.1320,0.09,0.11,-0.99,4.76,2.14,0.61
42.1470,0.11,0.12,-1.00,4.64,1.83,0.73
42.1630,0.07,0.12,-0.99,2.44,1.46,1.71
42.1780,0.07,0.14,-0.99,0.12,1.16,4.15
42.1930,0.03,0.14,-0.99,-0.79,1.28,5.37
42.2080,0.01,0.10,-0.97,-0.06,0.37,9.28
42.2240,0.07,0.06,-0.98,5.37,-1.83,9.77
42.2410,0.09,0.10,-1.00,10.07,-0.98,1.95
42.2570,0.09,0.12,-1.01,7.93,0.37,1.22
42.2720,0.08,0.10,-1.00,4.88,1.71,0.06
42.2880,0.08,0.10,-0.99,3.91,2.99,-4.76
42.3040,0.09,0.12,-0.99,3.85,3.30,-5.98
42.3190,0.06,0.14,-0.99,3.66,3.36,-3.72
42.3340,0.07,0.11,-0.99,2.62,3.54,0.85
42.3490,0.06,0.11,-0.99,3.17,3.30,1.83
42.3640,0.07,0.11,-1.00,4.76,1.89,1.95
42.3800,0.07,0.12,-0.99,5.00,1.40,1.95
42.3960,0.07,0.12,-0.99,5.43,1.46,1.89
42.4120,0.07,0.12,-0.99,3.78,1.04,1.59
42.4280,0.07,0.11,-0.99,2.81,1.16,1.53
42.4430,0.07,0.10,-0.99,3.36,1.59,0.98
42.4600,0.08,0.09,-1.00,4.46,2.99,-1.71
42.4760,0.08,0.08,-1.01,5.25,3.66,-7.45
42.4920,0.05,0.03,-1.00,4.27,4.27,-11.11
42.5070,0.05,0.11,-0.99,3.60,5.07,-12.27
42.5230,0.02,0.17,-0.98,3.05,5.62,-14.95
42.5390,0.04,0.24,-0.97,5.25,3.42,-8.12
42.5540,0.12,0.18,-0.98,1.53,2.01,0.85
42.5700,0.16,0.09,-0.99,-1.22,4.21,2.81
42.5850,0.09,0.11,-1.00,1.28,4.82,1.89
42.6000,0.10,0.11,-1.00,0.61,6.90,1.77
42.6160,0.08,0.08,-0.99,0.98,2.38,3.54
42.6310,0.07,0.09,-1.00,2.93,-0.12,5.13
42.6460,0.04,0.12,-0.99,1.53,1.22,4.15
42.6610,0.01,0.13,-0.98,1.34,2.01,3.11
42.6760,0.06,0.11,-0.99,2.56,1.77,1.83
42.6910,0.06,0.11,-0.99,3.48,0.67,2.08
42.7060,0.05,0.10,-0.98,3.78,0.06,2.69
42.7210,0.05,0.12,-1.01,4.27,0.98,5.13
42.7360,0.07,0.11,-0.99,2.32,2.32,4.21
42.7510,0.10,0.12,-1.00,2.87,2.62,1.22
42.7650,0.11,0.11,-1.00,2.01,2.93,0.12
42.7800,0.08,0.10,-1.00,-0.98,4.15,0.98
42.7960,0.06,0.08,-0.97,-1.53,5.62,1.83
42.8100,0.05,0.08,-0.98,3.36,4.03,2.14
42.8260,0.06,0.12,-1.00,6.65,1.59,2.32
42.8410,0.07,0.13,-1.00,5.74,1.53,1.95
42.8560,0.08,0.12,-1.00,2.50,1.71,1.40
42.8710,0.07,0.11,-0.99,1.89,1.77,0.85
42.8860,0.06,0.10,-0.99,2.20,1.04,1.10
42.9010,0.06,0.10,-1.00,2.01,1.46,1.59
42.9170,0.06,0.10,-0.99,2.26,0.98,1.83
42.9320,0.07,0.12,-1.00,2.01,1.04,2.87
42.9490,0.08,0.11,-0.99,0.00,2.69,4.76
42.9640,0.07,0.09,-0.99,0.55,2.99,2.87
42.9790,0.06,0.10,-1.00,2.50,1.95,1.40
42.9960,0.06,0.12,-1.00,2.08,1.89,1.28
43.0120,0.09,0.10,-0.99,0.79,2.26,1.40
43.0270,0.06,0.10,-0.99,1.53,1.71,1.83
43.0420,0.07,0.12,-0.99,3.66,2.01,2.26
43.0590,0.07,0.10,-0.99,1.77,2.87,3.54
43.0760,0.07,0.08,-0.98,4.39,1.71,3.42
43.0910,0.06,0.11,-1.01,5.49,0.61,1.83
43.1060,0.07,0.10,-1.00,2.01,1.65,1.59
43.1220,0.06,0.12,-1.00,-1.04,2.62,1.53
43.1370,0.04,0.16,-0.98,-2.08,2.87,7.02
43.1530,0.05,0.16,-1.00,-1.83,1.95,19.47
43.1690,0.07,0.09,-0.99,-5.07,2.56,21.73
43.1850,0.10,-0.03,-0.99,-2.32,2.26,15.20
43.2010,0.06,0.05,-0.98,7.20,0.92,1.53
43.2160,0.08,0.11,-1.02,13.37,-1.53,-1.59
43.2320,0.08,0.11,-1.00,6.90,1.77,-5.25
43.2490,0.05,0.14,-1.00,3.30,2.99,-5.43
43.2650,0.06,0.11,-1.01,-1.40,3.05,1.16
43.2810,0.05,0.06,-0.97,-3.11,3.48,3.91
43.2960,0.05,0.10,-1.00,-0.55,2.99,7.75
43.3130,0.07,0.09,-0.98,-1.34,5.00,10.44
43.3290,0.09,0.04,-0.98,0.43,5.55,7.32
43.3450,0.06,0.08,-0.98,6.77,2.69,1.59
43.3610,0.05,0.11,-1.00,7.14,0.24,0.43
43.3770,0.05,0.09,-0.99,4.58,0.18,1.83
43.3920,0.06,0.09,-0.98,5.74,-1.53,1.83
43.4070,0.08,0.11,-1.01,7.32,-1.34,1.53
43.4230,0.08,0.10,-1.00,6.59,-0.43,0.98
43.4380,0.09,0.08,-1.00,4.94,1.65,-0.79
43.4540,0.05,0.09,-0.98,6.16,1.89,-5.13
43.4710,0.03,0.14,-1.00,7.45,0.55,-3.23
43.4860,0.06,0.09,-0.99,2.87,0.92,1.71
43.5020,0.07,0.08,-0.99,3.97,0.73,2.20
43.5180,0.07,0.10,-1.00,5.62,0.92,2.14
43.5340,0.06,0.10,-0.99,5.68,0.67,1.65
43.5480,0.06,0.09,-0.98,5.92,0.55,1.71
43.5650,0.06,0.10,-0.99,6.04,0.43,1.71
43.5810,0.07,0.10,-1.00,5.98,0.18,1.95
43.5970,0.08,0.09,-0.99,4.27,0.43,1.89
43.6130,0.07,0.09,-0.98,4.82,0.49,1.95
43.6280,0.07,0.10,-1.00,7.63,-1.16,1.53
43.6430,0.07,0.11,-0.99,7.45,-1.22,1.34
43.6580,0.07,0.13,-0.98,6.84,0.06,1.28
43.6740,0.07,0.12,-1.00,3.66,1.04,1.40
43.6900,0.07,0.10,-1.00,1.16,1.71,1.28
43.7050,0.07,0.08,-0.99,1.65,2.75,1.53
43.7200,0.07,0.10,-0.99,2.01,3.30,1.59
43.7350,0.08,0.11,-0.99,2.93,2.69,1.71
43.7510,0.07,0.10,-0.96,3.17,2.50,1.71
43.7670,0.07,0.12,-1.01,4.88,1.46,1.77
43.7830,0.08,0.12,-1.01,0.31,4.15,1.77
43.7990,0.11,0.11,-1.06,-5.07,8.24,2.26
43.8150,0.05,0.08,-0.97,-7.51,11.11,3.72
43.8300,0.04,-0.04,-0.77,-0.24,5.62,2.81
43.8450,0.07,0.08,-0.92,6.84,-1.22,1.65
43.8600,0.05,0.07,-0.94,9.34,-0.31,1.77
43.8750,0.06,0.11,-1.01,6.71,2.75,1.71
43.8890,0.05,0.09,-0.98,2.32,2.50,1.46
43.9040,0.06,0.10,-0.99,4.46,1.53,1.65
43.9190,0.07,0.11,-1.00,5.74,0.73,1.83
43.9350,0.07,0.11,-1.00,5.37,0.61,1.89
43.9500,0.06,0.10,-0.99,3.42,1.53,1.65
43.9650,0.06,0.10,-1.00,3.42,1.77,1.40
43.9800,0.06,0.09,-0.99,3.05,1.71,1.34
43.9950,0.06,0.10,-0.99,3.54,1.22,1.46
44.0100,0.07,0.10,-1.00,2.93,1.40,1.46
44.0240,0.07,0.10,-0.99,2.32,1.53,1.59
44.0390,0.07,0.11,-1.00,4.39,2.01,1.71
44.0550,0.07,0.10,-1.00,3.72,2.62,1.10
44.0700,0.06,0.09,-0.99,3.36,3.11,-0.12
44.0850,0.05,0.09,-0.99,3.36,3.05,-0.18
44.1000,0.05,0.11,-0.99,3.60,1.95,0.06
44.1150,0.06,0.11,-0.99,2.44,0.55,0.98
44.1300,0.06,0.11,-0.99,1.28,0.55,0.92
44.1450,0.06,0.11,-0.99,2.08,0.55,0.73
44.1600,0.07,0.10,-1.00,3.23,1.83,0.31
44.1750,0.07,0.09,-1.00,3.30,2.44,0.67
44.1910,0.07,0.07,-0.99,4.70,1.65,0.73
44.2060,0.06,0.10,-0.97,7.45,2.32,1.71
44.2210,0.06,0.11,-0.99,8.06,1.34,1.28
44.2360,0.05,0.09,-0.99,5.31,0.18,1.40
44.2510,0.06,0.10,-1.00,6.16,-0.49,1.46
44.2660,0.07,0.11,-1.00,5.43,0.18,1.28
44.2820,0.06,0.12,-1.00,5.37,0.98,-0.37
44.2970,0.07,0.12,-1.00,4.52,1.34,0.31
44.3130,0.08,0.11,-0.99,1.65,3.11,1.10
44.3290,0.07,0.08,-0.99,2.14,3.11,5.07
44.3450,0.06,0.07,-0.99,3.30,2.44,3.97
44.3610,0.06,0.10,-1.00,5.43,1.95,1.77
44.3770,0.07,0.11,-1.00,4.52,1.04,1.34
44.3930,0.07,0.12,-1.00,2.38,1.95,1.22
44.4090,0.06,0.10,-0.98,0.92,2.62,1.28
44.4240,0.06,0.09,-0.98,3.11,2.14,1.46
44.4390,0.06,0.09,-0.98,4.76,1.28,1.53
44.4550,0.06,0.10,-1.00,7.14,0.67,1.59
44.4700,0.07,0.10,-0.98,7.87,-0.67,1.28
44.4850,0.07,0.11,-0.98,3.78,0.49,1.16
44.5010,0.08,0.10,-1.01,4.82,0.55,-0.61
44.5160,0.06,0.10,-1.00,3.42,2.50,2.20
44.5340,0.06,0.09,-0.97,4.21,1.40,3.60
44.5490,0.07,0.08,-1.00,6.71,0.55,3.97
44.5650,0.07,0.11,-1.00,8.67,0.43,2.14
44.5800,0.07,0.13,-1.00,6.41,0.98,1.71
44.5950,0.07,0.12,-0.99,2.01,2.44,1.65
44.6100,0.06,0.10,-0.98,2.50,2.01,1.59
44.6260,0.06,0.10,-0.98,5.62,0.98,2.14
44.6420,0.07,0.11,-1.00,6.41,0.61,2.20
44.6580,0.07,0.12,-1.00,5.07,1.46,1.89
44.6740,0.08,0.12,-1.00,3.54,2.08,1.71
44.6890,0.06,0.13,-1.00,2.56,0.92,3.30
44.7040,0.04,0.10,-0.98,0.00,2.38,6.96
44.7190,0.06,0.09,-0.98,1.89,1.28,4.46
44.7350,0.06,0.09,-0.97,3.11,1.22,2.69
44.7500,0.07,0.10,-0.99,7.14,-0.49,1.89
44.7660,0.08,0.12,-1.01,8.54,-0.73,1.65
44.7810,0.07,0.13,-1.00,5.55,1.65,1.53
44.7970,0.10,0.13,-0.98,4.03,2.26,1.65
44.8140,0.07,0.14,-0.98,4.03,0.85,7.63
44.8290,0.05,0.11,-0.98,0.31,1.34,11.23
44.8440,0.05,0.09,-0.99,1.22,0.73,7.69
44.8600,0.06,0.06,-1.00,3.30,0.85,4.52
44.8760,0.09,0.09,-1.00,7.93,-0.12,0.98
44.8920,0.07,0.11,-0.99,7.57,0.18,-4.76
44.9070,0.06,0.15,-0.98,6.29,0.98,-3.48
44.9220,0.07,0.13,-0.99,2.14,1.16,1.71
44.9370,0.07,0.11,-0.99,0.92,1.04,2.38
44.9530,0.08,0.10,-1.00,1.89,0.98,2.26
44.9680,0.08,0.11,-1.00,2.87,1.46,1.59
44.9840,0.07,0.12,-1.00,2.20,1.89,0.98
45.0000,0.08,0.10,-0.99,2.20,1.89,0.79
45.0160,0.08,0.10,-0.98,4.27,1.16,-0.98
45.0320,0.06,0.14,-0.99,4.09,1.59,-0.49
45.0470,0.07,0.11,-0.99,2.14,2.26,1.77
45.0630,0.07,0.10,-0.99,2.14,2.32,1.77
45.0790,0.08,0.11,-1.00,4.76,1.71,1.71
45.0960,0.12,0.08,-1.00,3.42,1.46,1.10
45.1100,0.07,0.11,-0.98,1.28,1.28,0.55
45.1260,0.05,0.14,-0.99,2.32,1.16,1.59
45.1410,0.06,0.12,-0.99,2.14,1.53,1.46
45.1560,0.07,0.11,-0.99,2.08,1.59,1.46
45.1720,0.08,0.11,-0.99,2.56,1.83,1.34
45.1870,0.13,0.08,-1.00,2.69,2.26,-1.65
45.2030,0.10,0.10,-1.00,2.26,1.89,-8.24
45.2180,0.07,0.13,-1.00,0.79,1.16,-7.20
45.2330,-0.00,0.15,-0.96,0.67,0.79,-2.14
45.2490,0.05,0.11,-0.97,-0.12,2.08,2.32
45.2640,0.04,0.12,-0.97,0.79,1.95,4.76
45.2800,0.09,0.11,-1.00,3.72,0.24,11.84
45.2960,0.10,0.09,-1.00,1.83,1.77,8.48
45.3120,0.07,0.10,-0.98,2.50,2.26,2.38
45.3280,0.08,0.11,-1.00,4.76,1.65,1.77
45.3450,0.08,0.12,-1.00,1.95,2.56,1.59
45.3600,0.07,0.09,-0.97,0.06,3.17,1.71
45.3760,0.08,0.10,-0.99,5.37,0.73,2.44
45.3910,0.07,0.09,-0.99,5.62,0.43,2.20
45.4070,0.07,0.10,-1.00,5.92,0.43,1.83
45.4220,0.08,0.12,-1.00,5.37,1.46,1.77
45.4380,0.08,0.13,-1.01,1.16,2.93,1.77
45.4540,0.05,0.13,-0.99,-3.54,5.25,6.04
45.4690,0.06,0.10,-0.98,-4.94,5.13,9.83
45.4850,0.07,0.07,-0.97,-0.73,3.17,8.00
45.5000,0.09,0.07,-0.99,2.01,1.83,5.68
45.5160,0.08,0.10,-0.99,4.70,1.28,2.50
45.5330,0.07,0.11,-0.99,4.46,2.08,1.65
45.5490,0.07,0.10,-0.99,3.66,2.20,1.71
45.5650,0.05,0.10,-0.99,3.78,2.01,1.89
45.5810,0.07,0.10,-0.99,5.55,1.16,2.69
45.5970,0.10,0.10,-1.00,5.92,0.98,2.50
45.6120,0.08,0.11,-1.00,4.58,2.08,2.01
45.6270,0.08,0.11,-1.00,2.01,3.48,1.59
45.6440,0.06,0.10,-0.98,1.46,3.91,1.71
45.6590,0.06,0.10,-1.00,3.78,2.26,1.89
45.6750,0.01,0.11,-1.01,3.36,2.20,2.26
45.6910,0.08,0.10,-0.98,1.95,2.69,3.72
45.7060,0.08,0.10,-1.00,4.15,1.83,3.17
45.7220,0.08,0.10,-1.00,4.64,1.34,2.38
45.7370,0.08,0.11,-1.00,3.85,1.53,1.89
45.7520,0.08,0.11,-1.00,2.81,2.20,1.77
45.7680,0.07,0.10,-0.99,0.67,3.78,1.71
45.7840,0.07,0.09,-0.98,0.85,3.60,1.83
45.7990,0.07,0.09,-0.99,3.78,2.32,1.83
45.8140,0.07,0.10,-1.00,6.10,1.10,1.65
45.8280,0.07,0.10,-0.99,6.04,0.92,1.34
45.8440,0.07,0.11,-1.00,5.80,0.79,1.34
45.8590,0.07,0.11,-1.00,4.46,1.40,1.65
45.8740,0.07,0.11,-1.00,1.89,1.40,1.46
45.8910,0.07,0.10,-0.99,-0.18,2.38,1.59
45.9070,0.07,0.10,-0.98,0.49,2.62,1.77
45.9230,0.07,0.09,-0.99,2.14,2.62,1.89
45.9380,0.07,0.09,-0.99,3.85,1.77,1.83
45.9540,0.07,0.11,-0.99,5.13,1.71,1.71
45.9690,0.07,0.10,-1.00,4.88,1.04,1.83
45.9840,0.07,0.10,-1.00,4.21,1.40,1.65
46.0010,0.07,0.10,-0.99,3.97,1.40,1.65
46.0160,0.07,0.10,-0.99,3.48,1.22,1.53
46.0310,0.07,0.10,-1.00,2.99,1.83,1.71
46.0480,0.07,0.11,-0.99,2.75,2.50,1.65
46.0630,0.07,0.10,-1.00,2.44,2.56,1.71
46.0790,0.07,0.10,-0.99,2.87,2.26,1.71
46.0940,0.07,0.09,-1.00,3.30,1.77,1.59
46.1080,0.07,0.10,-0.99,3.05,1.77,1.59
46.1250,0.07,0.11,-0.99,3.42,1.34,1.59
46.1400,0.07,0.10,-0.99,2.99,1.71,1.65
46.1550,0.07,0.10,-1.00,3.30,1.77,1.65
46.1710,0.09,0.10,-1.00,1.40,3.36,1.71
46.1860,0.08,0.08,-0.98,0.31,5.00,0.24
46.2020,0.05,0.09,-0.99,4.39,3.72,0.31
46.2170,0.05,0.11,-0.99,5.19,1.53,1.40
46.2330,0.06,0.10,-0.99,4.70,1.04,1.83
46.2480,0.07,0.10,-1.00,5.13,0.85,1.71
46.2630,0.07,0.11,-1.00,3.91,1.34,1.59
46.2790,0.07,0.10,-0.99,2.38,1.71,1.71
46.2950,0.07,0.10,-0.99,1.95,1.95,1.89
46.3110,0.07,0.10,-1.00,1.77,1.89,2.01
46.3250,0.07,0.10,-0.99,2.14,2.50,2.08
46.3420,0.07,0.09,-0.99,1.89,2.75,2.32
46.3570,0.06,0.09,-0.99,2.93,3.30,2.20
46.3730,0.06,0.10,-1.00,3.66,2.44,1.71
46.3880,0.06,0.09,-0.99,3.42,1.77,1.53
46.4030,0.07,0.10,-0.99,4.58,0.92,1.40
46.4190,0.07,0.10,-1.00,4.52,0.67,1.59
46.4350,0.07,0.11,-1.00,3.72,1.89,1.71
46.4500,0.08,0.11,-1.00,2.75,2.44,1.71
46.4650,0.07,0.08,-0.98,1.34,3.91,1.71
46.4810,0.09,0.10,-0.98,3.42,2.87,1.34
46.4960,0.06,0.10,-1.00,4.88,1.22,1.16
46.5120,0.06,0.11,-1.00,4.33,0.79,0.73
46.5280,0.07,0.11,-1.00,3.66,0.79,1.16
46.5440,0.07,0.11,-1.00,3.36,1.16,1.28
46.5590,0.07,0.10,-0.99,2.44,1.22,1.16
46.5740,0.05,0.10,-0.98,2.62,1.04,2.50
46.5890,0.07,0.08,-0.99,5.13,0.55,4.70
46.6050,0.07,0.09,-0.98,5.25,1.04,2.08
46.6200,0.08,0.10,-0.99,6.90,1.46,1.28
46.6350,0.08,0.12,-1.00,7.26,1.16,-0.18
46.6500,0.09,0.11,-0.98,5.68,1.53,-0.55
46.6660,0.04,0.09,-0.99,6.53,0.73,-0.67
46.6810,0.05,0.09,-0.99,5.31,1.65,0.18
46.6970,0.06,0.10,-1.00,5.86,0.73,1.40
46.7130,0.07,0.10,-1.00,6.16,0.79,1.46
46.7290,0.09,0.11,-1.00,5.31,1.65,0.06
46.7440,0.08,0.11,-0.99,5.00,1.65,-0.61
46.7580,0.07,0.12,-1.00,4.21,1.34,0.31
46.7730,0.07,0.10,-0.99,1.77,1.59,1.40
46.7900,0.07,0.10,-1.00,2.50,1.40,2.08
46.8050,0.06,0.10,-0.98,1.10,2.62,3.05
46.8210,0.07,0.10,-0.99,1.71,2.56,3.42
46.8370,0.07,0.10,-0.99,3.11,2.81,3.17
46.8520,0.06,0.11,-0.99,3.66,2.50,3.05
46.8670,0.06,0.15,-0.99,2.62,1.40,3.91
46.8830,0.07,0.15,-0.99,3.97,-0.06,10.80
46.8990,0.08,0.08,-1.01,3.17,1.10,10.62
46.9140,0.08,0.05,-1.01,1.04,2.75,6.77
46.9300,0.06,0.04,-0.99,1.89,2.87,3.66
46.9440,0.07,0.10,-0.99,7.26,2.14,0.37
46.9600,0.06,0.12,-0.99,6.04,1.28,-0.37
46.9770,0.07,0.11,-1.00,4.21,1.59,1.83
46.9930,0.07,0.10,-0.99,4.09,1.16,2.01
47.0080,0.08,0.12,-1.00,4.33,1.40,1.89
47.0240,0.07,0.11,-1.00,2.14,2.20,1.83
47.0400,0.07,0.11,-1.00,1.46,2.56,2.01
47.0550,0.07,0.10,-0.98,0.85,3.36,2.93
47.0700,0.07,0.09,-0.98,1.40,2.69,2.08
47.0840,0.07,0.10,-0.99,4.15,1.89,1.83
47.0990,0.07,0.12,-1.01,5.62,1.22,1.77
47.1160,0.07,0.12,-1.00,4.27,1.59,2.14
47.1330,0.07,0.15,-0.99,3.48,1.10,6.71
47.1480,0.08,0.14,-0.99,0.49,0.55,13.18
47.1640,0.07,0.11,-0.98,0.49,1.10,11.29
47.1800,0.07,0.05,-0.99,2.62,0.98,8.85
47.1950,0.05,0.03,-1.00,3.48,1.53,4.03
47.2110,0.07,0.11,-1.00,7.14,1.28,1.71
47.2260,0.07,0.12,-1.00,4.70,1.53,1.83
47.2410,0.07,0.11,-0.99,2.62,1.71,1.89
47.2560,0.07,0.09,-0.98,2.81,2.01,1.71
47.2710,0.07,0.10,-0.99,5.92,0.85,1.77
47.2890,0.08,0.11,-1.01,6.65,1.10,1.71
47.3040,0.07,0.11,-1.00,4.94,2.32,1.59
47.3200,0.06,0.10,-0.98,5.00,2.32,1.71
47.3350,0.07,0.11,-0.99,5.49,0.92,1.71
47.3500,0.07,0.11,-0.99,4.33,1.59,1.89
47.3650,0.07,0.11,-1.00,3.54,1.16,1.65
47.3810,0.07,0.11,-0.99,2.81,1.95,1.59
47.3970,0.07,0.11,-0.99,2.38,2.20,1.46
47.4120,0.07,0.10,-0.99,3.54,1.59,1.65
47.4270,0.07,0.11,-0.99,4.21,1.46,1.65
47.4430,0.07,0.11,-0.99,3.36,1.28,1.53
47.4590,0.07,0.11,-0.99,2.99,1.40,1.53
47.4760,0.07,0.11,-1.00,2.81,1.53,1.59
47.4910,0.08,0.11,-0.99,2.93,1.83,1.40
47.5070,0.08,0.11,-0.99,3.85,0.92,1.16
47.5230,0.07,0.11,-0.99,4.94,0.85,2.44
47.5380,0.06,0.10,-1.00,3.97,0.79,1.59
47.5540,0.05,0.11,-0.99,3.60,1.59,1.04
47.5700,0.06,0.11,-1.00,3.60,1.59,1.22
47.5860,0.07,0.11,-0.99,3.30,1.28,1.89
47.6010,0.08,0.11,-1.00,3.66,1.65,2.14
47.6170,0.07,0.12,-0.99,2.32,2.26,2.38
47.6320,0.08,0.11,-0.99,2.56,2.14,2.99
47.6470,0.08,0.11,-0.99,3.05,1.46,1.71
47.6630,0.07,0.11,-0.99,3.05,1.59,1.83
47.6790,0.08,0.13,-0.98,3.30,1.16,3.72
47.6950,0.09,0.14,-0.99,4.76,-0.06,8.97
47.7110,0.10,0.11,-0.99,3.23,-0.49,11.23
