Timestamp, AccX, AccY, AccZ, GyroX, GyroY, GyroZ
0.0100,0.07,0.14,-0.98,2.38,4.64,1.95
0.0250,0.08,0.13,-0.98,3.36,3.60,1.89
0.0340,0.08,0.13,-0.98,3.30,3.66,1.95
0.0530,0.08,0.14,-0.98,3.11,3.91,2.08
0.0670,0.08,0.14,-0.98,3.23,3.72,1.89
0.0840,0.08,0.14,-0.98,3.17,3.78,2.08
0.1010,0.08,0.14,-0.98,3.11,3.54,2.14
0.1150,0.08,0.14,-0.98,3.30,3.42,1.95
0.1300,0.08,0.14,-0.98,3.23,3.78,2.01
0.1330,0.08,0.14,-0.98,3.23,4.03,2.08
0.1530,0.08,0.14,-0.98,3.17,3.97,1.83
0.1760,0.08,0.14,-0.98,3.05,3.91,1.89
0.1910,0.08,0.14,-0.98,3.23,3.66,1.95
0.2000,0.08,0.14,-0.98,3.23,3.66,1.83
0.2170,0.08,0.14,-0.98,3.05,4.15,1.89
0.2340,0.08,0.14,-0.98,3.11,3.78,1.95
0.2500,0.08,0.14,-0.98,3.11,3.54,1.89
0.2650,0.08,0.14,-0.98,3.36,3.66,1.95
0.2800,0.08,0.14,-0.98,3.23,3.72,2.08
0.2830,0.08,0.14,-0.98,3.23,3.36,1.95
0.3100,0.08,0.14,-0.98,3.11,3.36,1.83
0.3170,0.08,0.14,-0.98,2.99,3.54,1.95
0.3400,0.08,0.14,-0.98,3.11,3.78,2.08
0.3530,0.08,0.14,-0.98,3.05,3.97,2.01
0.3670,0.08,0.14,-0.98,3.11,3.54,2.08
0.3840,0.08,0.14,-0.98,2.87,3.60,1.95
0.4000,0.08,0.14,-0.98,3.05,3.60,2.08
0.4160,0.08,0.14,-0.98,3.23,3.66,2.01
0.4300,0.08,0.14,-0.98,3.11,3.60,1.95
0.4340,0.08,0.14,-0.98,3.11,3.66,2.08
0.4600,0.08,0.14,-0.98,3.23,3.66,1.95
0.4670,0.08,0.14,-0.98,3.17,3.85,1.89
0.4910,0.08,0.14,-0.98,3.05,3.91,2.01
0.5010,0.08,0.14,-0.98,3.05,3.91,1.95
0.5160,0.08,0.14,-0.98,3.23,3.72,1.89
0.5340,0.08,0.14,-0.98,3.05,3.85,1.89
0.5510,0.08,0.14,-0.98,3.23,3.30,1.95
0.5660,0.08,0.14,-0.98,2.93,3.78,1.95
0.5810,0.08,0.14,-0.98,3.23,3.60,2.08
0.5960,0.08,0.14,-0.98,3.11,3.72,1.95
0.6000,0.08,0.14,-0.98,3.05,3.85,1.95
0.6180,0.08,0.14,-0.98,3.05,3.91,1.95
0.6410,0.08,0.14,-0.98,3.30,3.78,1.95
0.6570,0.08,0.14,-0.98,3.17,3.78,1.89
0.6660,0.08,0.14,-0.98,2.99,4.03,2.01
0.6830,0.08,0.14,-0.98,3.05,3.78,1.95
0.7000,0.08,0.14,-0.98,3.11,3.78,1.95
0.7170,0.08,0.14,-0.98,3.05,3.72,2.01
0.7310,0.08,0.13,-0.98,3.05,3.66,1.89
0.7470,0.08,0.14,-0.98,3.23,3.66,1.89
0.7610,0.08,0.14,-0.98,2.99,3.60,1.89
0.7760,0.08,0.14,-0.98,3.17,3.60,1.95
0.7920,0.08,0.14,-0.98,3.05,3.48,1.89
0.8000,0.08,0.14,-0.98,3.23,3.97,2.01
0.8170,0.08,0.14,-0.98,3.05,3.54,1.89
0.8340,0.08,0.14,-0.98,3.05,3.85,1.95
0.8490,0.08,0.14,-0.98,3.17,3.85,2.14
0.8670,0.08,0.14,-0.98,2.87,3.78,2.01
0.8670,0.08,0.14,-0.98,3.17,3.60,2.01
0.8970,0.08,0.14,-0.98,2.99,3.91,2.14
0.9120,0.08,0.14,-0.98,3.05,3.48,1.95
0.9270,0.08,0.14,-0.98,3.05,3.72,1.95
0.9430,0.08,0.14,-0.98,3.05,3.60,1.83
0.9590,0.08,0.14,-0.98,3.17,3.66,1.95
0.9670,0.08,0.14,-0.98,3.17,3.54,2.01
0.9840,0.08,0.14,-0.98,2.99,3.60,1.89
1.0000,0.08,0.14,-0.98,3.17,3.72,1.89
1.0180,0.08,0.14,-0.98,3.23,3.78,1.95
1.0330,0.08,0.14,-0.98,2.99,3.60,2.01
1.0500,0.08,0.14,-0.98,3.05,3.91,2.08
1.0640,0.08,0.14,-0.98,3.05,3.60,1.89
1.0790,0.08,0.14,-0.98,3.23,3.48,1.83
1.0940,0.08,0.14,-0.98,2.93,3.54,2.01
1.1100,0.08,0.14,-0.98,3.11,3.91,2.08
1.1240,0.08,0.14,-0.98,3.05,3.85,1.83
1.1340,0.08,0.14,-0.98,3.05,3.91,2.14
1.1530,0.08,0.14,-0.98,2.99,3.85,2.01
1.1670,0.08,0.14,-0.98,3.30,3.85,2.01
1.1830,0.08,0.14,-0.98,3.05,3.78,1.89
1.2000,0.08,0.14,-0.98,3.05,3.30,1.95
1.2000,0.08,0.14,-0.98,3.23,3.78,1.95
1.2170,0.08,0.14,-0.98,3.05,3.60,2.01
1.2450,0.08,0.14,-0.98,2.99,3.54,1.83
1.2610,0.08,0.14,-0.98,2.99,3.48,1.95
1.2750,0.08,0.14,-0.98,3.30,3.72,2.08
1.2900,0.08,0.14,-0.98,3.17,3.48,2.08
1.2990,0.08,0.14,-0.98,2.93,3.54,2.14
1.3160,0.08,0.14,-0.98,2.93,3.36,1.95
1.3330,0.08,0.14,-0.98,3.05,3.85,1.95
1.3500,0.08,0.14,-0.98,3.23,3.66,2.01
1.3530,0.08,0.14,-0.98,3.17,4.03,1.95
1.3800,0.08,0.14,-0.98,2.99,3.78,1.95
1.3950,0.08,0.14,-0.98,3.11,3.48,2.08
1.4100,0.08,0.14,-0.98,3.05,3.72,1.89
1.4250,0.08,0.14,-0.98,3.05,3.48,1.95
1.4400,0.08,0.14,-0.98,2.81,3.60,1.89
1.4550,0.08,0.14,-0.98,3.17,3.72,1.89
1.4670,0.08,0.14,-0.98,2.93,3.72,1.95
1.4840,0.08,0.14,-0.98,3.11,3.48,1.89
1.4990,0.08,0.14,-0.98,3.05,3.78,1.95
1.5150,0.08,0.14,-0.98,3.11,3.91,1.77
1.5300,0.08,0.14,-0.98,3.05,3.85,1.89
1.5330,0.08,0.14,-0.98,3.11,3.85,2.01
1.5600,0.08,0.14,-0.98,3.05,4.33,2.01
1.5750,0.08,0.14,-0.98,2.99,4.03,1.89
1.5910,0.08,0.14,-0.98,2.99,3.85,2.08
1.6010,0.08,0.14,-0.98,3.23,3.60,1.95
1.6170,0.08,0.14,-0.98,3.30,3.85,1.95
1.6330,0.08,0.14,-0.98,3.23,3.85,1.95
1.6500,0.08,0.14,-0.98,2.99,3.91,1.95
1.6540,0.08,0.14,-0.98,2.93,3.72,1.83
1.6800,0.08,0.14,-0.98,3.05,3.91,2.01
1.6840,0.08,0.14,-0.98,3.17,3.54,1.89
1.7110,0.08,0.14,-0.98,3.05,3.91,1.83
1.7250,0.08,0.14,-0.98,3.17,3.54,1.95
1.7420,0.08,0.14,-0.98,3.05,3.72,2.01
1.7540,0.08,0.14,-0.98,3.36,3.91,1.89
1.7670,0.08,0.14,-0.98,3.30,3.60,1.89
1.7830,0.08,0.14,-0.98,3.05,3.54,2.01
1.8000,0.08,0.14,-0.98,2.93,3.66,1.83
1.8160,0.08,0.14,-0.98,2.87,3.78,1.95
1.8170,0.08,0.14,-0.98,3.17,3.54,1.89
1.8460,0.08,0.14,-0.98,3.11,3.78,1.95
1.8610,0.08,0.14,-0.98,3.17,3.85,1.95
1.8760,0.08,0.14,-0.98,3.11,3.54,2.01
1.8910,0.08,0.14,-0.98,3.05,3.66,2.01
1.9060,0.08,0.14,-0.98,3.11,3.78,1.95
1.9170,0.08,0.14,-0.98,3.05,3.78,1.83
1.9320,0.08,0.14,-0.98,3.17,3.66,2.08
1.9500,0.08,0.14,-0.98,3.17,3.48,2.01
1.9670,0.08,0.14,-0.98,2.99,3.48,1.95
1.9810,0.08,0.14,-0.98,3.05,3.42,2.01
1.9960,0.08,0.14,-0.98,3.05,3.85,2.01
2.0110,0.08,0.14,-0.98,3.11,4.03,2.01
2.0270,0.08,0.14,-0.98,3.05,3.66,1.95
2.0410,0.08,0.14,-0.98,3.11,3.97,1.89
2.0550,0.08,0.14,-0.98,3.05,3.85,1.95
2.0670,0.08,0.14,-0.98,2.93,3.48,2.08
2.0850,0.08,0.14,-0.98,3.17,3.85,1.95
2.1000,0.08,0.14,-0.98,2.99,3.60,1.77
2.1170,0.08,0.14,-0.98,3.11,3.48,1.83
2.1330,0.08,0.14,-0.98,3.23,3.54,2.01
2.1470,0.08,0.14,-0.98,3.11,3.54,2.01
2.1620,0.08,0.14,-0.98,3.11,3.85,1.89
2.1770,0.08,0.14,-0.98,3.17,3.66,1.83
2.1920,0.08,0.14,-0.98,3.11,3.42,1.95
2.2000,0.08,0.14,-0.98,3.11,3.48,1.89
2.2220,0.08,0.14,-0.98,3.11,3.60,2.01
2.2330,0.08,0.14,-0.98,3.17,3.60,2.01
2.2500,0.08,0.14,-0.98,3.05,3.91,2.01
2.2660,0.08,0.14,-0.98,3.05,3.60,2.01
2.2820,0.08,0.14,-0.98,2.99,3.72,1.95
2.2980,0.08,0.14,-0.98,3.11,3.72,1.95
2.3120,0.08,0.14,-0.98,3.05,3.78,1.89
2.3280,0.08,0.14,-0.98,3.23,3.60,1.77
2.3440,0.08,0.14,-0.98,3.11,3.66,1.71
2.3590,0.07,0.14,-0.98,3.17,3.72,1.59
2.3670,0.07,0.14,-0.98,3.17,3.54,1.04
2.3850,0.07,0.14,-0.98,3.17,3.91,0.98
2.4000,0.08,0.14,-0.98,3.17,3.85,0.79
2.4170,0.07,0.14,-0.98,3.30,3.91,0.79
2.4330,0.08,0.14,-0.98,3.23,4.09,0.67
2.4490,0.08,0.13,-0.98,3.17,3.42,0.67
2.4630,0.07,0.13,-0.99,3.11,3.78,0.85
2.4790,0.08,0.14,-0.98,2.93,3.85,0.67
2.4940,0.08,0.14,-0.98,2.75,3.72,0.79
2.5010,0.08,0.14,-0.98,2.87,3.72,1.04
2.5230,0.08,0.14,-0.99,3.30,3.78,1.22
2.5340,0.08,0.14,-0.98,3.05,3.78,1.22
2.5510,0.08,0.14,-0.98,3.11,3.54,1.28
2.5670,0.08,0.14,-0.98,2.99,3.54,1.40
2.5830,0.08,0.13,-0.98,2.75,3.91,1.46
2.5980,0.08,0.13,-0.98,3.11,4.09,1.65
2.6140,0.08,0.13,-0.98,3.42,3.78,1.95
2.6280,0.08,0.14,-0.98,3.78,3.85,1.95
2.6430,0.08,0.14,-0.98,3.60,3.91,1.89
2.6580,0.08,0.14,-0.98,3.36,3.78,1.95
2.6670,0.08,0.14,-0.98,2.93,3.78,1.89
2.6840,0.08,0.14,-0.98,2.93,3.91,1.89
2.7010,0.08,0.14,-0.98,3.05,3.78,2.08
2.7170,0.08,0.14,-0.98,2.87,3.60,1.89
2.7330,0.08,0.14,-0.98,2.99,3.72,1.77
2.7330,0.08,0.14,-0.98,2.99,3.66,1.95
2.7640,0.08,0.14,-0.98,2.99,3.36,1.95
2.7780,0.08,0.14,-0.98,3.17,3.85,1.95
2.7840,0.08,0.14,-0.98,2.87,3.66,1.89
2.8080,0.08,0.14,-0.98,2.93,3.97,1.89
2.8250,0.08,0.14,-0.98,3.05,3.54,1.95
2.8340,0.08,0.14,-0.98,3.23,3.54,2.01
2.8510,0.08,0.14,-0.98,3.05,3.78,1.89
2.8670,0.08,0.14,-0.98,2.99,3.85,2.14
2.8830,0.08,0.14,-0.98,2.99,3.54,2.01
2.9000,0.08,0.14,-0.98,3.11,4.03,2.01
2.9160,0.08,0.14,-0.98,2.93,3.48,2.01
2.9300,0.08,0.14,-0.98,3.11,3.66,2.08
2.9450,0.08,0.14,-0.98,3.30,3.66,1.83
2.9560,0.08,0.14,-0.98,2.93,3.85,2.01
2.9670,0.08,0.14,-0.98,2.99,3.97,2.08
2.9840,0.08,0.13,-0.98,2.75,3.78,1.95
3.0000,0.08,0.14,-0.98,2.81,3.54,2.08
3.0170,0.08,0.14,-0.98,2.62,3.66,2.08
3.0330,0.08,0.14,-0.98,2.50,3.66,1.95
3.0500,0.08,0.14,-0.98,2.56,3.60,2.01
3.0650,0.08,0.13,-0.98,2.87,3.78,2.08
3.0670,0.08,0.13,-0.98,3.17,3.60,1.95
3.0950,0.08,0.14,-0.98,3.54,3.60,2.08
3.1100,0.08,0.14,-0.98,3.48,3.78,1.95
3.1260,0.08,0.14,-0.98,3.23,3.72,2.14
3.1410,0.08,0.14,-0.98,2.93,3.91,1.89
3.1560,0.08,0.14,-0.98,2.87,3.66,1.83
3.1710,0.08,0.14,-0.98,2.56,3.48,2.01
3.1830,0.08,0.14,-0.98,3.05,3.66,2.69
3.2000,0.08,0.13,-0.98,3.05,3.66,2.81
3.2160,0.08,0.13,-0.98,3.17,3.78,2.62
3.2310,0.08,0.13,-0.98,3.42,3.66,2.01
3.2470,0.08,0.14,-0.98,3.36,3.72,1.95
3.2610,0.08,0.14,-0.98,3.17,3.97,1.89
3.2760,0.08,0.14,-0.98,3.36,3.60,1.95
3.2910,0.08,0.13,-0.98,3.17,4.03,2.08
3.3010,0.08,0.14,-0.98,3.11,3.78,1.83
3.3180,0.08,0.14,-0.98,3.05,3.78,2.08
3.3340,0.08,0.14,-0.98,3.36,3.85,2.08
3.3500,0.08,0.14,-0.98,3.72,3.60,2.01
3.3660,0.08,0.14,-0.98,3.42,3.60,2.08
3.3670,0.08,0.14,-0.98,3.17,3.60,1.89
3.3840,0.08,0.14,-0.98,3.11,3.78,2.01
3.4000,0.08,0.14,-0.98,3.05,3.60,2.01
3.4260,0.08,0.14,-0.98,2.75,4.03,2.14
3.4340,0.08,0.14,-0.98,3.05,3.42,2.01
3.4560,0.08,0.14,-0.98,2.99,3.85,1.89
3.4670,0.08,0.14,-0.98,2.99,3.72,1.95
3.4830,0.08,0.14,-0.98,3.05,3.60,1.89
3.5000,0.08,0.14,-0.98,3.05,3.91,1.95
3.5160,0.08,0.14,-0.98,3.17,3.60,1.95
3.5310,0.08,0.14,-0.98,3.17,4.03,1.95
3.5470,0.08,0.14,-0.98,2.69,3.97,2.01
3.5620,0.08,0.14,-0.98,2.93,4.09,2.08
3.5760,0.09,0.13,-0.98,2.75,3.91,2.26
3.5920,0.08,0.14,-0.98,2.93,3.48,2.81
3.6070,0.08,0.14,-0.98,2.81,3.72,2.87
3.6160,0.08,0.14,-0.98,2.87,3.48,2.87
3.6340,0.08,0.14,-0.98,2.87,3.85,2.99
3.6500,0.08,0.14,-0.98,2.62,3.42,3.11
3.6680,0.07,0.13,-0.98,2.99,3.85,2.93
3.6680,0.09,0.14,-0.98,3.11,3.54,2.87
3.6830,0.08,0.14,-0.98,3.11,3.54,3.23
3.7010,0.08,0.14,-0.98,2.93,3.54,3.05
3.7270,0.08,0.14,-0.98,2.93,3.66,2.81
3.7340,0.08,0.14,-0.98,2.93,3.91,2.50
3.7570,0.08,0.14,-0.98,2.93,3.60,2.44
3.7660,0.08,0.14,-0.98,2.87,3.48,2.50
3.7850,0.08,0.14,-0.98,2.81,3.72,2.50
3.7990,0.08,0.13,-0.98,2.99,3.66,2.32
3.8170,0.08,0.13,-0.98,2.69,3.72,2.14
3.8320,0.08,0.13,-0.98,2.93,3.85,2.08
3.8480,0.08,0.14,-0.98,2.81,3.91,2.20
3.8570,0.08,0.14,-0.98,2.99,3.42,2.38
3.8670,0.08,0.14,-0.98,2.75,3.66,2.69
3.8920,0.08,0.14,-0.98,3.05,3.36,2.81
3.9080,0.08,0.14,-0.98,2.87,3.66,3.11
3.9230,0.08,0.14,-0.98,2.87,3.42,2.99
3.9330,0.08,0.14,-0.98,2.99,3.60,3.30
3.9500,0.08,0.13,-0.98,2.93,3.23,3.48
3.9670,0.08,0.13,-0.98,2.93,3.30,3.05
3.9830,0.08,0.14,-0.98,3.11,3.48,2.75
3.9830,0.08,0.14,-0.98,3.17,3.54,3.23
4.0130,0.08,0.13,-0.98,2.75,3.36,3.72
4.0170,0.08,0.14,-0.98,2.75,3.48,2.87
4.0440,0.08,0.14,-0.98,2.93,3.54,3.11
4.0590,0.08,0.13,-0.98,2.81,3.66,3.36
4.0730,0.08,0.14,-0.98,2.93,3.48,3.11
4.0830,0.08,0.14,-0.98,2.75,3.72,3.85
4.1000,0.08,0.14,-0.98,2.87,3.66,4.33
4.1170,0.08,0.14,-0.98,2.62,3.54,4.52
4.1330,0.08,0.13,-0.98,2.87,3.54,4.15
4.1480,0.08,0.13,-0.98,2.87,3.91,3.30
4.1630,0.08,0.14,-0.98,2.87,3.66,2.69
4.1670,0.08,0.13,-0.98,3.17,3.78,2.93
4.1940,0.08,0.13,-0.98,2.99,3.78,3.05
4.2010,0.08,0.13,-0.98,3.17,3.91,2.20
4.2170,0.08,0.14,-0.98,2.93,3.85,2.01
4.2330,0.08,0.14,-0.98,2.99,3.78,1.95
4.2510,0.08,0.14,-0.98,2.93,3.85,2.08
4.2670,0.08,0.14,-0.98,2.81,3.91,2.20
4.2840,0.08,0.13,-0.98,3.05,3.78,2.32
4.2990,0.08,0.14,-0.98,2.87,3.85,2.62
4.3160,0.08,0.13,-0.98,2.99,3.60,2.62
4.3320,0.08,0.13,-0.98,2.87,3.91,2.14
4.3330,0.08,0.14,-0.98,2.99,3.91,2.14
4.3580,0.08,0.14,-0.98,2.99,3.60,2.01
4.3770,0.08,0.14,-0.98,3.05,3.72,2.08
4.3920,0.08,0.14,-0.98,2.99,3.85,2.14
4.4080,0.08,0.13,-0.98,3.17,3.66,2.20
4.4170,0.08,0.13,-0.98,2.81,3.66,2.08
4.4330,0.08,0.14,-0.98,2.75,3.66,1.89
4.4500,0.08,0.14,-0.98,2.75,3.91,2.26
4.4680,0.08,0.14,-0.98,3.11,3.54,2.56
4.4820,0.08,0.14,-0.98,2.99,3.42,3.11
4.4840,0.08,0.13,-0.99,3.05,3.78,2.56
4.5120,0.08,0.13,-0.98,3.05,3.85,2.08
4.5270,0.08,0.14,-0.98,2.93,3.78,2.08
4.5420,0.08,0.14,-0.98,2.87,3.97,2.20
4.5500,0.08,0.14,-0.98,2.87,3.66,2.93
4.5680,0.08,0.13,-0.98,2.87,3.85,2.93
4.5840,0.08,0.13,-0.98,2.87,3.78,2.56
4.5990,0.08,0.13,-0.98,2.99,3.72,2.14
4.6170,0.08,0.14,-0.98,2.81,3.85,1.95
4.6320,0.08,0.14,-0.98,2.81,3.42,2.08
4.6340,0.08,0.14,-0.98,2.99,3.60,2.08
4.6580,0.08,0.14,-0.98,3.05,3.60,2.38
4.6680,0.08,0.13,-0.98,2.99,3.85,2.38
4.6850,0.08,0.14,-0.98,2.75,3.72,2.14
4.7070,0.08,0.14,-0.98,2.99,3.36,2.50
4.7220,0.08,0.14,-0.98,2.87,3.78,2.26
4.7330,0.08,0.14,-0.98,2.87,3.48,3.11
4.7510,0.08,0.13,-0.98,2.69,3.42,3.54
4.7660,0.08,0.13,-0.98,2.81,3.54,3.30
4.7820,0.08,0.13,-0.98,2.75,3.91,3.36
4.7980,0.08,0.13,-0.98,2.81,3.54,2.93
4.8120,0.08,0.13,-0.98,2.99,3.85,2.69
4.8270,0.08,0.13,-0.98,2.93,3.78,2.44
4.8420,0.08,0.14,-0.98,2.87,3.91,2.32
4.8500,0.08,0.14,-0.98,2.99,3.85,2.38
4.8720,0.08,0.14,-0.98,2.87,3.48,2.69
4.8840,0.08,0.14,-0.98,2.75,3.78,2.69
4.9000,0.08,0.14,-0.98,2.87,3.72,2.93
4.9160,0.08,0.14,-0.98,2.93,3.60,3.36
4.9320,0.08,0.14,-0.98,2.93,3.60,3.42
4.9340,0.08,0.13,-0.99,2.87,3.72,3.48
4.9620,0.08,0.13,-0.98,2.69,3.60,2.87
4.9770,0.08,0.13,-0.98,2.69,3.60,2.75
4.9920,0.08,0.13,-0.98,2.81,3.60,2.62
5.0070,0.08,0.14,-0.98,2.99,3.60,2.69
5.0220,0.08,0.14,-0.98,2.81,3.66,2.93
5.0330,0.08,0.14,-0.98,2.75,3.72,3.23
5.0500,0.08,0.13,-0.98,2.87,3.78,3.30
5.0670,0.08,0.14,-0.98,2.75,3.72,3.36
5.0820,0.07,0.13,-0.98,2.93,3.66,3.17
5.0980,0.08,0.13,-0.98,2.87,3.72,3.11
5.1000,0.08,0.14,-0.98,2.75,3.66,3.30
5.1270,0.08,0.14,-0.98,2.81,3.60,3.97
5.1420,0.08,0.13,-0.98,2.87,3.60,4.03
5.1510,0.08,0.13,-0.98,2.69,3.97,2.93
5.1660,0.08,0.13,-0.98,3.05,3.72,2.75
5.1850,0.08,0.13,-0.98,2.99,3.97,2.38
5.1990,0.08,0.13,-0.98,2.99,3.85,2.14
5.2170,0.08,0.14,-0.98,2.93,3.85,2.32
5.2320,0.08,0.14,-0.98,2.81,3.54,2.87
5.2470,0.08,0.14,-0.98,2.81,3.48,3.36
5.2620,0.08,0.14,-0.98,2.93,3.66,3.54
5.2670,0.08,0.14,-0.98,2.99,3.54,3.60
5.2930,0.08,0.13,-0.98,2.93,3.66,3.91
5.3000,0.08,0.13,-0.98,2.81,3.78,3.85
5.3180,0.08,0.13,-0.98,2.81,3.72,3.54
5.3340,0.08,0.13,-0.99,2.75,3.78,2.62
5.3490,0.08,0.14,-0.98,2.81,3.85,2.75
5.3660,0.08,0.14,-0.98,2.75,3.60,3.23
5.3830,0.08,0.14,-0.98,2.99,3.60,3.17
5.3980,0.08,0.14,-0.98,2.81,3.78,3.66
5.4130,0.08,0.13,-0.98,2.99,3.66,3.60
5.4280,0.08,0.13,-0.98,2.81,3.48,3.30
5.4430,0.08,0.13,-0.98,2.62,3.78,2.69
5.4580,0.08,0.13,-0.98,2.99,3.66,2.38
5.4670,0.08,0.14,-0.98,2.81,3.72,2.56
5.4840,0.08,0.14,-0.98,2.87,3.36,2.87
5.5000,0.08,0.14,-0.98,2.93,3.85,3.97
5.5170,0.08,0.13,-0.98,2.69,3.72,3.85
5.5340,0.08,0.13,-0.98,2.87,3.60,3.85
5.5490,0.08,0.13,-0.98,2.75,3.48,3.48
5.5590,0.08,0.13,-0.98,2.81,3.66,3.42
5.5790,0.08,0.13,-0.98,3.23,3.85,2.50
5.5940,0.08,0.13,-0.98,3.17,3.66,2.32
5.6090,0.08,0.13,-0.98,2.87,3.72,2.14
5.6240,0.08,0.14,-0.98,2.75,3.85,2.26
5.6390,0.08,0.14,-0.98,2.87,3.48,2.50
5.6510,0.08,0.13,-0.98,2.99,3.91,2.75
5.6660,0.08,0.13,-0.99,3.11,3.78,2.69
5.6830,0.08,0.13,-0.98,3.05,3.85,2.75
5.7010,0.08,0.14,-0.98,3.05,3.78,3.23
5.7160,0.08,0.14,-0.98,2.99,3.78,2.81
5.7310,0.08,0.13,-0.98,2.69,3.60,2.93
5.7330,0.08,0.13,-0.98,2.93,3.78,3.30
5.7610,0.08,0.14,-0.98,2.99,3.48,3.66
5.7770,0.08,0.13,-0.98,2.87,3.42,3.66
5.7910,0.08,0.13,-0.98,2.87,3.60,3.17
5.8010,0.08,0.14,-0.98,2.69,3.66,3.05
5.8160,0.07,0.13,-0.98,3.17,3.72,2.81
5.8340,0.08,0.13,-0.98,3.30,3.91,3.17
5.8500,0.08,0.13,-0.98,3.05,3.97,2.38
5.8660,0.08,0.13,-0.98,3.11,3.91,2.38
5.8810,0.08,0.14,-0.98,2.75,3.78,2.38
5.8960,0.08,0.14,-0.98,2.87,3.48,2.81
5.9110,0.08,0.13,-0.99,3.05,3.66,3.05
5.9170,0.07,0.13,-0.99,2.93,3.36,2.87
5.9340,0.08,0.13,-0.98,2.87,3.66,3.30
5.9520,0.08,0.13,-0.98,2.87,3.54,2.81
5.9660,0.08,0.13,-0.98,3.17,3.60,2.62
5.9850,0.08,0.13,-0.99,3.11,3.48,2.38
5.9990,0.08,0.14,-0.98,3.05,3.54,2.50
6.0160,0.08,0.14,-0.98,2.87,3.91,2.87
6.0310,0.08,0.13,-0.98,2.87,3.60,3.42
6.0340,0.08,0.13,-0.98,2.99,3.78,3.36
6.0610,0.08,0.13,-0.98,3.11,3.42,2.26
6.0760,0.07,0.13,-0.98,2.99,3.78,2.50
6.0840,0.08,0.13,-0.98,2.93,3.91,2.69
6.1010,0.08,0.13,-0.98,2.93,3.54,3.36
6.1170,0.08,0.13,-0.98,2.93,3.66,3.48
6.1330,0.08,0.13,-0.98,2.93,3.72,3.66
6.1500,0.08,0.13,-0.98,2.87,3.85,2.50
6.1660,0.08,0.14,-0.98,3.11,3.54,2.50
6.1810,0.08,0.14,-0.98,2.93,3.85,2.56
6.1960,0.08,0.14,-0.98,2.99,3.48,2.81
6.2110,0.08,0.13,-0.98,3.05,3.48,2.99
6.2260,0.08,0.13,-0.98,2.99,3.48,3.23
6.2340,0.07,0.13,-0.98,2.93,3.72,3.54
6.2490,0.08,0.13,-0.99,2.93,3.66,3.97
6.2660,0.08,0.13,-0.98,2.87,3.66,3.54
6.2830,0.08,0.13,-0.98,2.62,3.54,2.93
6.3000,0.08,0.13,-0.98,2.87,3.78,2.99
6.3160,0.08,0.13,-0.98,2.69,3.72,2.87
6.3170,0.08,0.14,-0.98,2.69,3.91,3.11
6.3330,0.08,0.14,-0.98,2.69,3.85,3.36
6.3620,0.08,0.14,-0.98,2.99,3.66,4.09
6.3670,0.08,0.12,-0.98,2.81,3.48,3.85
6.3930,0.08,0.13,-0.98,2.56,3.66,3.30
6.4070,0.08,0.13,-0.98,2.69,3.36,2.99
6.4220,0.07,0.13,-0.98,2.69,3.97,2.99
6.4340,0.08,0.14,-0.98,2.69,3.72,3.23
6.4500,0.07,0.13,-0.98,2.99,3.54,3.78
6.4670,0.08,0.13,-0.99,2.75,3.54,4.09
6.4670,0.08,0.12,-0.99,2.99,3.78,3.05
6.4970,0.08,0.13,-0.98,2.56,3.85,2.99
6.5000,0.08,0.14,-0.98,2.87,3.72,2.75
6.5270,0.08,0.13,-0.98,2.93,3.85,3.11
6.5330,0.08,0.13,-0.98,2.99,3.91,2.81
6.5500,0.08,0.13,-0.98,2.93,4.09,3.11
6.5670,0.08,0.13,-0.98,3.17,3.97,2.38
6.5850,0.08,0.13,-0.98,2.93,4.03,2.20
6.6010,0.08,0.13,-0.98,3.17,3.72,2.01
6.6160,0.08,0.13,-0.98,3.11,3.97,2.08
6.6320,0.08,0.13,-0.98,2.93,3.85,2.08
6.6340,0.08,0.14,-0.98,3.05,3.66,2.14
6.6600,0.08,0.14,-0.98,3.05,3.85,2.38
6.6770,0.08,0.13,-0.98,3.23,3.78,2.75
6.6920,0.08,0.13,-0.98,3.05,3.85,2.62
6.7080,0.08,0.13,-0.98,2.87,3.78,2.75
6.7170,0.08,0.13,-0.98,2.87,3.54,2.44
6.7340,0.08,0.13,-0.98,2.99,4.03,2.38
6.7500,0.08,0.13,-0.98,3.11,3.72,2.14
6.7680,0.07,0.14,-0.98,2.99,3.78,3.05
6.7820,0.08,0.14,-0.98,2.81,3.72,3.66
6.7980,0.07,0.13,-0.98,3.11,3.54,3.42
6.8130,0.08,0.13,-0.98,2.69,3.72,3.48
6.8280,0.08,0.13,-0.98,3.11,3.54,3.85
6.8430,0.08,0.13,-0.99,3.23,3.60,3.72
6.8580,0.08,0.13,-0.98,2.81,3.54,2.81
6.8670,0.08,0.14,-0.98,2.75,3.42,2.99
6.8830,0.08,0.14,-0.99,2.75,3.54,3.42
6.9010,0.08,0.14,-0.98,2.99,3.60,4.09
6.9160,0.08,0.13,-0.98,2.87,3.60,4.15
6.9320,0.08,0.13,-0.98,2.99,3.66,3.11
6.9480,0.07,0.13,-0.98,3.05,3.54,2.62
6.9600,0.07,0.12,-0.98,3.11,3.72,2.32
6.9780,0.07,0.13,-0.99,2.99,3.66,2.26
6.9930,0.08,0.14,-0.98,3.11,3.78,2.32
7.0080,0.08,0.14,-0.98,2.81,3.48,2.69
7.0180,0.08,0.13,-0.98,2.99,3.78,2.99
7.0340,0.08,0.13,-0.99,3.42,3.48,2.44
7.0510,0.08,0.13,-0.99,3.23,3.72,2.20
7.0670,0.08,0.13,-0.98,3.05,3.78,2.01
7.0830,0.07,0.13,-0.98,3.17,3.85,2.38
7.0980,0.08,0.14,-0.98,2.87,3.66,3.11
7.1010,0.08,0.13,-0.98,2.81,3.97,2.75
7.1280,0.08,0.13,-0.98,3.05,3.78,2.87
7.1340,0.07,0.13,-0.99,2.81,3.97,2.26
7.1580,0.08,0.14,-0.98,2.87,3.60,2.14
7.1740,0.08,0.13,-0.98,2.87,3.78,2.69
7.1840,0.08,0.13,-0.98,3.23,3.36,2.56
7.2010,0.08,0.13,-0.98,3.17,3.54,2.87
7.2170,0.07,0.13,-0.99,2.93,3.97,2.50
7.2330,0.08,0.13,-0.98,2.93,3.85,2.32
7.2500,0.08,0.13,-0.98,2.69,3.85,2.56
7.2660,0.08,0.13,-0.98,3.11,3.36,2.81
7.2830,0.08,0.13,-0.99,3.36,3.30,2.69
7.2990,0.08,0.14,-0.98,2.75,3.66,3.17
7.3150,0.08,0.13,-0.98,2.87,3.72,2.93
7.3300,0.08,0.13,-0.98,2.99,3.60,2.81
7.3460,0.07,0.13,-0.98,3.05,3.78,2.99
7.3610,0.08,0.14,-0.98,2.75,3.66,3.42
7.3670,0.08,0.13,-0.99,2.62,3.60,4.09
7.3820,0.08,0.13,-0.98,2.62,3.60,3.78
7.4030,0.08,0.13,-0.98,2.75,3.72,3.72
7.4200,0.08,0.13,-0.98,2.93,3.30,3.54
7.4370,0.07,0.12,-0.98,3.05,3.54,3.23
7.4520,0.07,0.13,-0.99,2.99,3.85,2.87
7.4700,0.08,0.13,-0.98,2.87,3.72,2.69
7.4860,0.08,0.14,-0.98,2.56,3.42,2.69
7.4870,0.08,0.14,-0.98,2.93,3.42,3.05
7.5170,0.07,0.14,-0.98,2.93,3.17,3.36
7.5330,0.08,0.13,-0.99,2.75,3.36,4.09
7.5480,0.07,0.13,-0.98,2.56,3.85,3.78
7.5640,0.07,0.13,-0.98,2.87,3.60,3.23
7.5700,0.07,0.13,-0.99,2.69,3.36,3.30
7.5850,0.07,0.13,-0.99,2.69,3.72,3.05
7.6080,0.08,0.13,-0.98,2.56,3.42,2.99
7.6240,0.08,0.13,-0.98,2.56,3.42,3.11
7.6410,0.08,0.13,-0.98,2.56,3.42,3.48
7.6550,0.07,0.13,-0.98,2.62,3.66,3.23
7.6720,0.08,0.12,-0.98,2.44,3.72,3.30
7.6880,0.08,0.13,-0.98,2.50,3.54,2.93
7.7040,0.08,0.13,-0.98,2.62,3.54,3.11
7.7190,0.07,0.13,-0.98,2.50,3.54,3.11
7.7330,0.07,0.13,-0.98,2.44,3.78,3.17
7.7480,0.08,0.13,-0.99,2.14,3.91,3.36
7.7610,0.07,0.13,-0.98,2.01,3.85,3.48
7.7730,0.07,0.13,-0.99,2.32,3.54,3.85
7.7930,0.08,0.12,-0.98,2.20,3.66,3.72
7.8080,0.07,0.13,-0.99,2.50,3.66,3.17
8.8820,0.08,0.13,-0.99,2.44,4.03,3.11
8.8820,0.08,0.13,-0.98,2.50,3.78,2.99
8.8820,0.08,0.15,-0.98,2.75,3.66,2.87
8.8820,0.08,0.13,-0.99,2.69,3.72,2.69
8.8820,0.08,0.13,-0.98,2.56,4.03,2.50
8.8820,0.08,0.13,-0.99,2.75,3.78,2.44
8.8820,0.07,0.13,-0.98,2.93,3.85,2.20
8.8870,0.07,0.13,-0.98,3.23,3.36,2.20
8.8870,0.07,0.13,-0.99,2.99,3.91,2.32
8.8870,0.07,0.13,-0.98,2.69,3.78,2.75
8.8880,0.08,0.12,-0.99,3.17,4.03,2.50
8.8880,0.07,0.12,-0.99,2.99,3.85,2.20
8.8880,0.07,0.13,-0.98,3.36,3.60,1.89
8.8890,0.08,0.13,-0.98,3.36,3.78,1.95
8.8890,0.08,0.14,-0.98,3.17,3.78,2.32
8.8890,0.07,0.13,-0.99,3.66,3.23,2.69
8.8900,0.07,0.13,-0.98,3.36,3.42,2.75
8.8900,0.07,0.13,-0.98,3.11,3.60,2.75
8.8900,0.07,0.13,-0.98,3.23,3.42,3.17
8.8900,0.07,0.13,-0.98,3.17,3.36,3.54
8.8910,0.08,0.13,-0.98,3.36,3.30,4.58
8.8910,0.08,0.13,-0.99,3.36,3.48,4.64
8.8910,0.07,0.12,-0.99,3.11,3.60,4.27
8.8910,0.07,0.13,-0.99,2.81,3.42,4.03
8.8920,0.07,0.12,-0.98,2.81,3.54,3.66
8.8920,0.07,0.12,-0.99,2.69,3.36,3.54
8.8920,0.07,0.12,-0.99,2.87,3.54,3.11
8.8930,0.07,0.12,-0.98,2.87,3.66,2.81
8.8930,0.08,0.13,-0.98,2.56,3.54,2.62
8.8930,0.08,0.14,-0.98,2.81,3.85,2.81
8.8940,0.07,0.13,-0.98,2.69,3.85,3.36
8.8940,0.07,0.13,-0.98,2.81,3.66,3.11
8.8940,0.07,0.13,-0.98,2.81,3.72,3.72
8.8950,0.07,0.12,-0.99,2.75,3.85,3.66
8.8950,0.07,0.12,-0.99,2.75,3.36,3.11
8.8950,0.07,0.12,-0.99,2.87,3.85,2.69
8.8950,0.07,0.13,-0.99,2.75,3.66,2.56
8.8950,0.07,0.13,-0.98,2.56,3.66,2.81
8.8960,0.07,0.13,-0.98,2.32,3.97,3.42
8.8960,0.07,0.12,-0.98,2.50,4.03,3.85
8.8960,0.07,0.12,-0.98,2.62,3.72,3.23
8.8960,0.07,0.12,-0.98,2.87,3.48,2.81
8.8970,0.07,0.13,-0.98,2.75,3.60,2.99
8.8970,0.07,0.13,-0.98,2.62,3.30,2.99
8.8970,0.07,0.12,-0.98,2.87,3.78,2.93
8.8980,0.07,0.13,-0.99,3.05,3.54,2.75
8.8980,0.07,0.13,-0.98,2.93,3.78,2.69
8.8980,0.07,0.13,-0.98,2.62,3.72,3.05
8.8990,0.07,0.13,-0.99,2.44,3.72,3.23
8.8990,0.08,0.13,-0.99,2.14,3.97,3.17
8.8990,0.07,0.13,-0.98,1.95,4.03,3.36
8.8990,0.07,0.13,-0.98,2.08,3.78,3.23
8.8990,0.07,0.12,-0.98,2.69,3.66,3.30
8.8990,0.07,0.12,-0.99,2.81,3.78,2.93
8.8990,0.07,0.12,-0.99,2.93,3.36,2.81
8.8990,0.07,0.13,-0.98,3.11,3.60,2.14
8.8990,0.07,0.13,-0.98,3.11,3.97,2.56
8.8990,0.07,0.12,-0.99,3.30,3.78,2.56
8.8990,0.08,0.13,-0.99,3.36,3.91,2.75
8.8990,0.07,0.12,-0.98,2.81,3.85,3.05
8.8990,0.07,0.12,-0.99,2.93,4.09,2.75
8.8990,0.07,0.12,-0.98,2.62,3.60,2.87
8.8990,0.08,0.13,-0.99,2.56,3.72,3.17
8.8990,0.07,0.13,-0.98,2.75,3.78,3.17
8.8990,0.07,0.13,-0.98,2.93,3.54,3.42
8.8990,0.07,0.13,-0.98,2.87,3.60,3.48
8.8990,0.07,0.13,-0.99,3.05,3.72,3.60
8.8990,0.07,0.12,-0.98,2.81,3.85,3.72
8.9140,0.07,0.12,-0.99,3.05,3.54,3.66
8.9160,0.07,0.12,-0.98,2.99,3.42,3.48
8.9430,0.07,0.12,-0.99,3.11,3.23,2.99
8.9590,0.07,0.14,-0.99,2.32,3.48,3.11
8.9650,0.07,0.13,-0.99,2.20,4.03,4.27
8.9830,0.08,0.13,-0.98,2.14,3.85,4.82
8.9990,0.08,0.12,-0.98,2.50,3.48,5.31
9.0150,0.07,0.12,-0.98,2.50,3.60,5.37
9.0320,0.07,0.12,-0.99,2.93,3.05,4.70
9.0490,0.07,0.12,-0.98,2.56,3.60,4.46
9.0640,0.08,0.12,-0.99,2.69,3.60,4.46
9.0670,0.07,0.12,-0.99,2.56,3.85,3.91
9.0930,0.07,0.12,-0.98,2.75,3.66,3.72
9.1090,0.08,0.12,-0.99,3.05,3.36,3.48
9.1160,0.07,0.12,-0.99,3.54,3.36,3.05
9.1390,0.07,0.12,-0.99,3.60,3.11,2.69
9.1480,0.07,0.12,-0.99,3.17,3.66,2.01
9.1670,0.07,0.12,-0.99,3.23,4.03,1.83
9.1820,0.07,0.13,-0.99,3.05,3.85,2.14
9.1980,0.07,0.12,-0.98,3.05,3.97,2.14
9.2140,0.07,0.12,-0.98,3.05,3.72,2.01
9.2290,0.07,0.12,-0.99,3.23,3.78,1.89
9.2440,0.07,0.12,-0.98,3.05,3.72,2.01
9.2480,0.07,0.12,-0.98,3.11,3.66,1.89
9.2730,0.07,0.12,-0.98,3.11,3.60,1.95
9.2890,0.07,0.13,-0.98,3.30,3.54,2.14
9.2990,0.07,0.12,-0.99,3.17,3.78,1.89
9.3160,0.07,0.13,-0.99,3.05,3.54,1.89
9.3330,0.07,0.12,-0.99,2.99,3.78,1.95
9.3480,0.07,0.12,-0.98,2.93,3.91,1.95
9.3630,0.07,0.13,-0.99,3.23,3.42,2.08
9.3790,0.07,0.12,-0.99,3.36,3.60,1.89
9.3950,0.07,0.13,-0.99,3.30,3.66,2.01
9.4090,0.07,0.12,-0.98,3.36,3.85,2.01
9.4240,0.07,0.13,-0.98,3.30,3.60,1.89
9.4400,0.07,0.12,-0.99,3.48,3.78,2.01
9.4550,0.07,0.12,-0.99,3.11,3.48,1.77
9.4700,0.07,0.12,-0.98,3.11,3.54,2.01
9.4820,0.07,0.12,-0.98,2.93,3.78,1.95
9.4980,0.07,0.12,-0.98,2.87,3.85,2.08
9.5160,0.07,0.12,-0.99,3.17,3.78,2.01
9.5310,0.08,0.13,-0.98,3.11,3.66,1.89
9.5480,0.08,0.13,-0.98,2.93,3.48,1.65
9.5630,0.07,0.13,-0.99,3.54,3.85,1.77
9.5800,0.07,0.13,-0.98,3.17,3.36,1.89
9.5940,0.07,0.13,-0.99,3.60,3.54,1.65
9.5990,0.07,0.13,-0.98,3.42,3.54,1.95
9.6140,0.07,0.12,-0.98,3.30,3.42,1.59
9.6350,0.07,0.12,-0.99,3.23,3.54,1.53
9.6510,0.07,0.12,-0.99,3.23,3.36,1.83
9.6680,0.07,0.12,-0.99,3.23,3.30,2.08
9.6840,0.07,0.12,-0.98,3.11,3.42,2.08
9.7010,0.08,0.13,-0.98,3.36,3.60,1.95
9.7170,0.07,0.13,-0.99,3.23,3.85,1.83
9.7340,0.08,0.13,-0.98,2.81,3.97,1.83
9.7490,0.07,0.13,-0.98,3.30,3.30,2.08
9.7650,0.07,0.12,-0.99,3.42,3.48,2.14
9.7810,0.07,0.12,-0.99,3.36,3.72,2.08
9.7850,0.07,0.12,-0.99,2.99,3.66,2.08
9.8110,0.07,0.13,-0.98,3.17,3.54,1.83
9.8170,0.07,0.13,-0.98,3.23,3.66,1.95
9.8330,0.07,0.13,-0.98,3.17,3.48,2.01
9.8550,0.07,0.12,-0.99,3.23,3.48,2.08
9.8720,0.07,0.13,-0.99,3.17,3.23,2.08
9.8880,0.07,0.13,-0.99,2.99,3.23,2.44
9.8900,0.08,0.13,-0.98,2.93,3.48,2.81
9.9190,0.07,0.13,-0.99,2.93,3.36,3.23
9.9230,0.07,0.12,-0.98,2.81,3.72,3.42
9.9500,0.07,0.12,-0.99,2.93,3.66,2.93
9.9650,0.07,0.12,-0.99,2.81,3.72,2.44
9.9730,0.07,0.13,-0.98,2.81,3.66,2.44
9.9880,0.07,0.13,-0.98,2.69,4.03,2.56
10.0080,0.07,0.13,-0.98,2.93,3.85,2.62
10.0250,0.07,0.13,-0.99,2.99,3.72,2.38
10.0400,0.07,0.13,-0.99,2.87,3.72,2.50
10.0560,0.07,0.13,-0.98,2.69,3.60,2.87
10.0720,0.07,0.13,-0.99,2.87,3.60,3.30
10.0870,0.07,0.12,-0.99,2.69,3.54,3.36
10.1030,0.07,0.12,-0.99,2.81,3.60,2.32
10.1190,0.07,0.13,-0.98,2.75,3.66,2.20
10.1340,0.07,0.13,-0.98,2.69,3.66,2.32
10.1480,0.07,0.13,-0.98,2.87,3.91,2.44
10.1620,0.08,0.13,-0.98,2.75,3.48,2.56
10.1750,0.07,0.13,-0.98,3.11,3.66,2.62
10.1900,0.07,0.13,-0.98,3.23,3.48,2.93
10.2090,0.07,0.12,-0.99,3.11,3.78,3.23
10.2100,0.07,0.12,-0.99,2.75,3.91,2.93
10.2400,0.07,0.12,-0.98,2.93,3.78,2.75
10.2560,0.07,0.12,-0.99,2.81,3.48,2.44
10.2710,0.08,0.13,-0.98,2.93,3.78,2.32
10.2870,0.07,0.13,-0.99,3.11,3.85,2.20
10.3030,0.07,0.13,-0.99,2.87,3.91,2.26
10.3180,0.07,0.13,-0.99,2.99,3.66,2.32
10.3340,0.07,0.13,-0.98,2.75,3.78,2.44
10.3490,0.07,0.13,-0.98,3.23,3.48,2.81
10.3620,0.07,0.12,-0.99,2.93,3.66,3.42
10.3760,0.07,0.12,-0.99,2.75,3.72,3.17
10.3950,0.07,0.12,-0.99,2.69,3.66,2.81
10.4100,0.07,0.12,-0.98,2.56,3.72,2.62
10.4170,0.07,0.12,-0.98,2.99,3.48,2.50
10.4320,0.07,0.12,-0.99,2.93,3.66,2.26
10.4500,0.07,0.12,-0.99,2.93,3.60,2.20
10.4670,0.07,0.12,-0.98,2.75,3.54,2.26
10.4840,0.07,0.13,-0.98,2.69,3.97,2.32
10.5010,0.07,0.13,-0.99,2.69,3.97,2.50
10.5170,0.07,0.13,-0.98,2.75,3.91,2.75
10.5330,0.07,0.12,-0.99,2.75,3.60,3.17
11.9270,0.07,0.12,-0.99,2.62,3.85,2.93
11.9270,0.07,0.12,-0.99,2.44,3.97,2.99
11.9270,0.07,0.13,-0.98,2.38,3.60,2.93
11.9280,0.07,0.13,-0.98,2.69,3.36,3.48
11.9280,0.07,0.13,-0.99,2.75,3.54,3.66
11.9280,0.07,0.13,-0.98,2.62,3.23,3.48
11.9280,0.07,0.12,-0.99,2.87,3.48,2.93
11.9280,0.07,0.12,-0.99,2.99,3.48,2.75
11.9290,0.07,0.12,-0.99,2.81,3.36,2.87
11.9290,0.08,0.12,-0.99,2.87,3.54,2.93
11.9290,0.08,0.12,-0.99,2.93,3.60,2.26
11.9290,0.08,0.12,-0.98,3.11,3.54,2.38
11.9290,0.08,0.12,-0.99,3.30,3.42,2.32
11.9300,0.08,0.12,-0.98,2.87,3.91,2.26
11.9300,0.08,0.12,-0.99,3.11,3.48,2.01
11.9300,0.07,0.12,-0.98,3.36,3.91,1.71
11.9310,0.07,0.12,-0.99,3.23,3.85,1.83
11.9310,0.07,0.13,-0.98,2.87,3.48,1.89
11.9320,0.07,0.13,-0.98,2.81,3.66,2.20
11.9320,0.07,0.13,-0.99,2.75,3.97,2.44
11.9320,0.07,0.12,-0.99,2.93,3.66,2.62
11.9320,0.07,0.12,-0.98,3.23,3.54,2.50
11.9320,0.07,0.12,-0.99,3.05,3.30,2.14
11.9330,0.08,0.12,-0.99,2.81,3.66,2.08
11.9330,0.07,0.12,-0.98,3.17,3.66,1.71
11.9330,0.07,0.13,-0.99,2.99,3.72,2.01
11.9330,0.07,0.13,-0.98,2.62,4.09,2.38
11.9340,0.07,0.12,-0.98,2.99,3.97,2.26
11.9340,0.07,0.13,-0.98,3.17,3.97,2.26
11.9340,0.07,0.12,-0.99,3.17,3.72,2.44
11.9340,0.07,0.12,-0.99,2.99,3.91,2.50
11.9340,0.07,0.12,-0.98,2.81,3.85,2.87
11.9340,0.07,0.12,-0.98,3.11,3.42,2.93
11.9340,0.07,0.12,-0.99,3.23,3.42,2.56
11.9340,0.07,0.12,-0.99,2.99,3.72,1.95
11.9340,0.07,0.12,-0.98,3.05,4.03,1.77
11.9340,0.07,0.13,-0.98,2.87,3.78,2.08
11.9340,0.07,0.12,-0.98,2.99,3.97,2.14
11.9340,0.07,0.12,-0.99,2.93,3.60,2.01
11.9340,0.07,0.12,-0.99,2.87,3.48,2.38
11.9340,0.07,0.13,-0.99,2.75,3.54,2.32
11.9340,0.07,0.12,-0.99,2.75,3.85,2.44
11.9340,0.07,0.12,-0.99,2.93,3.60,2.44
11.9340,0.07,0.12,-0.99,2.69,3.60,2.44
11.9340,0.07,0.12,-0.99,2.69,3.78,2.75
11.9340,0.07,0.12,-0.99,2.62,3.78,2.56
11.9340,0.07,0.12,-0.99,2.99,3.97,2.69
11.9340,0.07,0.12,-0.99,2.99,3.60,2.32
11.9340,0.07,0.12,-0.98,2.87,3.48,2.14
11.9340,0.07,0.12,-0.99,2.93,3.54,2.38
11.9340,0.07,0.12,-0.99,2.81,3.60,2.32
11.9340,0.07,0.12,-0.99,3.05,3.54,2.32
11.9340,0.07,0.12,-0.99,2.93,3.78,2.08
11.9340,0.07,0.13,-0.99,2.99,3.48,2.08
11.9340,0.08,0.13,-0.98,2.87,3.66,2.26
11.9340,0.07,0.12,-0.99,2.87,3.97,2.62
11.9340,0.07,0.12,-0.99,3.23,3.60,2.56
11.9340,0.07,0.12,-0.99,2.93,3.66,2.44
11.9340,0.07,0.13,-0.98,2.75,3.66,2.81
11.9410,0.07,0.13,-0.99,2.93,3.54,2.99
11.9410,0.07,0.13,-0.98,2.87,3.72,3.36
11.9410,0.07,0.11,-0.99,2.93,4.09,3.30
11.9420,0.07,0.11,-0.99,2.56,3.78,2.87
11.9420,0.07,0.12,-0.98,2.93,3.60,2.99
11.9420,0.07,0.12,-0.99,2.99,3.85,3.23
11.9420,0.07,0.12,-0.99,3.17,3.36,2.69
11.9430,0.08,0.12,-0.98,2.99,3.66,2.56
11.9430,0.07,0.12,-0.99,3.05,3.36,2.38
11.9430,0.07,0.12,-0.98,2.69,3.91,2.62
11.9430,0.07,0.12,-0.99,2.75,3.72,2.56
11.9430,0.07,0.12,-0.99,3.17,3.85,2.44
11.9440,0.07,0.12,-0.98,2.87,3.72,2.44
11.9440,0.07,0.12,-0.99,2.69,3.78,2.32
11.9440,0.07,0.12,-0.98,2.87,3.78,2.14
11.9440,0.07,0.12,-0.98,3.05,3.72,2.01
11.9440,0.07,0.12,-0.99,2.99,3.60,2.20
11.9450,0.07,0.12,-0.99,2.87,3.78,2.50
11.9450,0.07,0.12,-0.98,2.87,3.85,2.44
11.9450,0.07,0.12,-0.99,2.81,3.85,2.14
11.9450,0.07,0.13,-0.98,2.87,3.60,2.44
11.9450,0.07,0.13,-0.98,2.93,3.54,2.75
11.9460,0.07,0.12,-0.99,3.05,3.30,2.87
11.9460,0.07,0.12,-0.99,2.62,3.42,2.81
11.9460,0.07,0.12,-0.99,2.75,3.66,2.38
11.9470,0.07,0.12,-0.98,3.11,3.30,2.20
11.9630,0.07,0.12,-0.99,3.17,3.60,2.50
11.9780,0.07,0.12,-0.99,2.75,3.91,2.01
11.9940,0.07,0.13,-0.98,2.75,3.78,2.20
12.0080,0.07,0.13,-0.98,2.87,3.97,2.26
12.0250,0.07,0.13,-0.99,3.05,3.42,2.44
12.0350,0.07,0.12,-0.99,2.99,3.54,2.69
12.0500,0.07,0.11,-0.99,2.93,3.72,2.81
12.0670,0.07,0.11,-0.99,2.99,3.42,2.56
12.0840,0.07,0.12,-0.99,2.93,3.66,2.20
12.1000,0.07,0.12,-0.99,2.99,3.60,1.95
12.1150,0.07,0.12,-0.99,2.75,3.66,2.14
12.1300,0.07,0.13,-0.98,2.87,3.91,2.32
12.1450,0.07,0.13,-0.99,2.75,3.60,2.62
12.1600,0.07,0.13,-0.98,2.69,3.85,2.87
12.1680,0.07,0.12,-0.99,2.75,3.30,3.11
12.1850,0.07,0.12,-0.98,2.69,3.60,3.23
12.2000,0.07,0.11,-0.99,3.30,3.85,2.75
12.2160,0.07,0.11,-0.99,2.75,3.48,2.38
12.2340,0.07,0.12,-0.99,2.75,3.66,2.38
12.2490,0.07,0.12,-0.99,2.69,3.48,2.32
12.2660,0.07,0.12,-0.98,2.87,3.85,2.44
12.2810,0.07,0.12,-0.98,3.17,3.72,2.69
12.2950,0.07,0.12,-0.99,2.87,3.78,2.56
12.3110,0.07,0.12,-0.99,2.81,3.97,2.56
12.3250,0.07,0.12,-0.99,2.93,3.54,2.44
12.3330,0.07,0.12,-0.98,2.87,3.66,2.32
12.3510,0.07,0.12,-0.99,2.69,3.72,2.69
12.3680,0.07,0.12,-0.98,2.75,3.91,2.50
12.3850,0.08,0.11,-0.99,2.99,4.03,2.44
12.4000,0.07,0.11,-0.99,3.17,3.72,2.75
12.4160,0.07,0.12,-0.99,3.05,3.48,2.32
12.4310,0.07,0.12,-0.99,2.93,3.91,1.89
12.4450,0.07,0.12,-0.99,2.62,4.15,1.89
12.4610,0.07,0.12,-0.98,2.81,3.97,2.20
12.4750,0.07,0.12,-0.99,3.23,3.54,2.14
12.4840,0.07,0.12,-0.98,3.11,3.78,2.01
12.5010,0.07,0.12,-0.99,2.81,3.72,2.20
12.5170,0.07,0.13,-0.98,2.87,3.54,2.44
12.5340,0.07,0.12,-0.98,2.87,3.97,2.81
12.5500,0.07,0.12,-0.99,3.36,3.78,2.87
12.5660,0.07,0.11,-0.99,2.99,3.72,2.26
12.5810,0.07,0.11,-0.99,3.23,4.03,2.32
12.5960,0.07,0.11,-0.99,3.11,3.30,2.08
12.6100,0.07,0.12,-0.99,3.11,3.60,2.44
12.6260,0.07,0.12,-0.99,3.36,3.11,2.26
12.6340,0.07,0.12,-0.99,3.17,3.42,2.01
12.6510,0.07,0.12,-0.99,2.99,3.30,1.95
12.6680,0.07,0.13,-0.99,2.62,3.72,2.01
12.6840,0.07,0.12,-0.98,2.87,3.91,2.14
12.7010,0.07,0.12,-0.99,3.23,4.03,2.44
12.7170,0.07,0.11,-0.99,3.11,4.03,2.32
12.7310,0.07,0.12,-0.99,2.81,3.66,2.56
12.7470,0.07,0.12,-0.98,3.05,3.60,2.20
12.7610,0.07,0.12,-0.99,3.30,3.66,2.26
12.7760,0.07,0.12,-0.99,2.99,3.72,1.95
12.7920,0.07,0.12,-0.99,2.69,3.72,2.20
12.8010,0.07,0.12,-0.98,2.75,3.97,2.44
12.8160,0.07,0.12,-0.98,2.99,3.85,2.56
12.8340,0.07,0.12,-0.99,3.23,3.48,2.32
12.8510,0.07,0.12,-0.99,3.11,3.72,1.83
12.8670,0.07,0.12,-0.99,2.99,3.97,1.95
12.8820,0.07,0.13,-0.99,2.87,3.85,1.89
12.8970,0.07,0.12,-0.99,3.11,4.21,2.20
12.9110,0.07,0.11,-0.99,2.93,3.60,2.14
12.9170,0.07,0.11,-0.99,2.81,3.91,2.01
12.9420,0.07,0.12,-0.99,2.87,3.78,2.08
12.9500,0.07,0.12,-0.98,3.23,3.54,2.50
12.9670,0.08,0.12,-0.99,3.30,3.42,2.32
12.9830,0.08,0.12,-0.99,3.11,3.66,2.26
13.0010,0.08,0.12,-0.99,2.87,3.72,2.26
13.0170,0.07,0.12,-0.98,2.69,4.15,2.20
13.0320,0.07,0.13,-0.99,2.93,3.85,2.08
13.0460,0.07,0.12,-0.98,2.99,3.97,2.38
13.0620,0.07,0.11,-0.99,3.30,3.48,2.62
13.0670,0.07,0.11,-0.99,3.23,3.78,2.69
13.0840,0.07,0.11,-0.99,3.30,3.42,2.44
13.1010,0.07,0.11,-0.98,2.81,3.66,2.14
13.1170,0.07,0.12,-0.98,2.81,3.97,1.95
13.1340,0.07,0.13,-0.99,2.69,3.78,2.26
13.1500,0.07,0.13,-0.99,2.75,4.03,2.20
13.1670,0.07,0.12,-0.98,2.87,3.97,2.50
13.1830,0.07,0.12,-0.99,3.17,3.72,2.44
13.1980,0.07,0.11,-0.99,3.36,3.48,2.38
13.2140,0.07,0.11,-0.99,3.30,3.97,2.44
13.2300,0.07,0.11,-0.99,3.23,3.36,2.26
13.2340,0.07,0.12,-0.99,2.75,3.42,1.95
13.2500,0.07,0.13,-0.98,2.81,4.09,2.56
13.2700,0.07,0.12,-0.99,2.87,3.91,2.62
13.2880,0.07,0.12,-0.99,2.75,3.85,2.32
13.3050,0.07,0.12,-0.98,2.56,4.03,2.20
13.3210,0.07,0.11,-0.99,2.87,3.54,2.14
13.3380,0.07,0.12,-0.99,3.17,3.36,2.26
13.3540,0.07,0.12,-0.99,3.36,3.36,2.32
13.3690,0.07,0.12,-0.99,3.17,3.54,2.44
13.3710,0.07,0.12,-0.99,2.69,3.78,2.62
13.3990,0.07,0.12,-0.99,2.81,3.78,2.32
13.4140,0.07,0.12,-0.99,2.62,3.78,2.44
13.4290,0.07,0.12,-0.98,2.69,3.85,2.38
13.4440,0.07,0.12,-0.99,3.05,3.78,2.56
13.4550,0.07,0.11,-0.99,3.11,3.54,2.56
13.4710,0.07,0.11,-0.98,3.36,3.60,2.08
13.4880,0.07,0.12,-0.99,3.30,3.72,2.01
13.5040,0.07,0.12,-0.99,2.99,3.48,2.08
13.5040,0.07,0.12,-0.98,2.75,3.48,2.20
13.5340,0.07,0.12,-0.99,3.05,3.85,2.08
13.5370,0.07,0.12,-0.99,3.17,3.97,2.08
13.5540,0.07,0.12,-0.99,2.99,4.03,1.95
13.5790,0.07,0.12,-0.99,2.81,3.85,1.71
13.5870,0.07,0.12,-0.98,2.69,4.03,1.95
13.6050,0.07,0.12,-0.99,3.05,3.54,2.08
13.6210,0.07,0.12,-0.98,3.23,3.54,2.38
13.6370,0.07,0.12,-0.99,2.87,3.23,2.50
13.6530,0.07,0.12,-0.99,2.75,3.91,2.69
13.6680,0.07,0.12,-0.99,2.99,3.54,2.32
13.6700,0.07,0.12,-0.99,2.87,3.72,2.62
13.6980,0.07,0.12,-0.99,3.11,3.78,2.75
13.7140,0.07,0.12,-0.99,2.93,3.60,3.60
13.7290,0.07,0.12,-0.98,2.75,4.09,3.11
13.7440,0.07,0.11,-0.99,2.93,3.78,3.11
13.7540,0.07,0.11,-0.99,2.93,3.85,2.87
13.7700,0.07,0.11,-0.99,3.05,3.66,2.50
13.7900,0.07,0.12,-0.99,2.87,3.60,2.56
13.8040,0.07,0.12,-0.99,2.93,3.42,2.38
13.8200,0.07,0.12,-0.99,2.50,3.54,2.44
13.8350,0.07,0.12,-0.99,2.44,3.60,2.56
13.8500,0.07,0.12,-0.99,2.93,3.85,2.56
13.8570,0.07,0.12,-0.99,2.93,3.48,2.69
13.8730,0.07,0.12,-0.99,2.75,3.60,2.93
13.8950,0.07,0.12,-0.99,2.75,3.54,2.93
13.9060,0.07,0.12,-0.99,2.93,3.91,2.93
13.9240,0.07,0.11,-0.99,3.05,3.72,2.93
13.9400,0.07,0.11,-0.99,3.05,3.30,2.87
13.9560,0.07,0.11,-0.99,2.75,3.30,2.50
13.9720,0.07,0.12,-0.99,2.99,3.30,2.32
13.9880,0.07,0.12,-0.99,2.93,3.54,2.14
14.0040,0.07,0.12,-0.99,2.93,3.66,2.14
14.0190,0.08,0.12,-0.98,2.87,3.85,2.50
14.0230,0.07,0.12,-0.98,3.36,3.54,2.93
14.0390,0.07,0.11,-0.98,2.62,3.91,2.69
14.0620,0.07,0.12,-0.99,3.17,3.85,2.69
14.0780,0.07,0.11,-0.99,3.05,3.23,2.44
14.0960,0.07,0.11,-0.99,3.05,3.60,2.50
14.1120,0.07,0.12,-0.98,2.93,3.78,2.44
14.1280,0.07,0.12,-0.99,3.05,3.48,2.08
14.1430,0.07,0.12,-0.98,2.99,3.36,2.38
14.1460,0.07,0.12,-0.98,2.99,3.91,2.69
14.1750,0.07,0.12,-0.98,3.05,3.60,2.62
14.1900,0.07,0.11,-0.99,2.99,3.66,2.50
14.1990,0.07,0.12,-0.99,3.17,3.48,2.38
14.2150,0.07,0.11,-0.99,3.05,3.54,2.38
14.2320,0.07,0.12,-0.99,2.99,3.48,2.44
14.2490,0.07,0.12,-0.99,2.75,3.54,2.44
14.2650,0.07,0.12,-0.99,2.75,3.78,2.26
14.2680,0.07,0.12,-0.98,2.69,3.72,2.44
14.2950,0.07,0.12,-0.99,2.93,3.78,2.38
14.2990,0.07,0.12,-0.99,2.81,4.27,2.81
14.3140,0.07,0.11,-0.98,3.05,3.54,2.50
14.3360,0.07,0.11,-0.99,2.87,3.23,2.44
14.3520,0.07,0.11,-0.99,2.87,3.42,2.44
14.3690,0.07,0.11,-0.99,2.75,3.66,2.14
14.3850,0.07,0.12,-0.99,2.99,3.72,2.08
14.4010,0.07,0.12,-0.99,2.81,3.78,2.20
14.4190,0.07,0.12,-0.99,2.87,3.78,2.14
14.4350,0.07,0.12,-0.98,2.69,4.15,2.44
14.4500,0.07,0.12,-0.99,2.56,3.78,2.26
14.4650,0.07,0.11,-0.98,2.87,3.42,2.20
14.4690,0.07,0.12,-0.99,2.93,3.42,2.32
14.4850,0.07,0.12,-0.99,3.05,3.36,2.62
14.5080,0.07,0.11,-0.99,2.93,3.48,2.32
14.5250,0.07,0.11,-0.99,2.75,3.42,2.08
14.5410,0.07,0.12,-0.99,2.75,3.60,1.95
14.5560,0.07,0.12,-0.98,2.62,3.85,2.01
14.5710,0.07,0.12,-0.98,2.69,3.78,2.26
14.5740,0.07,0.12,-0.99,3.11,3.78,2.44
14.6010,0.07,0.12,-0.99,2.93,3.78,2.44
14.6120,0.07,0.12,-0.99,3.11,3.85,2.14
14.6280,0.07,0.11,-0.99,2.87,3.60,2.08
14.6470,0.07,0.12,-0.99,3.17,3.42,2.62
14.9700,0.07,0.11,-0.99,2.44,3.78,2.50
14.9700,0.07,0.12,-0.99,2.44,3.78,2.26
14.9700,0.07,0.12,-0.98,2.44,3.78,2.20
14.9710,0.07,0.12,-0.99,2.87,3.78,2.38
14.9710,0.07,0.11,-0.99,3.05,3.78,2.44
14.9710,0.07,0.12,-0.99,2.87,3.91,2.38
14.9720,0.07,0.12,-0.98,2.93,3.97,2.87
14.9720,0.07,0.11,-0.99,3.05,3.60,2.81
14.9720,0.07,0.12,-0.99,2.81,3.97,2.50
14.9720,0.07,0.11,-0.99,2.75,3.85,2.62
14.9720,0.07,0.11,-0.99,3.05,3.72,2.56
14.9720,0.07,0.12,-0.99,3.11,3.42,2.44
14.9720,0.07,0.11,-0.99,2.81,3.54,2.32
14.9720,0.07,0.12,-0.99,3.05,3.54,2.32
14.9720,0.07,0.11,-0.99,3.17,3.78,2.26
14.9720,0.07,0.11,-0.99,2.99,3.66,2.20
14.9720,0.07,0.11,-0.99,3.11,3.54,2.44
14.9720,0.07,0.12,-0.99,2.93,3.66,2.56
14.9720,0.07,0.12,-0.99,2.87,3.66,2.32
14.9720,0.07,0.12,-0.99,2.93,3.23,2.50
14.9870,0.07,0.12,-0.99,3.05,3.60,2.50
14.9890,0.07,0.11,-0.99,2.81,3.60,2.50
15.0060,0.07,0.12,-0.99,2.81,3.60,2.56
15.0220,0.07,0.12,-0.99,2.99,3.72,2.62
15.0390,0.07,0.11,-0.99,3.11,3.48,2.38
15.0560,0.07,0.11,-0.99,3.11,3.42,2.26
15.0740,0.07,0.12,-0.99,3.05,3.60,2.38
15.0890,0.07,0.12,-0.99,3.23,3.60,2.38
15.1060,0.07,0.12,-0.99,2.93,3.78,2.69
15.1220,0.07,0.12,-0.99,2.93,3.91,2.69
15.1370,0.07,0.12,-0.99,3.23,3.66,2.44
15.1520,0.07,0.11,-0.99,3.11,3.72,2.32
15.1670,0.07,0.11,-0.99,3.05,3.48,2.14
15.1810,0.07,0.11,-0.99,2.81,3.42,2.08
15.1970,0.07,0.12,-0.98,3.05,3.66,2.08
15.2060,0.07,0.11,-0.99,3.11,3.78,2.14
15.2220,0.07,0.11,-0.99,2.87,3.97,2.14
15.2390,0.07,0.12,-0.99,2.69,4.03,2.14
15.2560,0.07,0.11,-0.98,2.69,3.36,2.14
15.2720,0.07,0.12,-0.99,3.05,3.60,2.26
15.2880,0.07,0.12,-0.99,2.93,3.78,2.44
15.3020,0.07,0.12,-0.99,2.99,3.54,2.32
15.3050,0.07,0.12,-0.99,2.87,3.78,2.81
15.3220,0.07,0.11,-0.99,2.93,3.78,2.44
15.3390,0.07,0.11,-0.99,2.75,4.15,2.26
15.3560,0.07,0.12,-0.99,2.87,3.78,2.32
15.3740,0.07,0.12,-0.99,2.87,3.48,2.20
15.3890,0.07,0.12,-0.99,2.87,3.54,2.44
15.4070,0.07,0.12,-0.99,2.93,3.54,2.26
15.4220,0.07,0.12,-0.99,2.93,3.85,2.38
15.4380,0.07,0.12,-0.98,3.05,3.66,2.44
15.4400,0.07,0.11,-0.99,3.05,3.54,2.50
15.4680,0.07,0.11,-0.99,2.62,3.85,2.62
15.4820,0.07,0.12,-0.99,2.62,3.78,2.62
15.4890,0.07,0.11,-0.99,2.81,3.97,2.62
15.5060,0.07,0.11,-0.99,2.93,3.48,2.01
15.5230,0.07,0.12,-0.99,2.75,3.60,2.14
15.5400,0.07,0.12,-0.99,2.69,3.54,2.50
15.5550,0.07,0.12,-0.98,2.81,3.91,2.32
15.5720,0.07,0.11,-0.99,2.99,3.66,2.50
15.5880,0.07,0.12,-0.99,2.93,4.03,2.56
15.5890,0.07,0.11,-0.98,2.93,3.97,2.81
15.6170,0.07,0.11,-0.99,2.93,3.78,2.62
15.6220,0.07,0.12,-0.99,2.81,3.30,2.93
15.6470,0.07,0.11,-0.99,2.75,3.30,2.69
15.6560,0.07,0.11,-0.99,2.87,3.72,2.32
15.6740,0.07,0.11,-0.99,2.81,3.54,2.20
15.6890,0.07,0.11,-0.99,3.11,3.78,2.32
15.7060,0.07,0.11,-0.99,3.36,3.42,2.08
15.7220,0.07,0.12,-0.98,3.11,3.85,2.20
15.7380,0.07,0.12,-0.99,2.99,3.66,2.50
15.7520,0.07,0.11,-0.99,2.99,3.60,2.50
15.7550,0.07,0.12,-0.99,2.87,4.09,2.32
15.7830,0.07,0.11,-0.99,2.93,3.72,2.62
15.7980,0.06,0.11,-0.99,2.93,3.91,2.44
15.8120,0.07,0.12,-0.99,2.81,3.60,2.44
15.8220,0.07,0.12,-0.99,2.87,3.60,2.38
15.8390,0.07,0.12,-0.99,2.99,3.72,2.38
15.8570,0.07,0.11,-0.99,2.93,3.54,2.38
15.8720,0.07,0.12,-0.99,2.87,3.42,2.08
15.8880,0.07,0.12,-0.99,2.99,3.78,2.38
15.9030,0.07,0.12,-0.99,2.81,3.78,2.38
15.9170,0.07,0.11,-0.99,2.93,3.85,2.69
15.9220,0.07,0.11,-0.99,3.05,3.72,2.56
15.9380,0.07,0.11,-0.99,2.87,3.42,2.14
15.9560,0.07,0.11,-0.99,2.99,3.60,2.08
15.9730,0.07,0.11,-0.99,3.36,3.54,2.01
15.9890,0.07,0.12,-0.99,2.99,3.66,1.83
16.0050,0.07,0.12,-0.99,2.87,3.60,2.14
16.0230,0.07,0.12,-0.99,2.93,4.09,2.14
16.0230,0.07,0.12,-0.99,2.87,3.66,2.20
16.0400,0.07,0.11,-0.98,2.93,3.91,2.44
16.0680,0.07,0.11,-0.99,3.17,3.66,2.38
16.0730,0.07,0.11,-0.99,2.99,3.72,2.14
16.0900,0.07,0.12,-0.99,2.75,3.66,2.26
16.1050,0.07,0.12,-0.99,2.93,3.54,2.26
16.1280,0.07,0.11,-0.99,2.69,3.72,2.56
16.1390,0.07,0.11,-0.99,2.99,3.72,2.08
16.1560,0.07,0.11,-0.99,2.75,3.97,1.89
16.1730,0.07,0.12,-0.99,2.99,3.78,2.08
16.1880,0.07,0.12,-0.99,2.93,3.54,2.01
16.1900,0.07,0.12,-0.99,2.75,3.97,2.20
16.2050,0.07,0.12,-0.99,3.05,3.60,2.20
16.2230,0.07,0.11,-0.99,3.17,4.09,2.50
16.2480,0.07,0.12,-0.99,2.87,3.78,2.38
16.2560,0.07,0.12,-0.99,3.05,3.78,2.56
16.2730,0.07,0.11,-0.99,2.87,3.78,2.20
16.2890,0.07,0.12,-0.99,2.81,3.72,2.14
16.3050,0.07,0.12,-0.99,2.93,3.54,2.20
16.3220,0.07,0.12,-0.99,2.99,3.66,2.26
16.3220,0.07,0.12,-0.99,2.93,3.54,2.62
16.3520,0.07,0.11,-0.99,3.17,3.85,2.38
16.3560,0.07,0.11,-0.99,3.30,3.48,2.32
16.3820,0.07,0.11,-0.99,3.05,3.48,2.20
16.3970,0.07,0.12,-0.99,2.87,3.66,2.08
16.4060,0.07,0.12,-0.99,2.81,3.54,2.14
16.4220,0.07,0.11,-0.99,2.99,3.60,1.95
16.4390,0.07,0.11,-0.99,2.93,3.72,2.08
16.4560,0.07,0.12,-0.99,2.99,3.85,2.20
16.4730,0.07,0.12,-0.99,2.75,3.72,2.44
16.4870,0.07,0.11,-0.99,2.81,3.78,2.69
16.5030,0.07,0.11,-0.99,2.62,3.72,2.50
16.5060,0.07,0.11,-0.98,2.69,3.72,2.62
16.5230,0.07,0.12,-0.99,3.17,3.30,2.50
16.5400,0.07,0.12,-0.99,3.17,3.30,2.69
16.5560,0.07,0.12,-0.99,3.23,3.72,2.87
16.5730,0.07,0.12,-0.99,3.30,3.85,2.75
16.5890,0.07,0.11,-0.99,3.11,3.66,2.38
16.6060,0.07,0.12,-0.99,2.93,3.23,2.69
16.6220,0.07,0.11,-0.99,2.75,3.48,3.11
16.6370,0.07,0.11,-0.99,2.50,3.60,2.81
16.6520,0.07,0.12,-0.99,2.81,3.85,2.69
16.6680,0.07,0.11,-0.99,2.87,3.66,2.81
16.6850,0.07,0.11,-0.99,2.87,3.72,2.38
16.6920,0.07,0.11,-0.99,2.87,3.36,2.32
16.7070,0.07,0.12,-0.99,2.81,3.48,2.26
16.7290,0.07,0.12,-0.99,2.99,3.42,2.44
16.7450,0.07,0.12,-0.98,2.99,3.30,2.44
16.7600,0.07,0.12,-0.98,2.99,3.78,2.56
16.7750,0.07,0.11,-0.99,3.11,3.42,2.69
16.7900,0.07,0.11,-0.99,3.05,3.91,2.87
16.8050,0.07,0.11,-0.99,3.17,3.48,2.26
16.8200,0.07,0.11,-0.99,3.05,3.48,2.26
16.8290,0.07,0.11,-0.98,2.93,3.60,2.20
16.8450,0.07,0.11,-0.99,2.87,3.60,2.08
16.8620,0.07,0.12,-0.99,2.62,3.85,2.20
16.8780,0.07,0.11,-0.99,2.87,3.91,2.26
16.8950,0.07,0.12,-0.99,2.99,3.72,2.26
16.9110,0.07,0.11,-0.99,3.17,3.60,2.44
16.9260,0.07,0.11,-0.99,3.11,4.15,2.14
16.9410,0.07,0.11,-0.99,3.05,3.42,1.95
16.9450,0.07,0.12,-0.99,3.05,3.91,2.01
16.9610,0.07,0.12,-0.99,2.93,3.66,2.08
16.9840,0.07,0.11,-0.99,3.30,3.72,2.26
17.0010,0.07,0.11,-0.99,3.05,3.66,1.95
17.0020,0.07,0.12,-0.99,2.81,3.60,1.95
17.0180,0.07,0.12,-0.99,2.87,3.85,2.08
17.0350,0.07,0.12,-0.99,2.87,3.66,2.26
17.0620,0.07,0.12,-0.99,2.93,3.60,2.44
17.0720,0.07,0.11,-0.99,3.30,3.60,2.50
17.0840,0.07,0.11,-0.99,2.93,3.54,2.32
17.1010,0.07,0.11,-0.99,3.17,3.72,2.38
17.1180,0.07,0.11,-0.99,3.11,3.60,2.26
17.1340,0.07,0.12,-0.99,2.87,3.60,2.08
17.1500,0.07,0.12,-0.99,2.69,3.60,2.01
17.1680,0.07,0.12,-0.99,2.93,3.91,2.01
17.1840,0.07,0.12,-0.98,3.11,3.91,2.14
17.1840,0.07,0.11,-0.99,2.93,3.60,2.14
17.2020,0.07,0.11,-0.99,2.81,3.72,2.20
17.2180,0.07,0.12,-0.98,2.75,3.36,2.32
17.2330,0.07,0.11,-0.99,3.17,3.05,2.38
17.2550,0.07,0.11,-0.99,2.87,3.48,2.08
17.2720,0.07,0.11,-0.99,2.75,3.48,2.08
17.2890,0.07,0.12,-0.99,2.93,3.60,2.08
17.3050,0.07,0.11,-0.99,2.81,3.72,2.50
17.3200,0.07,0.12,-0.99,2.81,3.85,2.50
17.3350,0.07,0.12,-0.99,2.81,3.72,2.50
17.3400,0.07,0.11,-0.99,2.81,3.78,2.32
17.3550,0.07,0.11,-0.99,3.11,3.48,2.38
17.3810,0.07,0.11,-0.99,2.99,3.42,2.26
18.0120,0.07,0.11,-0.99,3.05,3.78,2.01
18.0120,0.07,0.11,-0.99,3.05,3.23,1.83
18.0120,0.07,0.12,-0.99,3.11,3.60,1.95
18.0130,0.07,0.11,-0.99,2.69,3.48,1.95
18.0130,0.07,0.11,-0.99,2.81,3.48,2.14
18.0130,0.07,0.11,-0.99,3.05,3.78,2.14
18.0130,0.07,0.12,-0.99,3.11,3.54,1.89
18.0130,0.07,0.12,-0.99,3.11,3.36,2.01
18.0140,0.07,0.12,-0.99,2.93,3.54,2.69
18.0140,0.07,0.11,-0.99,3.05,3.60,2.81
18.0140,0.07,0.12,-0.99,3.11,3.54,2.75
18.0140,0.07,0.11,-0.99,2.99,3.54,2.08
18.0150,0.07,0.11,-0.99,3.17,3.54,2.26
18.0150,0.07,0.11,-0.99,3.17,3.85,2.44
18.0150,0.07,0.11,-0.99,2.75,3.97,2.01
18.0150,0.07,0.12,-0.99,2.99,3.85,2.38
18.0150,0.07,0.11,-0.99,2.93,3.42,2.38
18.0160,0.07,0.11,-0.99,3.11,3.66,1.95
18.0160,0.07,0.12,-0.99,2.93,3.23,2.14
18.0160,0.07,0.12,-0.99,2.75,3.78,2.26
18.0160,0.07,0.11,-0.99,3.05,3.54,1.95
18.0160,0.07,0.12,-0.99,2.62,3.78,2.26
18.0170,0.07,0.12,-0.99,2.56,3.60,2.50
18.0170,0.07,0.12,-0.98,2.93,3.91,2.32
18.0170,0.07,0.12,-0.99,3.36,3.60,2.38
18.0170,0.07,0.11,-0.99,3.54,3.66,2.14
18.0180,0.07,0.11,-0.99,3.11,3.66,2.01
18.0180,0.07,0.11,-0.99,2.87,3.42,2.08
18.0180,0.07,0.11,-0.99,2.87,3.48,1.77
18.0190,0.07,0.12,-0.99,2.87,3.42,1.95
18.0190,0.07,0.11,-0.98,2.56,3.66,2.20
18.0190,0.07,0.11,-0.99,3.11,3.48,1.83
18.0190,0.07,0.12,-0.99,2.93,3.60,1.83
18.0200,0.07,0.11,-0.99,3.05,3.54,1.95
18.0200,0.07,0.11,-0.98,3.05,3.97,1.89
18.0200,0.07,0.11,-0.99,3.30,3.48,1.77
18.0200,0.07,0.11,-0.99,3.23,3.66,1.71
18.0210,0.07,0.11,-0.99,3.11,3.72,1.89
18.0210,0.07,0.11,-0.99,3.23,3.85,1.95
18.0350,0.07,0.11,-0.99,3.85,3.54,1.83
18.0390,0.07,0.11,-0.99,3.66,3.72,1.77
18.0650,0.07,0.12,-0.99,3.72,3.66,1.83
18.0810,0.07,0.12,-0.99,3.05,3.78,1.89
18.0890,0.07,0.11,-0.99,2.75,4.09,1.89
18.1060,0.07,0.11,-0.99,2.81,3.78,1.89
18.1210,0.07,0.11,-0.98,2.99,3.66,1.95
18.1400,0.07,0.11,-0.99,3.11,3.48,1.89
18.1550,0.07,0.11,-0.99,3.05,3.60,1.89
18.1550,0.07,0.12,-0.99,2.99,3.72,1.89
18.1730,0.07,0.11,-0.99,2.93,3.54,1.71
18.2010,0.07,0.11,-0.99,2.87,3.91,1.77
18.2160,0.07,0.12,-0.99,3.23,3.91,1.77
18.2220,0.07,0.12,-0.99,3.11,3.60,1.83
18.2400,0.07,0.12,-0.99,2.62,3.78,2.01
18.2560,0.07,0.12,-0.99,2.75,3.72,2.32
18.2730,0.07,0.12,-0.99,2.50,4.03,2.75
18.2880,0.07,0.12,-0.98,2.38,3.91,3.05
18.3060,0.07,0.11,-0.99,3.05,3.78,2.81
18.3210,0.07,0.11,-0.99,3.17,3.54,2.26
18.3230,0.07,0.11,-0.99,2.75,3.48,2.14
18.3380,0.07,0.12,-0.99,2.87,3.97,2.32
18.3660,0.07,0.12,-0.99,2.81,4.03,2.26
18.3730,0.07,0.12,-0.98,2.62,3.91,2.62
18.3970,0.07,0.11,-0.99,2.87,3.66,2.87
18.4050,0.07,0.11,-0.98,2.87,3.85,2.81
18.4220,0.07,0.10,-0.99,3.05,3.66,2.87
18.4390,0.07,0.10,-0.99,2.62,3.91,2.14
18.4560,0.07,0.11,-0.99,2.69,3.30,1.95
18.4710,0.07,0.12,-0.99,2.93,3.54,2.08
18.4860,0.07,0.11,-0.99,2.75,3.78,2.50
18.4890,0.07,0.11,-0.99,2.75,3.54,2.26
18.5170,0.07,0.11,-0.99,2.99,3.78,1.95
18.5230,0.07,0.11,-0.99,2.93,4.03,1.83
18.5470,0.07,0.11,-0.99,2.93,3.78,1.89
18.5550,0.07,0.11,-0.99,2.81,3.72,1.77
18.5730,0.07,0.12,-0.99,2.75,3.85,1.89
18.5920,0.07,0.12,-0.99,2.93,3.72,1.89
18.6080,0.07,0.12,-0.98,2.69,3.85,2.38
18.6230,0.07,0.11,-0.99,2.87,4.03,2.81
18.6380,0.07,0.11,-0.99,2.75,4.21,2.69
18.6540,0.07,0.11,-0.99,2.75,3.78,2.26
18.6690,0.07,0.11,-0.99,3.17,3.85,2.08
18.6860,0.07,0.11,-0.99,3.23,3.72,2.01
18.7020,0.07,0.12,-0.99,3.30,3.36,2.01
18.7180,0.07,0.12,-0.99,2.93,3.42,2.20
18.7320,0.07,0.12,-0.99,2.87,3.85,2.44
18.7420,0.07,0.12,-0.99,3.11,3.78,2.50
18.7570,0.07,0.11,-0.99,2.93,3.66,2.99
18.7750,0.06,0.10,-0.99,2.87,4.03,2.81
18.7910,0.07,0.11,-0.99,3.05,3.72,2.93
18.8080,0.07,0.11,-0.99,3.17,3.48,3.05
18.8090,0.07,0.11,-0.99,2.87,3.72,2.87
18.8250,0.07,0.11,-0.99,3.11,3.54,3.17
18.8520,0.07,0.11,-0.99,3.17,3.54,2.99
18.8580,0.07,0.12,-0.99,3.23,3.11,2.99
18.8760,0.07,0.12,-0.99,3.17,3.78,2.93
18.8920,0.07,0.11,-0.99,3.11,3.54,2.75
18.9080,0.07,0.11,-0.99,3.05,3.30,3.23
18.9250,0.07,0.12,-0.99,2.93,3.66,3.11
18.9420,0.07,0.12,-0.98,2.69,4.03,3.42
18.9570,0.07,0.11,-0.98,2.62,3.54,3.17
18.9730,0.07,0.11,-0.99,2.75,4.21,3.36
18.9880,0.07,0.11,-0.99,2.93,3.97,2.99
19.0030,0.07,0.11,-0.99,2.99,3.48,2.87
19.0190,0.07,0.11,-0.99,3.05,3.42,2.50
19.0260,0.07,0.11,-0.99,2.93,3.78,2.50
19.0420,0.07,0.11,-0.99,2.93,3.66,2.26
19.0640,0.07,0.11,-0.98,2.81,3.66,2.26
19.0750,0.07,0.12,-0.99,3.23,3.85,2.20
19.0920,0.07,0.12,-0.98,3.23,4.09,2.44
19.1080,0.07,0.11,-0.99,3.17,3.85,2.56
19.1240,0.07,0.12,-0.99,2.99,3.66,2.62
19.1400,0.07,0.11,-0.99,3.17,3.60,2.93
19.1540,0.07,0.12,-0.99,3.05,3.48,2.93
19.1700,0.07,0.11,-0.99,3.23,3.72,2.81
19.1840,0.07,0.11,-0.99,3.17,3.91,2.93
19.2000,0.07,0.11,-0.99,2.99,3.30,2.56
19.2150,0.07,0.11,-0.99,2.69,4.03,2.14
19.2300,0.07,0.11,-0.98,2.87,4.03,2.32
19.2420,0.07,0.11,-0.99,3.05,3.91,2.26
19.2600,0.07,0.11,-0.99,2.93,3.91,2.01
19.2740,0.07,0.11,-0.99,2.93,3.66,1.95
19.2890,0.07,0.12,-0.99,3.05,3.66,2.20
19.3040,0.07,0.12,-0.99,2.99,3.42,2.50
19.3190,0.07,0.12,-0.99,2.99,3.66,2.62
19.3350,0.07,0.11,-0.99,3.11,3.42,2.87
19.3500,0.07,0.11,-0.99,2.87,3.30,3.05
19.3650,0.07,0.11,-0.99,2.93,3.60,2.87
19.3750,0.06,0.11,-0.99,2.81,3.78,2.69
19.3920,0.07,0.11,-0.99,2.93,3.78,2.20
19.4080,0.07,0.11,-0.99,2.93,3.42,2.32
19.4250,0.07,0.12,-0.99,2.99,3.30,2.01
19.4390,0.07,0.11,-0.98,3.05,3.48,2.14
19.4540,0.07,0.11,-0.99,3.42,3.60,2.08
19.4690,0.07,0.11,-0.99,3.11,3.48,2.20
19.4850,0.07,0.12,-0.99,2.93,3.97,2.32
19.5000,0.07,0.11,-0.99,3.36,3.48,2.62
19.5150,0.07,0.11,-0.99,3.42,3.60,2.38
19.5250,0.07,0.11,-0.99,2.93,3.66,2.20
19.5420,0.07,0.12,-0.98,2.75,3.72,2.08
19.5580,0.07,0.12,-0.98,3.17,3.54,2.38
19.5750,0.07,0.11,-0.99,3.42,3.23,2.38
19.5910,0.07,0.11,-0.99,3.23,3.42,1.95
19.6050,0.07,0.11,-0.99,2.99,3.91,1.89
19.6200,0.07,0.12,-0.99,2.99,3.78,1.83
19.6250,0.07,0.12,-0.99,2.93,3.78,1.95
19.6500,0.07,0.13,-0.99,2.93,3.72,2.14
19.6580,0.07,0.12,-0.98,3.11,3.42,3.05
19.6800,0.07,0.12,-0.98,3.17,3.36,3.05
19.6910,0.07,0.11,-0.98,3.36,3.60,2.93
19.7090,0.07,0.11,-0.99,3.36,3.48,2.69
19.7250,0.07,0.11,-0.99,3.30,3.23,2.56
19.7410,0.07,0.12,-0.99,3.23,3.72,2.69
19.7550,0.07,0.12,-0.99,2.87,3.42,2.44
19.7700,0.07,0.12,-0.98,3.11,3.72,2.81
19.7760,0.07,0.11,-0.99,3.60,3.23,2.99
19.8010,0.07,0.11,-0.99,3.36,3.11,2.75
19.8090,0.07,0.11,-0.99,3.30,3.05,2.50
19.8240,0.07,0.12,-0.99,2.99,3.60,2.44
19.8420,0.07,0.12,-0.98,3.05,3.42,2.38
19.8590,0.07,0.12,-0.99,3.30,3.60,2.93
19.8750,0.07,0.11,-0.99,3.11,3.78,2.99
19.8900,0.07,0.11,-0.99,3.23,3.72,2.99
19.9060,0.07,0.11,-0.99,3.36,3.54,2.81
19.9200,0.07,0.11,-0.99,3.23,3.42,2.44
19.9360,0.07,0.12,-0.99,3.11,3.78,2.38
19.9420,0.07,0.12,-0.99,2.99,3.78,2.32
19.9650,0.07,0.12,-0.99,3.17,3.48,2.62
19.9810,0.07,0.11,-0.99,2.93,3.60,2.44
19.9910,0.07,0.12,-0.99,2.81,3.48,2.08
20.0080,0.07,0.12,-0.99,3.23,3.48,2.20
20.0240,0.07,0.12,-0.99,3.05,3.60,2.32
20.0400,0.07,0.12,-0.98,2.99,3.48,2.75
20.0560,0.07,0.12,-0.98,3.11,3.48,2.69
20.0710,0.07,0.12,-0.99,2.99,3.42,2.81
20.0850,0.07,0.11,-0.99,3.05,3.91,2.69
20.1010,0.07,0.12,-0.98,2.99,3.66,2.69
20.1150,0.07,0.12,-0.99,2.99,3.23,3.17
20.1250,0.07,0.11,-0.99,2.81,3.60,2.81
20.1420,0.07,0.11,-0.99,3.05,3.60,2.32
20.1590,0.07,0.11,-0.99,3.05,3.72,2.44
20.1760,0.07,0.12,-0.99,3.11,3.85,2.20
20.1910,0.07,0.12,-0.99,2.75,3.91,2.50
20.2070,0.07,0.12,-0.99,2.62,3.78,2.75
20.2220,0.07,0.12,-0.98,2.56,3.66,2.87
20.2260,0.07,0.12,-0.99,2.75,3.66,2.81
20.2510,0.07,0.12,-0.99,2.75,3.54,3.05
20.2590,0.07,0.12,-0.99,2.69,3.54,3.30
20.2760,0.07,0.11,-0.99,3.05,3.60,3.11
20.2920,0.07,0.11,-0.99,2.93,3.23,2.87
20.3090,0.07,0.12,-0.99,2.99,3.54,2.62
20.3270,0.07,0.12,-0.99,3.23,3.36,2.62
20.3420,0.07,0.11,-0.99,3.23,3.48,2.62
20.3580,0.07,0.12,-0.99,3.17,3.60,2.44
20.3730,0.07,0.11,-0.99,2.75,3.72,2.56
20.3870,0.07,0.11,-0.99,2.99,3.66,2.50
20.4020,0.07,0.11,-0.99,3.05,3.78,2.14
20.4180,0.07,0.12,-0.99,3.17,3.72,2.08
20.4330,0.07,0.12,-0.98,3.30,3.78,2.01
20.4470,0.07,0.12,-0.99,3.11,3.54,2.20
20.4580,0.07,0.12,-0.99,2.99,3.72,2.20
20.4750,0.07,0.12,-0.99,3.05,3.91,2.38
20.4920,0.07,0.12,-0.98,2.87,3.78,2.38
20.5080,0.07,0.11,-0.99,2.81,3.48,2.44
20.5220,0.07,0.11,-0.98,2.69,3.66,2.32
20.5380,0.07,0.12,-0.99,2.99,3.91,2.32
20.5520,0.07,0.12,-0.99,2.99,3.60,2.38
20.5680,0.07,0.12,-0.99,2.93,3.66,2.56
20.5820,0.07,0.11,-0.99,2.62,3.54,2.56
20.5970,0.07,0.12,-0.99,2.62,3.42,2.69
20.6090,0.07,0.12,-0.99,2.75,3.78,3.05
20.6250,0.07,0.11,-0.99,2.62,3.60,2.81
20.6430,0.07,0.11,-0.99,2.99,3.72,2.56
20.6580,0.07,0.12,-0.99,2.99,3.78,2.44
20.6740,0.07,0.12,-0.99,2.87,3.48,2.38
20.6890,0.07,0.12,-0.99,2.44,3.85,2.56
20.7030,0.07,0.12,-0.98,2.50,3.78,2.81
20.7090,0.07,0.12,-0.99,2.87,3.66,3.05
20.7340,0.07,0.11,-0.99,2.75,3.60,3.05
20.7420,0.06,0.11,-0.99,2.99,3.66,2.87
20.7630,0.07,0.12,-0.99,3.17,3.30,2.56
20.7750,0.07,0.13,-0.99,2.50,3.66,2.62
20.7910,0.07,0.12,-0.99,2.81,3.48,2.81
20.8080,0.07,0.12,-0.99,2.81,3.54,2.69
20.8230,0.07,0.11,-0.99,3.23,3.48,2.93
20.8250,0.07,0.11,-0.99,3.05,3.66,2.93
20.8540,0.07,0.11,-0.99,2.81,3.60,2.44
20.8680,0.07,0.11,-0.99,2.81,3.42,2.38
20.8830,0.07,0.12,-0.99,3.23,3.72,2.26
20.8990,0.07,0.11,-0.99,3.05,3.30,2.69
20.9140,0.07,0.12,-0.99,2.69,3.60,2.14
20.9260,0.07,0.12,-0.99,2.62,3.17,2.26
20.9430,0.07,0.12,-0.99,2.62,3.42,2.26
20.9580,0.07,0.11,-0.99,2.93,3.48,2.32
20.9730,0.07,0.11,-0.99,3.11,3.48,2.01
20.9880,0.07,0.12,-0.99,3.42,3.48,1.77
20.9920,0.07,0.12,-0.99,3.17,3.36,1.77
21.0190,0.07,0.12,-0.99,2.99,3.48,1.65
21.0340,0.07,0.11,-0.99,3.30,3.66,1.59
21.0490,0.07,0.11,-0.99,3.17,3.91,1.77
21.0590,0.07,0.12,-0.99,3.17,3.48,1.77
21.0750,0.07,0.12,-0.99,3.05,3.54,1.95
21.0910,0.07,0.12,-0.99,2.81,3.60,2.08
21.1080,0.07,0.12,-0.99,2.56,3.66,2.44
21.1250,0.07,0.11,-0.98,2.50,3.85,2.38
21.1400,0.07,0.11,-0.99,2.99,3.72,1.89
21.1540,0.07,0.12,-0.99,2.87,3.97,2.20
21.1590,0.07,0.12,-0.99,2.62,3.66,2.38
21.1840,0.07,0.12,-0.99,2.56,3.97,2.75
21.1990,0.07,0.11,-0.98,2.50,3.97,3.11
21.2090,0.07,0.11,-0.99,3.17,3.72,2.08
21.2240,0.07,0.11,-0.99,3.05,3.72,2.20
21.2420,0.07,0.11,-0.99,3.05,3.54,2.20
21.2580,0.07,0.11,-0.99,3.23,3.60,2.01
21.2740,0.07,0.11,-0.99,3.42,3.72,2.08
21.2750,0.07,0.12,-0.99,3.17,3.85,1.89
21.3050,0.07,0.12,-0.99,3.23,3.72,1.83
21.3190,0.06,0.12,-0.99,2.93,3.60,2.08
21.3260,0.06,0.12,-0.98,2.69,3.72,2.99
21.3490,0.07,0.12,-0.99,2.87,3.97,2.50
21.3590,0.07,0.12,-0.98,3.11,4.27,2.75
21.3750,0.07,0.11,-0.99,3.30,3.36,2.50
21.3920,0.07,0.11,-0.99,3.05,3.60,1.95
21.4090,0.07,0.12,-0.99,3.42,3.36,1.71
21.4240,0.07,0.12,-0.99,2.81,3.60,2.20
21.4250,0.07,0.12,-0.98,2.93,3.66,2.20
21.4540,0.07,0.12,-0.99,2.93,3.85,2.08
21.4590,0.07,0.11,-0.98,2.75,3.91,2.62
21.4840,0.07,0.10,-0.99,3.30,3.78,2.32
21.5000,0.07,0.11,-0.99,3.11,3.97,1.89
21.5150,0.07,0.11,-0.99,3.23,3.85,1.95
21.5300,0.07,0.12,-0.99,3.23,3.85,1.95
21.5420,0.07,0.12,-0.99,3.23,3.36,1.77
21.5580,0.07,0.12,-0.99,2.87,3.91,1.71
21.5750,0.07,0.12,-0.99,2.44,4.27,1.95
21.5760,0.07,0.12,-0.98,2.38,4.21,2.50
21.6040,0.07,0.11,-0.99,3.72,3.48,2.26
21.6190,0.07,0.11,-0.99,3.23,3.66,2.14
21.6340,0.07,0.11,-0.99,3.05,3.78,2.08
21.6490,0.07,0.13,-0.98,3.30,4.03,2.38
21.6650,0.07,0.12,-0.98,3.42,4.03,3.05
21.6750,0.07,0.11,-0.99,3.78,3.85,3.11
21.6910,0.07,0.11,-0.99,3.30,3.85,2.93
21.7090,0.07,0.11,-0.99,3.42,3.66,2.69
21.7240,0.07,0.13,-0.98,2.93,4.03,2.93
21.7400,0.07,0.12,-0.99,3.42,3.48,3.91
21.7420,0.07,0.11,-0.99,3.42,3.42,4.15
21.7700,0.07,0.11,-0.99,2.87,3.85,3.66
21.7840,0.07,0.12,-0.98,2.75,3.42,3.30
21.7920,0.07,0.12,-0.98,2.93,3.85,3.42
21.8140,0.07,0.11,-0.99,3.11,3.72,2.99
21.8250,0.07,0.11,-0.99,2.87,3.72,2.99
21.8430,0.07,0.11,-0.99,2.75,3.60,2.62
21.8580,0.07,0.12,-0.99,2.81,3.66,2.56
21.8750,0.07,0.12,-0.99,2.93,3.60,2.38
21.8890,0.07,0.12,-0.99,2.99,3.66,2.50
21.9040,0.07,0.12,-0.99,2.93,3.54,2.56
21.9200,0.07,0.12,-0.99,2.69,3.91,2.81
21.9350,0.07,0.12,-0.98,2.44,3.97,2.99
21.9520,0.07,0.11,-0.99,2.69,4.03,3.05
21.9660,0.07,0.11,-0.99,3.05,3.66,2.75
21.9830,0.07,0.12,-0.99,3.11,3.23,2.38
21.9980,0.07,0.12,-0.99,3.11,3.36,2.44
22.0090,0.07,0.12,-0.99,3.17,3.36,2.50
22.0250,0.07,0.13,-0.98,2.56,3.78,2.69
22.0420,0.07,0.12,-0.99,2.50,3.91,3.11
22.0570,0.07,0.12,-0.98,2.69,3.60,3.30
22.0730,0.07,0.11,-0.99,3.05,3.54,3.36
22.0760,0.07,0.11,-0.99,2.87,3.48,3.42
22.0920,0.06,0.10,-0.99,3.11,3.36,2.75
22.1070,0.07,0.11,-0.99,2.81,3.36,2.69
22.1350,0.07,0.11,-0.99,3.05,3.30,2.26
22.1470,0.07,0.12,-0.99,3.05,3.42,1.89
22.1630,0.07,0.11,-0.99,3.54,3.78,1.71
22.1800,0.07,0.12,-0.99,3.23,3.85,1.89
22.1960,0.07,0.12,-0.99,3.23,3.97,1.89
22.2110,0.07,0.12,-0.99,3.11,3.72,1.83
22.2270,0.07,0.12,-0.99,2.99,3.54,1.89
22.2300,0.07,0.11,-0.99,2.93,3.48,2.01
22.2450,0.07,0.12,-0.99,3.42,3.54,1.71
22.2660,0.07,0.12,-0.99,3.42,3.36,1.95
22.2820,0.07,0.11,-0.99,3.36,4.03,1.83
22.2980,0.07,0.12,-0.99,3.48,3.66,1.89
22.3190,0.07,0.12,-0.99,3.36,3.54,1.89
22.3350,0.07,0.12,-0.99,3.23,3.60,1.95
22.3510,0.07,0.12,-0.99,3.42,3.30,1.89
22.3680,0.07,0.12,-0.99,3.66,3.48,1.89
22.3840,0.07,0.12,-0.99,3.42,3.85,1.95
22.3990,0.07,0.12,-0.99,3.23,3.78,1.89
22.4150,0.07,0.12,-0.99,2.99,4.09,1.95
22.4310,0.07,0.12,-0.99,3.36,3.91,1.77
22.4370,0.07,0.12,-0.99,3.48,4.03,1.65
22.4630,0.07,0.12,-0.99,3.05,3.72,1.89
22.4750,0.07,0.12,-0.98,2.87,3.85,1.95
22.4930,0.07,0.12,-0.99,2.87,3.85,1.95
22.5080,0.07,0.12,-0.99,2.99,3.78,2.01
22.5190,0.07,0.12,-0.99,2.99,3.72,1.77
22.5360,0.07,0.12,-0.99,2.93,3.78,2.01
22.5520,0.07,0.12,-0.99,3.23,3.78,2.01
22.5690,0.07,0.12,-0.99,3.05,4.03,1.83
22.5850,0.07,0.12,-0.98,2.81,3.85,1.77
22.6010,0.07,0.12,-0.99,3.05,3.91,1.71
22.6160,0.07,0.12,-0.99,2.99,3.66,1.77
22.6330,0.07,0.12,-0.99,3.36,3.60,1.65
22.6480,0.07,0.12,-0.98,3.11,3.66,1.77
22.6520,0.07,0.12,-0.99,3.48,3.30,1.89
22.6760,0.07,0.12,-0.99,2.99,3.54,2.44
22.6910,0.07,0.12,-0.99,2.81,3.30,2.44
22.7080,0.07,0.11,-0.98,2.87,3.60,2.20
22.7250,0.07,0.12,-0.99,3.23,3.48,2.20
22.7400,0.07,0.12,-0.99,3.11,3.97,2.08
22.7560,0.07,0.12,-0.98,2.81,3.97,2.08
22.7720,0.07,0.13,-0.99,2.99,3.66,2.50
22.7870,0.07,0.12,-0.98,2.99,3.66,2.93
22.8030,0.07,0.11,-0.99,2.99,3.85,2.62
22.8180,0.07,0.12,-0.98,2.87,3.78,2.20
22.8340,0.07,0.12,-0.99,3.11,3.30,2.01
24.0940,0.07,0.12,-0.99,3.23,3.72,2.01
24.0940,0.07,0.12,-0.99,3.05,3.72,2.08
24.0940,0.07,0.12,-0.99,3.30,3.54,1.89
24.0940,0.07,0.12,-0.99,3.36,3.54,1.95
24.0940,0.07,0.12,-0.99,3.17,3.72,1.77
24.0940,0.07,0.12,-0.99,2.62,3.91,1.95
24.0940,0.08,0.13,-0.98,2.50,3.85,2.20
24.0940,0.07,0.12,-0.98,3.11,3.48,3.17
24.0940,0.07,0.12,-0.99,3.30,3.48,3.36
24.0940,0.06,0.11,-0.99,3.05,3.48,3.11
24.0940,0.07,0.12,-0.99,2.99,3.78,2.69
24.0940,0.07,0.12,-0.98,2.87,3.66,2.62
24.0940,0.07,0.12,-0.98,2.99,3.48,2.44
24.0940,0.07,0.12,-0.99,3.11,3.66,2.62
24.0940,0.07,0.12,-0.99,3.05,3.54,2.62
24.0940,0.07,0.11,-0.99,2.87,3.85,2.62
24.0940,0.07,0.12,-0.99,2.93,3.66,2.20
24.0940,0.07,0.12,-0.99,2.87,3.66,2.26
24.0940,0.07,0.12,-0.98,2.81,3.78,2.38
24.0940,0.07,0.12,-0.99,2.99,3.72,2.08
24.0940,0.07,0.12,-0.99,3.30,3.78,1.83
24.0940,0.07,0.12,-0.99,3.11,3.66,1.83
24.0940,0.07,0.12,-0.99,2.93,3.72,1.95
24.0940,0.07,0.12,-0.99,2.62,3.78,1.89
24.0940,0.07,0.12,-0.99,2.69,3.85,2.01
24.0940,0.07,0.12,-0.99,2.62,3.78,2.20
24.0940,0.07,0.12,-0.98,3.17,3.23,2.69
24.0940,0.07,0.11,-0.99,3.42,3.30,2.50
24.0940,0.07,0.12,-0.99,2.93,3.66,2.01
24.0940,0.07,0.12,-0.99,2.69,4.33,1.83
24.0940,0.08,0.13,-0.98,2.50,4.21,2.08
24.0940,0.07,0.12,-0.99,3.78,3.48,2.81
24.0940,0.06,0.11,-0.99,3.30,3.78,3.60
24.0940,0.06,0.11,-0.99,3.05,3.36,2.87
24.0940,0.07,0.11,-0.99,3.48,3.48,2.20
24.0940,0.07,0.11,-0.98,3.23,3.60,2.01
24.0940,0.07,0.12,-0.99,2.99,3.66,1.89
24.0940,0.07,0.12,-0.99,2.69,3.66,1.95
24.0940,0.07,0.12,-0.99,2.81,3.72,2.08
24.0940,0.07,0.12,-0.99,3.36,3.42,2.08
24.0940,0.07,0.12,-0.99,3.78,3.48,1.77
24.0940,0.07,0.12,-0.99,3.54,3.42,1.95
24.0940,0.07,0.12,-0.98,2.93,3.66,1.95
24.0940,0.07,0.12,-0.98,2.69,3.66,2.14
24.1100,0.07,0.12,-0.98,3.17,3.36,1.71
24.1100,0.07,0.12,-0.99,3.72,3.30,1.95
24.1100,0.07,0.12,-0.99,3.54,3.36,2.01
24.1100,0.07,0.12,-0.99,3.42,3.72,1.89
24.1110,0.07,0.12,-0.99,3.30,3.85,1.89
24.1110,0.07,0.12,-0.98,3.23,3.85,1.95
24.1110,0.07,0.12,-0.99,3.05,3.54,1.95
24.1110,0.07,0.12,-0.99,3.11,3.30,1.95
24.1110,0.07,0.12,-0.99,2.75,3.97,1.89
24.1110,0.07,0.12,-0.99,2.75,3.78,1.83
24.1120,0.07,0.11,-0.99,2.62,3.72,2.20
24.1120,0.07,0.12,-0.99,3.11,3.91,1.95
24.1120,0.07,0.12,-0.99,2.99,3.91,1.77
24.1120,0.07,0.12,-0.99,3.11,3.42,1.89
24.1120,0.07,0.12,-0.99,3.11,3.66,1.83
24.1120,0.07,0.12,-0.99,2.99,3.48,2.32
24.1120,0.06,0.11,-0.99,2.99,3.48,2.20
24.1120,0.07,0.12,-0.99,3.42,3.48,1.89
24.1120,0.07,0.12,-0.99,3.66,2.93,1.89
24.1120,0.07,0.12,-0.99,3.85,3.30,1.77
24.1120,0.07,0.12,-0.99,3.60,3.78,1.77
24.1120,0.07,0.12,-0.98,3.66,3.72,1.83
24.1120,0.07,0.12,-0.98,3.42,3.78,1.83
24.1120,0.07,0.12,-0.98,4.46,2.93,1.28
24.1120,0.07,0.12,-0.98,4.76,3.23,1.34
24.1120,0.07,0.12,-0.98,5.92,2.56,0.79
24.1120,0.06,0.14,-0.99,6.96,2.08,0.24
24.1120,0.08,0.12,-0.98,5.19,2.26,-1.89
24.1120,0.07,0.13,-0.99,6.71,3.11,-2.20
24.1120,0.07,0.13,-0.98,6.10,2.75,-2.01
24.1120,0.07,0.13,-0.98,6.53,3.23,-2.50
24.1120,0.07,0.12,-0.98,6.41,2.87,-2.01
24.1120,0.06,0.11,-0.98,5.92,3.11,-0.85
24.1120,0.07,0.13,-0.99,5.68,3.23,1.10
24.1250,0.07,0.13,-0.98,3.60,3.42,1.53
24.1410,0.07,0.13,-0.98,3.48,3.42,1.53
24.1560,0.07,0.13,-0.98,3.72,3.66,1.22
24.1700,0.07,0.13,-0.98,3.72,3.54,1.04
24.1850,0.07,0.14,-0.99,3.78,3.42,1.16
24.1950,0.08,0.14,-0.99,1.16,3.11,1.65
24.2160,0.07,0.13,-0.98,2.75,3.60,1.89
24.2280,0.07,0.13,-0.98,2.75,3.66,1.89
24.2450,0.07,0.13,-0.98,3.30,3.60,1.83
24.2600,0.08,0.13,-0.98,3.11,3.54,1.71
24.2750,0.07,0.13,-0.98,3.30,3.42,1.95
24.2900,0.07,0.13,-0.98,3.17,3.36,1.95
24.3060,0.07,0.13,-0.98,2.87,3.78,2.08
24.3210,0.07,0.13,-0.98,3.05,3.42,2.01
24.3360,0.07,0.13,-0.98,3.17,3.78,2.01
24.3450,0.07,0.13,-0.98,3.17,3.72,2.08
24.3670,0.07,0.13,-0.98,3.11,3.72,1.95
24.3780,0.07,0.13,-0.98,3.11,3.78,2.14
24.3950,0.07,0.13,-0.98,3.36,3.78,2.01
24.4120,0.07,0.13,-0.98,3.17,3.72,1.89
24.4260,0.07,0.13,-0.98,2.99,3.54,1.95
24.4420,0.07,0.13,-0.98,3.17,3.78,2.01
24.4570,0.07,0.13,-0.98,2.99,3.85,2.08
24.4710,0.07,0.13,-0.98,2.93,3.30,1.95
24.4860,0.07,0.13,-0.98,3.05,3.78,1.89
24.5010,0.07,0.13,-0.98,3.17,3.85,1.95
24.5170,0.07,0.13,-0.98,3.05,3.85,1.95
24.5280,0.07,0.13,-0.98,3.23,3.66,2.01
24.5450,0.07,0.13,-0.98,3.23,3.97,2.01
24.5610,0.07,0.13,-0.98,3.11,3.97,2.14
24.5760,0.07,0.13,-0.98,2.93,3.85,2.01
24.5920,0.07,0.13,-0.98,3.05,3.72,1.95
24.6060,0.07,0.13,-0.98,3.05,3.48,1.83
24.6210,0.07,0.13,-0.98,3.11,3.66,2.01
24.6370,0.07,0.13,-0.98,2.93,3.54,1.89
24.6510,0.07,0.13,-0.98,3.17,3.85,1.83
24.6670,0.07,0.13,-0.98,2.93,3.78,1.95
24.6790,0.07,0.13,-0.99,3.05,3.60,2.01
24.6940,0.07,0.13,-0.98,3.05,3.91,2.08
24.7110,0.07,0.13,-0.98,3.17,3.85,1.95
24.7120,0.07,0.13,-0.98,3.11,3.85,2.08
24.7290,0.07,0.13,-0.98,3.11,3.72,2.08
24.7560,0.07,0.13,-0.98,3.11,3.72,1.89
24.7710,0.07,0.13,-0.98,3.11,3.97,1.95
24.7860,0.07,0.13,-0.98,3.17,3.60,2.01
24.8010,0.07,0.13,-0.98,2.99,3.48,2.01
24.8110,0.07,0.13,-0.98,3.05,3.42,2.14
24.8280,0.07,0.13,-0.98,3.11,3.91,2.08
24.8450,0.07,0.13,-0.98,3.11,3.72,2.08
24.8610,0.07,0.13,-0.98,3.05,3.78,2.01
24.8760,0.07,0.13,-0.98,3.17,3.66,2.20
24.8910,0.07,0.13,-0.99,2.99,3.85,2.08
24.9060,0.07,0.13,-0.98,2.93,3.78,2.01
24.9220,0.07,0.13,-0.98,3.30,3.78,2.01
24.9290,0.07,0.13,-0.98,3.05,3.85,1.89
24.9510,0.07,0.13,-0.98,3.05,3.36,2.14
24.9620,0.07,0.13,-0.98,2.99,3.78,1.95
24.9790,0.07,0.13,-0.98,3.05,3.91,1.89
24.9950,0.07,0.13,-0.98,3.05,3.78,2.01
25.0110,0.07,0.13,-0.98,3.11,3.66,1.89
25.0260,0.07,0.13,-0.98,3.05,3.60,2.08
25.0410,0.07,0.13,-0.98,3.05,3.66,2.08
25.0560,0.07,0.13,-0.98,2.99,3.60,2.01
25.0620,0.07,0.13,-0.98,2.93,3.66,2.08
25.0860,0.07,0.13,-0.98,3.11,3.78,2.01
25.0960,0.07,0.13,-0.98,2.99,3.48,2.01
25.1110,0.07,0.13,-0.98,3.23,3.66,2.01
25.1280,0.08,0.13,-0.98,3.17,4.03,1.95
25.1460,0.07,0.13,-0.98,2.93,3.78,2.01
25.1620,0.07,0.13,-0.98,3.05,3.54,2.08
25.1760,0.07,0.13,-0.98,2.81,3.66,2.08
25.1910,0.07,0.13,-0.98,3.05,3.42,2.01
25.1950,0.07,0.13,-0.99,3.11,3.85,1.77
25.2210,0.07,0.13,-0.99,3.05,3.91,2.01
25.2360,0.07,0.13,-0.98,2.87,3.60,2.08
25.2520,0.07,0.13,-0.98,2.93,3.54,1.95
25.2620,0.07,0.13,-0.98,3.17,3.60,2.08
25.2780,0.07,0.13,-0.98,3.30,3.60,1.95
25.2940,0.08,0.13,-0.98,3.17,3.72,1.83
25.3120,0.07,0.13,-0.98,3.11,3.48,1.89
25.3260,0.07,0.13,-0.98,2.87,3.60,1.89
25.3420,0.07,0.13,-0.98,3.17,3.85,1.95
25.3570,0.07,0.13,-0.99,2.99,3.72,2.20
25.3710,0.07,0.13,-0.98,3.30,3.91,1.95
25.3880,0.07,0.13,-0.98,2.99,3.85,1.95
25.4020,0.07,0.13,-0.98,2.87,3.85,2.08
25.4170,0.07,0.13,-0.98,2.99,3.78,1.95
25.4280,0.07,0.13,-0.98,3.11,3.60,2.01
25.4450,0.07,0.13,-0.98,2.93,3.78,1.83
25.4610,0.07,0.13,-0.98,2.99,3.85,2.01
25.4770,0.07,0.13,-0.98,3.17,3.91,2.01
25.4920,0.07,0.13,-0.98,2.99,4.03,1.95
25.5080,0.07,0.13,-0.98,2.93,3.72,1.89
25.5230,0.07,0.13,-0.98,2.99,3.60,1.95
25.5380,0.07,0.13,-0.99,2.99,3.42,1.89
25.5450,0.07,0.13,-0.98,2.99,3.85,1.89
25.5610,0.07,0.13,-0.98,3.05,3.72,2.01
25.5800,0.07,0.13,-0.98,3.23,3.54,1.89
25.5960,0.07,0.13,-0.98,2.99,4.03,1.89
25.6120,0.07,0.13,-0.98,3.17,3.78,1.89
25.6130,0.07,0.13,-0.98,3.11,3.85,2.01
25.6290,0.07,0.13,-0.98,3.05,3.78,2.01
25.6580,0.07,0.13,-0.98,3.05,3.91,1.95
25.6730,0.07,0.13,-0.98,3.05,3.72,2.08
25.6870,0.07,0.13,-0.98,2.99,3.60,2.08
25.7020,0.07,0.13,-0.98,3.11,3.66,2.01
25.7120,0.07,0.13,-0.98,2.99,3.72,2.01
25.7270,0.07,0.13,-0.98,3.17,3.78,1.95
25.7440,0.07,0.13,-0.98,3.05,3.48,2.01
25.7610,0.07,0.13,-0.98,3.17,3.78,2.01
25.7780,0.07,0.13,-0.98,2.93,3.78,1.83
25.7930,0.07,0.13,-0.98,3.17,3.54,1.83
25.8070,0.07,0.13,-0.98,3.17,3.97,1.95
25.8230,0.07,0.13,-0.98,3.05,3.72,1.89
25.8370,0.07,0.13,-0.98,3.11,3.91,2.01
25.8520,0.07,0.13,-0.98,3.05,3.85,1.89
25.8620,0.07,0.13,-0.98,2.87,3.66,1.71
25.8790,0.07,0.13,-0.98,2.99,3.72,1.89
25.8940,0.07,0.13,-0.98,3.17,3.78,2.01
25.9120,0.07,0.13,-0.98,3.11,3.85,2.01
25.9120,0.07,0.13,-0.98,3.23,3.85,1.89
25.9420,0.07,0.13,-0.98,2.99,3.78,2.08
25.9580,0.07,0.13,-0.98,2.93,3.97,2.08
25.9740,0.07,0.13,-0.98,3.05,3.60,2.08
25.9790,0.07,0.13,-0.98,3.05,4.03,1.89
26.0040,0.07,0.13,-0.98,2.99,3.54,1.95
26.0180,0.07,0.13,-0.98,3.05,3.78,2.01
26.0330,0.07,0.13,-0.98,2.93,3.91,1.89
26.0450,0.07,0.13,-0.98,2.87,3.72,2.01
26.0630,0.07,0.13,-0.98,3.05,3.85,1.95
26.0780,0.07,0.13,-0.98,3.05,3.60,1.89
26.0930,0.07,0.13,-0.98,3.17,3.85,2.01
26.1080,0.07,0.13,-0.98,3.05,3.97,2.01
26.1240,0.07,0.13,-0.98,2.93,4.03,2.08
26.1390,0.07,0.13,-0.98,2.99,3.78,1.95
26.1540,0.08,0.13,-0.98,3.17,3.85,1.95
26.1680,0.07,0.13,-0.98,3.17,3.85,1.83
26.1800,0.07,0.13,-0.98,3.11,3.48,2.08
26.1950,0.07,0.13,-0.98,3.23,3.60,1.89
26.2120,0.07,0.13,-0.98,2.87,3.72,1.95
26.2280,0.07,0.13,-0.98,2.99,3.85,2.08
26.2290,0.07,0.13,-0.98,2.93,3.97,2.20
26.2450,0.07,0.13,-0.98,3.05,4.03,2.01
26.2740,0.07,0.13,-0.98,3.11,3.78,2.01
26.2880,0.07,0.13,-0.98,3.17,3.66,1.83
26.3030,0.07,0.13,-0.98,2.99,3.60,1.89
26.3190,0.08,0.13,-0.98,2.93,3.85,1.95
26.3290,0.07,0.13,-0.98,2.81,3.91,2.08
26.3470,0.07,0.13,-0.98,2.75,3.78,1.77
26.3620,0.07,0.13,-0.98,2.93,3.78,1.89
26.3780,0.07,0.13,-0.98,3.05,3.78,2.01
26.3940,0.07,0.13,-0.98,2.87,3.97,1.83
26.3960,0.07,0.13,-0.98,2.93,3.48,1.89
26.4230,0.07,0.13,-0.98,2.99,3.91,2.01
26.4390,0.07,0.13,-0.98,2.99,3.72,1.95
26.4540,0.07,0.13,-0.98,3.05,3.78,1.83
26.4620,0.07,0.13,-0.98,2.99,4.03,1.83
26.4840,0.07,0.13,-0.98,2.69,3.91,2.01
26.4940,0.07,0.13,-0.98,2.93,3.66,1.95
26.5110,0.07,0.13,-0.98,3.05,3.72,1.89
26.5290,0.07,0.13,-0.99,3.05,3.42,1.95
26.5440,0.07,0.13,-0.98,3.05,3.66,1.95
26.5590,0.07,0.13,-0.98,3.17,3.60,2.01
26.5740,0.07,0.13,-0.98,2.99,3.72,1.95
26.5900,0.07,0.13,-0.98,2.93,3.78,2.01
26.6040,0.07,0.13,-0.98,2.81,3.54,2.01
26.6120,0.07,0.13,-0.98,3.17,3.72,2.01
26.6290,0.07,0.13,-0.98,3.11,3.54,1.89
26.6490,0.07,0.13,-0.98,3.05,3.30,1.95
26.6620,0.07,0.13,-0.98,3.05,3.30,1.95
26.6790,0.07,0.13,-0.98,2.87,4.03,2.01
26.6800,0.07,0.13,-0.98,3.05,3.78,2.08
26.6960,0.07,0.13,-0.98,2.99,3.78,1.95
26.7240,0.07,0.13,-0.98,2.93,3.72,1.95
26.7390,0.07,0.13,-0.98,2.93,3.72,1.95
26.7540,0.07,0.13,-0.98,2.99,3.78,1.95
26.7690,0.07,0.13,-0.98,2.93,3.85,1.95
26.7800,0.07,0.13,-0.98,3.05,4.03,2.01
26.7990,0.07,0.13,-0.98,2.99,3.72,1.89
26.8120,0.07,0.13,-0.98,2.93,3.72,2.01
26.8290,0.07,0.13,-0.98,3.11,3.54,1.95
26.8440,0.07,0.13,-0.98,3.05,3.66,1.83
26.8590,0.07,0.13,-0.98,3.11,3.36,2.08
26.8620,0.07,0.13,-0.98,3.11,3.60,2.08
26.8900,0.07,0.13,-0.98,2.93,3.48,1.89
26.9040,0.07,0.13,-0.98,2.99,3.30,1.89
26.9190,0.07,0.13,-0.98,3.11,3.78,1.83
26.9340,0.07,0.13,-0.98,2.93,3.42,1.89
26.9450,0.07,0.13,-0.98,3.05,3.48,1.89
26.9620,0.07,0.13,-0.98,2.81,3.60,1.83
26.9780,0.07,0.13,-0.98,3.05,3.48,1.77
26.9940,0.07,0.13,-0.99,2.93,3.66,1.89
26.9960,0.07,0.13,-0.98,2.87,3.91,2.01
27.0240,0.07,0.13,-0.98,3.05,3.85,2.14
27.0390,0.07,0.13,-0.98,2.99,3.85,2.01
27.0460,0.07,0.13,-0.98,3.05,3.91,1.89
27.0690,0.07,0.13,-0.98,3.11,3.78,1.89
27.0800,0.07,0.13,-0.98,3.05,3.78,1.83
27.0940,0.07,0.13,-0.98,2.93,3.72,2.01
27.1120,0.07,0.13,-0.98,3.11,3.78,1.89
27.1280,0.07,0.13,-0.98,3.17,3.48,1.83
27.1440,0.07,0.13,-0.98,2.93,3.60,1.95
27.1590,0.07,0.13,-0.98,2.93,3.60,2.01
27.1620,0.07,0.13,-0.98,2.87,3.72,1.83
27.1890,0.07,0.13,-0.98,2.93,3.72,1.95
27.2040,0.07,0.13,-0.98,2.87,3.72,2.08
27.2130,0.07,0.13,-0.98,3.05,3.91,1.95
27.2280,0.07,0.13,-0.98,3.11,3.60,1.89
27.2450,0.07,0.13,-0.98,2.87,3.54,1.95
27.2630,0.08,0.13,-0.98,3.11,3.60,1.89
27.2780,0.07,0.13,-0.98,2.93,3.60,1.95
27.2940,0.07,0.13,-0.98,3.17,3.60,1.89
27.3090,0.07,0.13,-0.98,3.17,3.72,1.89
27.3120,0.07,0.13,-0.98,3.11,4.03,2.08
27.3390,0.07,0.13,-0.98,2.93,3.66,1.89
27.3540,0.07,0.13,-0.99,2.87,3.72,1.89
27.3690,0.08,0.13,-0.99,2.93,3.78,1.95
27.3840,0.08,0.13,-0.98,2.81,4.03,1.83
27.3960,0.07,0.13,-0.98,3.11,3.05,1.83
27.4110,0.08,0.12,-0.98,4.94,2.56,1.95
27.4290,0.08,0.14,-0.99,5.13,1.83,1.71
27.4290,0.07,0.13,-0.98,5.07,2.32,1.89
27.4590,0.08,0.13,-0.98,5.68,1.53,1.95
27.4620,0.04,0.13,-0.95,7.87,1.22,1.95
27.4890,0.09,0.15,-1.00,8.91,0.49,1.83
27.5040,0.08,0.15,-0.99,7.32,1.40,1.71
27.5200,0.08,0.14,-0.98,3.97,2.69,1.53
27.5340,0.07,0.14,-0.98,2.69,2.14,1.59
27.5460,0.08,0.14,-0.98,0.61,1.83,1.65
27.5610,0.08,0.13,-0.98,0.49,2.01,1.71
27.5780,0.08,0.14,-0.98,2.87,2.56,1.77
27.5940,0.08,0.14,-0.98,2.56,3.42,1.89
27.6100,0.08,0.13,-0.98,2.75,3.42,1.77
27.6240,0.08,0.14,-0.98,2.81,3.72,1.83
27.6390,0.08,0.14,-0.99,2.93,3.91,1.89
27.6450,0.08,0.14,-0.98,3.23,3.48,1.83
27.6690,0.08,0.14,-0.98,3.30,3.91,2.01
27.6840,0.08,0.14,-0.99,3.17,4.39,1.89
27.6950,0.08,0.14,-0.99,2.69,4.46,2.08
27.7120,0.08,0.14,-0.99,1.59,5.55,2.01
27.7280,0.08,0.15,-1.00,-1.65,9.34,1.71
27.7440,0.06,0.10,-0.95,-1.34,7.63,1.71
27.7450,0.08,0.15,-0.98,3.23,4.33,1.77
27.7740,0.08,0.13,-0.98,2.26,3.97,1.83
27.7820,0.08,0.13,-0.98,2.87,3.97,2.08
27.8040,0.08,0.14,-0.98,2.99,4.03,1.95
27.8190,0.08,0.13,-0.98,2.87,3.85,1.89
27.8280,0.08,0.13,-0.98,2.93,3.91,2.01
27.8460,0.08,0.13,-0.98,2.87,3.66,2.01
27.8620,0.08,0.13,-0.98,2.87,3.48,1.95
27.8780,0.08,0.13,-0.98,2.81,3.42,1.89
27.8950,0.08,0.13,-0.98,2.99,3.54,1.95
27.8960,0.08,0.13,-0.98,2.87,3.78,2.08
27.9120,0.08,0.13,-0.98,3.11,3.78,2.01
27.9390,0.08,0.13,-0.98,2.93,3.54,1.95
27.9540,0.08,0.13,-0.98,3.17,3.72,1.83
27.9620,0.08,0.13,-0.98,2.99,3.36,2.01
27.9820,0.08,0.13,-0.98,2.99,3.60,2.01
27.9960,0.08,0.13,-0.98,3.23,3.85,2.08
28.0120,0.08,0.13,-0.98,3.11,3.85,1.89
28.0280,0.08,0.13,-0.98,3.11,3.60,2.08
28.0450,0.08,0.13,-0.98,3.17,3.36,1.89
28.0460,0.08,0.13,-0.98,2.87,3.60,2.01
28.0740,0.08,0.13,-0.98,2.81,3.85,2.01
28.0890,0.08,0.13,-0.98,2.93,3.66,2.08
28.1050,0.08,0.13,-0.98,2.99,3.72,2.14
28.1190,0.08,0.13,-0.98,3.05,3.72,2.20
28.1340,0.08,0.13,-0.98,3.23,3.60,1.95
28.1450,0.08,0.13,-0.98,3.17,3.66,2.08
28.1630,0.08,0.13,-0.98,3.23,3.72,2.01
28.1780,0.08,0.13,-0.98,3.05,3.60,1.95
28.1940,0.08,0.13,-0.98,3.05,3.60,2.01
28.1950,0.08,0.13,-0.98,2.87,3.91,2.01
28.2240,0.08,0.13,-0.98,2.99,3.42,2.01
28.2400,0.08,0.13,-0.98,2.99,3.60,2.08
28.2540,0.08,0.13,-0.98,3.17,3.60,2.01
28.2690,0.08,0.13,-0.98,2.81,3.30,1.83
28.2850,0.08,0.13,-0.98,3.23,3.48,2.01
28.2950,0.08,0.13,-0.98,2.87,3.72,1.83
28.3110,0.08,0.13,-0.98,3.05,3.66,1.89
28.3270,0.08,0.13,-0.98,2.99,3.60,2.01
28.3440,0.08,0.13,-0.98,3.05,3.66,1.95
28.3460,0.08,0.13,-0.98,2.93,3.72,1.95
28.3740,0.08,0.13,-0.98,2.81,4.09,1.89
28.3890,0.08,0.13,-0.98,2.69,3.72,2.01
28.4040,0.08,0.13,-0.98,2.87,3.72,2.01
28.4120,0.08,0.13,-0.98,2.93,3.60,1.83
28.4300,0.08,0.13,-0.98,2.99,3.78,1.95
28.4450,0.08,0.13,-0.98,2.93,3.97,1.95
28.4640,0.08,0.13,-0.98,2.87,3.54,1.83
28.4790,0.08,0.13,-0.98,3.05,3.66,2.08
28.4950,0.08,0.13,-0.98,2.93,3.54,1.95
28.5090,0.08,0.13,-0.98,3.05,3.66,2.01
28.5120,0.08,0.13,-0.98,3.17,3.72,1.95
28.5400,0.08,0.13,-0.98,3.23,3.42,1.89
28.5450,0.08,0.13,-0.98,2.93,3.72,1.77
28.5610,0.08,0.13,-0.98,2.93,3.66,2.01
28.5840,0.08,0.13,-0.98,3.17,3.54,1.83
28.5960,0.08,0.13,-0.98,2.99,3.72,1.89
28.6140,0.08,0.13,-0.98,2.93,3.97,2.01
28.6280,0.08,0.13,-0.98,2.81,3.78,2.01
28.6440,0.08,0.13,-0.98,2.99,3.91,1.95
28.6450,0.08,0.13,-0.98,2.81,3.66,2.01
28.6740,0.08,0.13,-0.98,2.87,3.91,2.01
28.6890,0.08,0.13,-0.98,2.87,3.78,2.01
28.7040,0.08,0.13,-0.98,3.17,3.48,1.95
28.7120,0.08,0.13,-0.98,2.93,3.54,2.01
28.7290,0.08,0.13,-0.98,2.87,3.48,2.01
28.7460,0.08,0.13,-0.98,2.99,3.54,2.08
28.7640,0.08,0.13,-0.98,3.11,3.97,1.89
28.7790,0.08,0.13,-0.98,2.99,3.48,1.89
28.7830,0.08,0.13,-0.98,3.05,3.85,2.08
28.8090,0.08,0.13,-0.98,2.99,3.72,1.89
28.8240,0.08,0.13,-0.98,3.17,3.66,1.95
28.8290,0.08,0.13,-0.98,3.17,3.78,1.95
28.8540,0.08,0.13,-0.98,2.99,3.72,1.95
28.8690,0.07,0.13,-0.98,2.87,3.78,2.08
28.8840,0.08,0.13,-0.98,2.87,3.72,2.01
28.8960,0.08,0.13,-0.98,3.05,3.72,1.95
28.9140,0.08,0.13,-0.98,2.99,3.60,1.95
28.9290,0.08,0.13,-0.98,3.05,3.54,2.08
28.9440,0.08,0.13,-0.98,2.87,3.78,2.01
28.9590,0.08,0.13,-0.98,2.93,3.72,1.89
28.9740,0.08,0.14,-0.99,2.99,3.60,1.89
28.9900,0.08,0.13,-0.98,3.11,3.78,2.01
29.0040,0.08,0.13,-0.98,2.99,3.72,1.77
29.0190,0.08,0.13,-0.98,2.87,3.60,1.83
29.0290,0.08,0.13,-0.98,3.17,3.91,2.08
29.0460,0.08,0.13,-0.98,2.93,3.42,1.83
29.0610,0.08,0.13,-0.98,3.05,3.85,1.89
29.0790,0.08,0.13,-0.98,2.87,3.78,2.08
29.0830,0.08,0.13,-0.98,3.05,3.72,2.01
29.0950,0.08,0.13,-0.98,3.05,3.60,1.95
29.1240,0.08,0.13,-0.98,3.05,3.78,2.01
29.1400,0.08,0.13,-0.98,3.11,3.60,1.95
29.1560,0.08,0.13,-0.98,3.05,3.54,2.01
29.1720,0.08,0.13,-0.98,3.17,3.72,2.08
29.1870,0.08,0.13,-0.98,2.93,3.66,2.01
29.2020,0.08,0.13,-0.98,3.11,3.78,2.08
29.2130,0.08,0.13,-0.98,3.05,3.54,1.95
29.2290,0.08,0.13,-0.98,3.05,3.91,1.95
29.2460,0.08,0.13,-0.98,3.05,3.78,2.08
29.2620,0.08,0.13,-0.98,2.87,3.97,2.08
29.2780,0.08,0.13,-0.98,2.93,3.91,1.83
29.2920,0.08,0.13,-0.98,2.99,3.91,2.01
29.3070,0.08,0.13,-0.98,3.11,3.60,2.08
29.3220,0.08,0.13,-0.98,2.99,3.91,2.01
29.3370,0.08,0.13,-0.98,2.99,3.54,1.95
29.3520,0.08,0.13,-0.98,2.81,3.66,1.95
29.3620,0.08,0.13,-0.98,2.99,3.66,1.89
29.3790,0.08,0.13,-0.98,3.17,3.78,1.95
29.3950,0.08,0.13,-0.98,2.99,3.66,1.83
29.4130,0.08,0.13,-0.98,3.36,3.85,1.89
29.4280,0.08,0.13,-0.98,2.93,3.72,2.08
29.4430,0.08,0.13,-0.98,2.99,3.72,2.08
29.4450,0.08,0.13,-0.98,3.30,3.72,2.01
29.4730,0.08,0.13,-0.98,2.99,3.97,1.83
29.4880,0.08,0.13,-0.98,3.05,3.85,2.08
29.5030,0.08,0.13,-0.98,2.87,3.60,1.95
29.5180,0.08,0.13,-0.98,3.11,3.23,1.89
29.5280,0.08,0.13,-0.98,3.05,3.91,1.95
29.5450,0.08,0.13,-0.98,3.05,3.78,1.83
29.5630,0.08,0.13,-0.98,3.05,3.42,1.89
29.5790,0.08,0.13,-0.98,2.75,3.54,1.83
29.5950,0.08,0.13,-0.98,2.87,3.48,1.95
29.5960,0.08,0.13,-0.98,2.99,3.66,1.95
29.6130,0.08,0.13,-0.98,2.93,3.72,1.95
29.6300,0.08,0.13,-0.98,2.93,3.48,1.83
29.6550,0.08,0.13,-0.98,2.87,3.60,1.95
29.6700,0.08,0.13,-0.98,2.93,3.60,1.95
29.6840,0.08,0.13,-0.98,2.93,3.97,1.95
29.6960,0.08,0.13,-0.98,2.87,3.66,1.89
29.7120,0.08,0.13,-0.98,3.17,3.72,1.95
29.7300,0.08,0.13,-0.98,2.99,3.78,1.89
29.7450,0.08,0.13,-0.98,2.99,3.97,1.89
29.7610,0.08,0.13,-0.98,3.30,3.66,1.83
29.7630,0.08,0.13,-0.98,2.93,3.60,1.89
29.7910,0.08,0.13,-0.98,2.87,3.30,1.83
29.8050,0.08,0.13,-0.98,2.81,3.78,1.89
29.8200,0.08,0.13,-0.98,3.23,3.85,1.95
29.8340,0.08,0.13,-0.98,3.23,3.42,1.83
29.8450,0.08,0.13,-0.98,2.93,3.60,1.59
29.8630,0.08,0.13,-0.98,2.81,3.78,1.89
29.8780,0.08,0.13,-0.98,3.05,3.66,1.95
29.8950,0.08,0.13,-0.98,2.99,3.78,2.08
29.8960,0.08,0.13,-0.98,2.93,3.85,1.95
29.9120,0.08,0.13,-0.98,3.17,3.60,1.95
29.9300,0.08,0.13,-0.98,2.99,3.72,1.95
29.9450,0.07,0.13,-0.98,3.17,3.66,2.08
29.9700,0.08,0.13,-0.98,3.11,3.42,1.95
29.9840,0.08,0.13,-0.98,2.93,3.66,1.83
29.9950,0.08,0.13,-0.98,2.99,3.72,1.83
30.0110,0.08,0.13,-0.98,3.05,3.91,1.89
30.0290,0.08,0.13,-0.98,3.05,3.85,1.89
30.0450,0.08,0.13,-0.98,2.93,3.72,1.89
30.0600,0.08,0.13,-0.98,3.05,3.66,1.89
30.0750,0.08,0.13,-0.98,2.75,3.91,2.01
30.0900,0.08,0.13,-0.98,2.93,3.42,1.95
30.1050,0.08,0.13,-0.98,2.93,3.85,1.95
30.1210,0.08,0.13,-0.98,3.05,3.48,1.95
30.1290,0.08,0.13,-0.98,2.81,3.72,1.77
30.1470,0.08,0.13,-0.98,2.93,3.54,1.89
30.1630,0.08,0.13,-0.99,2.87,3.72,1.95
30.1790,0.08,0.13,-0.98,2.93,3.66,1.95
30.1950,0.08,0.13,-0.98,3.05,3.72,2.01
30.2110,0.08,0.13,-0.98,3.05,3.72,1.95
30.2130,0.08,0.13,-0.98,2.87,3.66,2.14
30.2410,0.08,0.13,-0.98,3.05,3.54,2.01
30.2560,0.08,0.13,-0.98,2.99,3.60,1.95
30.2710,0.08,0.13,-0.98,3.05,3.60,2.01
30.2880,0.08,0.13,-0.98,3.11,3.54,2.01
30.2960,0.08,0.13,-0.98,3.11,3.85,1.95
30.3130,0.08,0.13,-0.98,2.93,3.54,1.95
30.3290,0.08,0.13,-0.98,3.05,3.85,1.89
30.3460,0.08,0.13,-0.98,2.93,3.54,2.01
30.3620,0.08,0.13,-0.98,3.05,3.91,1.83
30.3770,0.08,0.13,-0.98,2.99,3.66,1.83
30.3920,0.08,0.13,-0.98,2.99,3.85,1.71
30.4070,0.08,0.13,-0.98,2.87,3.72,1.89
30.4220,0.08,0.13,-0.98,2.87,3.85,1.95
30.4370,0.08,0.13,-0.98,2.87,3.48,1.83
30.4520,0.08,0.13,-0.98,2.87,4.03,1.95
30.4620,0.08,0.13,-0.98,2.99,3.78,1.95
30.4790,0.08,0.13,-0.98,2.93,4.03,2.14
30.4970,0.08,0.13,-0.98,2.99,3.60,1.89
30.5120,0.08,0.13,-0.98,2.93,3.72,1.95
30.5120,0.08,0.13,-0.98,3.05,3.60,2.01
30.5420,0.08,0.13,-0.98,2.99,3.54,1.95
30.5570,0.08,0.13,-0.98,3.11,3.72,1.89
30.5730,0.08,0.13,-0.98,3.11,3.66,2.01
30.5860,0.08,0.13,-0.98,2.81,3.66,2.01
30.6040,0.08,0.13,-0.98,2.99,3.48,2.01
30.6120,0.08,0.13,-0.98,2.93,4.09,2.01
30.6290,0.08,0.13,-0.98,2.99,3.91,2.08
30.6460,0.08,0.13,-0.98,2.87,3.66,1.95
30.6630,0.08,0.13,-0.98,3.05,3.66,2.01
30.6780,0.08,0.13,-0.98,3.05,3.60,1.89
30.6860,0.08,0.13,-0.98,2.87,3.72,1.83
30.6960,0.08,0.13,-0.98,2.99,3.66,1.95
30.7230,0.08,0.13,-0.98,2.87,3.60,1.89
30.7380,0.08,0.13,-0.98,2.93,3.72,2.08
30.7530,0.08,0.13,-0.98,2.81,3.85,1.95
30.7630,0.08,0.13,-0.98,2.99,4.03,2.01
30.7790,0.08,0.13,-0.98,2.99,3.66,1.95
30.7960,0.08,0.13,-0.98,2.87,3.54,2.01
30.8130,0.08,0.13,-0.98,3.17,3.97,2.01
30.8290,0.08,0.13,-0.98,3.05,3.97,1.89
30.8440,0.08,0.13,-0.98,3.11,3.66,1.89
30.8590,0.08,0.13,-0.98,2.87,4.09,2.20
30.8620,0.08,0.13,-0.98,2.99,3.66,1.95
30.8890,0.08,0.13,-0.98,3.11,3.78,1.89
30.8960,0.08,0.13,-0.98,3.05,3.48,2.01
30.9120,0.08,0.13,-0.98,3.05,3.66,1.95
30.9290,0.08,0.13,-0.98,3.05,3.54,1.95
30.9450,0.08,0.13,-0.98,3.11,3.85,2.14
30.9630,0.08,0.13,-0.98,2.81,3.91,1.95
30.9790,0.08,0.13,-0.98,2.99,3.72,2.08
30.9940,0.08,0.13,-0.98,2.87,3.85,2.01
31.0090,0.08,0.13,-0.98,2.93,3.54,1.83
31.0120,0.08,0.13,-0.98,2.93,3.72,2.08
31.0390,0.08,0.13,-0.98,3.05,3.66,1.89
31.0540,0.08,0.13,-0.98,2.99,3.85,1.95
31.0630,0.08,0.13,-0.99,2.99,3.66,2.01
31.0780,0.08,0.13,-0.98,2.81,4.21,1.95
31.0960,0.08,0.13,-0.98,3.17,3.66,2.08
31.1130,0.08,0.13,-0.98,2.93,3.66,2.08
31.1280,0.08,0.13,-0.98,2.87,3.85,2.01
31.1440,0.08,0.13,-0.98,3.05,3.78,2.01
31.1590,0.08,0.13,-0.98,2.99,3.72,1.95
31.1740,0.08,0.13,-0.98,2.99,3.66,1.89
31.1860,0.08,0.13,-0.98,2.87,3.78,1.89
31.2050,0.08,0.13,-0.98,3.05,3.66,2.01
31.2120,0.08,0.13,-0.98,3.17,3.48,1.95
31.2360,0.08,0.13,-0.98,2.93,3.72,2.08
31.2460,0.08,0.13,-0.98,2.93,3.78,1.89
31.2630,0.08,0.13,-0.98,2.99,3.54,1.83
31.2790,0.08,0.13,-0.98,3.05,3.42,2.08
31.2950,0.08,0.13,-0.98,3.11,3.48,1.83
31.3110,0.08,0.13,-0.98,2.99,3.66,1.95
31.3260,0.08,0.13,-0.98,2.87,3.78,2.01
31.3300,0.08,0.13,-0.98,2.87,3.72,1.95
31.3560,0.08,0.13,-0.98,2.99,3.66,1.95
31.3730,0.08,0.13,-0.98,2.93,3.72,2.01
31.3870,0.08,0.13,-0.98,3.23,3.54,2.08
31.4040,0.08,0.13,-0.98,2.87,3.97,1.95
31.4130,0.08,0.13,-0.98,3.11,3.91,2.01
31.4310,0.08,0.13,-0.98,2.93,3.60,1.95
31.4450,0.08,0.13,-0.98,3.05,3.78,1.89
31.4630,0.08,0.13,-0.98,3.11,3.66,2.08
31.4790,0.08,0.13,-0.98,3.17,3.91,2.08
31.4870,0.08,0.13,-0.98,2.93,3.72,1.95
31.4960,0.08,0.13,-0.98,3.11,3.48,1.83
31.5240,0.08,0.13,-0.98,2.93,3.72,1.95
31.5300,0.08,0.13,-0.98,2.99,3.78,1.83
31.5540,0.08,0.13,-0.98,3.23,3.48,2.01
31.5690,0.08,0.13,-0.98,3.05,3.91,1.83
31.5790,0.08,0.13,-0.98,2.99,3.72,2.08
31.5960,0.08,0.13,-0.98,2.99,3.85,2.01
31.6120,0.08,0.13,-0.98,2.99,3.78,1.95
31.6290,0.08,0.13,-0.98,3.05,3.66,1.95
31.6440,0.08,0.13,-0.98,3.05,3.72,1.95
31.6460,0.08,0.13,-0.98,2.87,4.03,1.89
31.6740,0.08,0.13,-0.98,2.93,3.66,2.01
31.6890,0.08,0.13,-0.98,3.17,3.60,1.83
31.6960,0.08,0.13,-0.98,3.05,3.72,1.95
31.7190,0.08,0.13,-0.98,3.11,3.78,1.77
31.7290,0.08,0.13,-0.98,2.87,3.60,1.83
31.7460,0.08,0.13,-0.98,3.11,4.03,2.08
31.7620,0.08,0.13,-0.98,3.23,3.66,2.01
31.7790,0.08,0.13,-0.98,2.99,3.48,1.89
31.7950,0.08,0.13,-0.98,2.87,3.72,1.95
31.8100,0.08,0.13,-0.98,2.99,3.72,1.77
31.8250,0.08,0.13,-0.98,2.87,3.60,2.08
31.8390,0.08,0.13,-0.98,2.93,3.60,1.95
31.8550,0.08,0.13,-0.98,2.99,3.72,1.95
31.8630,0.08,0.13,-0.98,3.05,3.66,2.01
31.8860,0.08,0.13,-0.98,2.93,3.60,2.08
31.9010,0.08,0.13,-0.98,3.17,3.48,1.95
31.9120,0.08,0.13,-0.98,3.11,3.72,2.01
31.9290,0.08,0.13,-0.98,3.23,3.66,1.95
31.9460,0.08,0.13,-0.98,2.99,3.66,2.01
31.9620,0.08,0.13,-0.98,3.05,3.66,2.08
31.9770,0.08,0.13,-0.98,3.23,3.60,1.89
31.9920,0.08,0.13,-0.98,3.11,3.36,1.89
32.0070,0.08,0.13,-0.98,2.99,3.72,1.89
32.0220,0.08,0.13,-0.98,2.93,3.72,2.01
32.0370,0.08,0.13,-0.98,2.87,3.85,2.08
32.0460,0.08,0.13,-0.98,2.93,3.78,1.95
32.0620,0.08,0.13,-0.98,3.11,3.85,2.01
32.0790,0.08,0.13,-0.98,2.93,3.72,1.95
32.0950,0.07,0.13,-0.98,2.99,3.78,2.01
32.1130,0.08,0.13,-0.98,2.87,3.66,2.08
32.1280,0.08,0.13,-0.98,2.99,3.72,2.08
32.1430,0.08,0.13,-0.98,3.05,3.72,2.14
32.1460,0.08,0.13,-0.98,2.99,3.85,2.01
32.1730,0.08,0.13,-0.98,2.99,4.15,2.01
32.1880,0.08,0.13,-0.98,2.87,3.78,1.95
32.1960,0.08,0.13,-0.98,3.17,3.78,2.14
32.2180,0.08,0.13,-0.98,2.87,3.91,2.08
32.2300,0.08,0.13,-0.98,3.11,3.85,1.95
32.2460,0.08,0.13,-0.98,2.93,3.72,1.95
32.2620,0.08,0.13,-0.98,3.11,3.91,1.95
32.2790,0.08,0.13,-0.98,2.99,3.54,1.95
32.2950,0.08,0.13,-0.98,3.05,3.48,2.08
32.3090,0.08,0.13,-0.98,2.99,3.72,1.89
32.3130,0.08,0.13,-0.98,2.75,3.60,1.89
32.3290,0.08,0.13,-0.98,2.99,3.85,2.08
32.3540,0.08,0.13,-0.98,2.87,3.48,1.89
32.3700,0.08,0.13,-0.98,2.99,3.60,2.01
32.3850,0.08,0.13,-0.98,2.99,3.60,2.01
32.3960,0.08,0.13,-0.98,3.05,3.42,1.89
32.4130,0.08,0.13,-0.98,2.87,3.97,1.95
32.4290,0.08,0.13,-0.98,3.11,3.78,1.89
32.4450,0.08,0.13,-0.98,2.87,3.66,2.14
32.4600,0.08,0.13,-0.98,3.05,3.78,1.89
32.4750,0.08,0.13,-0.98,2.87,3.85,2.14
32.4900,0.08,0.13,-0.98,2.87,3.91,2.01
32.5060,0.08,0.13,-0.98,2.62,3.85,1.89
32.5220,0.08,0.13,-0.98,2.93,3.72,2.08
32.5370,0.08,0.13,-0.98,2.93,3.66,2.08
32.5460,0.08,0.13,-0.98,2.93,3.36,2.01
32.5640,0.08,0.13,-0.98,2.93,3.78,2.08
32.5780,0.07,0.13,-0.98,3.11,3.17,1.95
32.5960,0.08,0.13,-0.98,2.99,3.85,1.95
32.6120,0.08,0.13,-0.98,2.99,3.60,2.01
32.6290,0.08,0.13,-0.98,2.87,3.60,2.01
32.6300,0.08,0.13,-0.98,2.93,3.54,2.01
32.6460,0.08,0.13,-0.98,2.87,3.85,1.95
32.6740,0.08,0.13,-0.98,2.93,3.54,1.89
32.6890,0.08,0.13,-0.98,2.99,3.91,1.89
32.7040,0.08,0.13,-0.98,3.05,3.72,2.08
32.7120,0.08,0.13,-0.98,2.81,3.48,1.89
32.7350,0.08,0.13,-0.98,3.05,3.66,2.01
32.7460,0.08,0.13,-0.98,2.93,3.60,2.14
32.7620,0.08,0.13,-0.98,2.93,3.72,1.95
32.7790,0.08,0.13,-0.98,2.99,3.85,2.08
32.7940,0.10,0.13,-0.98,2.87,3.97,2.01
32.8090,0.11,0.13,-0.98,3.11,3.78,2.62
32.8130,0.11,0.11,-0.98,2.81,3.36,2.75
32.8280,0.12,0.12,-0.97,2.93,2.87,1.34
32.8470,0.07,0.14,-0.99,3.78,2.87,2.75
32.8690,0.06,0.13,-0.98,3.36,3.30,3.23
32.8790,0.09,0.13,-0.98,3.48,3.11,2.69
32.8960,0.09,0.13,-0.98,3.54,3.54,2.69
32.9130,0.09,0.14,-0.99,3.72,3.30,2.75
32.9290,0.09,0.13,-0.98,2.99,3.30,2.93
32.9300,0.11,0.13,-0.98,3.42,3.60,2.87
32.9590,0.09,0.13,-0.98,3.30,3.23,3.05
32.9740,0.08,0.13,-0.98,3.54,3.54,2.87
32.9890,0.05,0.14,-0.99,3.11,3.85,3.54
33.0040,0.05,0.13,-0.98,2.87,3.36,3.72
33.0130,0.06,0.13,-0.98,2.81,3.60,3.23
33.0280,0.06,0.15,-0.99,2.44,3.60,3.30
33.0460,0.08,0.12,-0.98,2.14,3.60,3.23
33.0630,0.08,0.14,-0.98,3.54,3.66,3.48
33.0790,0.09,0.13,-0.98,2.62,3.42,3.42
33.0890,0.08,0.13,-0.98,3.11,3.72,2.99
33.1090,0.06,0.14,-0.98,3.66,3.66,3.78
33.1240,0.08,0.13,-0.98,2.44,3.17,3.78
33.1300,0.09,0.13,-0.99,2.87,3.60,4.58
33.1540,0.07,0.14,-0.99,2.81,3.23,5.37
33.1620,0.08,0.12,-0.98,2.32,3.48,5.07
33.1790,0.09,0.13,-0.98,2.99,3.36,4.70
33.1960,0.09,0.12,-0.98,2.44,3.36,4.58
33.2120,0.07,0.14,-0.99,3.17,3.36,4.15
33.2290,0.09,0.11,-0.97,1.04,3.17,2.26
33.2440,0.09,0.12,-0.99,2.87,3.97,0.73
33.2590,0.09,0.11,-0.99,2.56,4.46,-0.24
33.2740,0.08,0.13,-0.99,3.54,4.27,-1.95
33.2900,0.07,0.14,-0.99,3.48,4.46,-3.11
33.2960,0.09,0.13,-0.98,2.75,4.58,-3.85
33.3190,0.08,0.12,-0.98,2.50,4.46,-4.70
33.3340,0.07,0.15,-0.99,4.33,5.19,-5.37
33.3450,0.08,0.14,-0.98,3.11,4.94,-5.43
33.3630,0.07,0.13,-0.98,3.30,5.19,-5.68
33.3790,0.07,0.14,-0.99,3.11,4.58,-5.31
33.3900,0.08,0.13,-0.99,3.48,4.70,-5.13
33.4090,0.10,0.13,-0.98,2.44,4.70,-5.31
33.4240,0.10,0.13,-0.99,4.03,4.70,-6.65
33.4390,0.10,0.12,-0.98,2.93,4.76,-7.02
33.4540,0.10,0.12,-0.98,4.21,5.00,-7.20
33.4630,0.08,0.13,-0.99,3.85,5.00,-7.45
33.4850,0.05,0.14,-0.98,3.11,4.76,-6.41
33.4960,0.06,0.15,-0.99,3.97,4.82,-4.76
33.5120,0.08,0.13,-0.98,2.32,4.70,-4.39
33.5290,0.09,0.13,-0.99,3.48,4.15,-3.85
33.5460,0.10,0.12,-0.99,3.11,4.03,-3.66
33.5470,0.10,0.11,-0.99,2.93,4.27,-3.54
33.5760,0.09,0.12,-0.99,3.17,4.46,-3.17
33.5910,0.08,0.14,-0.99,3.97,4.15,-3.48
33.6070,0.06,0.14,-0.99,3.30,3.97,-2.69
33.6130,0.06,0.14,-1.00,2.81,4.27,-2.38
33.6280,0.09,0.13,-0.99,3.05,4.15,-2.26
33.6470,0.09,0.12,-0.98,2.14,3.97,-2.26
33.6630,0.08,0.13,-0.98,2.87,4.27,-1.65
33.6790,0.07,0.14,-0.98,2.99,3.97,-1.65
33.6960,0.07,0.14,-0.98,3.23,3.78,-0.79
33.7110,0.07,0.14,-0.99,3.17,3.97,-0.73
33.7260,0.08,0.13,-0.99,3.23,3.78,-0.37
33.7300,0.07,0.13,-0.99,3.42,3.72,0.18
33.7560,0.07,0.13,-0.99,3.05,3.66,0.37
33.7630,0.07,0.13,-0.98,3.36,3.91,0.92
33.7850,0.09,0.13,-0.98,2.99,3.48,1.77
33.8010,0.06,0.13,-0.98,2.87,3.48,2.69
33.8130,0.05,0.13,-0.99,2.93,3.42,2.93
33.8290,0.08,0.13,-0.99,3.36,3.78,2.93
33.8460,0.10,0.12,-0.98,2.93,3.72,2.75
33.8620,0.11,0.12,-0.98,2.44,3.72,3.05
33.8770,0.09,0.14,-0.99,3.17,3.91,3.30
33.8920,0.09,0.13,-0.98,2.81,3.48,3.17
33.8960,0.08,0.12,-0.98,2.62,4.03,2.93
33.9220,0.09,0.13,-0.99,3.60,4.09,4.33
33.9290,0.09,0.14,-0.98,3.11,3.60,4.94
33.9520,0.06,0.14,-0.99,2.50,3.78,5.37
33.9630,0.05,0.14,-0.99,2.93,3.78,5.49
33.9790,0.07,0.14,-0.99,2.99,3.48,6.35
33.9960,0.08,0.13,-0.98,2.81,3.42,6.53
34.0120,0.09,0.13,-0.99,3.36,3.11,6.23
34.0130,0.09,0.13,-0.98,2.62,3.23,6.71
34.0300,0.08,0.13,-0.98,3.05,3.30,7.14
34.0570,0.03,0.14,-0.98,2.81,3.42,7.20
34.0630,0.03,0.16,-0.99,3.48,3.17,6.59
34.0880,0.06,0.14,-0.99,2.32,3.42,5.62
34.0960,0.04,0.14,-0.98,2.81,3.60,4.76
34.1140,0.04,0.15,-0.97,2.75,3.48,4.21
34.1290,0.03,0.16,-1.00,3.17,4.15,3.11
34.1450,0.03,0.15,-0.98,2.75,3.72,1.34
34.1610,0.07,0.13,-0.98,2.75,3.54,1.28
34.1630,0.07,0.13,-0.98,2.87,3.85,1.65
34.1900,0.08,0.13,-0.98,3.17,3.54,2.08
34.2070,0.08,0.13,-0.98,2.99,3.85,1.89
34.2130,0.08,0.13,-0.98,2.99,3.78,2.01
34.2370,0.08,0.13,-0.98,3.05,3.72,1.89
34.2520,0.08,0.13,-0.98,3.05,3.60,1.89
34.2620,0.08,0.13,-0.98,2.93,3.72,2.01
34.2790,0.08,0.13,-0.98,2.99,3.91,1.95
34.2950,0.08,0.13,-0.98,3.11,3.72,1.95
34.3130,0.08,0.13,-0.98,3.05,3.91,2.08
34.3290,0.08,0.13,-0.98,3.05,3.85,2.26
34.3440,0.08,0.13,-0.98,3.11,3.54,2.20
34.3590,0.08,0.13,-0.98,3.30,3.48,2.08
34.3630,0.08,0.13,-0.98,3.23,3.66,1.95
34.3900,0.08,0.13,-0.98,3.42,3.60,2.14
34.4060,0.08,0.13,-0.98,3.17,3.78,1.95
34.4210,0.08,0.13,-0.98,3.30,3.78,2.01
34.4290,0.08,0.13,-0.98,3.05,3.91,1.65
34.4510,0.08,0.13,-0.98,3.30,3.66,1.71
34.4620,0.07,0.14,-0.99,3.17,3.48,1.53
34.4790,0.07,0.14,-0.98,2.99,3.91,1.10
34.4960,0.07,0.14,-0.98,3.36,3.66,0.79
34.4960,0.07,0.14,-0.98,3.54,4.33,0.31
34.5260,0.07,0.14,-0.98,3.54,3.91,-0.12
34.5410,0.07,0.14,-0.98,3.66,4.21,-0.18
34.5460,0.07,0.14,-0.98,3.91,4.15,-0.49
34.5710,0.08,0.14,-0.98,4.09,4.70,-1.22
34.5870,0.09,0.13,-0.98,4.15,4.39,-1.28
34.5960,0.10,0.11,-0.99,3.48,4.03,0.24
34.6180,0.08,0.13,-0.98,3.78,3.78,1.28
34.6290,0.07,0.14,-0.98,3.17,3.60,1.46
34.6450,0.07,0.14,-0.98,3.23,3.42,1.04
34.6620,0.06,0.15,-0.98,3.23,4.39,0.31
34.6780,0.05,0.16,-0.98,3.54,3.85,-0.73
34.6900,0.06,0.17,-0.98,3.91,4.33,-1.95
34.6970,0.06,0.16,-0.98,3.23,4.39,-2.56
34.7230,0.09,0.12,-0.98,3.23,4.64,-2.62
34.7380,0.12,0.08,-0.99,2.69,4.03,-1.77
34.7530,0.11,0.10,-0.99,3.78,3.97,0.18
34.7630,0.08,0.14,-0.98,3.66,3.97,1.40
34.7790,0.08,0.14,-0.99,3.60,3.66,1.53
34.7960,0.07,0.14,-0.98,3.11,3.66,1.46
34.8120,0.08,0.13,-0.98,2.99,3.78,1.16
34.8280,0.09,0.12,-0.98,3.05,3.85,1.53
34.8300,0.08,0.12,-0.99,3.36,3.78,1.89
34.8460,0.08,0.14,-0.98,3.17,3.48,2.08
34.8640,0.08,0.14,-0.98,3.42,3.78,1.95
34.8790,0.07,0.14,-0.98,3.36,3.97,1.71
34.9030,0.07,0.15,-0.98,3.36,3.78,1.04
34.9130,0.07,0.15,-0.98,3.42,3.91,0.31
34.9290,0.08,0.14,-0.98,3.30,4.09,0.18
34.9460,0.08,0.14,-0.98,3.23,3.78,0.00
34.9630,0.07,0.15,-0.98,3.72,3.91,-0.31
34.9780,0.07,0.15,-0.98,3.23,4.27,-1.04
34.9930,0.08,0.14,-0.98,3.11,4.15,-1.46
34.9960,0.07,0.14,-0.98,3.30,4.09,-1.59
35.0230,0.07,0.13,-0.98,3.30,4.27,-1.46
35.0290,0.07,0.13,-0.98,3.36,4.33,-1.65
35.0530,0.07,0.14,-0.98,3.36,3.85,-1.83
35.0630,0.10,0.11,-0.98,2.87,3.91,-1.83
35.0780,0.08,0.14,-0.98,4.21,4.39,-1.34
35.0950,0.10,0.10,-0.98,2.62,3.91,-0.92
35.1120,0.08,0.13,-0.98,3.72,3.91,0.24
35.1290,0.08,0.13,-0.99,3.30,3.78,0.73
35.1450,0.09,0.12,-0.98,3.17,3.91,1.10
35.1460,0.08,0.13,-0.99,3.17,3.48,1.53
35.1750,0.08,0.13,-0.98,3.30,3.54,1.71
35.1900,0.08,0.13,-0.98,3.23,3.85,1.89
35.1960,0.08,0.13,-0.98,3.17,4.03,1.83
35.2210,0.07,0.14,-0.98,3.30,3.48,1.83
35.2290,0.08,0.13,-0.98,2.69,3.48,2.01
35.2520,0.08,0.13,-0.98,3.36,3.66,2.26
35.2630,0.08,0.14,-0.98,3.17,3.85,2.50
35.2790,0.07,0.14,-0.98,3.11,3.91,2.32
35.2970,0.07,0.14,-0.98,3.11,3.54,2.32
35.3120,0.07,0.14,-0.98,3.11,3.54,2.26
35.3130,0.07,0.14,-0.98,3.11,3.85,2.32
35.3300,0.08,0.13,-0.98,3.23,3.54,2.14
35.3580,0.08,0.14,-0.98,3.17,3.48,2.32
35.3730,0.08,0.14,-0.98,3.23,3.66,2.26
35.3800,0.07,0.14,-0.98,3.17,3.91,2.38
35.4030,0.06,0.14,-0.98,3.05,3.97,2.20
35.4130,0.07,0.15,-0.98,3.66,3.91,1.95
35.4300,0.09,0.12,-0.99,2.81,3.78,1.53
35.4450,0.09,0.13,-0.98,3.11,3.66,1.22
35.4620,0.10,0.12,-0.98,2.50,3.48,1.34
35.4780,0.09,0.14,-0.98,3.91,4.21,1.95
35.4910,0.08,0.13,-0.98,2.99,3.91,1.77
35.5080,0.08,0.14,-0.98,3.36,3.66,2.08
35.5220,0.08,0.13,-0.98,3.05,3.54,1.95
35.5290,0.08,0.13,-0.98,3.36,3.91,1.89
35.5530,0.08,0.13,-0.98,3.30,3.78,2.14
35.5690,0.08,0.13,-0.98,3.48,3.60,1.46
35.5790,0.08,0.14,-0.98,3.54,4.21,0.55
35.5950,0.08,0.13,-0.98,3.42,3.66,0.43
35.6130,0.08,0.14,-0.98,3.54,3.72,0.73
35.6290,0.08,0.14,-0.98,3.23,3.85,1.34
35.6450,0.08,0.14,-0.98,2.62,3.72,1.89
35.6460,0.08,0.14,-0.98,1.77,3.48,1.83
35.6620,0.08,0.13,-0.98,1.89,3.72,2.01
35.6890,0.08,0.13,-0.98,2.56,3.30,1.95
35.7050,0.08,0.13,-0.98,3.42,3.66,2.01
35.7120,0.08,0.14,-0.98,4.33,3.85,2.08
35.7290,0.08,0.14,-0.98,4.33,3.91,2.08
35.7460,0.08,0.14,-0.98,4.15,3.66,2.14
35.7630,0.07,0.14,-0.98,3.42,3.72,1.22
35.7790,0.08,0.14,-0.98,2.99,3.66,1.95
35.7950,0.07,0.13,-0.98,2.75,3.66,2.26
35.8100,0.08,0.13,-0.98,2.75,3.60,2.62
35.8250,0.08,0.13,-0.98,3.05,3.36,2.75
35.8410,0.07,0.13,-0.99,2.99,3.78,3.05
35.8560,0.07,0.13,-0.99,3.11,3.72,3.11
35.8630,0.06,0.13,-0.99,3.11,3.48,3.23
35.8810,0.06,0.14,-0.99,2.93,3.17,3.72
35.8960,0.05,0.13,-0.99,1.89,3.30,4.39
35.9130,0.06,0.13,-0.98,2.26,3.17,5.07
35.9300,0.07,0.13,-0.99,2.38,3.17,6.77
35.9450,0.09,0.13,-0.98,2.38,2.93,9.22
35.9630,0.07,0.13,-0.98,2.38,2.93,8.85
35.9780,0.06,0.12,-0.99,3.11,2.75,9.70
35.9930,0.06,0.13,-0.99,2.81,2.62,10.56
35.9960,0.07,0.14,-0.98,2.69,2.50,11.11
36.0230,0.09,0.15,-0.98,2.01,2.44,11.29
36.0290,0.09,0.14,-0.98,2.20,2.32,10.86
36.0470,0.08,0.14,-0.98,2.20,2.62,10.80
36.0620,0.07,0.13,-0.99,2.44,2.62,11.41
36.0800,0.08,0.13,-0.98,2.75,2.87,12.57
36.0960,0.10,0.14,-0.98,3.36,2.93,11.05
36.1120,0.09,0.14,-0.98,3.72,3.30,6.53
36.1290,0.07,0.13,-0.99,3.42,3.60,4.88
36.1430,0.07,0.13,-0.99,3.11,3.60,3.85
36.1450,0.07,0.14,-0.98,2.75,3.91,3.85
36.1630,0.07,0.13,-0.98,1.59,3.42,4.52
36.1790,0.06,0.14,-0.98,2.62,3.30,6.23
36.1970,0.06,0.13,-0.99,2.56,3.05,6.84
36.2200,0.05,0.14,-0.99,2.62,3.42,7.93
36.2290,0.06,0.14,-0.99,2.14,2.93,9.58
36.2460,0.09,0.14,-0.98,2.01,2.50,10.80
36.2630,0.11,0.14,-0.97,2.14,2.62,7.81
36.2790,0.11,0.14,-0.98,2.81,2.87,5.98
36.2950,0.08,0.14,-0.98,4.15,3.17,4.70
36.3100,0.07,0.13,-0.99,3.48,3.54,3.97
36.3130,0.07,0.14,-0.98,3.66,3.72,4.03
36.3410,0.07,0.14,-0.98,3.66,3.11,4.46
36.3560,0.08,0.14,-0.98,3.97,3.23,4.64
36.3720,0.07,0.13,-0.99,4.03,3.66,4.21
36.3790,0.08,0.14,-0.98,3.60,3.36,3.97
36.4020,0.09,0.14,-0.98,3.48,3.36,3.78
36.4120,0.10,0.15,-0.98,3.66,3.30,3.72
36.4290,0.10,0.15,-0.98,3.72,2.93,3.30
36.4460,0.08,0.14,-0.98,3.23,3.78,2.93
36.4620,0.08,0.14,-0.98,3.54,3.97,2.56
36.4770,0.08,0.14,-0.98,3.42,3.66,2.26
36.4920,0.08,0.14,-0.98,3.30,3.54,2.20
36.5070,0.08,0.14,-0.98,3.36,3.60,1.95
36.5130,0.08,0.14,-0.98,2.93,3.66,2.01
36.5300,0.08,0.14,-0.98,2.32,4.03,1.89
36.5460,0.08,0.14,-0.98,2.50,3.85,2.14
36.5630,0.08,0.14,-0.98,2.56,3.97,2.01
36.5790,0.08,0.14,-0.98,2.75,3.54,2.01
36.5960,0.08,0.14,-0.98,3.23,3.60,2.14
36.6130,0.08,0.14,-0.98,3.30,3.60,2.01
36.6290,0.08,0.14,-0.98,2.69,3.30,2.01
36.6450,0.08,0.14,-0.98,2.50,3.91,1.89
36.6460,0.08,0.14,-0.98,2.56,3.60,2.01
36.6750,0.08,0.14,-0.99,2.69,3.60,2.01
36.6890,0.08,0.14,-0.98,2.56,3.66,2.01
36.6960,0.08,0.14,-0.98,2.50,3.48,1.77
36.7150,0.08,0.13,-0.98,2.44,3.48,1.95
36.7300,0.08,0.14,-0.98,3.17,3.30,1.89
36.7460,0.08,0.14,-0.98,3.36,3.48,2.01
36.7620,0.07,0.15,-1.00,2.87,3.30,1.89
36.7800,0.08,0.14,-0.99,0.12,3.60,1.77
36.7920,0.08,0.12,-0.98,1.65,3.60,1.95
36.8090,0.08,0.14,-0.98,3.17,3.85,1.95
36.8130,0.08,0.13,-0.98,2.87,3.72,1.95
36.8400,0.08,0.14,-0.98,3.48,3.66,1.95
36.8460,0.08,0.14,-0.98,3.05,3.66,2.08
36.8620,0.08,0.14,-0.99,2.75,3.48,2.01
36.8860,0.08,0.14,-0.98,3.05,3.60,1.95
36.8960,0.08,0.13,-0.98,2.93,3.72,1.89
36.9130,0.08,0.14,-0.98,2.93,3.54,2.08
36.9300,0.08,0.14,-0.98,2.93,3.72,2.01
36.9450,0.08,0.14,-0.98,3.30,3.48,2.08
36.9470,0.08,0.14,-0.98,3.23,3.54,2.20
36.9760,0.08,0.13,-0.98,2.87,3.42,2.14
36.9910,0.08,0.14,-0.98,3.17,3.54,2.14
36.9960,0.08,0.13,-0.98,2.62,3.54,2.01
37.0210,0.08,0.13,-0.98,2.38,3.42,1.95
37.0370,0.08,0.13,-0.98,2.69,3.36,1.89
37.0520,0.08,0.13,-0.98,2.56,3.85,1.89
37.0630,0.08,0.13,-0.98,2.87,3.78,1.89
37.0800,0.08,0.14,-0.99,3.42,3.60,2.08
37.0960,0.08,0.14,-0.98,3.17,4.09,1.95
37.1120,0.08,0.13,-0.98,3.05,3.91,1.95
37.1270,0.08,0.13,-0.98,3.30,3.85,2.01
37.1420,0.08,0.14,-0.99,3.11,3.42,1.95
37.1460,0.08,0.13,-0.98,2.93,3.91,1.95
37.1720,0.08,0.14,-0.98,2.87,3.85,1.95
37.1870,0.08,0.14,-0.98,2.26,3.54,2.01
37.1960,0.08,0.14,-0.98,2.62,3.54,1.95
37.2140,0.08,0.13,-0.98,3.11,3.60,2.08
37.2290,0.08,0.14,-0.99,3.17,3.72,2.08
37.2460,0.08,0.14,-0.99,2.62,3.78,2.08
37.2630,0.12,0.16,-0.97,0.00,3.91,1.10
37.2630,0.11,0.16,-0.97,2.87,4.58,-2.69
37.2930,0.06,0.09,-0.99,4.09,4.46,-1.16
37.3080,0.05,0.09,-0.99,3.85,4.09,1.89
37.3130,0.06,0.13,-0.99,3.85,3.78,1.77
37.3380,0.08,0.14,-0.98,3.30,3.85,1.89
37.3530,0.08,0.14,-0.98,3.17,3.30,2.44
37.3630,0.07,0.13,-0.98,3.05,3.72,3.23
37.3790,0.07,0.13,-0.99,3.23,3.42,3.54
37.3950,0.06,0.12,-0.99,3.36,3.78,3.30
37.4120,0.07,0.13,-0.98,3.36,3.66,2.20
37.4290,0.08,0.14,-0.98,3.17,3.78,2.08
37.4460,0.08,0.14,-0.98,3.23,3.54,2.20
37.4620,0.09,0.15,-0.98,2.32,3.85,2.62
37.4770,0.09,0.15,-0.98,1.89,3.48,3.72
37.4910,0.08,0.14,-0.98,2.44,2.99,4.09
37.4960,0.07,0.12,-0.98,2.62,3.36,3.91
37.5220,0.06,0.12,-0.99,2.93,3.36,3.30
37.5290,0.07,0.13,-0.99,2.93,3.48,3.17
37.5460,0.07,0.14,-0.98,2.87,3.48,3.36
37.5630,0.09,0.15,-0.98,2.81,3.48,3.72
37.5790,0.10,0.15,-0.98,2.69,2.99,5.74
37.5970,0.08,0.13,-0.98,2.75,3.30,6.41
37.6110,0.06,0.12,-0.99,2.93,3.23,4.76
37.6260,0.07,0.12,-0.99,2.93,3.17,2.93
37.6430,0.08,0.13,-0.98,2.32,3.48,2.50
37.6570,0.08,0.13,-0.98,2.93,3.48,2.62
37.6630,0.07,0.13,-0.98,2.75,3.30,3.17
37.6790,0.06,0.12,-0.99,2.99,3.42,3.11
37.6970,0.06,0.12,-0.99,3.05,3.54,2.50
37.7130,0.07,0.14,-0.99,3.36,3.66,2.14
37.7290,0.08,0.14,-0.98,2.50,3.72,2.01
37.7480,0.10,0.16,-0.98,2.75,3.91,3.48
37.7630,0.08,0.14,-0.98,2.69,2.81,5.25
37.7770,0.07,0.13,-0.99,2.69,2.75,5.62
37.7930,0.06,0.12,-0.99,2.81,3.30,4.82
37.7980,0.06,0.12,-0.99,3.05,3.48,3.48
37.8150,0.07,0.13,-0.98,2.87,3.72,2.14
37.8310,0.07,0.13,-0.98,3.17,3.72,2.01
37.8490,0.08,0.13,-0.98,3.17,3.66,2.01
37.8650,0.08,0.13,-0.98,2.87,3.42,1.89
37.8810,0.11,0.14,-0.97,2.26,3.91,2.01
37.8970,0.10,0.16,-0.98,2.93,3.36,3.30
37.9130,0.10,0.15,-0.98,2.69,3.30,4.76
37.9150,0.05,0.11,-0.99,3.30,3.11,4.09
37.9430,0.04,0.11,-0.99,3.11,3.48,1.53
37.9480,0.07,0.13,-0.98,3.42,3.72,1.40
37.9730,0.08,0.13,-0.98,3.48,3.23,1.59
37.9820,0.08,0.14,-0.98,3.30,3.23,1.59
37.9980,0.08,0.13,-0.99,2.81,3.66,2.20
38.0140,0.08,0.13,-0.98,2.87,3.85,1.89
38.0310,0.08,0.13,-0.98,3.17,4.03,1.89
38.0480,0.08,0.13,-0.98,3.48,3.91,2.08
38.0480,0.08,0.13,-0.98,3.11,3.66,2.01
38.0780,0.08,0.13,-0.98,3.11,3.85,2.08
38.0820,0.08,0.13,-0.98,3.36,3.54,1.95
38.1070,0.08,0.13,-0.98,3.17,3.66,1.83
38.1250,0.08,0.13,-0.98,3.11,3.42,1.71
38.1410,0.09,0.13,-0.98,2.99,4.03,1.10
38.1560,0.08,0.13,-0.99,3.17,3.85,1.04
38.1650,0.08,0.13,-0.98,3.17,3.91,1.59
38.1810,0.07,0.13,-0.98,3.05,3.91,1.53
38.1970,0.08,0.13,-0.98,3.23,3.42,1.77
38.2150,0.08,0.13,-0.98,3.17,3.36,1.71
38.2310,0.08,0.13,-0.98,3.05,3.66,1.83
38.2460,0.08,0.13,-0.98,3.05,4.03,1.71
38.2620,0.08,0.13,-0.98,2.87,3.36,1.95
38.2770,0.08,0.13,-0.98,2.99,3.54,2.08
38.2810,0.08,0.13,-0.98,2.93,3.72,2.20
38.2980,0.08,0.13,-0.98,3.11,3.66,2.08
38.3220,0.07,0.13,-0.98,3.05,3.78,0.92
38.3320,0.07,0.13,-0.98,3.17,3.60,0.67
38.3480,0.07,0.14,-0.98,3.05,3.17,0.92
38.3640,0.07,0.14,-0.98,2.75,3.72,1.10
38.3810,0.08,0.14,-0.98,2.56,3.85,1.71
38.3940,0.07,0.13,-0.98,2.69,3.72,1.83
38.4120,0.08,0.13,-0.98,3.23,3.48,1.89
38.4140,0.08,0.13,-0.98,3.23,3.66,2.01
38.4420,0.08,0.14,-0.98,3.17,3.54,2.08
38.4480,0.08,0.14,-0.98,2.93,3.48,2.01
38.4720,0.08,0.13,-0.98,2.93,3.72,1.95
38.4820,0.08,0.13,-0.98,3.05,3.78,1.95
38.4980,0.08,0.13,-0.98,2.87,3.66,1.89
38.5150,0.08,0.13,-0.98,3.05,3.78,1.89
38.5310,0.08,0.14,-0.98,3.17,3.91,2.08
38.5490,0.08,0.14,-0.98,2.81,3.54,1.89
38.5630,0.08,0.13,-0.98,2.99,3.60,1.89
38.5650,0.08,0.13,-0.98,2.87,3.66,1.89
38.5810,0.08,0.13,-0.98,2.93,3.85,1.77
38.6090,0.08,0.13,-0.98,2.99,3.78,1.65
38.6150,0.08,0.14,-0.98,2.93,3.78,1.83
38.6390,0.08,0.13,-0.98,2.62,3.91,2.08
38.6480,0.08,0.13,-0.98,2.93,3.54,2.20
38.6640,0.08,0.13,-0.98,2.99,3.66,2.20
38.6820,0.08,0.13,-0.98,3.23,3.91,2.08
38.6980,0.08,0.14,-0.98,3.23,3.54,1.95
38.7140,0.08,0.14,-0.98,2.87,3.30,1.83
38.7140,0.07,0.14,-0.98,2.62,3.48,2.01
38.7440,0.07,0.13,-0.98,2.81,3.60,2.01
38.7480,0.07,0.13,-0.98,3.36,3.66,1.77
38.7740,0.07,0.13,-0.98,3.48,3.60,1.71
38.7890,0.08,0.13,-0.98,3.17,3.85,1.83
38.7980,0.08,0.14,-0.98,3.05,3.78,1.77
38.8150,0.08,0.13,-0.98,2.81,3.91,1.89
38.8310,0.07,0.13,-0.98,2.56,3.72,1.89
38.8490,0.08,0.13,-0.98,2.69,3.72,2.08
38.8640,0.08,0.14,-0.98,2.75,3.54,1.83
38.8650,0.08,0.13,-0.98,2.75,3.54,1.95
38.8820,0.08,0.13,-0.99,2.81,3.72,1.89
38.8980,0.08,0.13,-0.98,2.75,3.54,1.89
38.9240,0.08,0.13,-0.98,3.05,3.66,1.95
38.9390,0.08,0.13,-0.98,3.11,3.85,1.89
38.9480,0.08,0.13,-0.98,3.05,3.60,1.89
38.9650,0.08,0.13,-0.98,2.81,3.91,1.95
38.9810,0.08,0.13,-0.98,2.81,3.72,1.83
38.9990,0.08,0.13,-0.98,2.93,3.66,1.95
39.0140,0.08,0.13,-0.98,3.05,3.48,1.89
39.0150,0.08,0.13,-0.98,3.11,3.72,1.95
39.0440,0.08,0.13,-0.98,2.99,3.97,1.77
39.0480,0.08,0.14,-0.99,2.93,3.78,1.53
39.0740,0.08,0.13,-0.98,2.81,3.72,1.59
39.0810,0.08,0.13,-0.98,2.69,3.54,1.83
39.0990,0.08,0.13,-0.98,2.93,3.66,2.01
39.1150,0.08,0.13,-0.98,2.87,3.66,2.20
39.1320,0.08,0.13,-0.98,3.11,3.78,2.14
39.1480,0.08,0.13,-0.98,2.99,3.78,1.95
39.1650,0.08,0.13,-0.98,2.81,3.78,1.95
39.1650,0.08,0.14,-0.98,2.87,3.42,1.89
39.1940,0.08,0.13,-0.98,2.81,3.72,2.14
39.1970,0.08,0.13,-0.98,3.05,3.60,2.14
39.2250,0.08,0.14,-0.98,2.81,3.42,2.32
39.2400,0.07,0.14,-0.98,2.99,3.60,2.56
39.2480,0.07,0.13,-0.98,2.69,3.54,2.44
39.2640,0.07,0.13,-0.98,2.75,3.72,2.14
39.2820,0.08,0.13,-0.98,2.99,3.54,2.26
39.2980,0.08,0.13,-0.98,2.93,3.66,2.08
39.3140,0.08,0.13,-0.98,3.11,3.66,2.26
39.3310,0.08,0.13,-0.98,2.99,3.48,2.38
39.3460,0.08,0.13,-0.99,3.23,3.72,2.32
39.3480,0.08,0.13,-0.98,3.05,3.85,2.14
39.3660,0.08,0.13,-0.98,3.05,3.72,2.14
39.3900,0.08,0.13,-0.98,2.81,3.60,1.95
39.4060,0.08,0.13,-0.98,2.69,3.85,1.95
39.4150,0.07,0.13,-0.98,2.69,3.85,2.01
39.4320,0.08,0.13,-0.98,2.99,3.66,1.71
39.4480,0.07,0.13,-0.98,3.05,3.66,1.77
39.4660,0.08,0.13,-0.98,2.93,3.60,1.71
39.4810,0.08,0.13,-0.98,2.50,3.78,1.83
39.4980,0.08,0.13,-0.98,3.11,3.54,2.01
39.5120,0.08,0.13,-0.98,2.93,3.72,2.14
39.5280,0.08,0.13,-0.98,2.81,3.54,2.26
39.5310,0.08,0.13,-0.98,2.87,3.54,2.20
39.5480,0.08,0.14,-0.98,2.75,3.72,2.44
39.5660,0.08,0.13,-0.98,2.69,3.54,2.62
39.5810,0.08,0.13,-0.98,2.99,3.60,2.75
39.5990,0.07,0.13,-0.98,3.05,3.48,2.75
39.6150,0.08,0.13,-0.98,3.17,3.66,2.38
39.6320,0.07,0.13,-0.98,2.87,3.66,2.26
39.6480,0.08,0.13,-0.98,2.87,3.72,2.08
39.6640,0.07,0.13,-0.98,2.99,3.36,2.26
39.6780,0.07,0.13,-0.98,2.81,3.72,2.26
39.6940,0.07,0.13,-0.98,2.81,3.60,1.89
39.7080,0.08,0.13,-0.98,2.99,3.91,1.83
39.7140,0.08,0.13,-0.98,3.11,3.66,1.83
39.7320,0.08,0.13,-0.98,3.05,3.60,2.01
39.7490,0.08,0.13,-0.98,3.05,3.66,1.89
39.7650,0.08,0.13,-0.98,3.11,3.72,1.83
39.7810,0.08,0.13,-0.98,3.30,3.91,2.01
39.7990,0.08,0.13,-0.98,3.05,3.48,1.89
39.8130,0.08,0.13,-0.98,2.81,3.60,1.71
39.8140,0.08,0.13,-0.98,2.99,4.03,1.83
39.8310,0.08,0.13,-0.98,2.99,3.97,1.95
39.8580,0.08,0.13,-0.98,2.99,3.78,1.95
39.8650,0.08,0.13,-0.98,2.99,3.72,2.08
39.8880,0.08,0.13,-0.98,3.17,4.03,1.95
39.8970,0.08,0.13,-0.98,2.99,3.78,1.89
39.9140,0.08,0.13,-0.98,3.23,3.78,1.89
39.9330,0.08,0.13,-0.98,2.99,3.48,1.77
39.9490,0.08,0.13,-0.98,2.93,3.54,1.89
39.9650,0.08,0.13,-0.98,2.93,3.66,1.83
39.9800,0.08,0.13,-0.98,2.99,3.91,1.95
39.9940,0.08,0.13,-0.98,3.05,3.78,1.83
39.9980,0.08,0.13,-0.98,3.11,3.72,2.01
40.0150,0.08,0.13,-0.98,3.17,3.60,1.89
40.0400,0.08,0.13,-0.98,3.05,3.85,2.08
40.0550,0.08,0.13,-0.98,3.17,3.78,2.01
40.0650,0.08,0.13,-0.98,2.93,3.72,2.01
40.0820,0.08,0.13,-0.98,2.93,3.78,2.08
40.0980,0.08,0.13,-0.98,2.93,3.60,1.83
40.1160,0.08,0.13,-0.98,2.99,3.54,1.83
40.1300,0.08,0.13,-0.98,2.87,3.60,1.95
40.1460,0.08,0.13,-0.98,2.81,3.72,2.26
40.1480,0.08,0.13,-0.98,2.87,3.54,2.20
40.1760,0.08,0.13,-0.98,2.81,3.42,2.20
40.1820,0.08,0.13,-0.98,2.93,3.72,2.14
40.2060,0.08,0.13,-0.98,2.87,3.66,2.20
40.2150,0.08,0.13,-0.98,2.87,3.78,2.20
40.2320,0.08,0.13,-0.98,2.81,3.72,2.32
40.2480,0.07,0.13,-0.98,2.87,3.48,2.26
40.2650,0.08,0.13,-0.98,2.99,3.66,2.20
40.2820,0.08,0.13,-0.98,2.93,3.48,2.14
40.2990,0.08,0.13,-0.98,2.81,3.66,2.26
40.3150,0.08,0.13,-0.98,2.81,3.85,2.08
40.3300,0.08,0.13,-0.98,3.17,3.42,2.14
40.3310,0.08,0.13,-0.98,2.99,3.66,2.14
40.3610,0.08,0.13,-0.98,2.93,3.85,2.14
40.3760,0.08,0.13,-0.98,3.05,3.78,2.08
40.3810,0.08,0.13,-0.98,2.99,3.91,2.01
40.4060,0.08,0.13,-0.98,3.05,3.66,1.89
40.4140,0.08,0.13,-0.98,2.93,3.54,2.01
40.4320,0.08,0.13,-0.98,3.05,3.72,1.95
40.4480,0.07,0.13,-0.98,2.81,3.78,2.01
40.4640,0.08,0.13,-0.98,2.99,3.66,2.20
40.4830,0.08,0.13,-0.98,3.05,3.91,2.01
40.4980,0.08,0.13,-0.98,2.87,3.72,2.01
40.5140,0.08,0.13,-0.98,3.11,3.54,2.14
40.5290,0.08,0.13,-0.98,2.99,3.36,2.14
40.5310,0.08,0.13,-0.98,2.87,3.66,2.01
40.5590,0.08,0.13,-0.98,2.99,3.91,2.01
40.5730,0.07,0.13,-0.98,2.99,3.60,2.08
40.5820,0.07,0.13,-0.98,2.99,3.91,2.20
40.5980,0.08,0.13,-0.98,3.11,3.78,2.26
40.6150,0.08,0.13,-0.98,2.87,3.72,2.20
40.6320,0.08,0.13,-0.98,2.93,3.66,2.08
40.6480,0.08,0.13,-0.98,2.93,3.66,2.44
40.6640,0.08,0.13,-0.98,2.99,3.60,2.38
40.6780,0.08,0.13,-0.98,2.99,3.60,2.14
40.6930,0.08,0.13,-0.98,2.87,3.78,2.20
40.6980,0.07,0.13,-0.98,2.87,3.54,2.38
40.7140,0.08,0.13,-0.98,2.93,3.66,2.08
40.7330,0.07,0.13,-0.98,2.87,3.72,2.14
40.7480,0.08,0.13,-0.98,2.93,3.60,2.14
40.7650,0.08,0.13,-0.98,2.93,3.85,2.01
40.7820,0.08,0.13,-0.98,3.05,3.36,2.20
40.7980,0.08,0.13,-0.98,2.87,3.66,2.14
40.8140,0.08,0.13,-0.98,2.93,3.48,2.14
40.8280,0.08,0.13,-0.98,2.81,3.66,2.14
40.8440,0.08,0.13,-0.98,2.93,3.78,1.95
40.8480,0.08,0.13,-0.98,3.05,4.03,1.83
40.8740,0.08,0.13,-0.98,2.93,3.72,1.83
40.8820,0.07,0.13,-0.98,2.75,3.78,1.77
40.8990,0.07,0.13,-0.98,2.69,4.09,1.89
40.9140,0.08,0.13,-0.98,3.05,3.72,2.01
40.9310,0.08,0.13,-0.98,2.81,3.54,2.08
40.9490,0.08,0.13,-0.98,2.93,3.78,2.08
40.9640,0.08,0.13,-0.98,3.17,3.36,1.83
40.9650,0.08,0.13,-0.98,3.05,3.85,1.95
40.9940,0.08,0.13,-0.98,2.75,3.85,1.89
40.9980,0.08,0.13,-0.98,2.99,3.36,2.08
41.0250,0.08,0.13,-0.98,2.81,3.54,2.20
41.0400,0.08,0.13,-0.98,3.05,3.72,2.20
41.0490,0.08,0.13,-0.98,2.75,3.85,2.08
41.0640,0.08,0.13,-0.98,2.87,3.60,2.08
41.0810,0.08,0.13,-0.98,2.87,3.78,2.32
41.0990,0.08,0.13,-0.98,2.81,3.85,2.38
41.1150,0.08,0.13,-0.98,2.99,3.60,2.14
41.1300,0.08,0.13,-0.98,2.93,3.66,2.14
41.1450,0.08,0.13,-0.98,2.81,3.54,2.01
41.1590,0.08,0.13,-0.98,3.11,3.54,1.95
41.1650,0.07,0.13,-0.98,2.81,3.91,1.95
41.1820,0.08,0.13,-0.98,2.81,3.42,2.01
41.1980,0.08,0.13,-0.98,2.87,3.66,1.95
41.2150,0.08,0.13,-0.98,2.93,3.85,1.95
41.2330,0.08,0.13,-0.98,2.99,3.54,1.95
41.2490,0.07,0.13,-0.98,2.87,3.78,2.14
41.2640,0.07,0.13,-0.98,2.81,3.72,1.83
41.2650,0.08,0.13,-0.98,2.93,3.85,1.77
41.2950,0.08,0.13,-0.98,2.87,4.21,1.83
41.2980,0.08,0.13,-0.98,2.69,3.72,1.95
41.3150,0.07,0.13,-0.98,2.93,3.66,1.89
41.3390,0.08,0.13,-0.98,3.05,3.85,1.89
41.3550,0.08,0.13,-0.98,3.05,3.54,1.89
41.3640,0.08,0.13,-0.98,3.05,3.66,1.89
41.3830,0.08,0.13,-0.98,3.05,3.66,1.89
41.3990,0.08,0.13,-0.98,2.93,3.72,1.95
41.4140,0.08,0.13,-0.98,3.05,3.91,1.95
41.4300,0.08,0.13,-0.98,3.05,3.48,2.01
41.4320,0.08,0.13,-0.98,2.87,3.66,2.01
41.4470,0.08,0.13,-0.98,2.62,3.42,2.20
41.4750,0.08,0.13,-0.98,2.69,3.23,2.26
41.4810,0.08,0.13,-0.98,2.81,3.78,2.20
41.4980,0.08,0.13,-0.98,2.87,3.85,2.20
41.5150,0.08,0.13,-0.98,2.93,3.72,2.32
41.5330,0.08,0.13,-0.98,2.75,3.78,2.26
41.5480,0.08,0.13,-0.98,2.81,3.42,2.26
41.5650,0.08,0.13,-0.98,2.75,3.60,2.56
41.5790,0.07,0.13,-0.98,2.56,3.60,2.44
41.5950,0.08,0.13,-0.98,2.75,3.66,2.01
41.5980,0.08,0.13,-0.98,2.69,3.91,2.44
41.6240,0.07,0.13,-0.98,3.11,3.72,2.44
41.6390,0.07,0.13,-0.98,2.93,3.66,2.32
41.6480,0.07,0.13,-0.98,2.99,3.66,2.14
41.6660,0.08,0.13,-0.99,3.05,3.72,2.08
41.6820,0.08,0.13,-0.98,3.11,3.85,2.14
41.6980,0.08,0.13,-0.98,2.87,3.48,2.20
41.7150,0.08,0.13,-0.98,2.75,3.48,2.26
41.7290,0.08,0.13,-0.98,2.81,3.30,2.62
41.7440,0.08,0.13,-0.98,2.99,3.78,2.75
41.7480,0.08,0.13,-0.98,2.87,3.42,2.99
41.7750,0.08,0.13,-0.98,2.93,3.66,3.23
41.7820,0.09,0.13,-0.98,2.69,3.36,3.36
41.8050,0.08,0.13,-0.98,2.81,3.23,3.72
41.8150,0.08,0.13,-0.99,2.81,3.54,3.78
41.8310,0.08,0.13,-0.98,3.05,3.48,3.36
41.8490,0.08,0.13,-0.99,2.99,3.66,3.23
41.8650,0.08,0.13,-0.98,2.93,3.30,2.99
41.8790,0.08,0.13,-0.98,2.81,3.42,3.05
41.8950,0.08,0.13,-0.98,2.75,3.54,3.30
41.8980,0.07,0.13,-0.98,2.93,3.54,3.11
41.9250,0.07,0.13,-0.98,2.81,3.54,2.81
41.9410,0.08,0.13,-0.99,3.05,3.60,2.08
41.9560,0.07,0.13,-0.98,3.05,3.72,1.95
41.9640,0.08,0.13,-0.98,3.11,3.48,1.77
41.9810,0.07,0.13,-0.98,2.93,3.97,1.83
41.9980,0.07,0.13,-0.98,2.99,3.91,2.01
42.0150,0.07,0.13,-0.98,3.23,3.66,2.01
42.0310,0.07,0.13,-0.98,3.17,3.91,1.89
42.0320,0.08,0.13,-0.98,3.30,3.60,1.83
42.0600,0.08,0.13,-0.98,3.17,3.97,1.89
42.0650,0.08,0.13,-0.98,3.17,3.85,1.77
42.0910,0.08,0.13,-0.98,3.05,3.78,1.71
42.1050,0.08,0.13,-0.98,3.05,3.60,1.65
42.1150,0.08,0.13,-0.98,2.81,3.72,1.77
42.1310,0.08,0.13,-0.98,2.93,3.78,1.95
42.1490,0.08,0.13,-0.98,2.87,3.60,1.71
42.1650,0.08,0.13,-0.98,3.11,3.42,1.83
42.1810,0.08,0.13,-0.98,2.93,3.66,1.65
42.1960,0.08,0.13,-0.98,2.93,3.91,1.77
42.1980,0.08,0.13,-0.98,2.99,3.91,1.77
42.2270,0.08,0.13,-0.98,3.05,3.72,1.77
42.2310,0.08,0.13,-0.98,3.11,3.78,1.89
42.2480,0.08,0.13,-0.98,2.99,3.42,2.08
42.2650,0.08,0.13,-0.98,3.11,3.60,1.83
42.2810,0.08,0.13,-0.98,2.99,3.72,1.89
42.2980,0.08,0.13,-0.98,3.23,3.72,1.83
42.3160,0.08,0.13,-0.98,3.11,3.54,2.08
42.3320,0.08,0.13,-0.98,2.99,3.60,1.89
42.3320,0.08,0.13,-0.98,3.11,3.78,1.95
42.3620,0.08,0.13,-0.98,2.87,3.72,1.95
42.3760,0.08,0.13,-0.98,2.87,3.66,1.95
42.3810,0.08,0.13,-0.98,2.87,3.72,2.01
42.3980,0.07,0.13,-0.98,2.93,3.78,1.83
42.4160,0.07,0.13,-0.98,2.99,3.78,2.01
42.4320,0.07,0.13,-0.98,2.87,3.54,2.14
42.4480,0.08,0.13,-0.98,2.75,3.54,2.20
42.4660,0.08,0.13,-0.98,2.87,3.78,2.38
42.4810,0.08,0.13,-0.98,2.81,3.78,2.20
42.4810,0.08,0.13,-0.98,2.87,3.72,2.32
42.4990,0.08,0.13,-0.98,2.87,3.54,2.44
42.5270,0.08,0.13,-0.98,2.87,3.78,2.14
42.5310,0.08,0.13,-0.98,2.69,3.66,2.08
42.5490,0.08,0.13,-0.98,2.69,3.91,2.08
42.5730,0.08,0.13,-0.98,2.87,3.54,2.14
42.5820,0.07,0.13,-0.98,2.93,3.91,2.08
42.5980,0.07,0.13,-0.98,2.99,3.78,2.20
42.6150,0.08,0.13,-0.98,2.99,3.48,2.08
42.6310,0.08,0.13,-0.98,2.99,3.54,2.14
42.6480,0.08,0.13,-0.98,3.05,3.72,2.32
42.6650,0.08,0.13,-0.98,2.81,3.91,2.44
42.6650,0.08,0.13,-0.98,2.87,3.60,2.69
42.6940,0.08,0.13,-0.98,2.87,3.54,2.56
42.6990,0.08,0.13,-0.98,2.81,3.60,2.62
42.7250,0.08,0.13,-0.99,2.81,3.72,2.56
42.7390,0.08,0.13,-0.98,2.93,3.78,2.32
42.7550,0.08,0.13,-0.98,2.99,3.36,2.81
42.7650,0.08,0.13,-0.98,2.75,3.72,2.87
42.7820,0.08,0.13,-0.98,2.75,3.91,2.81
42.7990,0.08,0.13,-0.98,2.81,3.72,2.69
42.8160,0.07,0.13,-0.98,2.87,3.66,2.56
42.8310,0.08,0.13,-0.98,2.81,3.60,2.38
42.8470,0.08,0.13,-0.98,2.75,3.60,2.26
42.8490,0.08,0.13,-0.98,2.99,3.36,2.26
42.8650,0.08,0.13,-0.99,3.11,3.72,2.20
42.8810,0.07,0.13,-0.98,2.81,4.09,2.38
42.8980,0.07,0.13,-0.99,3.17,3.72,2.32
42.9230,0.08,0.13,-0.98,3.23,3.60,2.20
42.9310,0.08,0.13,-0.98,3.05,3.54,2.32
42.9490,0.08,0.13,-0.98,3.23,3.42,2.38
42.9650,0.08,0.13,-0.98,2.81,3.78,2.56
42.9820,0.08,0.13,-0.98,2.93,3.42,2.44
42.9980,0.08,0.13,-0.98,2.81,3.23,2.87
43.0140,0.08,0.13,-0.99,2.87,3.48,2.87
43.0320,0.07,0.13,-0.99,2.75,3.30,2.87
43.0320,0.08,0.13,-0.98,2.87,3.36,2.75
43.0620,0.07,0.13,-0.98,2.93,3.48,2.56
43.0650,0.08,0.13,-0.98,2.75,3.54,2.62
43.0820,0.08,0.13,-0.98,2.93,3.54,2.62
43.0980,0.07,0.13,-0.98,3.05,3.66,2.50
43.1150,0.08,0.13,-0.98,3.11,3.85,2.50
43.1320,0.07,0.13,-0.98,2.99,3.97,2.32
43.1480,0.08,0.13,-0.98,2.93,3.97,2.14
43.1650,0.08,0.13,-0.98,2.81,3.78,2.44
43.1820,0.08,0.13,-0.98,2.87,3.60,3.05
43.1980,0.07,0.13,-0.98,2.99,3.60,2.50
43.2140,0.08,0.13,-0.98,3.05,3.91,2.20
43.2150,0.08,0.13,-0.98,3.36,3.48,2.20
43.2430,0.08,0.13,-0.98,3.11,3.85,2.08
43.2470,0.08,0.13,-0.98,2.75,3.72,2.14
43.2640,0.07,0.13,-0.98,2.75,3.60,2.38
43.2890,0.08,0.13,-0.99,2.75,3.85,2.20
43.2980,0.08,0.13,-0.98,2.75,3.66,2.01
43.3150,0.08,0.13,-0.98,2.93,3.85,2.08
43.3310,0.08,0.13,-0.98,2.99,3.66,1.95
43.3480,0.08,0.13,-0.98,2.99,3.91,1.95
43.3640,0.08,0.13,-0.98,2.93,3.85,1.95
43.3800,0.08,0.13,-0.98,2.87,3.78,1.83
43.3960,0.08,0.13,-0.98,2.87,3.66,2.08
43.3980,0.08,0.13,-0.98,3.11,3.60,1.83
43.4150,0.08,0.13,-0.98,3.17,3.60,1.95
43.4320,0.08,0.13,-0.99,2.99,3.60,1.95
43.4550,0.08,0.13,-0.98,3.11,3.48,1.77
43.4640,0.08,0.13,-0.98,2.99,3.91,2.01
43.4810,0.08,0.13,-0.98,3.17,3.91,1.95
43.4990,0.08,0.13,-0.98,3.05,3.85,1.95
43.5150,0.08,0.13,-0.98,2.99,3.66,1.77
43.5310,0.08,0.13,-0.98,2.99,3.85,1.53
43.5480,0.08,0.13,-0.98,2.81,3.78,1.40
43.5640,0.08,0.13,-0.98,2.75,3.78,1.46
43.5790,0.08,0.13,-0.98,2.93,4.15,1.46
43.5820,0.08,0.13,-0.98,3.05,3.91,1.89
43.6080,0.08,0.13,-0.98,3.11,3.91,1.83
43.6140,0.08,0.13,-0.98,3.11,3.60,2.01
43.6390,0.08,0.13,-0.98,3.17,4.09,1.89
43.6480,0.08,0.13,-0.98,3.05,3.60,2.08
43.6650,0.07,0.13,-0.98,2.93,3.48,2.08
43.6820,0.08,0.13,-0.98,2.93,3.66,2.01
43.6990,0.07,0.13,-0.98,2.93,3.48,2.08
43.7140,0.08,0.13,-0.98,2.99,3.60,2.08
43.7140,0.07,0.13,-0.98,2.93,3.72,2.20
43.7440,0.08,0.13,-0.98,3.11,3.97,2.08
43.7480,0.08,0.13,-0.98,3.17,3.78,2.01
43.7650,0.08,0.13,-0.98,2.99,3.78,2.32
43.7820,0.08,0.13,-0.98,3.05,3.42,2.14
43.7990,0.08,0.13,-0.98,2.93,3.78,2.20
43.8150,0.08,0.13,-0.98,2.87,3.78,2.20
43.8310,0.07,0.13,-0.98,3.05,3.48,2.01
43.8500,0.08,0.13,-0.98,3.11,3.66,2.20
43.8650,0.08,0.13,-0.98,2.99,3.85,2.14
43.8650,0.08,0.13,-0.98,3.11,3.78,2.01
43.8950,0.08,0.13,-0.98,2.99,4.03,1.95
43.9090,0.08,0.13,-0.98,3.05,3.85,1.77
43.9140,0.08,0.13,-0.98,2.99,3.78,1.83
43.9310,0.08,0.13,-0.98,2.87,3.85,2.14
43.9490,0.07,0.13,-0.98,2.93,3.54,2.32
43.9640,0.07,0.13,-0.98,2.87,3.72,2.32
43.9820,0.08,0.13,-0.98,3.17,3.78,2.08
43.9990,0.07,0.13,-0.98,2.93,3.54,2.01
44.0150,0.08,0.13,-0.98,2.81,3.66,2.01
44.0150,0.08,0.13,-0.98,2.75,3.42,2.01
44.0320,0.08,0.13,-0.98,2.75,3.36,2.01
44.0590,0.08,0.13,-0.98,2.75,3.78,1.95
44.0650,0.08,0.13,-0.98,2.93,3.60,2.01
44.0900,0.08,0.13,-0.98,3.17,3.78,2.01
44.1000,0.08,0.13,-0.98,3.23,3.72,2.14
44.1150,0.08,0.13,-0.98,2.99,3.66,2.14
44.1310,0.08,0.13,-0.98,2.93,3.60,2.08
44.1490,0.07,0.13,-0.98,2.93,3.78,2.38
44.1650,0.08,0.13,-0.99,2.81,4.03,2.14
44.1800,0.08,0.13,-0.98,2.99,3.72,2.14
44.1820,0.08,0.13,-0.98,2.93,3.78,2.20
44.2000,0.08,0.13,-0.98,2.93,3.78,2.08
44.2150,0.08,0.13,-0.98,2.99,3.85,2.08
44.2400,0.08,0.13,-0.98,3.23,3.66,2.08
44.2560,0.08,0.13,-0.98,3.05,3.85,2.01
44.2650,0.08,0.13,-0.98,2.93,4.09,2.14
44.2820,0.08,0.13,-0.98,2.93,3.48,2.08
44.3000,0.08,0.13,-0.98,2.81,3.72,2.08
44.3140,0.08,0.13,-0.98,2.99,3.66,1.95
44.3320,0.08,0.13,-0.98,3.05,3.60,2.01
44.3480,0.08,0.13,-0.98,2.93,3.78,2.20
44.3640,0.08,0.13,-0.98,3.05,3.78,1.89
44.3650,0.08,0.13,-0.98,3.11,3.60,1.95
44.3940,0.08,0.13,-0.98,2.99,3.85,1.95
44.4080,0.08,0.13,-0.98,2.93,3.54,2.08
44.4150,0.08,0.13,-0.98,3.05,3.78,2.01
44.4320,0.08,0.13,-0.99,3.05,3.60,1.95
44.4490,0.08,0.13,-0.98,2.93,3.85,2.14
44.4650,0.08,0.13,-0.98,2.69,3.60,2.38
44.4820,0.08,0.13,-0.98,2.75,3.48,2.38
44.4980,0.08,0.13,-0.98,2.81,3.60,2.56
44.5140,0.08,0.13,-0.98,2.56,3.60,2.44
44.5150,0.08,0.13,-0.98,2.62,4.15,2.38
44.5450,0.08,0.13,-0.98,2.56,3.60,2.50
44.5600,0.08,0.13,-0.98,2.87,3.60,2.44
44.5650,0.08,0.13,-0.98,2.87,3.54,2.38
44.5820,0.08,0.13,-0.98,2.81,3.72,2.50
44.6000,0.08,0.13,-0.98,2.75,3.66,2.50
44.6140,0.08,0.13,-0.98,2.81,3.85,2.44
44.6320,0.08,0.13,-0.98,2.93,3.66,2.38
44.6490,0.07,0.13,-0.98,2.99,3.30,2.38
44.6650,0.07,0.13,-0.99,2.93,3.66,2.44
44.6800,0.07,0.13,-0.98,2.81,3.66,2.26
44.6950,0.07,0.13,-0.99,2.93,3.48,2.14
44.7110,0.07,0.13,-0.98,2.87,3.54,2.32
44.7260,0.07,0.13,-0.99,2.93,3.72,2.32
44.7320,0.07,0.13,-0.98,2.99,3.91,2.01
44.7490,0.07,0.13,-0.98,2.93,4.15,2.08
44.7660,0.07,0.13,-0.98,2.93,3.23,1.95
44.7820,0.08,0.13,-0.98,3.05,3.66,1.95
44.8000,0.08,0.13,-0.98,3.05,3.85,1.95
44.8150,0.08,0.13,-0.98,2.93,3.72,2.08
44.8310,0.08,0.13,-0.98,3.05,3.85,2.14
44.8460,0.08,0.13,-0.99,3.11,3.42,2.20
44.8490,0.08,0.13,-0.98,3.30,3.72,2.14
44.8750,0.08,0.13,-0.98,3.23,3.66,2.01
44.8830,0.08,0.13,-0.98,2.99,3.78,2.14
44.9000,0.08,0.13,-0.98,3.17,3.91,2.08
44.9220,0.08,0.13,-0.98,2.87,3.72,1.95
44.9310,0.07,0.13,-0.99,2.93,3.72,2.01
44.9490,0.08,0.13,-0.98,2.99,3.72,2.01
44.9660,0.08,0.13,-0.98,3.05,3.54,2.01
44.9810,0.07,0.13,-0.99,3.17,3.85,2.26
44.9810,0.07,0.13,-0.98,3.05,3.85,2.20
45.0010,0.07,0.13,-0.98,2.87,3.60,2.08
45.0270,0.08,0.13,-0.98,3.05,3.78,1.95
45.0320,0.08,0.13,-0.98,3.11,3.54,2.14
45.0560,0.08,0.13,-0.98,2.93,3.72,2.20
45.0650,0.08,0.13,-0.98,2.75,3.72,2.26
45.0830,0.08,0.13,-0.98,2.87,3.66,2.38
45.1000,0.08,0.13,-0.98,2.87,3.91,2.14
45.1160,0.08,0.13,-0.99,2.93,3.72,2.01
45.1320,0.08,0.13,-0.98,3.05,3.85,2.14
45.1480,0.08,0.13,-0.98,2.93,3.85,2.08
45.1480,0.08,0.13,-0.98,2.99,3.72,2.08
45.1770,0.08,0.13,-0.98,2.87,3.85,2.20
45.1820,0.08,0.13,-0.98,2.87,3.42,2.08
45.2000,0.08,0.13,-0.98,3.17,3.72,1.95
45.2230,0.08,0.13,-0.98,2.81,3.72,2.08
45.2320,0.08,0.13,-0.98,2.87,3.72,2.01
45.2490,0.08,0.13,-0.98,2.75,3.85,2.26
45.2650,0.08,0.13,-0.98,2.87,3.42,2.26
45.2830,0.08,0.13,-0.98,3.05,3.85,2.32
45.2980,0.08,0.13,-0.98,2.99,3.72,2.26
45.3000,0.08,0.13,-0.98,3.17,3.78,2.14
45.3150,0.08,0.13,-0.98,2.93,4.03,2.14
45.3430,0.08,0.13,-0.98,2.99,3.36,1.89
45.3480,0.08,0.13,-0.98,2.75,3.78,1.95
45.3660,0.08,0.13,-0.98,2.87,3.72,2.08
45.3820,0.08,0.13,-0.98,2.99,3.54,1.89
45.4000,0.07,0.13,-0.98,3.17,3.54,1.89
45.4160,0.08,0.13,-0.98,3.17,3.78,2.01
45.4320,0.08,0.13,-0.98,3.05,3.85,2.01
45.4480,0.07,0.13,-0.98,2.87,3.48,1.95
45.4630,0.08,0.13,-0.98,2.87,3.66,1.95
45.4780,0.08,0.13,-0.98,2.93,3.60,2.08
45.4930,0.08,0.13,-0.98,3.05,3.78,1.95
45.5000,0.08,0.13,-0.98,3.11,3.91,1.95
45.5240,0.08,0.13,-0.98,2.93,3.85,1.95
45.5320,0.08,0.13,-0.99,2.93,3.66,1.89
45.5480,0.08,0.13,-0.98,2.99,3.85,1.89
45.5640,0.08,0.13,-0.98,3.11,3.72,1.83
45.5820,0.08,0.13,-0.99,3.05,3.60,1.95
45.5990,0.08,0.13,-0.98,3.11,3.48,2.01
45.6140,0.08,0.13,-0.99,3.11,4.21,2.01
45.6140,0.08,0.13,-0.98,3.11,3.78,1.89
45.6320,0.08,0.13,-0.98,2.87,3.78,2.14
45.6480,0.08,0.13,-0.99,2.93,3.97,2.08
45.6640,0.08,0.13,-0.98,2.93,3.60,2.26
45.6810,0.07,0.13,-0.98,2.87,3.72,2.44
45.7000,0.07,0.13,-0.98,2.93,3.54,2.32
45.7150,0.07,0.13,-0.98,2.99,3.60,2.14
45.7320,0.08,0.13,-0.98,3.11,3.60,2.08
45.7490,0.07,0.13,-0.98,2.93,3.85,2.20
45.7650,0.07,0.13,-0.98,2.87,3.72,2.20
45.7820,0.07,0.13,-0.98,2.93,4.03,2.14
45.7970,0.08,0.13,-0.99,2.93,3.85,2.32
45.8130,0.08,0.13,-0.98,2.87,3.85,2.26
45.8270,0.08,0.13,-0.98,2.99,3.66,2.14
45.8430,0.08,0.13,-0.98,2.93,3.85,2.26
45.8580,0.07,0.13,-0.99,2.93,3.85,2.08
45.8650,0.08,0.13,-0.98,2.81,3.91,2.14
45.8830,0.08,0.13,-0.98,2.99,3.97,2.20
45.9010,0.08,0.13,-0.98,3.05,3.97,2.08
45.9150,0.09,0.13,-0.98,2.99,3.78,2.32
45.9310,0.08,0.13,-0.98,3.05,3.36,2.26
45.9470,0.08,0.13,-0.98,3.05,3.42,2.08
45.9480,0.08,0.13,-0.98,2.99,3.78,2.08
45.9770,0.07,0.13,-0.98,3.05,3.72,2.01
45.9810,0.07,0.13,-0.98,3.11,3.97,1.89
46.0070,0.08,0.13,-0.99,3.11,3.54,2.01
46.0220,0.08,0.13,-0.98,3.17,3.85,2.01
46.0320,0.08,0.13,-0.98,2.99,3.72,1.95
46.0480,0.07,0.13,-0.99,3.11,3.66,2.01
46.0650,0.08,0.13,-0.98,3.17,3.66,2.08
46.0810,0.07,0.13,-0.99,3.11,3.72,2.14
46.0980,0.08,0.13,-0.98,2.93,3.60,2.01
46.1120,0.08,0.13,-0.98,3.05,3.72,1.83
46.1270,0.07,0.13,-0.98,2.93,3.48,2.08
46.1420,0.07,0.13,-0.98,2.87,3.72,2.08
46.1480,0.07,0.13,-0.98,2.99,3.60,2.08
46.1650,0.08,0.13,-0.98,3.05,3.54,2.08
46.1820,0.08,0.13,-0.98,3.05,3.60,2.08
46.2010,0.08,0.13,-0.98,3.17,3.97,1.95
46.2150,0.08,0.13,-0.99,3.11,3.91,1.83
46.2320,0.08,0.13,-0.98,2.99,3.78,2.01
46.2490,0.08,0.13,-0.98,2.93,3.91,2.08
46.2630,0.08,0.13,-0.98,3.05,3.60,1.89
46.2650,0.08,0.13,-0.98,3.17,3.66,2.01
46.2940,0.08,0.13,-0.98,2.87,3.54,1.89
46.3010,0.08,0.13,-0.98,2.87,3.78,1.95
46.3150,0.08,0.13,-0.98,3.11,3.54,1.83
46.3320,0.08,0.13,-0.98,3.30,3.78,2.08
46.3490,0.08,0.13,-0.98,2.99,3.85,2.08
46.3650,0.08,0.13,-0.99,3.17,3.60,1.95
46.3830,0.07,0.13,-0.98,3.11,3.78,2.08
46.3990,0.07,0.13,-0.99,2.99,3.85,2.20
46.4140,0.07,0.13,-0.98,3.11,3.78,2.14
46.4300,0.08,0.13,-0.98,2.99,3.42,2.14
46.4310,0.08,0.13,-0.98,2.99,3.60,1.83
46.4610,0.08,0.13,-0.98,2.87,4.03,2.14
46.4750,0.08,0.13,-0.98,3.17,3.72,2.01
46.4820,0.08,0.13,-0.98,2.99,3.85,2.14
46.5020,0.08,0.13,-0.98,3.17,3.66,1.95
46.5150,0.08,0.13,-0.98,3.17,3.78,2.08
46.5320,0.08,0.13,-0.98,3.36,3.66,2.01
46.5490,0.08,0.13,-0.98,2.99,3.78,2.08
46.5650,0.08,0.13,-0.98,2.93,3.91,2.08
46.5650,0.08,0.13,-0.98,2.99,3.60,1.89
46.5950,0.08,0.13,-0.98,2.81,3.78,2.08
46.6100,0.08,0.13,-0.99,2.81,3.85,2.08
46.6260,0.08,0.13,-0.98,2.81,3.72,2.14
46.6410,0.08,0.13,-0.98,2.93,3.66,2.08
46.6560,0.08,0.13,-0.98,3.05,3.60,2.08
46.6650,0.08,0.13,-0.98,3.11,3.36,1.89
46.6820,0.08,0.13,-0.98,3.11,3.72,2.14
46.7010,0.08,0.13,-0.99,3.05,3.60,2.08
46.7140,0.08,0.13,-0.98,3.05,3.85,2.14
46.7320,0.08,0.13,-0.98,3.05,3.91,1.95
46.7330,0.08,0.13,-0.98,2.99,3.78,2.01
46.7490,0.08,0.13,-0.98,3.11,3.72,2.08
46.7650,0.08,0.13,-0.98,2.99,3.72,2.01
46.7820,0.08,0.13,-0.98,3.05,3.97,2.01
46.8060,0.08,0.13,-0.99,3.11,4.03,1.95
46.8150,0.07,0.13,-0.98,3.05,3.91,2.01
46.8310,0.08,0.13,-0.98,2.93,3.72,1.95
46.8490,0.07,0.13,-0.98,2.87,3.78,2.08
46.8650,0.07,0.13,-0.98,3.05,3.91,2.14
46.8820,0.07,0.13,-0.98,2.81,3.72,2.08
46.8980,0.07,0.13,-0.99,2.75,3.66,2.14
46.9120,0.07,0.13,-0.98,3.05,3.42,2.01
46.9270,0.07,0.13,-0.98,2.99,3.54,2.01
46.9320,0.07,0.13,-0.99,2.99,3.48,2.14
46.9490,0.07,0.13,-0.98,3.11,3.78,2.14
46.9730,0.08,0.13,-0.98,3.05,4.03,2.14
46.9820,0.08,0.13,-0.99,2.87,3.97,1.95
47.0020,0.08,0.13,-0.98,2.81,3.78,1.89
47.0150,0.08,0.13,-0.98,3.11,3.60,2.01
