Timestamp, AccX, AccY, AccZ, GyroX, GyroY, GyroZ
0.0150,0.07,0.13,-0.99,3.36,1.16,1.53
0.0340,0.08,0.13,-0.98,3.36,0.85,1.59
0.0430,0.08,0.13,-0.98,3.36,1.04,1.65
0.0640,0.08,0.13,-0.99,3.23,1.10,1.53
0.0700,0.08,0.13,-0.99,3.30,0.79,1.59
0.0930,0.08,0.13,-0.99,3.23,1.28,1.71
0.1020,0.07,0.13,-0.99,3.42,0.85,1.65
0.1240,0.08,0.13,-0.99,3.17,0.92,1.53
0.1350,0.07,0.14,-0.99,3.42,0.73,1.46
0.1520,0.08,0.13,-0.99,3.60,0.67,1.65
0.1690,0.08,0.13,-0.98,3.42,0.92,1.65
0.1840,0.07,0.14,-0.99,3.42,0.79,1.59
0.1990,0.07,0.14,-0.98,3.42,1.04,1.65
0.2150,0.07,0.14,-0.99,3.17,0.98,1.53
0.2300,0.08,0.13,-0.99,3.36,1.04,1.65
0.2460,0.07,0.14,-0.99,3.23,1.22,1.65
0.2610,0.08,0.14,-0.98,3.36,1.04,1.65
0.2760,0.08,0.13,-0.99,3.48,1.22,1.59
0.2910,0.07,0.13,-0.99,3.54,0.79,1.59
0.3020,0.07,0.13,-0.99,3.48,1.16,1.65
0.3180,0.07,0.13,-0.99,3.36,0.85,1.59
0.3350,0.08,0.13,-0.99,3.30,1.04,1.40
0.3520,0.07,0.13,-0.99,3.23,1.16,1.53
0.3680,0.07,0.14,-0.99,3.48,1.04,1.53
0.3840,0.07,0.14,-0.99,3.42,0.98,1.46
0.3990,0.07,0.13,-0.99,3.17,1.04,1.53
0.4150,0.08,0.13,-0.99,3.36,0.85,1.53
0.4190,0.07,0.13,-0.99,3.42,0.73,1.59
0.4460,0.08,0.13,-0.99,3.42,1.04,1.65
0.4610,0.08,0.13,-0.99,3.23,0.92,1.71
0.4750,0.07,0.14,-0.99,3.17,0.98,1.71
0.4870,0.08,0.13,-0.99,3.42,0.98,1.59
0.5040,0.07,0.13,-0.99,3.23,0.85,1.46
0.5210,0.07,0.13,-0.99,3.42,0.85,1.53
0.5360,0.07,0.13,-0.99,3.36,1.28,1.59
0.5530,0.08,0.14,-0.99,3.42,0.79,1.59
0.5700,0.08,0.13,-0.99,3.42,1.22,1.65
0.5870,0.08,0.13,-0.99,3.30,1.10,1.65
0.6020,0.08,0.13,-0.99,3.42,0.98,1.65
0.6170,0.08,0.14,-0.99,3.30,1.16,1.59
0.6220,0.08,0.13,-0.99,3.36,1.16,1.71
0.6430,0.07,0.13,-0.99,3.30,1.04,1.71
0.6540,0.08,0.13,-0.99,3.42,0.92,1.53
0.6720,0.08,0.14,-0.99,3.30,1.04,1.59
0.6900,0.08,0.13,-0.99,3.42,1.34,1.71
0.7060,0.07,0.13,-0.98,3.30,1.53,1.77
0.7220,0.08,0.13,-0.99,3.42,1.16,1.77
0.7380,0.08,0.13,-0.99,3.60,0.79,1.65
0.7430,0.07,0.14,-0.99,3.30,0.98,1.53
0.7560,0.07,0.13,-0.98,3.23,0.92,1.77
0.7730,0.07,0.14,-0.99,3.17,1.16,1.53
0.7980,0.07,0.13,-0.99,3.36,0.55,1.65
0.8120,0.08,0.13,-0.99,3.30,0.85,1.59
0.8230,0.08,0.13,-0.99,3.17,0.73,1.71
0.8430,0.07,0.13,-0.99,3.42,0.85,1.65
0.8590,0.08,0.14,-0.99,3.48,0.67,1.59
0.8760,0.08,0.13,-0.99,3.42,1.28,1.83
0.8920,0.07,0.13,-0.99,3.30,1.16,1.65
0.9080,0.07,0.14,-0.98,3.23,1.16,1.59
0.9240,0.07,0.13,-0.99,3.17,1.22,1.59
0.9400,0.07,0.14,-0.99,3.11,0.85,1.53
0.9560,0.07,0.14,-0.98,3.23,1.34,1.65
0.9720,0.07,0.13,-0.99,3.30,1.28,1.65
0.9870,0.08,0.13,-0.99,3.23,0.79,1.59
0.9930,0.08,0.13,-0.99,3.17,1.16,1.65
1.0080,0.04,0.15,-0.98,3.23,0.98,1.46
1.0320,0.07,0.14,-0.98,3.48,1.34,-0.06
1.0480,0.08,0.13,-0.99,3.42,1.22,0.49
1.0640,0.07,0.13,-0.99,3.36,1.34,0.85
1.0660,0.07,0.13,-0.99,3.17,1.22,1.04
1.0960,0.07,0.14,-0.99,3.23,1.10,1.10
1.1100,0.08,0.13,-0.99,3.17,1.22,1.16
1.1250,0.08,0.13,-0.99,3.36,1.34,1.46
1.1360,0.08,0.13,-0.99,3.23,0.98,1.40
1.1510,0.08,0.13,-0.99,3.42,1.28,1.71
1.1710,0.08,0.13,-0.98,3.30,1.10,1.46
1.1730,0.07,0.13,-0.98,3.48,0.92,1.53
1.1890,0.06,0.14,-0.99,3.30,0.98,1.65
1.2070,0.08,0.13,-0.99,3.23,1.28,1.71
1.2230,0.07,0.13,-0.99,3.23,0.98,1.71
1.2430,0.08,0.13,-0.99,3.42,1.40,1.71
1.2650,0.08,0.13,-0.99,3.30,1.22,1.46
1.2760,0.07,0.13,-0.99,3.30,1.16,1.53
1.2930,0.07,0.13,-0.99,3.17,0.67,1.28
1.3090,0.07,0.13,-0.99,3.23,0.73,1.34
1.3260,0.07,0.13,-0.99,3.17,1.53,1.28
1.3420,0.07,0.13,-0.99,3.30,1.28,1.04
1.3580,0.08,0.13,-0.99,3.23,1.46,1.10
1.3740,0.09,0.13,-0.98,3.42,0.98,1.10
1.3900,0.08,0.13,-0.99,3.42,1.04,1.34
1.3920,0.08,0.13,-0.99,3.36,0.73,1.46
1.4080,0.08,0.13,-0.99,3.23,1.46,1.59
1.4310,0.08,0.14,-0.99,3.23,1.16,1.59
1.4470,0.07,0.13,-0.98,3.36,1.46,1.59
1.4640,0.07,0.13,-0.99,3.42,0.98,1.59
1.4800,0.07,0.13,-0.99,3.30,1.28,1.34
1.4950,0.08,0.13,-0.99,3.42,1.22,1.22
1.5100,0.08,0.13,-0.99,3.23,1.28,1.22
1.5260,0.08,0.13,-0.98,3.48,1.28,1.53
1.5410,0.08,0.13,-0.99,3.48,1.28,1.59
1.5560,0.08,0.13,-0.99,3.42,0.98,1.65
1.5710,0.08,0.13,-0.98,3.36,1.10,1.65
1.5860,0.08,0.13,-0.99,3.42,1.10,1.46
1.5980,0.07,0.13,-0.99,3.42,0.98,1.53
1.6140,0.08,0.13,-0.98,3.42,1.40,1.71
1.6300,0.08,0.13,-0.98,3.42,0.92,1.53
1.6470,0.08,0.13,-0.99,3.17,1.28,1.65
1.6620,0.08,0.13,-0.99,3.36,1.28,1.59
1.6780,0.07,0.13,-0.99,3.36,1.10,1.65
1.6940,0.07,0.13,-0.99,3.42,1.10,1.71
1.7100,0.07,0.13,-0.98,3.60,0.92,1.71
1.7150,0.07,0.13,-0.99,3.48,1.28,1.59
1.7310,0.07,0.13,-0.99,3.54,0.79,1.71
1.7470,0.07,0.13,-0.98,3.36,0.79,1.53
1.7720,0.07,0.13,-0.99,3.42,0.85,1.59
1.7830,0.07,0.13,-0.99,3.54,0.98,1.59
1.8000,0.07,0.13,-0.99,3.30,0.98,1.65
1.8160,0.07,0.13,-0.99,3.36,1.22,1.65
1.8330,0.07,0.13,-0.99,3.30,0.92,1.59
1.8500,0.07,0.13,-0.99,3.36,1.04,1.65
1.8650,0.08,0.13,-0.98,3.48,0.98,1.59
1.8800,0.07,0.13,-0.99,3.48,1.16,1.71
1.8950,0.07,0.13,-0.99,3.54,0.92,1.65
1.9110,0.07,0.13,-0.99,3.42,0.61,1.71
1.9250,0.07,0.13,-0.98,3.36,0.98,1.59
1.9330,0.07,0.13,-0.99,3.42,1.04,1.65
1.9480,0.08,0.13,-0.99,3.48,0.98,1.65
1.9690,0.07,0.13,-0.99,3.42,0.92,1.65
1.9850,0.08,0.13,-0.99,3.48,1.04,1.71
2.0020,0.08,0.13,-0.99,3.42,1.16,1.53
2.0190,0.07,0.13,-0.98,3.54,0.98,1.65
2.0340,0.08,0.13,-0.99,3.54,1.10,1.65
2.0510,0.07,0.14,-0.99,3.60,0.92,1.71
2.0660,0.08,0.13,-0.99,3.36,0.92,1.53
2.0810,0.07,0.13,-0.99,3.30,1.16,1.59
2.0960,0.08,0.13,-0.99,3.36,1.16,1.65
2.1110,0.07,0.13,-0.99,3.36,0.73,1.77
2.1190,0.07,0.13,-0.99,3.30,0.73,1.77
2.1350,0.08,0.13,-0.99,3.42,1.04,1.59
2.1570,0.07,0.13,-0.99,3.30,1.28,1.65
2.1730,0.08,0.13,-0.99,3.36,1.16,1.59
2.1910,0.07,0.13,-0.99,3.36,1.10,1.65
2.2060,0.07,0.13,-0.99,3.42,1.04,1.59
2.2230,0.08,0.13,-0.99,3.30,1.10,1.59
2.2390,0.08,0.13,-0.99,3.30,1.04,1.71
2.2550,0.08,0.13,-0.99,3.23,0.79,1.65
2.2580,0.08,0.13,-0.99,3.42,0.98,1.65
2.2730,0.07,0.13,-0.98,3.36,1.10,1.65
2.3020,0.08,0.13,-0.99,3.54,1.04,1.71
2.3130,0.07,0.13,-0.99,3.17,1.46,1.71
2.3310,0.08,0.13,-0.99,3.48,0.92,1.53
2.3470,0.07,0.13,-0.99,3.30,1.04,1.71
2.3620,0.07,0.13,-0.99,3.42,0.92,1.65
2.3770,0.07,0.13,-0.98,3.48,1.10,1.59
2.3920,0.07,0.13,-0.99,3.54,0.55,1.46
2.4070,0.07,0.13,-0.98,3.23,1.10,1.65
2.4180,0.07,0.13,-0.99,3.42,0.98,1.65
2.4360,0.07,0.13,-0.99,3.42,0.92,1.65
2.4520,0.08,0.13,-0.99,3.42,0.98,1.71
2.4680,0.08,0.13,-0.98,3.54,0.55,1.59
2.4840,0.08,0.14,-0.99,3.48,0.85,1.65
2.5000,0.08,0.13,-0.99,3.36,0.79,1.59
2.5160,0.08,0.13,-0.99,3.30,1.10,1.40
2.5310,0.08,0.13,-0.99,3.42,1.04,1.65
2.5460,0.07,0.13,-0.98,3.54,0.79,1.71
2.5620,0.07,0.14,-0.99,3.54,0.85,1.53
2.5690,0.07,0.13,-0.99,3.23,1.16,1.71
2.5850,0.08,0.13,-0.99,3.17,1.40,1.53
2.6060,0.07,0.13,-0.99,3.36,0.98,1.77
2.6220,0.07,0.13,-0.99,3.23,1.28,1.59
2.6390,0.07,0.13,-0.99,3.17,0.85,1.65
2.6560,0.08,0.13,-0.99,3.30,1.16,1.59
2.6570,0.07,0.13,-0.99,3.36,0.92,1.59
2.6730,0.08,0.13,-0.99,3.30,0.85,1.65
2.6880,0.07,0.13,-0.99,3.30,1.04,1.65
2.7050,0.08,0.13,-0.99,3.42,1.28,1.59
2.7220,0.07,0.13,-0.99,3.48,1.28,1.53
2.7460,0.08,0.13,-0.99,3.42,0.92,1.65
2.7640,0.07,0.13,-0.99,3.42,0.92,1.59
2.7810,0.07,0.13,-0.98,3.42,0.92,1.59
2.7980,0.08,0.13,-0.99,3.42,1.28,1.59
2.8060,0.07,0.13,-0.99,3.48,1.28,1.83
2.8220,0.08,0.13,-0.99,3.48,1.10,1.77
2.8390,0.08,0.13,-0.99,3.30,1.22,1.59
2.8550,0.07,0.13,-0.99,3.30,1.22,1.71
2.8720,0.08,0.13,-0.99,3.36,1.10,1.71
2.8890,0.07,0.13,-0.99,3.42,1.16,1.59
2.8890,0.07,0.13,-0.99,3.42,1.22,1.65
2.9060,0.08,0.13,-0.99,3.42,0.98,1.71
2.9220,0.08,0.13,-0.99,3.36,0.79,1.53
2.9460,0.07,0.13,-0.99,3.17,0.92,1.59
2.9550,0.08,0.13,-0.99,3.48,1.40,1.71
2.9720,0.07,0.13,-0.98,3.30,1.22,1.71
2.9890,0.08,0.13,-0.99,3.30,1.04,1.59
3.0060,0.08,0.14,-0.98,3.36,1.53,1.65
3.0220,0.07,0.13,-0.99,3.30,0.92,1.59
3.0390,0.08,0.13,-0.99,3.42,0.79,1.65
3.0470,0.07,0.13,-0.99,3.42,0.79,1.77
3.0560,0.08,0.13,-0.99,3.66,0.79,1.77
3.0710,0.08,0.13,-0.99,3.54,1.22,1.77
3.1010,0.07,0.13,-0.99,3.42,0.61,1.65
3.1170,0.07,0.13,-0.99,3.36,1.10,1.77
3.1320,0.08,0.13,-0.99,3.48,1.22,1.65
3.1480,0.07,0.13,-0.99,3.48,1.22,1.65
3.1570,0.08,0.13,-0.99,3.36,1.16,1.53
3.1790,0.07,0.13,-0.99,3.42,0.98,1.53
3.1900,0.08,0.13,-0.99,3.42,1.16,1.59
3.2070,0.08,0.13,-0.99,3.30,0.92,1.59
3.2240,0.08,0.13,-0.98,3.36,1.04,1.46
3.2400,0.08,0.13,-0.99,3.36,1.22,1.65
3.2560,0.07,0.13,-0.99,3.42,0.98,1.65
3.2730,0.07,0.13,-0.99,3.36,0.98,1.59
3.2880,0.07,0.13,-0.99,3.36,1.10,1.71
3.3030,0.08,0.13,-0.99,3.36,0.79,1.71
3.3070,0.07,0.13,-0.99,3.48,0.79,1.53
3.3220,0.07,0.13,-0.98,3.36,0.73,1.65
3.3510,0.07,0.13,-0.99,3.42,0.98,1.40
3.3630,0.08,0.13,-0.99,3.30,0.61,1.65
3.3790,0.07,0.13,-0.99,3.42,0.79,1.71
3.3990,0.07,0.13,-0.99,3.54,0.67,1.53
3.4140,0.07,0.13,-0.99,3.66,0.61,1.65
3.4290,0.07,0.14,-0.99,3.48,0.92,1.59
3.4430,0.08,0.13,-0.99,3.48,1.04,1.59
3.4590,0.07,0.13,-0.99,3.60,0.98,1.59
3.4730,0.07,0.13,-0.99,3.36,0.92,1.65
3.4850,0.07,0.13,-0.99,3.30,1.16,1.59
3.5010,0.08,0.13,-0.99,3.60,0.98,1.71
3.5180,0.08,0.13,-0.99,3.60,1.28,1.77
3.5340,0.07,0.13,-0.99,3.36,1.04,1.53
3.5510,0.07,0.13,-0.99,3.30,0.98,1.71
3.5670,0.07,0.13,-0.99,3.30,1.22,1.71
3.5820,0.07,0.13,-0.99,3.42,1.16,1.53
3.5980,0.08,0.13,-0.99,3.30,1.16,1.65
3.6130,0.08,0.13,-0.99,3.30,0.92,1.65
3.6280,0.07,0.13,-0.99,3.42,0.98,1.53
3.6440,0.07,0.13,-0.99,3.54,0.85,1.59
3.6590,0.07,0.14,-0.99,3.36,0.92,1.59
3.6750,0.07,0.13,-0.99,3.54,0.85,1.53
3.6900,0.07,0.13,-0.99,3.42,0.92,1.59
3.7010,0.07,0.14,-0.99,3.36,1.04,1.46
3.7170,0.08,0.13,-0.99,3.30,0.85,1.65
3.7350,0.08,0.13,-0.99,3.42,0.73,1.65
3.7510,0.07,0.13,-0.99,3.48,0.85,1.65
3.7670,0.07,0.13,-0.99,3.48,0.79,1.59
3.7830,0.07,0.13,-0.98,3.36,0.92,1.59
3.7990,0.07,0.13,-0.99,3.48,0.73,1.59
3.8150,0.07,0.13,-0.99,3.42,0.79,1.59
3.8320,0.07,0.13,-0.99,3.54,0.79,1.46
3.8470,0.07,0.14,-0.99,3.48,0.73,1.65
3.8630,0.07,0.13,-0.99,3.42,1.16,1.59
3.8790,0.07,0.13,-0.98,3.17,1.53,1.59
3.8940,0.07,0.13,-0.99,3.36,1.04,1.59
3.9090,0.07,0.14,-0.99,3.36,1.34,1.77
3.9240,0.08,0.13,-0.99,3.42,0.98,1.46
3.9350,0.07,0.14,-0.99,3.54,1.10,1.71
3.9510,0.07,0.14,-0.99,3.42,1.04,1.59
3.9670,0.07,0.14,-0.99,3.11,1.22,1.59
3.9840,0.07,0.13,-0.99,3.23,0.98,1.59
4.0000,0.08,0.13,-0.99,3.48,0.98,1.59
4.0160,0.07,0.13,-0.99,3.23,1.34,1.59
4.0320,0.07,0.13,-0.99,3.66,1.10,1.65
4.0470,0.07,0.13,-0.99,3.48,1.04,1.65
4.0620,0.08,0.13,-0.99,3.36,0.98,1.59
4.0770,0.07,0.13,-0.99,3.36,0.98,1.65
4.0920,0.08,0.13,-0.99,3.36,0.98,1.53
4.1070,0.07,0.13,-0.99,3.30,1.10,1.59
4.1180,0.07,0.13,-0.99,3.42,0.61,1.53
4.1350,0.08,0.14,-0.98,3.54,0.92,1.65
4.1510,0.07,0.14,-0.99,3.30,0.85,1.59
4.1680,0.08,0.13,-0.99,3.36,0.85,1.65
4.1840,0.07,0.13,-0.99,3.42,1.28,1.59
4.2010,0.07,0.13,-0.98,3.48,0.98,1.65
4.2160,0.07,0.13,-0.99,3.42,1.34,1.65
4.2320,0.07,0.13,-0.99,3.42,1.28,1.71
4.2470,0.07,0.13,-0.99,3.17,1.10,1.65
4.2630,0.07,0.13,-0.99,3.23,0.98,1.77
4.2790,0.08,0.13,-0.99,3.42,0.98,1.77
4.2940,0.07,0.13,-0.99,3.42,1.10,1.46
4.3090,0.07,0.13,-0.99,3.36,1.04,1.53
4.3240,0.08,0.13,-0.99,3.42,0.85,1.65
4.3390,0.08,0.13,-0.99,3.42,0.98,1.77
4.3510,0.07,0.13,-0.99,3.36,1.10,1.59
4.3670,0.07,0.14,-0.99,3.54,0.92,1.53
4.3840,0.07,0.13,-0.99,3.42,1.16,1.59
4.4000,0.07,0.13,-0.99,3.17,1.04,1.71
4.4160,0.08,0.13,-0.99,3.30,1.22,1.65
4.4320,0.07,0.13,-0.99,3.30,1.10,1.53
4.4470,0.07,0.13,-0.99,3.42,1.40,1.53
4.4630,0.08,0.13,-0.99,3.60,0.98,1.65
4.4780,0.08,0.13,-0.99,3.23,1.22,1.59
4.4940,0.07,0.13,-0.99,3.42,1.28,1.71
4.5100,0.07,0.13,-0.99,3.48,0.85,1.65
4.5260,0.07,0.13,-0.98,3.23,1.16,1.77
4.5410,0.07,0.13,-0.99,3.36,1.28,1.65
4.5560,0.07,0.14,-0.99,3.48,1.34,1.65
4.5680,0.07,0.13,-0.99,3.36,1.16,1.59
4.5840,0.07,0.14,-0.99,3.42,1.04,1.65
4.6010,0.08,0.14,-0.99,3.42,0.79,1.65
4.6180,0.08,0.13,-0.99,3.66,1.04,1.65
4.6330,0.07,0.13,-0.99,3.48,1.28,1.65
4.6480,0.08,0.13,-0.99,3.42,1.04,1.65
4.6630,0.07,0.14,-0.99,3.42,0.92,1.53
4.6780,0.08,0.13,-0.99,3.36,1.28,1.65
4.6940,0.08,0.13,-0.99,3.36,1.16,1.71
4.7080,0.08,0.13,-0.99,3.42,0.98,1.59
4.7170,0.08,0.14,-0.98,3.42,1.04,1.71
4.7330,0.08,0.14,-0.99,3.42,1.53,1.65
4.7560,0.07,0.13,-0.99,3.54,0.49,1.59
4.7720,0.07,0.14,-0.99,3.42,1.10,1.65
4.7730,0.08,0.14,-0.99,3.36,1.22,1.65
4.7890,0.07,0.13,-0.99,3.48,1.34,1.83
4.8070,0.07,0.13,-0.99,3.30,1.16,1.65
4.8220,0.08,0.14,-0.99,3.42,1.22,1.71
4.8490,0.08,0.13,-0.99,3.42,1.10,1.77
4.8560,0.07,0.14,-0.99,3.66,0.79,1.59
4.8720,0.07,0.13,-0.98,3.48,0.79,1.65
4.8890,0.08,0.14,-0.99,3.54,1.04,1.59
4.9070,0.07,0.13,-0.99,3.30,1.04,1.65
4.9230,0.07,0.14,-0.99,3.17,1.28,1.65
4.9400,0.08,0.14,-0.99,3.42,0.92,1.59
4.9570,0.07,0.14,-0.99,3.42,0.98,1.53
4.9720,0.08,0.14,-0.99,3.17,1.22,1.65
4.9880,0.07,0.13,-0.99,3.48,0.98,1.65
4.9900,0.07,0.14,-0.99,3.48,1.04,1.65
5.0060,0.07,0.13,-0.99,3.54,0.85,1.53
5.0350,0.07,0.14,-0.99,3.42,0.92,1.59
5.0500,0.07,0.13,-0.99,3.42,1.22,1.53
5.0610,0.07,0.14,-0.98,3.30,0.55,1.46
5.0770,0.07,0.13,-0.99,3.17,0.85,1.59
5.0940,0.07,0.13,-0.99,3.23,0.92,1.71
5.1100,0.07,0.14,-0.99,3.54,0.92,1.65
5.1260,0.07,0.13,-0.98,3.42,1.16,1.65
5.1420,0.08,0.14,-0.99,3.30,1.10,1.40
5.1490,0.08,0.14,-0.98,3.48,0.92,1.65
5.1600,0.07,0.14,-0.99,3.36,0.85,1.71
5.1890,0.07,0.14,-0.99,3.36,0.79,1.59
5.2000,0.08,0.13,-0.99,3.30,1.10,1.77
5.2160,0.07,0.13,-0.99,3.42,1.04,1.65
5.2310,0.07,0.13,-0.99,3.60,1.04,1.59
5.2520,0.09,0.13,-0.99,3.23,1.10,1.71
5.2680,0.07,0.14,-0.98,3.42,1.34,1.71
5.2840,0.07,0.14,-0.99,2.99,0.98,1.77
5.3010,0.07,0.13,-0.99,3.23,1.10,1.65
5.3180,0.08,0.13,-0.99,3.36,0.98,1.65
5.3320,0.08,0.13,-0.99,3.42,1.16,1.65
5.3500,0.09,0.13,-0.99,3.36,0.92,1.65
5.3660,0.08,0.13,-0.98,3.30,1.10,1.28
5.3810,0.07,0.14,-0.99,3.23,0.98,1.10
5.3960,0.07,0.14,-0.99,3.30,1.04,1.16
5.4060,0.07,0.14,-0.99,3.48,1.53,1.59
5.4220,0.08,0.13,-0.99,3.42,1.10,1.53
5.4420,0.08,0.13,-0.99,3.36,1.53,1.65
5.4570,0.08,0.13,-0.99,3.42,1.53,1.59
5.4720,0.07,0.14,-0.99,3.36,0.92,1.53
5.4870,0.07,0.14,-0.99,3.48,0.92,1.53
5.4970,0.07,0.14,-0.99,3.42,1.04,1.59
5.5140,0.07,0.13,-0.99,3.54,1.04,1.77
5.5300,0.08,0.13,-0.99,3.54,1.04,1.65
5.5470,0.08,0.13,-0.99,3.54,1.28,1.65
5.5620,0.08,0.13,-0.99,3.36,1.10,1.53
5.5770,0.07,0.14,-0.99,3.54,1.10,1.65
5.5930,0.07,0.13,-0.99,3.48,0.98,1.53
5.6100,0.08,0.13,-0.99,3.48,1.16,1.46
5.6150,0.07,0.14,-0.99,3.30,1.46,1.40
5.6420,0.07,0.14,-0.99,3.30,1.16,1.34
5.6580,0.07,0.14,-0.99,3.36,1.53,1.53
5.6730,0.07,0.14,-0.99,3.42,1.53,1.65
5.6880,0.07,0.14,-0.99,3.42,1.10,1.71
5.6970,0.07,0.13,-0.99,3.36,1.28,1.77
5.7130,0.08,0.13,-0.99,3.66,0.98,1.65
5.7330,0.07,0.14,-0.99,3.23,0.85,1.77
5.7490,0.08,0.13,-0.99,3.42,0.73,1.65
5.7640,0.08,0.13,-0.99,3.48,1.10,1.59
5.7800,0.07,0.14,-0.99,3.48,0.79,1.59
5.7840,0.07,0.14,-0.99,3.42,1.16,1.65
5.8100,0.07,0.13,-0.99,3.54,1.10,1.65
5.8250,0.07,0.13,-0.98,3.42,1.34,1.59
5.8340,0.08,0.14,-0.99,3.60,1.10,1.71
5.8500,0.08,0.13,-0.99,3.30,1.22,1.59
5.8700,0.08,0.13,-0.99,3.48,1.10,1.65
5.8870,0.07,0.13,-0.99,3.36,1.10,1.71
5.9020,0.07,0.13,-0.99,3.36,1.10,1.65
5.9190,0.07,0.14,-0.99,3.30,1.16,1.71
5.9340,0.08,0.14,-0.99,3.30,1.28,1.65
5.9500,0.07,0.13,-0.99,3.36,0.92,1.71
5.9530,0.08,0.13,-0.99,3.42,1.10,1.71
5.9750,0.08,0.14,-0.99,3.36,0.92,1.77
5.9910,0.08,0.13,-0.99,3.48,0.73,1.71
6.0080,0.08,0.13,-0.99,3.42,1.10,1.71
6.0250,0.08,0.14,-0.99,3.54,0.92,1.71
6.0410,0.07,0.14,-0.99,3.36,1.04,1.59
6.0570,0.07,0.13,-0.99,3.42,0.98,1.46
6.0730,0.07,0.13,-0.99,3.42,0.92,1.65
6.0890,0.07,0.14,-0.99,3.23,0.98,1.59
6.0920,0.08,0.13,-0.99,3.36,1.10,1.77
6.1210,0.07,0.14,-0.98,3.30,1.10,1.59
6.1260,0.07,0.13,-0.99,3.36,0.79,1.65
6.1530,0.07,0.13,-0.99,3.42,0.85,1.53
6.1690,0.08,0.14,-0.99,3.42,0.85,1.71
6.1840,0.07,0.14,-0.99,3.23,0.55,1.53
6.1920,0.07,0.13,-0.99,3.17,0.98,1.65
6.2070,0.08,0.13,-0.99,3.42,1.16,1.59
6.2290,0.07,0.13,-0.98,3.30,1.40,1.65
6.2460,0.07,0.13,-0.99,3.36,1.10,1.59
6.2610,0.08,0.14,-0.99,3.30,0.67,1.59
6.2760,0.08,0.13,-0.99,3.36,0.92,1.53
6.2800,0.08,0.14,-0.99,3.48,1.04,1.65
6.2950,0.08,0.13,-0.99,3.48,0.79,1.65
6.3230,0.07,0.13,-0.99,3.42,0.85,1.59
6.3380,0.08,0.13,-0.98,3.30,0.98,1.59
6.3500,0.07,0.13,-0.99,3.30,0.79,1.59
6.3660,0.07,0.13,-0.99,3.30,1.10,1.53
6.3830,0.08,0.13,-0.99,3.42,1.16,1.53
6.3990,0.08,0.14,-0.99,3.30,1.04,1.59
6.4160,0.08,0.13,-0.99,3.23,1.34,1.53
6.4320,0.12,0.14,-0.98,3.23,1.59,-0.61
6.4480,0.07,0.13,-0.99,3.85,2.08,-3.97
6.4510,0.06,0.13,-0.99,3.97,2.32,-3.11
6.4780,0.06,0.14,-0.99,3.66,1.65,-2.38
6.4940,0.07,0.14,-0.99,3.48,1.34,-0.92
6.5000,0.07,0.14,-0.99,3.42,1.40,0.12
6.5150,0.07,0.13,-0.99,3.36,1.22,0.98
6.5360,0.07,0.13,-0.99,3.42,1.34,1.40
6.5530,0.07,0.14,-0.99,3.36,1.10,1.59
6.5690,0.08,0.13,-0.99,3.36,1.22,1.65
6.5850,0.07,0.14,-0.99,3.17,1.10,1.71
6.6020,0.08,0.13,-0.99,3.36,1.16,1.65
6.6170,0.08,0.13,-0.99,3.36,1.40,1.65
6.6240,0.07,0.13,-0.99,3.30,0.85,1.71
6.6400,0.08,0.13,-0.99,3.30,0.98,1.59
6.6610,0.08,0.13,-0.99,3.23,1.34,1.65
6.6770,0.07,0.13,-0.99,3.23,1.04,1.65
6.6930,0.08,0.13,-0.99,3.42,0.79,1.65
6.7100,0.07,0.13,-0.99,3.36,0.79,1.59
6.7250,0.07,0.13,-0.99,3.30,0.92,1.77
6.7410,0.08,0.13,-0.99,3.48,0.79,1.77
6.7580,0.07,0.13,-0.99,3.30,1.04,1.77
6.7740,0.08,0.13,-0.99,3.30,1.16,1.59
6.7890,0.07,0.13,-0.98,3.36,0.92,1.71
6.8060,0.07,0.13,-0.99,3.36,0.61,1.65
6.8220,0.07,0.13,-0.99,3.23,0.73,1.77
6.8370,0.08,0.13,-0.99,3.11,0.73,1.65
6.8530,0.08,0.13,-0.99,3.36,1.04,1.65
6.8690,0.08,0.13,-0.99,3.36,1.04,1.59
6.8780,0.07,0.13,-0.98,3.17,1.22,1.65
6.8940,0.08,0.13,-0.99,3.36,1.34,1.77
6.9120,0.08,0.13,-0.99,3.30,0.79,1.65
6.9270,0.08,0.13,-0.99,3.36,1.46,1.65
6.9460,0.08,0.13,-0.99,3.30,1.22,1.59
6.9610,0.08,0.13,-0.99,3.11,0.98,1.65
6.9770,0.08,0.14,-0.99,3.42,0.92,1.65
6.9920,0.08,0.13,-0.98,3.42,1.16,1.77
7.0080,0.07,0.14,-0.99,3.36,1.10,1.77
7.0240,0.08,0.13,-0.99,3.23,1.04,2.01
7.0380,0.08,0.13,-0.99,3.30,1.28,1.77
7.0510,0.07,0.13,-0.99,3.36,0.98,1.71
7.0630,0.08,0.13,-0.99,3.30,1.28,1.65
7.0850,0.08,0.14,-0.99,3.48,1.34,1.83
7.1000,0.08,0.13,-0.99,3.36,1.10,1.77
7.1020,0.07,0.13,-0.99,3.48,0.98,1.71
7.1320,0.07,0.13,-0.98,3.30,1.34,1.71
7.1470,0.08,0.13,-0.99,3.36,1.16,1.71
7.1620,0.07,0.13,-0.98,3.42,1.40,1.65
7.1710,0.08,0.13,-0.99,3.54,1.10,1.77
7.1860,0.06,0.14,-0.99,3.36,1.10,1.89
7.2080,0.07,0.13,-0.99,3.30,1.04,2.75
7.2240,0.09,0.13,-0.99,3.36,1.04,2.50
7.2400,0.08,0.14,-0.99,3.48,0.98,1.71
7.2560,0.08,0.14,-0.99,3.54,1.34,1.59
7.2720,0.08,0.13,-0.99,3.42,1.16,1.77
7.2880,0.07,0.13,-0.99,3.48,1.46,1.65
7.2920,0.07,0.13,-0.99,3.42,1.04,1.77
7.3070,0.08,0.14,-0.99,3.42,1.10,1.65
7.3280,0.07,0.13,-0.99,3.30,1.04,1.65
7.3440,0.08,0.13,-0.99,3.36,1.10,1.71
7.3600,0.07,0.14,-0.99,3.48,1.04,1.59
7.3790,0.07,0.13,-0.99,3.48,0.92,1.65
7.3950,0.07,0.13,-0.99,3.42,0.73,1.65
7.3970,0.06,0.14,-0.99,3.48,0.73,2.32
7.4260,0.09,0.13,-0.98,3.30,0.73,2.01
7.4410,0.08,0.13,-0.98,3.48,0.79,1.65
7.4560,0.08,0.13,-0.99,3.66,0.85,1.65
7.4710,0.08,0.14,-0.98,3.54,1.04,1.71
7.4820,0.08,0.13,-0.99,3.42,1.16,1.77
7.4990,0.07,0.14,-0.99,3.36,1.04,1.77
7.5150,0.08,0.13,-0.99,3.36,1.04,1.59
7.5320,0.08,0.14,-0.99,3.42,1.16,1.65
7.5490,0.07,0.14,-0.98,3.42,1.16,1.59
7.5650,0.07,0.13,-0.99,3.23,1.04,1.71
7.5810,0.08,0.13,-0.99,3.36,0.92,1.53
7.5960,0.08,0.13,-0.99,3.48,0.98,1.71
7.6110,0.07,0.13,-0.99,3.42,0.98,1.65
7.6270,0.08,0.13,-0.99,3.54,1.40,1.65
7.6320,0.07,0.14,-0.99,3.48,0.92,1.71
7.6520,0.08,0.14,-0.98,3.17,1.04,1.65
7.6710,0.06,0.15,-0.98,3.17,1.04,2.50
7.6870,0.08,0.13,-0.99,3.23,0.49,5.07
7.7040,0.08,0.12,-0.99,3.11,1.04,3.23
7.7200,0.08,0.13,-0.99,3.30,0.92,1.95
7.7360,0.08,0.14,-0.98,3.30,0.92,1.77
7.7530,0.07,0.13,-0.99,3.11,0.98,1.71
7.7690,0.07,0.13,-0.98,3.30,0.85,1.77
7.7850,0.07,0.13,-0.99,3.30,0.98,1.65
7.7870,0.08,0.14,-0.99,3.30,1.10,1.53
7.8150,0.07,0.14,-0.99,3.36,0.79,1.59
7.8250,0.07,0.14,-0.99,3.30,0.85,1.71
7.8420,0.08,0.13,-0.99,3.42,1.10,2.01
7.8580,0.08,0.14,-0.99,3.36,0.98,2.69
7.8760,0.08,0.14,-0.99,3.42,0.98,2.62
7.8920,0.07,0.13,-0.99,3.42,1.16,1.34
7.9080,0.08,0.13,-0.99,3.54,1.04,1.65
7.9250,0.08,0.13,-0.99,3.30,1.46,2.08
7.9400,0.08,0.13,-0.99,3.42,1.10,2.01
7.9560,0.07,0.13,-0.99,3.54,1.10,1.71
7.9720,0.07,0.14,-0.99,3.42,1.10,1.71
7.9750,0.07,0.13,-0.99,3.42,0.98,1.65
7.9900,0.08,0.14,-0.98,3.48,1.04,1.59
8.0130,0.07,0.13,-0.99,3.48,0.98,1.59
8.0290,0.08,0.13,-0.99,3.60,1.22,1.77
8.0460,0.07,0.13,-0.99,3.60,1.34,1.65
8.0610,0.07,0.14,-0.99,3.36,0.92,1.59
8.0790,0.08,0.13,-0.99,3.48,1.16,1.65
8.0940,0.07,0.13,-0.99,3.42,0.85,1.71
8.0990,0.08,0.14,-0.99,3.30,1.10,1.71
8.1150,0.07,0.14,-0.99,3.17,1.34,1.83
8.1350,0.08,0.13,-0.98,3.23,1.22,1.71
8.1520,0.07,0.13,-0.99,3.42,1.04,1.65
8.1690,0.07,0.13,-0.98,3.30,1.53,1.71
8.1850,0.08,0.13,-0.99,3.48,1.22,1.65
8.2020,0.07,0.13,-0.99,3.60,1.40,1.71
8.2170,0.07,0.13,-0.99,3.42,1.04,1.65
8.2330,0.07,0.13,-0.99,3.42,1.22,1.71
8.2490,0.08,0.13,-0.99,3.48,0.73,1.71
8.2660,0.08,0.13,-0.99,3.36,1.22,1.65
8.2810,0.08,0.13,-0.99,3.48,0.85,1.71
8.2860,0.08,0.13,-0.99,3.36,1.10,1.77
8.3010,0.07,0.14,-0.98,3.36,1.16,1.65
8.3230,0.08,0.13,-0.99,3.36,1.28,1.65
8.3410,0.07,0.13,-0.98,3.36,1.28,1.59
8.3570,0.08,0.13,-0.99,3.23,0.79,1.59
8.3720,0.07,0.13,-0.99,3.17,1.16,1.59
8.3880,0.08,0.13,-0.99,3.30,1.16,1.65
8.4050,0.07,0.13,-0.99,3.36,1.34,1.71
8.4200,0.08,0.13,-0.99,3.54,0.85,1.77
8.4360,0.07,0.13,-0.99,3.54,1.10,1.71
8.4510,0.08,0.13,-0.98,3.48,1.04,1.71
8.4690,0.07,0.13,-0.99,3.36,0.92,1.71
8.4840,0.07,0.14,-0.98,3.36,0.85,1.65
8.4990,0.08,0.13,-0.99,3.42,0.73,2.20
8.5070,0.07,0.14,-0.99,3.17,0.49,3.23
8.5230,0.08,0.15,-0.99,3.23,1.04,2.81
8.5450,0.08,0.13,-0.99,3.30,1.22,2.08
8.5610,0.08,0.13,-0.99,3.30,0.98,2.38
8.5770,0.08,0.14,-0.98,3.23,0.67,2.20
8.5930,0.07,0.13,-0.99,3.36,0.92,2.20
8.6080,0.07,0.12,-0.99,3.36,0.85,2.20
8.6120,0.07,0.13,-0.98,3.42,0.98,1.65
8.6280,0.07,0.14,-0.98,3.30,0.98,1.53
8.6540,0.08,0.13,-0.98,3.23,1.22,1.59
8.6660,0.07,0.13,-0.99,3.36,1.04,1.65
8.6820,0.08,0.13,-0.98,3.11,1.34,1.71
8.6990,0.08,0.14,-0.99,3.54,1.10,1.59
8.7150,0.07,0.13,-0.99,3.54,1.22,1.65
8.7310,0.08,0.14,-0.99,3.42,1.28,1.59
8.7460,0.07,0.14,-0.99,3.54,0.98,1.59
8.7610,0.07,0.13,-0.99,3.30,0.98,1.65
8.7650,0.07,0.14,-0.99,3.48,0.92,1.59
8.7810,0.07,0.13,-0.99,3.48,0.85,1.71
8.8080,0.07,0.14,-0.99,3.54,1.04,1.65
8.8190,0.07,0.13,-0.99,3.30,1.04,1.59
8.8350,0.07,0.13,-0.99,3.36,1.10,1.71
8.8530,0.07,0.13,-0.99,3.42,0.98,1.65
8.8690,0.08,0.14,-0.99,3.36,1.04,1.65
8.8850,0.07,0.14,-0.99,3.17,0.98,1.53
8.9010,0.07,0.13,-0.99,3.36,1.28,1.65
8.9170,0.07,0.13,-0.99,3.23,1.22,1.71
8.9330,0.07,0.13,-0.99,3.36,1.28,1.53
8.9480,0.07,0.13,-0.99,3.36,0.85,1.53
8.9630,0.07,0.14,-0.99,3.48,0.98,1.59
8.9780,0.08,0.13,-0.99,3.36,1.22,1.59
8.9930,0.07,0.14,-0.99,3.42,0.98,1.59
9.0020,0.08,0.13,-0.99,3.42,1.22,1.77
9.0170,0.07,0.14,-0.99,3.30,1.10,1.71
9.0390,0.07,0.13,-0.99,3.42,1.22,1.71
9.0550,0.08,0.13,-0.99,3.48,1.04,1.53
9.0710,0.08,0.14,-0.99,3.36,1.04,1.59
9.0870,0.08,0.13,-0.98,3.30,1.04,1.59
9.1020,0.07,0.14,-0.99,3.42,0.55,1.59
9.1170,0.07,0.13,-0.99,3.42,0.73,1.59
9.1330,0.08,0.13,-0.99,3.30,1.34,1.59
9.1480,0.07,0.14,-0.99,3.36,1.16,1.77
9.1630,0.07,0.13,-0.98,3.42,1.16,1.65
9.1730,0.07,0.14,-0.99,3.30,1.10,1.59
9.1880,0.08,0.13,-0.98,3.48,0.92,1.46
9.2090,0.08,0.13,-0.98,3.48,1.10,1.71
9.2240,0.07,0.14,-0.99,3.30,1.04,1.71
9.2410,0.07,0.13,-0.99,3.30,1.10,1.77
9.2560,0.07,0.14,-0.99,3.30,0.98,1.71
9.2720,0.08,0.15,-0.98,3.42,1.28,1.46
9.2870,0.07,0.13,-0.99,3.54,1.34,0.43
9.2960,0.07,0.16,-0.99,3.36,0.79,0.79
9.3120,0.08,0.14,-0.98,3.36,1.04,1.04
9.3340,0.08,0.14,-0.98,3.42,1.28,0.73
9.3450,0.07,0.13,-0.99,3.60,1.28,1.34
9.3610,0.07,0.13,-0.99,3.36,0.79,1.71
9.3780,0.07,0.14,-0.98,3.30,0.43,2.01
9.3940,0.08,0.14,-0.98,3.36,0.67,2.20
9.4100,0.07,0.13,-0.99,3.30,0.79,2.69
9.4260,0.07,0.12,-0.99,3.23,0.67,2.75
9.4420,0.07,0.13,-0.99,3.36,0.79,2.44
9.4570,0.07,0.14,-0.98,3.30,0.98,2.20
9.4720,0.08,0.15,-0.98,3.23,0.79,2.50
9.4880,0.08,0.14,-0.99,3.30,0.98,2.56
9.4950,0.08,0.13,-0.99,3.30,1.04,2.14
9.5110,0.07,0.13,-0.99,3.23,1.16,2.08
9.5340,0.07,0.13,-0.99,3.60,0.92,2.01
9.5500,0.07,0.13,-0.99,3.36,1.04,2.38
9.5660,0.07,0.13,-0.99,3.48,0.98,2.75
9.5820,0.08,0.13,-0.98,3.30,0.85,2.14
9.5990,0.08,0.13,-0.99,3.23,0.85,1.65
9.6150,0.07,0.13,-0.99,3.30,1.34,1.77
9.6300,0.07,0.13,-0.99,3.30,1.04,1.65
9.6450,0.07,0.14,-0.99,3.36,0.98,2.14
9.6600,0.08,0.14,-0.98,3.36,0.67,2.38
9.6760,0.07,0.13,-0.99,3.42,0.92,2.01
9.6910,0.08,0.13,-0.99,3.42,0.98,1.59
9.7070,0.07,0.14,-0.99,3.36,1.10,1.59
9.7220,0.07,0.14,-0.98,3.54,0.92,1.77
9.7330,0.07,0.14,-0.99,3.48,0.98,2.14
9.7490,0.08,0.13,-0.99,3.17,1.22,2.56
9.7660,0.08,0.13,-0.99,3.30,1.10,2.01
9.7820,0.07,0.13,-0.99,3.42,1.28,1.71
9.7990,0.08,0.13,-0.98,3.23,0.98,1.71
9.8160,0.07,0.14,-0.98,3.23,0.85,1.71
9.8310,0.08,0.14,-0.99,3.54,1.16,2.50
9.8460,0.08,0.14,-0.99,3.36,1.04,2.32
9.8610,0.08,0.13,-0.98,3.42,1.10,2.26
9.8750,0.07,0.13,-0.99,3.30,0.92,1.95
9.8900,0.07,0.13,-0.99,3.17,1.04,2.14
9.9050,0.08,0.13,-0.99,3.42,0.98,2.08
9.9170,0.07,0.13,-0.99,3.66,1.04,2.01
9.9320,0.08,0.13,-0.99,3.54,0.73,1.53
9.9540,0.07,0.14,-0.99,3.23,1.04,1.71
9.9550,0.07,0.14,-0.98,3.30,0.92,1.71
9.9730,0.08,0.15,-0.99,3.42,0.79,2.81
9.9890,0.08,0.14,-0.98,3.48,0.79,3.05
10.0040,0.07,0.13,-0.98,3.42,0.85,2.81
10.0270,0.08,0.13,-0.99,3.23,0.92,2.50
10.0420,0.07,0.14,-0.99,3.42,0.98,2.44
10.0600,0.08,0.14,-0.98,3.23,0.92,3.17
10.0760,0.08,0.14,-0.99,3.30,1.16,3.48
10.0920,0.07,0.14,-0.99,3.17,0.98,3.23
10.1080,0.08,0.13,-0.98,3.17,1.04,3.17
10.1240,0.07,0.12,-0.99,3.23,0.85,3.23
10.1390,0.07,0.12,-0.99,3.48,1.16,2.44
10.1540,0.07,0.13,-0.99,3.48,1.28,1.83
10.1690,0.08,0.14,-0.99,3.17,1.46,1.77
10.1850,0.07,0.14,-0.99,3.48,0.67,1.89
10.2000,0.08,0.14,-0.98,3.42,0.98,2.62
10.2100,0.07,0.13,-0.99,3.42,1.28,2.44
10.2270,0.08,0.13,-0.99,3.36,1.16,2.32
10.2450,0.08,0.14,-0.99,3.42,0.79,2.08
10.2540,0.08,0.14,-0.99,3.42,1.16,2.32
10.2610,0.07,0.13,-0.99,3.23,1.22,2.26
10.2890,0.07,0.13,-0.99,3.48,0.85,2.32
10.3050,0.07,0.13,-0.99,3.66,0.98,2.20
10.3190,0.07,0.13,-0.99,3.48,1.40,1.71
10.3260,0.08,0.13,-0.99,3.36,1.34,1.77
10.3440,0.08,0.13,-0.99,3.23,1.10,1.77
10.3600,0.07,0.13,-0.99,3.36,1.28,1.83
10.3770,0.07,0.14,-0.98,3.30,1.10,2.08
10.3930,0.08,0.14,-0.98,3.48,1.10,2.56
10.4090,0.07,0.14,-0.99,3.30,1.04,2.38
10.4240,0.08,0.14,-0.98,3.48,1.22,2.38
10.4390,0.07,0.14,-0.99,3.48,1.04,3.11
10.4550,0.08,0.14,-0.99,3.42,1.10,3.11
10.4690,0.08,0.13,-0.99,3.36,0.67,2.50
10.4840,0.07,0.13,-0.99,3.48,1.22,1.83
10.5000,0.08,0.13,-0.99,3.36,1.22,1.59
10.5100,0.07,0.13,-0.99,3.23,1.10,1.59
10.5270,0.07,0.14,-0.99,3.36,0.92,1.65
10.5430,0.08,0.14,-0.98,3.66,0.73,2.14
10.5590,0.08,0.14,-0.99,3.36,1.16,2.26
10.5740,0.07,0.14,-0.98,3.36,0.85,2.87
10.5770,0.07,0.14,-0.99,3.23,0.92,3.11
10.6050,0.08,0.13,-0.99,3.23,0.55,2.87
10.6210,0.07,0.13,-0.99,3.30,1.16,2.56
10.6360,0.07,0.13,-0.99,3.23,1.34,2.20
10.6520,0.07,0.14,-0.99,3.42,1.22,1.95
10.6670,0.08,0.14,-0.98,3.36,1.16,2.56
10.6820,0.07,0.14,-0.99,3.23,0.85,2.81
10.6930,0.08,0.13,-0.99,3.30,1.04,2.62
10.7080,0.07,0.13,-0.99,3.42,1.10,2.26
10.7290,0.07,0.13,-0.99,3.36,0.85,2.01
10.7440,0.07,0.14,-0.99,3.42,0.98,1.83
10.7600,0.08,0.14,-0.98,3.36,1.46,2.38
10.7760,0.08,0.14,-0.99,3.36,1.22,2.69
10.7920,0.08,0.13,-0.99,3.36,0.98,2.69
10.8080,0.08,0.13,-0.99,3.36,1.22,2.20
10.8240,0.07,0.13,-0.99,3.30,1.34,1.89
10.8410,0.07,0.13,-0.99,3.42,0.79,1.89
10.8560,0.07,0.14,-0.99,3.42,1.16,2.20
10.8710,0.07,0.14,-0.99,3.36,0.98,2.44
10.8870,0.08,0.13,-0.99,3.36,0.92,2.50
10.8970,0.08,0.13,-0.99,3.48,1.22,2.08
10.9120,0.07,0.13,-0.99,3.36,1.10,2.08
10.9330,0.08,0.14,-0.99,3.54,0.98,2.08
10.9360,0.07,0.13,-0.99,3.36,1.10,2.38
10.9640,0.07,0.13,-0.99,3.42,1.04,2.38
10.9780,0.08,0.13,-0.99,3.36,1.04,2.14
10.9940,0.07,0.13,-0.99,3.30,0.98,2.01
11.0100,0.07,0.13,-0.99,3.36,1.04,2.01
11.0240,0.08,0.14,-0.98,3.23,1.16,2.14
11.0360,0.07,0.13,-0.99,3.36,1.46,2.50
11.0560,0.07,0.13,-0.99,3.36,1.04,2.08
11.0720,0.07,0.13,-0.99,3.48,1.16,1.77
11.0870,0.07,0.13,-0.99,3.60,0.85,1.71
11.0900,0.07,0.13,-0.99,3.36,1.04,1.71
11.1190,0.07,0.14,-0.99,3.36,1.34,1.83
11.1340,0.08,0.14,-0.99,3.60,0.98,2.32
11.1490,0.08,0.14,-0.99,3.36,1.04,2.81
11.1590,0.07,0.13,-0.99,3.30,1.04,2.56
11.1760,0.07,0.13,-0.99,3.17,0.98,1.77
11.1940,0.07,0.13,-0.99,3.42,0.92,1.65
11.2080,0.07,0.14,-0.98,3.30,0.79,1.53
11.2250,0.08,0.14,-0.98,3.42,1.10,1.83
11.2430,0.07,0.13,-0.99,3.42,1.10,2.56
11.2590,0.07,0.13,-0.99,3.23,1.10,2.26
11.2750,0.07,0.13,-0.99,3.23,1.40,1.65
11.2910,0.07,0.14,-0.99,3.36,1.40,1.65
11.3070,0.07,0.14,-0.99,3.05,1.16,1.83
11.3240,0.08,0.15,-0.98,3.36,1.22,1.77
11.3400,0.07,0.13,-0.99,3.23,0.92,2.26
11.3560,0.08,0.14,-0.99,3.30,0.92,2.56
11.3720,0.07,0.13,-0.99,3.30,1.16,2.26
11.3890,0.07,0.13,-0.99,3.23,1.16,2.20
11.4050,0.07,0.13,-0.99,3.30,1.04,2.08
11.4200,0.07,0.13,-0.99,3.30,1.40,2.08
11.4250,0.08,0.14,-0.99,3.36,1.22,2.32
11.4410,0.07,0.13,-0.99,3.23,1.28,2.44
11.4630,0.08,0.13,-0.99,3.30,0.98,1.95
11.4810,0.07,0.14,-0.99,3.48,1.10,2.14
11.4810,0.07,0.14,-0.98,3.42,0.98,2.32
11.5100,0.08,0.13,-0.99,3.36,0.73,2.93
11.5260,0.07,0.13,-0.99,3.36,0.92,2.93
11.5420,0.07,0.13,-0.99,3.48,1.16,2.20
11.5580,0.08,0.13,-0.99,3.60,0.67,1.71
11.5630,0.07,0.13,-0.99,3.72,0.85,1.65
11.5780,0.07,0.14,-0.99,3.42,0.85,1.77
11.6050,0.08,0.14,-0.98,3.48,0.98,2.01
11.6160,0.07,0.14,-0.99,3.42,0.61,2.62
11.6330,0.07,0.13,-0.99,3.42,0.61,2.69
11.6490,0.08,0.13,-0.99,3.36,0.98,2.08
11.6660,0.08,0.13,-0.98,3.36,0.92,1.65
11.6820,0.07,0.13,-0.99,3.42,1.34,1.71
11.6990,0.07,0.13,-0.99,3.36,1.28,1.71
11.7150,0.07,0.13,-0.99,3.36,0.98,1.71
11.7310,0.08,0.13,-0.99,3.42,0.98,1.77
11.7470,0.07,0.13,-0.99,3.36,1.10,1.59
11.7620,0.07,0.14,-0.99,3.48,1.10,1.77
11.7770,0.07,0.14,-0.99,3.48,0.79,1.59
11.7940,0.07,0.14,-0.99,3.36,0.85,2.20
11.7990,0.08,0.14,-0.99,3.17,1.04,2.69
11.8150,0.08,0.13,-0.99,3.30,1.10,2.32
11.8370,0.08,0.13,-0.99,3.48,1.16,1.89
11.8560,0.08,0.13,-0.99,3.42,0.61,1.59
11.8700,0.07,0.14,-0.99,3.30,0.92,1.65
11.8880,0.08,0.14,-0.98,3.36,1.16,1.77
11.9040,0.07,0.14,-0.99,3.36,0.85,2.14
11.9050,0.07,0.13,-0.99,3.36,0.73,2.38
11.9210,0.07,0.13,-0.99,3.36,0.92,2.20
11.9370,0.07,0.13,-0.99,3.36,1.10,2.38
11.9680,0.07,0.14,-0.99,3.30,1.16,2.38
11.9710,0.07,0.13,-0.99,3.11,0.98,2.75
11.9880,0.08,0.14,-0.99,3.30,0.85,2.44
12.0030,0.08,0.14,-0.99,3.30,0.98,2.44
12.0290,0.07,0.13,-0.99,3.30,1.10,2.93
12.0430,0.07,0.13,-0.98,3.17,0.98,2.56
12.0560,0.08,0.13,-0.99,3.23,1.10,2.44
12.0700,0.08,0.14,-0.99,3.42,0.85,2.20
12.0870,0.08,0.14,-0.99,3.42,1.16,2.14
12.1030,0.07,0.14,-0.98,3.11,1.34,2.50
12.1180,0.08,0.14,-0.99,3.23,1.40,2.75
12.1340,0.07,0.13,-0.99,3.11,0.61,2.87
12.1480,0.08,0.13,-0.99,3.42,1.22,2.75
12.1560,0.07,0.13,-0.99,3.42,1.40,2.44
12.1720,0.07,0.13,-0.99,3.36,1.28,2.44
12.1880,0.07,0.13,-0.99,3.42,0.98,2.14
12.2040,0.08,0.14,-0.99,3.42,0.92,2.44
12.2210,0.08,0.14,-0.98,3.36,1.10,2.87
12.2370,0.07,0.14,-0.99,3.23,1.10,3.11
12.2540,0.07,0.13,-0.99,3.17,0.67,2.93
12.2700,0.07,0.13,-0.99,3.30,1.04,2.87
12.2710,0.08,0.13,-0.98,3.54,1.10,2.50
12.2890,0.07,0.14,-0.99,3.42,0.73,2.32
12.3180,0.07,0.14,-0.98,3.17,1.40,2.50
12.3320,0.07,0.14,-0.98,3.17,1.04,2.93
12.3480,0.07,0.14,-0.99,3.30,0.79,3.30
12.3580,0.08,0.13,-0.99,3.42,0.79,3.23
12.3750,0.07,0.13,-0.99,3.23,1.16,2.62
12.3930,0.07,0.13,-0.99,3.23,1.22,2.14
12.4080,0.07,0.14,-0.99,3.54,1.28,1.83
12.4240,0.08,0.14,-0.98,3.36,1.04,1.89
12.4410,0.08,0.14,-0.99,3.36,0.67,2.32
12.4560,0.07,0.14,-0.99,3.30,0.85,2.93
12.4720,0.07,0.13,-0.99,3.11,0.98,2.99
12.4880,0.07,0.13,-0.99,3.23,0.92,2.38
12.5040,0.08,0.13,-0.99,3.30,1.04,1.89
12.5090,0.07,0.14,-0.98,3.42,0.79,1.83
12.5240,0.07,0.14,-0.99,3.30,0.67,2.38
12.5500,0.08,0.14,-0.99,3.36,0.37,3.36
12.5600,0.08,0.13,-0.98,3.23,0.31,3.60
12.5760,0.07,0.13,-0.99,3.30,0.92,3.11
12.5930,0.07,0.13,-0.98,3.42,1.10,2.56
12.6090,0.07,0.13,-0.99,3.42,0.92,2.14
12.6260,0.07,0.13,-0.99,3.48,1.34,2.20
12.6420,0.08,0.14,-0.98,3.54,1.16,2.62
12.6570,0.08,0.14,-0.99,3.54,0.85,2.81
12.6740,0.07,0.13,-0.99,3.36,0.73,2.81
12.6900,0.07,0.13,-0.99,3.30,0.55,2.93
12.7070,0.08,0.14,-0.99,3.42,0.79,2.69
12.7220,0.07,0.14,-0.99,3.48,0.67,2.56
12.7380,0.07,0.14,-0.99,2.99,1.04,2.93
12.7530,0.07,0.13,-0.99,3.36,0.98,3.05
12.7600,0.07,0.13,-0.99,3.36,0.92,2.87
12.7750,0.07,0.13,-0.99,3.36,0.79,2.75
12.7970,0.07,0.13,-0.99,3.42,0.92,2.44
12.8130,0.08,0.14,-0.99,3.23,1.53,2.32
12.8290,0.07,0.14,-0.99,3.23,1.34,2.62
12.8440,0.08,0.14,-0.98,3.30,1.28,3.11
12.8600,0.08,0.13,-0.99,3.36,0.85,3.30
12.8760,0.07,0.13,-0.99,3.17,1.28,2.87
12.8820,0.07,0.13,-0.99,3.30,1.22,2.20
12.8970,0.08,0.14,-0.98,3.42,1.28,1.95
12.9200,0.08,0.14,-0.98,3.48,0.92,2.44
12.9360,0.08,0.14,-0.99,3.23,0.79,2.99
12.9530,0.08,0.14,-0.99,3.05,0.55,3.42
12.9700,0.07,0.13,-0.99,3.23,0.79,3.30
12.9860,0.07,0.13,-0.99,3.11,0.92,3.05
13.0010,0.08,0.14,-0.99,3.42,1.04,2.56
13.0180,0.07,0.13,-0.99,3.48,0.61,2.62
13.0350,0.08,0.13,-0.98,3.48,0.55,2.50
13.0500,0.07,0.13,-0.99,3.30,1.04,2.56
13.0660,0.08,0.13,-0.99,3.42,1.04,2.44
13.0820,0.07,0.13,-0.99,3.36,1.04,1.89
13.0980,0.07,0.13,-0.98,3.36,1.04,1.95
13.1130,0.08,0.14,-0.98,3.36,0.73,2.01
13.1280,0.07,0.13,-0.99,3.36,0.85,2.01
13.1370,0.07,0.14,-0.99,3.36,0.85,1.89
13.1560,0.07,0.13,-0.99,3.42,1.40,2.14
13.1700,0.07,0.14,-0.99,3.30,1.40,1.95
13.1860,0.08,0.14,-0.98,3.23,1.10,1.95
13.2030,0.07,0.14,-0.99,3.30,1.04,2.38
13.2170,0.07,0.13,-0.99,3.23,1.04,2.32
13.2330,0.07,0.13,-0.99,3.42,1.34,2.32
13.2360,0.07,0.13,-0.99,3.30,0.85,2.01
13.2630,0.07,0.13,-0.99,3.30,1.28,1.83
13.2700,0.07,0.14,-0.99,3.30,1.53,1.83
13.2960,0.08,0.14,-0.98,3.48,0.98,1.89
13.3030,0.08,0.14,-0.98,3.48,0.92,2.62
13.3220,0.07,0.14,-0.99,3.30,0.67,3.30
13.3370,0.07,0.13,-0.99,3.30,0.73,3.05
13.3560,0.07,0.13,-0.99,3.30,0.61,2.62
13.3710,0.07,0.13,-0.99,3.42,1.16,2.38
13.3870,0.07,0.13,-0.99,3.23,0.98,2.38
13.4020,0.07,0.14,-0.99,3.42,0.79,2.44
13.4180,0.07,0.14,-0.98,3.30,0.73,3.05
13.4330,0.07,0.14,-0.99,3.17,0.92,3.23
13.4380,0.07,0.13,-0.99,3.11,1.10,3.17
13.4560,0.07,0.13,-0.99,3.36,0.85,2.81
13.4780,0.07,0.13,-0.98,3.48,1.04,2.32
13.4930,0.08,0.14,-0.99,3.36,1.40,2.26
13.5070,0.07,0.14,-0.99,3.48,1.10,2.44
13.5120,0.08,0.14,-0.98,3.42,0.85,2.69
13.5280,0.07,0.14,-0.99,3.36,0.73,3.23
13.5500,0.07,0.13,-0.98,3.17,1.04,3.54
13.5660,0.07,0.13,-0.99,3.17,1.04,3.11
13.5830,0.07,0.12,-0.99,3.30,0.85,2.44
13.5990,0.07,0.13,-0.99,3.42,0.85,2.38
13.6150,0.08,0.14,-0.98,3.42,1.10,2.69
13.6320,0.07,0.14,-0.98,3.17,1.28,3.36
13.6470,0.07,0.13,-0.99,3.23,0.98,3.54
13.6640,0.07,0.13,-0.98,3.11,1.16,3.78
13.6800,0.07,0.13,-0.99,3.11,0.98,3.23
13.6960,0.07,0.13,-0.99,3.17,1.16,3.30
13.7110,0.07,0.13,-0.98,3.23,0.85,3.11
13.7160,0.08,0.13,-0.99,3.23,0.98,3.17
13.7310,0.07,0.13,-0.99,3.23,0.85,2.69
13.7560,0.07,0.13,-0.99,3.30,0.73,2.14
13.7720,0.07,0.13,-0.99,3.30,1.04,2.32
13.7880,0.07,0.14,-0.99,3.30,0.85,2.26
13.8040,0.08,0.14,-0.99,3.23,0.92,2.81
13.8200,0.07,0.14,-0.99,3.30,0.79,2.93
13.8370,0.07,0.13,-0.99,3.17,0.67,3.05
13.8520,0.07,0.13,-0.99,3.30,0.92,2.50
13.8680,0.08,0.13,-0.99,3.42,1.28,2.62
13.8840,0.07,0.13,-0.99,3.54,0.98,2.62
13.8990,0.08,0.13,-0.99,3.23,1.16,2.56
13.9140,0.08,0.13,-0.98,3.42,0.92,2.38
13.9300,0.07,0.14,-0.99,3.36,1.34,2.32
13.9450,0.08,0.14,-0.98,3.48,1.22,2.44
13.9560,0.07,0.13,-0.99,3.48,1.28,2.20
13.9720,0.08,0.14,-0.98,3.36,1.22,2.20
13.9880,0.08,0.13,-0.99,3.30,1.22,2.20
14.0060,0.07,0.14,-0.99,3.30,1.22,2.32
14.0220,0.08,0.14,-0.98,3.36,0.61,2.62
14.0390,0.08,0.14,-0.99,3.36,0.98,2.93
14.0560,0.07,0.14,-0.99,3.11,0.79,3.05
14.0710,0.07,0.13,-0.99,3.17,1.53,3.23
14.0870,0.07,0.13,-0.99,3.30,0.98,3.05
14.1030,0.07,0.13,-0.99,3.30,0.73,3.11
14.1190,0.07,0.13,-0.99,3.23,0.85,3.11
14.1360,0.07,0.14,-0.99,2.99,1.16,2.75
14.1510,0.07,0.14,-0.99,3.23,0.67,2.75
14.1560,0.07,0.13,-0.99,3.23,0.79,2.93
14.1710,0.08,0.13,-0.99,3.36,0.98,3.11
14.1960,0.08,0.13,-0.99,3.30,0.79,2.99
14.2110,0.07,0.13,-0.99,3.23,1.04,2.75
14.2270,0.07,0.14,-0.99,3.23,0.98,3.23
14.2430,0.07,0.13,-0.99,3.17,1.04,3.23
14.2570,0.07,0.13,-0.99,3.23,0.92,2.81
14.2750,0.08,0.13,-0.99,3.36,1.16,2.69
14.2900,0.07,0.13,-0.99,3.42,0.92,2.56
14.2960,0.07,0.13,-0.99,3.30,1.40,2.62
14.3110,0.07,0.14,-0.98,3.11,1.10,2.99
14.3340,0.07,0.14,-0.99,3.23,0.61,3.60
14.3500,0.08,0.13,-0.99,3.05,1.04,3.30
14.3660,0.07,0.13,-0.99,2.99,1.46,2.99
14.3820,0.07,0.13,-0.99,3.17,1.40,2.81
14.3980,0.07,0.13,-0.99,3.30,1.34,2.69
14.4140,0.07,0.14,-0.99,3.23,0.98,2.93
14.4290,0.07,0.14,-0.98,3.11,0.85,2.99
14.4440,0.07,0.13,-0.99,3.17,0.98,2.87
14.4600,0.07,0.14,-0.99,3.05,1.28,2.50
14.4760,0.07,0.13,-0.99,3.11,1.22,2.69
14.4920,0.07,0.14,-0.99,3.30,1.10,2.93
14.5070,0.08,0.14,-0.98,3.11,0.92,3.11
14.5220,0.07,0.13,-0.99,2.99,0.98,3.48
14.5330,0.08,0.13,-0.99,3.23,0.67,3.85
14.5500,0.08,0.13,-0.99,3.17,0.85,3.17
14.5660,0.07,0.12,-0.99,3.23,0.98,2.69
14.5830,0.07,0.14,-0.99,3.30,0.98,2.56
14.6000,0.07,0.14,-0.99,3.42,0.85,2.81
14.6160,0.07,0.14,-0.99,3.11,0.98,2.99
14.6310,0.07,0.14,-0.99,3.05,0.98,3.17
14.6460,0.07,0.13,-0.99,3.23,0.98,2.93
14.6620,0.07,0.13,-0.99,3.36,1.04,2.69
14.6770,0.07,0.13,-0.99,3.23,1.28,2.62
14.6940,0.07,0.14,-0.98,3.42,1.16,2.14
14.7090,0.07,0.13,-0.98,3.30,1.16,2.44
14.7170,0.07,0.13,-0.99,3.17,1.04,2.38
14.7320,0.07,0.13,-0.99,3.30,0.85,2.26
14.7540,0.07,0.13,-0.99,3.17,1.28,2.20
14.7700,0.07,0.14,-0.99,3.36,1.16,2.26
14.7850,0.07,0.14,-0.98,3.36,1.10,2.32
14.7890,0.07,0.14,-0.98,3.42,1.04,2.50
14.8160,0.08,0.14,-0.99,3.11,0.92,2.93
14.8320,0.07,0.13,-0.99,3.23,1.10,3.17
14.8480,0.08,0.13,-0.99,3.23,0.85,3.30
14.8640,0.07,0.13,-0.99,3.17,1.10,2.44
14.8790,0.08,0.14,-0.99,3.36,1.10,2.69
14.8890,0.07,0.14,-0.99,3.17,1.16,2.50
14.9060,0.07,0.14,-0.99,3.30,0.92,2.44
14.9220,0.07,0.14,-0.99,3.23,1.16,2.56
14.9390,0.07,0.13,-0.99,2.99,0.85,3.17
14.9550,0.08,0.13,-0.99,3.17,0.61,3.23
14.9720,0.08,0.13,-0.99,3.23,0.98,2.87
14.9880,0.07,0.13,-0.99,3.42,1.10,2.26
14.9900,0.08,0.14,-0.98,3.23,1.10,2.69
15.0200,0.07,0.13,-0.99,3.17,0.98,2.75
15.0350,0.08,0.13,-0.99,3.17,0.92,2.81
15.0390,0.07,0.13,-0.99,3.30,0.92,2.87
15.0570,0.07,0.13,-0.99,3.17,1.53,2.56
15.0820,0.07,0.13,-0.99,3.36,0.85,2.32
15.0970,0.07,0.13,-0.99,3.36,0.92,2.38
15.1090,0.07,0.13,-0.99,3.48,1.04,2.38
15.1260,0.07,0.14,-0.98,3.42,1.16,2.14
15.1420,0.07,0.13,-0.99,3.17,1.04,2.50
15.1580,0.07,0.13,-0.99,3.30,0.85,2.44
15.1740,0.08,0.13,-0.99,3.11,1.16,2.32
15.1900,0.07,0.13,-0.99,3.36,0.85,1.95
15.2070,0.07,0.13,-0.98,3.42,0.79,1.53
15.2220,0.07,0.13,-0.99,3.48,0.67,1.65
15.2380,0.07,0.13,-0.99,3.42,1.28,1.71
15.2540,0.07,0.13,-0.99,3.36,1.22,1.59
15.2700,0.07,0.14,-0.99,3.36,1.22,1.53
15.2860,0.07,0.13,-0.99,3.23,1.16,1.71
15.3010,0.07,0.13,-0.99,3.30,1.34,1.53
15.3170,0.07,0.13,-0.98,3.30,1.16,1.65
15.3310,0.07,0.13,-0.99,3.60,1.10,1.65
15.3430,0.07,0.13,-0.99,3.42,1.10,1.77
15.3590,0.08,0.13,-0.99,3.36,0.79,1.59
15.3750,0.07,0.13,-0.99,3.54,0.92,1.65
15.3930,0.07,0.13,-0.99,3.54,1.16,1.59
15.4080,0.07,0.13,-0.99,3.36,1.10,1.53
15.4240,0.07,0.13,-0.99,3.48,1.34,1.46
15.4390,0.08,0.14,-0.98,3.42,0.98,1.40
15.4470,0.08,0.15,-0.99,3.48,0.85,1.10
15.4630,0.07,0.13,-0.99,3.17,0.92,2.20
15.4850,0.07,0.14,-0.99,3.11,0.92,2.50
15.5020,0.07,0.13,-0.98,3.42,0.85,2.26
15.5180,0.07,0.13,-0.99,3.42,0.85,2.38
15.5340,0.07,0.13,-0.99,3.54,0.79,1.77
15.5490,0.07,0.13,-0.99,3.36,1.22,1.77
15.5650,0.07,0.13,-0.98,3.30,1.10,1.65
15.5820,0.08,0.13,-0.99,3.05,1.28,1.83
15.5960,0.07,0.14,-0.99,3.42,1.16,1.59
15.6120,0.07,0.14,-0.99,3.48,0.92,1.77
15.6260,0.08,0.14,-0.98,3.54,1.10,2.01
15.6410,0.07,0.13,-0.99,3.48,0.79,2.69
15.6530,0.07,0.13,-0.99,3.36,1.22,2.38
15.6690,0.07,0.13,-0.99,3.36,1.10,2.01
15.6860,0.08,0.13,-0.99,3.36,1.04,2.01
15.7020,0.08,0.14,-0.98,3.48,0.98,2.14
15.7190,0.08,0.14,-0.99,3.42,0.79,2.20
15.7360,0.07,0.14,-0.99,3.30,1.10,2.62
15.7520,0.07,0.13,-0.99,3.17,0.49,3.36
15.7680,0.07,0.13,-0.99,2.99,0.73,3.42
15.7840,0.07,0.13,-0.99,3.23,0.79,2.62
15.8000,0.07,0.13,-0.99,3.48,0.98,2.50
15.8160,0.07,0.13,-0.99,3.23,0.92,2.38
15.8320,0.07,0.13,-0.98,3.42,0.61,2.50
15.8470,0.08,0.14,-0.99,3.36,0.79,2.62
15.8580,0.07,0.14,-0.99,3.42,0.79,2.69
15.8770,0.08,0.14,-0.99,3.30,0.73,3.11
15.8860,0.08,0.13,-0.99,3.30,0.55,3.11
15.9020,0.07,0.13,-0.99,3.42,0.55,2.56
15.9240,0.07,0.13,-0.99,3.54,0.79,1.95
15.9400,0.07,0.13,-0.99,3.60,0.73,1.59
15.9560,0.08,0.14,-0.99,3.54,0.61,1.77
15.9720,0.07,0.14,-0.99,3.48,0.79,2.01
15.9880,0.08,0.14,-0.99,3.36,0.85,2.32
16.0040,0.07,0.13,-0.99,3.36,1.16,2.50
16.0200,0.07,0.13,-0.99,3.30,0.92,2.08
16.0230,0.07,0.13,-0.99,3.48,0.85,1.83
16.0380,0.07,0.14,-0.98,3.60,0.61,1.89
16.0630,0.08,0.14,-0.98,3.36,0.85,2.01
16.0790,0.08,0.14,-0.99,3.42,1.04,2.32
16.0960,0.07,0.14,-0.99,3.48,1.04,2.50
16.1110,0.07,0.13,-0.99,3.30,0.92,3.05
16.1270,0.07,0.13,-0.99,3.42,0.37,3.23
16.1430,0.07,0.13,-0.99,3.36,0.92,2.81
16.1600,0.07,0.13,-0.99,3.42,0.79,2.32
16.1750,0.07,0.13,-0.99,3.42,0.92,2.32
16.1900,0.08,0.14,-0.98,3.36,0.98,2.44
16.2070,0.07,0.14,-0.99,3.23,0.85,2.93
16.2220,0.08,0.14,-0.98,3.23,0.12,3.85
16.2380,0.08,0.14,-0.99,3.05,0.49,5.19
16.2460,0.07,0.12,-0.99,3.17,0.43,4.82
16.2610,0.07,0.11,-0.99,3.23,0.31,3.05
16.2830,0.07,0.12,-0.99,3.48,0.85,1.77
16.3000,0.07,0.13,-0.99,3.66,0.92,1.65
16.3150,0.07,0.14,-0.99,3.60,0.49,1.65
16.3320,0.07,0.14,-0.98,3.48,0.73,2.01
16.3480,0.08,0.15,-0.98,3.36,0.43,2.81
16.3660,0.08,0.14,-0.99,3.23,0.49,3.23
16.3790,0.07,0.13,-0.99,3.23,0.61,3.54
16.3950,0.07,0.12,-0.99,3.30,0.31,2.93
16.4090,0.07,0.12,-0.99,3.48,0.92,2.69
16.4250,0.07,0.13,-0.98,3.66,1.22,2.01
16.4410,0.08,0.14,-0.99,3.48,0.92,1.59
16.4560,0.07,0.14,-0.99,3.30,0.98,1.65
16.4670,0.07,0.14,-0.99,3.42,1.16,1.65
16.4830,0.07,0.14,-0.98,3.42,1.16,2.01
16.5000,0.07,0.14,-0.99,3.23,0.73,3.05
16.5170,0.08,0.13,-0.99,3.48,0.79,2.99
16.5330,0.08,0.13,-0.98,3.42,0.92,2.44
16.5490,0.07,0.13,-0.99,3.17,0.98,2.14
16.5650,0.07,0.13,-0.99,3.36,0.79,2.01
16.5810,0.08,0.14,-0.99,3.23,1.28,2.14
16.5960,0.08,0.14,-0.98,3.48,0.55,2.50
16.6110,0.07,0.14,-0.98,3.30,0.79,2.69
16.6280,0.07,0.13,-0.99,3.42,0.92,2.99
16.6430,0.07,0.13,-0.99,3.42,0.85,2.56
16.6580,0.07,0.13,-0.99,3.11,0.55,2.14
16.6650,0.07,0.14,-0.98,3.30,0.73,2.44
16.6850,0.07,0.14,-0.99,3.42,0.24,2.93
16.7010,0.08,0.14,-0.98,3.30,0.31,3.05
16.7180,0.08,0.14,-0.98,3.48,0.49,3.17
16.7340,0.07,0.13,-0.99,3.36,0.79,3.05
16.7510,0.07,0.13,-0.99,3.30,1.04,2.93
16.7680,0.07,0.13,-0.99,3.11,0.79,2.69
16.7830,0.07,0.13,-0.99,3.48,0.55,2.08
16.8000,0.07,0.14,-0.99,3.42,0.67,2.50
16.8160,0.08,0.14,-0.99,3.17,1.10,3.17
16.8320,0.07,0.14,-0.99,3.17,0.79,3.48
16.8480,0.08,0.13,-0.99,3.17,0.67,3.42
16.8640,0.07,0.13,-0.99,3.17,0.55,2.93
16.8790,0.07,0.13,-0.99,3.42,1.16,2.62
16.8940,0.07,0.13,-0.99,3.48,0.79,2.56
16.9020,0.07,0.13,-0.99,3.30,0.92,2.62
16.9170,0.08,0.13,-0.99,3.30,0.92,2.20
16.9380,0.08,0.14,-0.99,3.23,1.28,2.50
16.9550,0.07,0.13,-0.99,3.36,0.79,2.56
16.9730,0.07,0.14,-0.98,3.42,0.61,2.08
16.9880,0.09,0.15,-0.98,3.42,0.98,2.69
17.0040,0.07,0.15,-0.99,3.54,0.55,3.30
17.0200,0.07,0.14,-0.98,3.23,0.43,5.07
17.0360,0.07,0.13,-0.99,3.05,0.18,5.49
17.0520,0.07,0.12,-0.99,2.93,0.24,5.13
17.0680,0.07,0.12,-0.99,3.36,0.79,3.97
17.0840,0.07,0.13,-0.99,3.42,0.79,3.48
17.0880,0.08,0.13,-0.99,3.17,0.73,3.42
17.1040,0.07,0.13,-0.99,3.48,0.55,2.62
17.1310,0.07,0.13,-0.99,3.23,0.55,1.95
17.1410,0.07,0.13,-0.99,3.54,0.92,1.77
17.1590,0.07,0.13,-0.99,3.36,0.85,1.83
17.1750,0.07,0.13,-0.99,3.36,0.73,1.71
17.1910,0.07,0.13,-0.99,3.36,0.73,1.95
17.2070,0.07,0.13,-0.99,3.42,0.79,2.14
17.2250,0.08,0.13,-0.98,3.48,0.37,1.95
17.2400,0.07,0.13,-0.99,3.23,0.61,1.71
17.2560,0.07,0.13,-0.98,3.36,0.79,1.71
17.2730,0.07,0.13,-0.98,3.48,1.04,1.71
17.2880,0.08,0.14,-0.98,3.30,0.98,2.01
17.3040,0.07,0.14,-0.99,3.78,0.98,1.34
17.3200,0.07,0.13,-0.99,3.36,0.73,2.08
17.3240,0.08,0.14,-0.99,3.54,0.73,2.01
17.3400,0.07,0.13,-0.99,3.60,1.04,2.08
17.3620,0.07,0.13,-0.99,3.60,0.67,2.44
17.3800,0.07,0.13,-0.99,3.36,1.04,2.56
17.3960,0.08,0.14,-0.98,3.11,0.85,2.87
17.4110,0.08,0.14,-0.99,3.30,0.92,3.48
17.4260,0.07,0.13,-0.99,3.17,1.16,3.60
17.4420,0.08,0.14,-0.98,3.48,1.22,3.17
17.4450,0.08,0.14,-0.98,3.17,1.16,3.42
17.4610,0.07,0.13,-0.99,3.42,0.61,3.91
17.4900,0.07,0.13,-0.99,3.36,0.55,3.36
17.4990,0.07,0.13,-0.98,3.36,0.49,2.69
17.5150,0.07,0.13,-0.99,3.42,0.55,2.81
17.5340,0.07,0.13,-0.99,3.48,0.85,3.30
17.5500,0.08,0.13,-0.99,3.30,0.85,2.87
17.5660,0.07,0.13,-0.99,3.36,0.85,2.38
17.5810,0.07,0.13,-0.99,3.30,0.92,2.20
17.5970,0.07,0.13,-0.99,3.42,0.73,2.14
17.6110,0.07,0.14,-0.98,3.48,0.67,2.01
17.6260,0.08,0.15,-0.98,3.48,0.67,2.62
17.6410,0.07,0.14,-0.99,3.23,0.55,2.75
17.6560,0.07,0.13,-0.99,3.42,0.67,3.17
17.6680,0.07,0.13,-0.99,3.42,0.85,2.93
17.6850,0.07,0.12,-0.99,3.11,0.98,2.20
17.7020,0.07,0.13,-0.99,3.30,1.40,1.77
17.7180,0.07,0.13,-0.99,3.54,0.98,1.59
17.7340,0.07,0.13,-0.99,3.36,1.22,1.59
17.7500,0.07,0.13,-0.99,3.42,0.92,1.53
17.7650,0.07,0.13,-0.99,3.54,1.40,1.40
17.7680,0.07,0.13,-0.99,3.48,0.92,1.65
17.7830,0.07,0.13,-0.99,3.54,1.40,1.71
17.8120,0.07,0.13,-0.99,3.54,1.04,1.65
17.8220,0.07,0.14,-0.99,3.30,1.16,1.65
17.8390,0.08,0.14,-0.98,3.23,0.61,2.99
17.8560,0.08,0.15,-0.98,3.42,0.43,2.93
17.8720,0.07,0.14,-0.98,3.54,0.79,3.30
17.8890,0.08,0.13,-0.99,3.17,0.55,3.36
17.9040,0.07,0.13,-0.99,3.60,0.67,3.48
17.9210,0.07,0.13,-0.99,3.23,0.73,3.11
17.9370,0.08,0.12,-0.99,3.23,0.85,2.38
17.9530,0.07,0.13,-0.99,3.36,1.10,1.95
17.9690,0.07,0.13,-0.99,3.48,1.22,1.65
17.9720,0.08,0.13,-0.98,3.42,0.98,1.71
17.9880,0.08,0.13,-0.99,3.23,0.85,1.59
18.0110,0.07,0.14,-0.99,3.30,0.79,1.71
18.0280,0.08,0.16,-0.98,3.54,0.92,2.38
18.0440,0.07,0.14,-0.99,3.42,0.37,3.42
18.0610,0.07,0.13,-0.99,3.11,0.67,3.48
18.0770,0.07,0.13,-0.99,3.36,0.98,2.87
18.0930,0.07,0.13,-0.99,3.36,0.67,2.81
18.1090,0.07,0.13,-0.99,3.30,0.61,2.56
18.1120,0.07,0.14,-0.98,3.42,1.04,2.93
18.1270,0.08,0.14,-0.99,3.17,1.10,3.42
18.1490,0.07,0.13,-0.99,3.23,0.92,3.23
18.1670,0.07,0.13,-0.99,3.23,0.92,2.81
18.1820,0.07,0.13,-0.99,3.30,0.98,2.62
18.1990,0.07,0.13,-0.99,3.30,1.10,2.44
18.2140,0.07,0.14,-0.99,3.36,0.37,2.56
18.2170,0.08,0.14,-0.98,3.17,1.04,3.30
18.2320,0.07,0.13,-0.99,3.17,0.55,3.36
18.2600,0.07,0.12,-0.99,3.11,0.92,3.05
18.2730,0.07,0.13,-0.99,3.42,0.61,2.44
18.2870,0.07,0.13,-0.99,3.48,1.16,2.56
18.3050,0.07,0.14,-0.98,3.42,0.79,2.50
18.3210,0.08,0.14,-0.99,3.42,1.04,2.81
18.3370,0.07,0.14,-0.99,3.42,0.92,3.05
18.3550,0.07,0.13,-0.99,3.36,1.04,3.23
18.3700,0.08,0.13,-0.98,3.48,0.73,3.05
18.3860,0.07,0.13,-0.99,3.23,0.73,2.81
18.4020,0.07,0.13,-0.99,3.42,1.22,2.50
18.4170,0.08,0.13,-0.99,3.42,0.73,2.14
18.4310,0.07,0.14,-0.99,3.48,0.73,2.62
18.4430,0.07,0.14,-0.99,3.36,0.61,2.62
18.4610,0.07,0.13,-0.99,3.54,0.55,2.32
18.4750,0.08,0.14,-0.98,3.23,1.10,2.93
18.4920,0.07,0.13,-0.99,3.17,0.85,3.48
18.5080,0.07,0.13,-0.99,3.42,0.85,2.75
18.5230,0.08,0.14,-0.98,3.30,1.04,2.62
18.5390,0.07,0.14,-0.99,3.23,1.10,3.17
18.5540,0.08,0.14,-0.98,3.23,0.79,3.36
18.5700,0.07,0.14,-0.99,3.30,0.61,3.48
18.5760,0.07,0.14,-0.98,3.36,0.55,3.78
18.5920,0.07,0.14,-0.99,3.30,0.92,4.09
18.6080,0.08,0.13,-0.99,3.23,0.98,4.52
18.6290,0.07,0.12,-0.99,3.17,0.49,3.72
18.6460,0.07,0.12,-0.99,3.23,1.22,2.87
18.6620,0.07,0.13,-0.99,3.30,1.16,2.26
18.6770,0.07,0.13,-0.99,3.54,1.10,2.20
18.6930,0.07,0.14,-0.98,3.30,0.85,2.50
18.6960,0.08,0.15,-0.98,3.42,0.92,2.62
18.7120,0.07,0.13,-0.99,3.54,0.79,2.50
18.7390,0.08,0.13,-0.99,3.36,1.04,2.62
18.7510,0.07,0.14,-0.99,3.42,0.79,2.44
18.7670,0.07,0.14,-0.99,3.36,0.73,2.87
18.7840,0.07,0.13,-0.99,3.30,0.85,3.11
18.8000,0.07,0.14,-0.99,3.42,0.85,3.05
18.8160,0.07,0.13,-0.99,3.30,0.85,3.30
18.8320,0.07,0.13,-0.99,3.42,0.98,3.05
18.8470,0.08,0.13,-0.99,3.36,0.79,2.44
18.8630,0.07,0.13,-0.99,3.54,1.16,2.26
18.8770,0.07,0.14,-0.98,3.30,1.04,2.14
18.8920,0.07,0.14,-0.99,3.36,0.92,2.69
18.9020,0.07,0.13,-0.99,3.30,0.79,2.93
18.9170,0.08,0.13,-0.99,3.30,0.73,2.93
18.9380,0.07,0.13,-0.99,3.54,0.85,2.20
18.9520,0.07,0.13,-0.99,3.42,0.98,1.89
18.9610,0.07,0.13,-0.99,3.54,0.73,1.83
18.9720,0.08,0.13,-0.99,3.30,0.92,2.01
18.9940,0.07,0.14,-0.99,3.17,1.22,2.38
19.0100,0.08,0.14,-0.98,3.36,0.79,2.50
19.0260,0.07,0.14,-0.99,3.36,0.92,2.56
19.0440,0.07,0.14,-0.99,3.36,0.92,2.75
19.0590,0.07,0.13,-0.99,3.17,0.98,2.69
19.0750,0.07,0.14,-0.99,3.42,0.67,2.75
19.0910,0.07,0.13,-0.99,3.30,0.73,2.75
19.1070,0.07,0.13,-0.99,3.11,1.04,2.69
19.1120,0.07,0.13,-0.99,3.54,0.61,2.44
19.1280,0.07,0.13,-0.99,3.30,0.73,2.20
19.1480,0.07,0.14,-0.99,3.36,0.67,2.01
19.1650,0.07,0.14,-0.99,3.60,0.55,2.01
19.1810,0.07,0.14,-0.98,3.30,0.49,2.08
19.1970,0.07,0.13,-0.99,3.42,0.79,2.14
19.2130,0.07,0.13,-0.99,3.23,0.98,1.95
19.2200,0.07,0.13,-0.99,3.42,1.04,1.95
19.2370,0.07,0.13,-0.99,3.42,1.16,1.71
19.2530,0.07,0.13,-0.99,3.54,0.85,1.65
19.2740,0.07,0.13,-0.99,3.60,1.40,1.77
19.2900,0.07,0.13,-0.99,3.30,1.22,1.59
19.3070,0.07,0.14,-0.98,3.36,1.34,2.08
19.3230,0.07,0.14,-0.98,3.54,0.61,2.56
19.3380,0.07,0.13,-0.99,3.23,1.04,3.30
19.3540,0.07,0.13,-0.99,3.23,1.22,2.99
19.3700,0.08,0.13,-0.99,3.23,0.85,2.87
19.3840,0.07,0.13,-0.99,3.48,0.85,2.26
19.3910,0.07,0.13,-0.99,3.42,1.10,2.38
19.4080,0.07,0.14,-0.99,3.48,0.85,2.62
19.4230,0.07,0.14,-0.98,3.54,0.98,2.56
19.4440,0.07,0.14,-0.99,3.30,0.98,2.93
19.4600,0.07,0.12,-0.99,3.17,0.92,2.93
19.4740,0.07,0.13,-0.99,3.36,1.28,2.14
19.4900,0.07,0.13,-0.99,3.23,0.79,1.83
19.5060,0.07,0.13,-0.99,3.54,1.10,1.83
19.5210,0.07,0.13,-0.99,3.30,1.40,1.77
19.5290,0.07,0.13,-0.99,3.42,1.04,1.83
19.5450,0.07,0.14,-0.99,3.30,0.73,1.95
19.5610,0.08,0.15,-0.99,3.42,0.92,2.38
19.5830,0.07,0.14,-0.98,3.30,1.10,2.81
19.5970,0.08,0.14,-0.98,3.36,0.98,3.11
19.6130,0.07,0.13,-0.99,3.11,1.04,2.99
19.6170,0.07,0.14,-0.99,3.30,0.67,3.48
19.6340,0.07,0.13,-0.99,3.42,0.98,3.30
19.6510,0.07,0.13,-0.99,3.17,1.22,3.17
19.6740,0.07,0.13,-0.99,3.42,0.85,2.99
19.6900,0.07,0.13,-0.99,3.36,0.92,3.05
19.7010,0.07,0.13,-0.99,3.23,0.92,2.99
19.7170,0.08,0.13,-0.99,3.36,0.79,2.93
19.7340,0.07,0.13,-0.99,3.36,1.10,2.69
19.7500,0.07,0.13,-0.99,3.42,1.10,2.38
19.7670,0.07,0.13,-0.99,3.66,1.04,2.32
19.7700,0.07,0.14,-0.99,3.42,0.98,2.44
19.7860,0.08,0.14,-0.99,3.48,1.28,2.44
19.8040,0.07,0.14,-0.99,3.36,0.92,2.44
19.8200,0.07,0.14,-0.99,3.17,0.92,2.75
19.8370,0.07,0.14,-0.99,3.36,1.04,2.99
19.8540,0.08,0.14,-0.99,3.36,0.79,2.99
19.8710,0.07,0.13,-0.99,3.48,0.61,2.93
19.8860,0.07,0.13,-0.99,3.30,0.98,2.69
19.9030,0.07,0.13,-0.99,3.60,0.85,2.50
19.9190,0.07,0.13,-0.99,3.48,0.98,2.50
19.9210,0.07,0.13,-0.99,3.42,0.92,2.56
19.9360,0.08,0.14,-0.98,3.23,0.79,2.87
19.9620,0.07,0.14,-0.99,3.30,0.49,2.93
19.9700,0.08,0.13,-0.99,3.36,0.73,3.11
19.9990,0.07,0.13,-0.99,3.23,0.67,2.87
20.0140,0.07,0.12,-0.99,3.42,1.16,2.62
20.0210,0.07,0.13,-0.99,3.66,1.22,1.65
20.0440,0.07,0.13,-0.99,3.60,1.22,1.53
20.0530,0.07,0.13,-0.98,3.42,1.46,1.59
20.0710,0.07,0.14,-0.99,3.36,1.16,1.71
20.0870,0.08,0.15,-0.98,3.36,1.34,2.20
20.1040,0.07,0.14,-0.99,3.36,0.85,3.11
20.1200,0.08,0.14,-0.98,3.42,0.37,3.42
20.1360,0.07,0.13,-0.99,3.42,0.73,3.48
20.1380,0.07,0.13,-0.99,3.30,0.92,3.36
20.1620,0.07,0.13,-0.99,3.54,0.79,3.11
20.1700,0.07,0.13,-0.98,3.42,0.43,3.05
20.1860,0.08,0.14,-0.98,3.36,0.85,2.99
20.2020,0.07,0.14,-0.99,3.48,0.92,3.66
20.2290,0.07,0.13,-0.99,3.30,0.98,3.60
20.2410,0.07,0.13,-0.99,3.17,0.85,3.85
20.2570,0.07,0.12,-0.99,3.30,0.61,3.48
20.2740,0.07,0.13,-0.99,3.36,0.73,2.44
20.2910,0.07,0.13,-0.99,3.36,1.10,2.20
20.3070,0.07,0.14,-0.99,3.42,0.49,2.38
20.3220,0.07,0.14,-0.99,3.48,0.61,2.93
20.3390,0.07,0.13,-0.99,3.54,0.79,3.17
20.3540,0.07,0.13,-0.99,3.23,0.49,2.69
20.3620,0.07,0.13,-0.99,3.23,0.92,2.26
20.3720,0.07,0.13,-0.99,3.48,0.73,1.77
20.3960,0.07,0.14,-0.98,3.30,1.04,1.59
20.4110,0.07,0.14,-0.99,3.42,0.92,2.08
20.4290,0.07,0.14,-0.98,3.42,1.10,2.44
20.4440,0.07,0.14,-0.99,3.60,0.85,2.56
20.4600,0.07,0.14,-0.98,3.23,0.61,3.17
20.4620,0.07,0.13,-0.99,3.30,0.79,3.05
20.4770,0.07,0.14,-0.99,3.05,0.92,3.30
20.5060,0.07,0.14,-0.98,3.30,0.79,3.11
20.5210,0.07,0.12,-0.99,3.23,0.98,3.36
20.5320,0.07,0.13,-0.99,3.30,0.61,2.93
20.5500,0.07,0.13,-0.99,3.30,1.28,2.81
20.5650,0.07,0.13,-0.99,3.30,0.98,2.99
20.5830,0.07,0.13,-0.99,3.17,1.16,3.11
20.5990,0.07,0.13,-0.99,3.42,0.98,3.23
20.6150,0.07,0.13,-0.99,3.42,0.98,2.93
20.6320,0.07,0.13,-0.99,3.23,0.98,2.69
20.6480,0.07,0.13,-0.99,3.11,1.04,2.44
20.6630,0.07,0.14,-0.99,3.42,0.98,2.01
20.6790,0.07,0.14,-0.99,3.36,1.22,2.62
20.6930,0.08,0.14,-0.98,3.42,1.22,2.75
20.7080,0.08,0.14,-0.99,3.48,0.98,2.69
20.7230,0.08,0.14,-0.99,3.36,1.04,2.44
20.7350,0.07,0.14,-0.98,3.66,1.16,2.81
20.7510,0.07,0.13,-0.99,3.36,0.85,3.17
20.7700,0.07,0.13,-0.99,3.42,0.67,2.75
20.7860,0.07,0.13,-0.99,3.17,1.22,2.26
20.8010,0.07,0.13,-0.99,3.48,0.85,2.08
20.8160,0.08,0.15,-0.98,3.54,1.10,2.26
20.8310,0.07,0.14,-0.99,3.36,0.73,2.81
20.8410,0.07,0.13,-0.99,3.30,0.61,2.93
20.8560,0.07,0.13,-0.99,3.42,0.98,3.23
20.8730,0.07,0.13,-0.99,3.30,0.67,3.30
20.8900,0.07,0.13,-0.99,3.48,0.67,3.30
20.9070,0.08,0.14,-0.99,3.36,0.92,3.30
20.9220,0.08,0.14,-0.99,3.36,0.37,3.78
20.9370,0.07,0.13,-0.99,3.23,0.85,3.66
20.9410,0.07,0.14,-0.99,3.36,0.61,3.48
20.9680,0.07,0.14,-0.98,3.17,0.73,3.30
20.9840,0.08,0.13,-0.99,3.23,0.73,4.09
20.9980,0.07,0.13,-0.99,3.17,0.61,3.72
21.0080,0.08,0.13,-0.99,3.42,0.61,3.05
21.0230,0.07,0.13,-0.99,3.42,0.67,2.69
21.0400,0.07,0.13,-0.99,3.11,0.85,2.38
21.0570,0.07,0.14,-0.99,3.60,0.79,2.44
21.0730,0.07,0.14,-0.99,3.17,1.28,2.87
21.0890,0.07,0.14,-0.99,3.36,0.92,3.11
21.1050,0.07,0.13,-0.99,3.42,0.55,3.17
21.1210,0.07,0.13,-0.99,3.36,0.61,2.99
21.1380,0.07,0.13,-0.99,3.42,0.49,2.50
21.1400,0.07,0.14,-0.99,3.36,0.73,2.32
21.1620,0.07,0.14,-0.99,3.60,0.73,2.44
21.1840,0.08,0.15,-0.98,3.30,0.79,3.30
21.1990,0.07,0.14,-0.99,3.30,0.61,4.33
21.2120,0.07,0.13,-0.99,3.11,0.31,4.82
21.2270,0.07,0.12,-0.99,3.11,0.79,4.52
21.2440,0.07,0.12,-0.99,3.11,0.79,3.05
21.2600,0.07,0.13,-0.99,3.30,1.16,2.08
21.2760,0.07,0.13,-0.99,3.36,1.04,1.65
21.2920,0.07,0.13,-0.99,3.36,1.16,1.40
21.3080,0.07,0.13,-0.99,3.54,1.10,1.65
21.3110,0.07,0.14,-0.99,3.36,0.85,1.59
21.3380,0.07,0.14,-0.98,3.30,0.98,1.65
21.3530,0.08,0.14,-0.98,3.17,0.61,4.15
21.3650,0.07,0.14,-0.99,3.23,0.49,3.54
21.3810,0.07,0.13,-0.99,3.36,0.79,3.54
21.3980,0.07,0.12,-0.99,3.36,0.73,3.23
21.4140,0.07,0.13,-0.99,3.30,1.22,2.44
21.4290,0.07,0.14,-0.99,3.42,0.98,2.69
21.4440,0.07,0.14,-0.98,3.48,0.73,3.17
21.4590,0.08,0.15,-0.98,3.36,0.31,4.03
21.4750,0.08,0.14,-0.98,3.30,0.31,5.25
21.4890,0.07,0.13,-0.99,3.05,0.43,5.31
21.5040,0.07,0.13,-0.99,3.23,0.67,4.39
21.5150,0.07,0.13,-0.99,3.23,0.73,3.97
21.5310,0.07,0.14,-0.99,3.42,0.61,3.54
21.5470,0.08,0.14,-0.98,3.36,0.49,4.21
21.5660,0.07,0.14,-0.99,3.36,0.00,4.58
21.5810,0.07,0.14,-0.99,3.23,0.49,4.76
21.5960,0.07,0.14,-0.99,2.99,0.43,4.94
21.6110,0.07,0.13,-0.99,3.05,0.43,5.00
21.6260,0.07,0.12,-0.99,3.30,0.55,4.15
21.6330,0.07,0.11,-0.99,3.17,0.79,3.48
21.6560,0.07,0.13,-0.99,3.66,0.73,2.14
21.6670,0.07,0.13,-0.99,3.36,1.40,1.65
21.6820,0.07,0.14,-0.99,3.30,1.10,1.77
21.7030,0.08,0.16,-0.98,3.42,0.55,2.93
21.7200,0.07,0.14,-0.99,3.05,0.79,4.21
21.7360,0.08,0.14,-0.99,3.05,0.55,4.82
21.7520,0.07,0.13,-0.99,3.23,0.43,4.70
21.7630,0.07,0.12,-0.99,3.23,0.43,3.72
21.7830,0.07,0.13,-0.99,3.42,0.98,2.38
21.7990,0.07,0.14,-0.99,3.54,0.85,2.56
21.8060,0.08,0.15,-0.98,3.42,0.37,3.66
21.8220,0.08,0.16,-0.98,3.30,0.24,5.62
21.8450,0.08,0.15,-0.98,3.30,-0.18,6.41
21.8590,0.07,0.13,-0.99,3.05,-0.24,7.57
21.8740,0.07,0.12,-0.99,2.99,0.24,6.77
21.8780,0.07,0.11,-0.99,3.36,0.18,5.00
21.8940,0.07,0.12,-0.99,3.36,0.79,3.30
21.9170,0.07,0.12,-0.99,3.42,0.61,2.38
21.9340,0.07,0.14,-0.98,3.60,0.55,2.38
21.9500,0.08,0.16,-0.98,3.48,0.92,3.97
21.9670,0.08,0.16,-0.98,2.99,0.06,6.59
21.9830,0.07,0.13,-0.99,3.17,0.12,7.08
21.9980,0.07,0.11,-0.99,3.05,0.37,5.92
22.0130,0.07,0.09,-0.99,3.05,1.10,3.11
22.0280,0.07,0.13,-0.99,3.48,1.04,1.95
22.0440,0.07,0.13,-0.99,3.48,1.34,1.65
22.0580,0.07,0.13,-0.99,3.30,1.22,1.77
22.0730,0.07,0.14,-0.98,3.48,1.04,1.71
22.0840,0.07,0.14,-0.98,3.48,1.10,2.08
22.1000,0.08,0.15,-0.99,3.30,0.61,3.91
22.1170,0.07,0.13,-0.99,3.11,0.73,3.91
22.1330,0.07,0.12,-0.99,3.23,1.04,2.44
22.1500,0.07,0.13,-0.99,3.48,1.10,1.77
22.1660,0.07,0.14,-0.99,3.54,1.16,1.71
22.1830,0.08,0.15,-0.98,3.30,0.79,2.14
22.1990,0.08,0.16,-0.98,3.11,0.43,4.39
22.2140,0.07,0.14,-0.99,3.17,0.43,5.19
22.2300,0.07,0.13,-0.99,3.11,0.43,4.94
22.2350,0.07,0.12,-0.99,3.17,0.37,3.60
22.2600,0.07,0.13,-0.99,3.42,0.67,2.62
22.2760,0.07,0.14,-0.99,3.36,0.79,2.81
22.2910,0.08,0.14,-0.98,3.54,0.73,3.60
22.3060,0.07,0.13,-0.99,3.17,0.98,3.97
22.3170,0.07,0.12,-0.99,3.23,0.67,3.54
22.3340,0.07,0.12,-0.99,3.23,0.79,2.32
22.3500,0.07,0.13,-0.99,3.36,1.28,1.71
22.3670,0.07,0.13,-0.99,3.36,1.10,1.71
22.3840,0.07,0.15,-0.98,3.48,0.98,2.38
22.4000,0.07,0.14,-0.99,3.48,0.98,3.05
22.4160,0.07,0.14,-0.98,3.23,0.92,3.78
22.4320,0.07,0.13,-0.99,2.99,1.28,3.60
22.4490,0.07,0.11,-0.99,3.23,1.04,3.30
22.4650,0.07,0.13,-0.99,3.36,1.04,1.89
22.4820,0.07,0.15,-0.98,3.48,1.28,1.89
22.4980,0.08,0.16,-0.98,3.54,0.92,4.33
22.5140,0.07,0.15,-0.98,2.99,0.24,6.84
22.5300,0.07,0.13,-0.99,2.75,0.37,7.63
22.5440,0.06,0.10,-0.99,2.99,0.43,5.74
22.5590,0.07,0.10,-0.99,3.11,0.61,4.82
22.5740,0.07,0.12,-0.99,3.30,0.92,2.50
22.5840,0.07,0.13,-0.99,3.36,1.28,2.01
22.6010,0.07,0.14,-0.99,3.42,1.16,1.89
22.6170,0.07,0.14,-0.98,3.42,0.49,3.17
22.6340,0.08,0.15,-0.98,3.36,0.31,3.60
22.6500,0.07,0.13,-0.99,3.11,0.55,4.15
22.6670,0.07,0.11,-0.99,3.23,0.67,3.17
22.6820,0.07,0.13,-0.99,3.48,1.10,1.53
22.6990,0.07,0.13,-0.99,3.48,0.92,1.53
22.7160,0.08,0.14,-0.98,3.11,1.10,1.53
22.7320,0.07,0.15,-0.98,3.42,0.92,2.75
22.7480,0.08,0.14,-0.98,3.11,0.55,4.70
22.7630,0.07,0.12,-0.99,3.36,0.37,4.33
22.7680,0.07,0.11,-0.99,3.23,0.18,2.20
22.7840,0.07,0.13,-0.99,3.42,1.22,1.53
22.8080,0.08,0.15,-0.98,3.48,1.16,1.59
22.8230,0.07,0.13,-0.99,3.30,0.73,2.69
22.8400,0.07,0.11,-0.99,3.42,0.79,2.75
22.8560,0.07,0.13,-0.99,3.78,0.92,1.71
22.8720,0.07,0.13,-0.99,3.54,0.55,1.59
22.8880,0.07,0.14,-0.99,3.48,0.73,1.46
22.9040,0.07,0.13,-0.99,3.36,1.16,1.71
22.9070,0.07,0.13,-0.99,3.36,0.98,1.65
22.9230,0.07,0.13,-0.99,3.36,0.92,1.46
22.9450,0.07,0.13,-0.99,3.54,0.92,1.53
22.9620,0.07,0.13,-0.99,3.48,0.92,1.71
22.9780,0.07,0.13,-0.99,3.48,0.55,1.46
22.9950,0.07,0.13,-0.99,3.60,0.67,1.53
23.0120,0.07,0.13,-0.99,3.60,1.22,1.83
23.0270,0.07,0.13,-0.99,3.54,0.98,1.59
23.0430,0.07,0.13,-0.99,3.72,0.61,1.59
23.0590,0.07,0.13,-0.98,3.66,0.55,1.59
23.0750,0.07,0.13,-0.99,3.36,0.92,1.65
23.0900,0.07,0.13,-0.99,3.54,0.92,1.53
23.1060,0.07,0.13,-0.99,3.36,0.67,1.53
23.1220,0.07,0.13,-0.99,3.42,0.85,1.53
23.1370,0.07,0.13,-0.98,3.30,1.34,1.53
23.1520,0.07,0.13,-0.99,3.54,1.04,1.65
23.1670,0.07,0.13,-0.99,3.54,1.34,1.65
23.1790,0.07,0.13,-0.99,3.42,1.10,1.46
23.1950,0.07,0.13,-0.98,3.42,0.73,1.59
23.2120,0.07,0.13,-0.99,3.30,1.46,1.40
23.2280,0.07,0.13,-0.99,3.30,0.73,1.71
23.2450,0.07,0.13,-0.99,3.36,1.04,1.53
23.2590,0.07,0.13,-0.99,3.48,1.34,1.59
23.2650,0.07,0.13,-0.99,3.42,1.10,1.65
23.2900,0.07,0.13,-0.99,3.48,0.92,1.53
23.3070,0.07,0.13,-0.99,3.36,1.10,1.59
23.3230,0.07,0.13,-0.99,3.60,0.61,1.59
23.3280,0.07,0.13,-0.99,3.42,1.10,1.59
23.3440,0.07,0.13,-0.99,3.48,0.92,1.77
23.3670,0.07,0.13,-0.99,3.30,0.85,1.59
23.3820,0.07,0.13,-0.99,3.48,0.85,1.59
23.3990,0.07,0.13,-0.99,3.48,1.16,1.71
23.4160,0.07,0.13,-0.99,3.48,1.22,1.65
23.4310,0.07,0.13,-0.99,3.48,1.04,1.71
23.4480,0.07,0.13,-0.99,3.36,1.22,1.59
23.4640,0.07,0.13,-0.99,3.42,1.10,1.59
23.4800,0.07,0.13,-0.99,3.36,1.22,1.65
23.4950,0.07,0.13,-0.99,3.42,1.22,1.59
23.5100,0.07,0.13,-0.99,3.42,1.28,1.71
23.5260,0.07,0.13,-0.99,3.42,1.10,1.77
23.5420,0.07,0.13,-0.99,3.42,0.92,1.65
23.5560,0.07,0.13,-0.99,3.42,0.92,1.65
23.5710,0.07,0.13,-0.99,3.54,0.92,1.53
23.5830,0.07,0.13,-0.99,3.48,0.67,1.65
23.5990,0.07,0.13,-0.99,3.60,1.10,1.71
23.6160,0.07,0.14,-0.99,3.42,0.98,1.59
23.6330,0.07,0.13,-0.99,3.60,0.85,1.46
23.6490,0.07,0.13,-0.99,3.48,0.98,1.53
23.6650,0.07,0.13,-0.99,3.30,0.98,1.77
23.6810,0.07,0.13,-0.99,3.66,0.67,1.59
23.6980,0.07,0.13,-0.99,3.48,1.16,1.59
23.7140,0.07,0.13,-0.99,3.48,1.16,1.59
23.7290,0.07,0.13,-0.99,3.30,1.22,1.65
23.7430,0.07,0.13,-0.99,3.48,1.04,1.53
23.7590,0.07,0.13,-0.99,3.66,1.10,1.65
23.7740,0.07,0.13,-0.99,3.36,1.04,1.59
23.7890,0.07,0.13,-0.99,3.36,1.10,1.71
23.7990,0.07,0.13,-0.99,3.54,0.98,1.77
23.8150,0.07,0.13,-0.99,3.42,1.04,1.59
23.8370,0.07,0.13,-0.99,3.48,0.49,1.59
23.8540,0.07,0.13,-0.99,3.48,0.73,1.77
23.8690,0.07,0.13,-0.99,3.36,0.67,1.53
23.8850,0.07,0.13,-0.99,3.48,1.10,1.77
23.9010,0.07,0.13,-0.98,3.42,1.04,1.71
23.9160,0.07,0.13,-0.99,3.42,0.98,1.59
23.9320,0.07,0.13,-0.99,3.48,1.16,1.53
23.9460,0.07,0.13,-0.99,3.36,0.85,1.65
23.9540,0.07,0.13,-0.99,3.23,1.04,1.53
23.9690,0.07,0.13,-0.99,3.54,1.28,1.59
23.9920,0.07,0.13,-0.98,3.54,0.92,1.71
24.0080,0.07,0.14,-0.99,3.72,0.49,1.59
24.0240,0.07,0.13,-0.99,3.60,0.79,1.59
24.0390,0.07,0.13,-0.99,3.42,0.85,1.53
24.0550,0.07,0.13,-0.98,3.66,0.61,1.59
24.0700,0.07,0.13,-0.99,3.60,1.10,1.65
24.0780,0.07,0.13,-0.99,3.42,0.98,1.46
24.0940,0.07,0.13,-0.99,3.36,1.22,1.65
24.1090,0.07,0.13,-0.99,3.66,0.79,1.59
24.1310,0.07,0.13,-0.99,3.36,0.98,1.77
24.1480,0.07,0.13,-0.99,3.42,1.10,1.59
24.1630,0.07,0.13,-0.99,3.48,0.85,1.77
24.1790,0.07,0.14,-0.99,3.42,0.98,1.59
24.1860,0.12,0.17,-0.98,3.54,0.92,1.34
24.2030,0.06,0.12,-0.99,3.60,1.16,-0.55
24.2190,0.07,0.13,-0.99,3.60,1.10,0.31
24.2350,0.08,0.14,-0.98,3.72,0.61,0.37
24.2570,0.06,0.12,-0.99,3.72,1.22,0.49
24.2730,0.06,0.12,-0.99,3.42,1.34,1.10
24.2890,0.07,0.13,-0.99,3.42,1.34,1.46
24.3050,0.08,0.14,-0.99,3.36,1.10,1.46
24.3210,0.09,0.15,-0.98,3.30,1.16,1.34
24.3370,0.07,0.13,-0.99,3.42,1.04,0.37
24.3530,0.06,0.12,-0.99,3.48,1.40,0.73
24.3680,0.07,0.13,-0.99,3.54,1.16,1.10
24.3740,0.07,0.13,-0.99,3.48,1.22,1.16
24.3900,0.08,0.14,-0.98,3.48,0.85,1.04
24.4130,0.07,0.13,-0.99,3.54,1.10,0.92
24.4290,0.06,0.13,-0.99,3.54,1.46,1.34
24.4430,0.07,0.13,-0.99,3.60,1.34,1.34
24.4580,0.07,0.13,-0.99,3.54,1.04,1.46
24.4740,0.07,0.13,-0.99,3.30,1.04,1.71
24.4890,0.09,0.14,-0.98,3.23,1.22,1.53
24.5040,0.07,0.13,-0.99,3.36,1.04,1.22
24.5190,0.07,0.13,-0.99,3.36,0.92,1.28
24.5310,0.06,0.13,-0.99,3.60,0.92,1.46
24.5470,0.07,0.13,-0.99,3.30,0.85,1.46
24.5640,0.07,0.13,-0.99,3.17,1.04,1.59
24.5810,0.07,0.13,-0.98,3.36,1.10,1.71
24.5980,0.08,0.14,-0.99,3.48,1.28,1.59
24.6130,0.09,0.13,-0.99,3.36,1.16,1.46
24.6280,0.06,0.13,-0.99,3.60,1.10,1.46
24.6440,0.07,0.13,-0.99,3.36,1.04,1.59
24.6470,0.07,0.13,-0.99,3.23,1.34,1.53
24.6680,0.08,0.14,-0.99,3.23,1.04,1.46
24.6840,0.08,0.13,-0.98,3.36,0.85,1.34
24.7000,0.08,0.13,-0.99,3.60,0.92,1.28
24.7160,0.06,0.13,-0.99,3.54,1.22,1.22
24.7370,0.07,0.13,-0.99,3.42,1.22,1.65
24.7530,0.07,0.13,-0.99,3.30,1.04,1.53
24.7680,0.07,0.13,-0.99,3.42,1.16,1.65
24.7830,0.08,0.13,-0.99,3.54,1.34,1.59
24.7990,0.09,0.14,-0.98,3.60,1.28,1.28
24.8060,0.07,0.13,-0.99,3.42,1.28,1.04
24.8210,0.07,0.13,-0.99,3.36,1.10,1.22
24.8440,0.06,0.13,-0.99,3.30,1.04,1.34
24.8590,0.07,0.13,-0.99,3.36,1.04,1.53
24.8750,0.08,0.14,-0.99,3.30,1.10,1.53
24.8900,0.09,0.14,-0.99,3.30,0.98,1.04
24.9060,0.07,0.13,-0.99,3.48,0.79,1.16
24.9210,0.08,0.13,-0.98,3.54,1.10,0.92
24.9360,0.06,0.13,-0.99,3.48,1.22,1.22
24.9440,0.08,0.13,-0.99,3.60,0.98,1.40
24.9600,0.07,0.13,-0.99,3.66,1.04,1.53
24.9830,0.07,0.13,-0.99,3.48,0.85,1.46
24.9990,0.07,0.13,-0.99,3.42,0.79,1.46
25.0150,0.07,0.13,-0.99,3.36,0.85,1.53
25.0310,0.08,0.13,-0.99,3.30,1.10,1.53
25.0340,0.07,0.13,-0.99,3.30,1.10,1.34
25.0490,0.07,0.13,-0.99,3.60,0.85,1.53
25.0730,0.07,0.13,-0.99,3.42,1.16,1.46
25.0910,0.07,0.13,-0.99,3.54,0.98,1.53
25.1070,0.08,0.13,-0.99,3.42,0.98,1.40
25.1230,0.09,0.14,-0.98,3.23,0.98,1.46
25.1390,0.06,0.13,-0.99,3.66,1.40,1.28
25.1550,0.07,0.13,-0.99,3.60,0.79,1.46
25.1710,0.07,0.13,-0.98,3.48,1.22,1.40
25.1740,0.08,0.14,-0.99,3.66,1.28,1.40
25.2020,0.08,0.13,-0.99,3.48,1.22,1.53
25.2060,0.08,0.13,-0.99,3.54,1.16,1.65
25.2220,0.06,0.13,-0.99,3.42,1.28,1.59
25.2460,0.07,0.13,-0.99,3.66,0.98,1.65
25.2640,0.07,0.13,-0.99,3.60,1.10,1.65
25.2790,0.07,0.13,-0.99,3.42,1.16,1.65
25.2950,0.09,0.13,-0.99,3.48,1.16,1.65
25.3110,0.09,0.13,-0.98,3.42,0.67,1.53
25.3270,0.06,0.13,-0.99,3.36,0.79,1.59
25.3420,0.07,0.13,-0.99,3.42,1.22,1.77
25.3570,0.07,0.13,-0.99,3.36,0.98,1.77
25.3730,0.07,0.13,-0.99,3.36,0.92,1.71
25.3800,0.08,0.13,-0.99,3.36,0.67,1.71
25.3960,0.08,0.13,-0.99,3.30,0.79,1.65
25.4150,0.07,0.13,-0.99,3.60,1.22,1.71
25.4320,0.09,0.13,-0.98,3.48,1.04,1.83
25.4490,0.07,0.13,-0.99,3.60,1.16,1.89
25.4660,0.07,0.13,-0.99,3.42,0.92,1.83
25.4830,0.08,0.13,-0.98,3.42,1.53,1.59
25.4980,0.07,0.14,-0.99,3.42,1.22,1.65
25.5140,0.08,0.13,-0.99,3.66,0.73,1.53
25.5280,0.07,0.14,-0.99,3.48,1.34,1.65
25.5440,0.08,0.13,-0.99,3.54,1.16,1.77
25.5590,0.07,0.13,-0.99,3.54,1.22,1.71
25.5740,0.08,0.13,-0.99,3.30,0.92,1.71
25.5840,0.07,0.13,-0.98,3.54,1.04,1.59
25.6000,0.07,0.13,-0.99,3.42,0.98,1.65
25.6170,0.07,0.13,-0.99,3.54,1.16,1.71
25.6330,0.07,0.13,-0.99,3.42,1.10,1.59
25.6490,0.08,0.13,-0.99,3.42,1.16,1.59
25.6660,0.07,0.13,-0.99,3.36,0.85,1.28
25.6820,0.07,0.13,-0.99,3.36,1.22,1.65
25.6980,0.08,0.13,-0.99,3.48,1.22,1.71
25.7140,0.06,0.14,-0.99,3.60,0.98,1.77
25.7290,0.07,0.13,-0.99,3.54,1.16,1.65
25.7450,0.07,0.13,-0.99,3.42,1.04,1.53
25.7490,0.08,0.13,-0.98,3.36,1.46,1.53
25.7700,0.07,0.13,-0.99,3.54,1.04,1.40
25.7900,0.07,0.13,-0.99,3.48,1.16,1.59
25.8060,0.07,0.14,-0.99,3.48,1.04,1.59
25.8210,0.07,0.13,-0.99,3.30,1.22,1.46
25.8370,0.06,0.14,-0.99,3.30,1.28,1.40
25.8510,0.07,0.13,-0.99,3.48,0.85,1.59
25.8570,0.08,0.13,-0.99,3.23,0.92,1.53
25.8720,0.08,0.13,-0.99,3.30,1.28,1.46
25.8940,0.08,0.13,-0.99,3.30,0.79,1.40
25.9100,0.06,0.14,-0.99,3.36,0.92,1.40
25.9260,0.07,0.13,-0.99,3.54,1.04,1.65
25.9420,0.07,0.13,-0.99,3.36,0.85,1.53
25.9580,0.08,0.13,-0.99,3.36,1.28,1.40
25.9730,0.08,0.13,-0.98,3.30,1.10,1.40
25.9880,0.06,0.14,-0.99,3.42,1.34,1.28
26.0030,0.07,0.13,-0.99,3.42,1.46,1.59
26.0110,0.07,0.13,-0.99,3.42,1.04,1.65
26.0280,0.07,0.13,-0.99,3.42,0.92,1.71
26.0430,0.08,0.13,-0.99,3.54,1.10,1.53
26.0640,0.08,0.13,-0.99,3.36,1.16,1.46
26.0800,0.07,0.14,-0.99,3.54,1.22,1.34
26.0940,0.08,0.13,-0.99,3.54,1.28,1.34
26.1100,0.07,0.14,-0.99,3.48,1.10,1.53
26.1260,0.07,0.13,-0.99,3.48,1.28,1.46
26.1420,0.08,0.13,-0.99,3.42,0.98,1.53
26.1580,0.08,0.13,-0.98,3.36,1.16,1.46
26.1710,0.08,0.13,-0.99,3.54,1.04,1.46
26.1780,0.07,0.13,-0.99,3.36,1.10,1.65
26.2020,0.07,0.14,-0.99,3.36,0.85,1.65
26.2180,0.08,0.13,-0.99,3.36,1.16,1.53
26.2360,0.07,0.13,-0.98,3.72,1.04,1.46
26.2510,0.07,0.14,-0.99,3.54,1.28,1.34
26.2670,0.08,0.13,-0.99,3.42,1.40,1.40
26.2850,0.07,0.13,-0.99,3.42,0.98,1.34
26.3010,0.07,0.13,-0.98,3.48,1.22,1.59
26.3160,0.06,0.14,-0.99,3.60,1.10,1.65
26.3320,0.07,0.14,-0.99,3.54,1.16,1.65
26.3470,0.07,0.13,-0.99,3.54,0.85,1.53
26.3510,0.08,0.13,-0.99,3.30,1.46,1.71
26.3720,0.08,0.13,-0.99,3.30,1.22,1.59
26.3890,0.07,0.13,-0.99,3.48,1.34,1.53
26.4060,0.07,0.13,-0.99,3.36,1.28,1.53
26.4230,0.07,0.13,-0.99,3.23,1.28,1.53
26.4390,0.08,0.13,-0.99,3.48,1.22,1.77
26.4560,0.08,0.13,-0.99,3.42,1.10,1.59
26.4720,0.07,0.14,-0.99,3.36,0.85,1.46
26.4870,0.07,0.13,-0.99,3.42,1.04,1.53
26.5020,0.07,0.14,-0.99,3.60,0.79,1.53
26.5170,0.07,0.13,-0.99,3.66,0.85,1.65
26.5220,0.08,0.13,-0.99,3.48,1.22,1.46
26.5380,0.08,0.13,-0.99,3.36,1.22,1.59
26.5600,0.07,0.13,-0.99,3.42,0.85,1.65
26.5770,0.07,0.13,-0.99,3.54,0.92,1.71
26.5930,0.07,0.14,-0.99,3.42,1.40,1.65
26.6100,0.07,0.13,-0.99,3.66,1.40,1.71
26.6260,0.07,0.13,-0.99,3.42,1.16,1.65
26.6420,0.08,0.13,-0.99,3.36,1.34,1.65
26.6580,0.08,0.13,-0.99,3.42,0.85,1.59
26.6740,0.07,0.13,-0.99,3.48,0.85,1.71
26.6770,0.07,0.13,-0.99,3.60,0.98,1.65
26.6920,0.07,0.13,-0.99,3.42,1.22,1.83
26.7210,0.08,0.13,-0.99,3.30,1.10,1.71
26.7320,0.07,0.13,-0.99,3.60,1.04,1.65
26.7480,0.07,0.13,-0.99,3.36,1.10,1.40
26.7650,0.08,0.13,-0.99,3.42,0.92,1.53
26.7810,0.08,0.13,-0.98,3.54,0.92,1.53
26.7980,0.07,0.13,-0.99,3.48,1.04,1.46
26.8140,0.06,0.14,-0.99,3.30,1.16,1.53
26.8290,0.06,0.13,-0.99,3.23,1.10,1.34
26.8460,0.07,0.14,-0.99,3.48,1.10,1.59
26.8610,0.07,0.13,-0.99,3.36,0.85,1.53
26.8760,0.08,0.13,-0.99,3.48,0.98,1.53
26.8920,0.08,0.13,-0.99,3.36,0.73,1.59
26.8970,0.07,0.13,-0.99,3.42,0.79,1.53
26.9130,0.08,0.13,-0.99,3.48,1.16,1.71
26.9360,0.07,0.13,-0.99,3.48,1.04,1.65
26.9520,0.07,0.13,-0.99,3.42,1.04,1.53
26.9670,0.07,0.13,-0.99,3.36,0.92,1.59
26.9830,0.07,0.13,-0.99,3.36,1.16,1.65
26.9990,0.08,0.13,-0.99,3.54,0.98,1.59
27.0150,0.07,0.14,-0.99,3.54,0.92,1.46
27.0300,0.08,0.13,-0.99,3.60,1.04,1.34
27.0450,0.07,0.13,-0.99,3.60,0.98,1.10
27.0600,0.08,0.13,-0.99,3.54,0.92,1.16
27.0730,0.07,0.13,-0.99,3.30,1.22,1.22
27.0870,0.07,0.13,-0.99,3.48,0.67,1.34
27.1030,0.08,0.13,-0.98,3.36,1.10,1.59
27.1200,0.08,0.13,-0.99,3.42,1.04,1.59
27.1360,0.08,0.13,-0.98,3.36,1.22,1.53
27.1520,0.07,0.13,-0.99,3.48,1.16,1.53
27.1680,0.07,0.13,-0.99,3.54,1.16,1.40
27.1840,0.07,0.13,-0.99,3.36,1.16,1.46
27.1860,0.08,0.13,-0.99,3.30,1.16,1.46
27.2020,0.08,0.13,-0.99,3.23,0.92,1.28
27.2310,0.08,0.13,-0.98,3.23,1.34,1.53
27.2410,0.07,0.13,-0.99,3.54,1.04,1.59
27.2580,0.07,0.14,-0.99,3.48,1.04,1.71
27.2750,0.07,0.13,-0.99,3.60,0.92,1.71
27.2900,0.07,0.13,-0.99,3.42,1.10,1.83
27.3060,0.08,0.13,-0.99,3.36,1.34,1.77
27.3230,0.07,0.13,-0.99,3.48,0.85,1.53
27.3380,0.07,0.13,-0.99,3.60,0.67,1.77
27.3530,0.08,0.13,-0.99,3.36,1.16,1.71
27.3650,0.08,0.13,-0.99,3.48,0.67,1.71
27.3800,0.08,0.13,-0.99,3.36,1.34,1.59
27.3990,0.07,0.13,-0.99,3.23,0.98,1.65
27.4140,0.07,0.13,-0.99,3.48,1.16,1.65
27.4170,0.07,0.13,-0.99,3.42,1.04,1.59
27.4450,0.08,0.13,-0.98,3.36,1.40,1.59
27.4530,0.08,0.14,-0.99,3.30,1.28,1.46
27.4730,0.08,0.14,-0.99,3.36,1.10,1.53
27.4860,0.08,0.14,-0.99,3.42,0.73,1.59
27.5050,0.07,0.13,-0.99,3.48,0.79,1.59
27.5190,0.07,0.13,-0.99,3.60,0.61,1.77
27.5370,0.08,0.13,-0.99,3.54,0.85,1.65
27.5530,0.08,0.14,-0.99,3.36,1.04,1.59
27.5690,0.08,0.14,-0.99,3.36,0.79,1.59
27.5730,0.08,0.14,-0.98,3.17,1.04,1.65
27.6000,0.07,0.13,-0.99,3.66,0.61,1.83
27.6150,0.07,0.13,-0.99,3.30,1.46,1.89
27.6310,0.07,0.13,-0.99,3.42,0.98,1.83
27.6470,0.07,0.13,-0.99,3.36,0.98,1.65
27.6530,0.08,0.14,-0.99,3.36,1.28,1.59
27.6730,0.07,0.14,-0.99,3.30,0.85,1.65
27.6920,0.07,0.13,-0.98,3.48,1.10,1.59
27.7080,0.07,0.13,-0.99,3.42,1.04,1.46
27.7240,0.07,0.13,-0.99,3.30,0.85,1.53
27.7390,0.07,0.13,-0.99,3.42,0.85,1.65
27.7540,0.08,0.13,-0.99,3.11,0.92,1.59
27.7700,0.08,0.13,-0.99,3.17,1.28,1.77
27.7860,0.08,0.13,-0.99,3.30,0.73,1.65
27.7920,0.08,0.13,-0.99,3.42,0.85,1.77
27.8080,0.07,0.13,-0.99,3.42,0.73,1.65
27.8310,0.07,0.13,-0.99,3.48,1.46,1.83
27.8470,0.07,0.13,-0.99,3.48,0.67,1.77
27.8630,0.08,0.13,-0.99,3.42,1.04,1.77
27.8780,0.07,0.13,-0.99,3.48,0.92,1.65
27.8930,0.07,0.13,-0.99,3.54,1.22,1.53
27.9080,0.07,0.13,-0.99,3.23,0.98,1.40
27.9140,0.08,0.13,-0.99,3.42,0.98,1.59
27.9300,0.08,0.13,-0.99,3.42,1.28,1.59
27.9510,0.07,0.13,-0.99,3.54,0.92,1.46
27.9680,0.07,0.13,-0.99,3.36,1.10,1.46
27.9840,0.08,0.13,-0.99,3.36,0.67,1.53
28.0000,0.07,0.13,-0.99,3.30,1.28,1.53
28.0170,0.07,0.13,-0.99,3.48,0.85,1.59
28.0330,0.08,0.13,-0.99,3.54,0.92,1.71
28.0480,0.08,0.13,-0.99,3.30,1.04,1.65
28.0640,0.08,0.13,-0.99,3.42,0.92,1.71
28.0740,0.07,0.13,-0.99,3.48,1.04,1.83
28.0940,0.07,0.13,-0.99,3.42,1.04,1.71
28.1010,0.07,0.13,-0.99,3.48,0.92,1.71
28.1180,0.07,0.13,-0.99,3.48,1.04,1.83
28.1340,0.07,0.13,-0.99,3.42,1.10,1.77
28.1560,0.07,0.13,-0.99,3.48,0.92,1.89
28.1720,0.07,0.13,-0.99,3.36,0.92,2.01
28.1880,0.07,0.13,-0.99,3.54,0.98,1.89
28.2040,0.07,0.13,-0.99,3.48,1.04,1.89
28.2200,0.07,0.13,-0.99,3.66,0.98,2.14
28.2250,0.07,0.13,-0.99,3.36,1.16,1.89
28.2410,0.07,0.13,-0.99,3.36,1.34,1.89
28.2630,0.07,0.13,-0.99,3.42,0.98,1.83
28.2790,0.07,0.13,-0.99,3.42,1.16,1.89
28.2960,0.06,0.14,-0.99,3.36,1.28,1.83
28.3120,0.07,0.13,-0.98,3.42,1.22,1.71
28.3270,0.07,0.13,-0.99,3.23,1.16,1.77
28.3420,0.08,0.13,-0.99,3.36,1.22,1.53
28.3570,0.08,0.13,-0.99,3.30,0.98,1.83
28.3720,0.07,0.13,-0.99,3.30,0.73,1.77
28.3870,0.07,0.13,-0.99,3.17,1.22,1.65
28.4020,0.07,0.13,-0.99,3.54,0.98,1.53
28.4130,0.07,0.13,-0.99,3.42,0.92,1.59
28.4300,0.07,0.13,-0.99,3.48,0.79,1.65
28.4460,0.07,0.13,-0.99,3.48,0.85,1.65
28.4620,0.07,0.13,-0.99,3.48,0.85,1.40
28.4790,0.07,0.13,-0.99,3.42,0.98,1.71
28.4950,0.07,0.13,-0.99,3.42,1.16,1.65
28.5110,0.07,0.14,-0.99,3.54,1.28,1.65
28.5260,0.07,0.13,-0.99,3.42,1.10,1.65
28.5420,0.07,0.13,-0.99,3.30,1.22,1.71
28.5570,0.07,0.13,-0.99,3.48,1.10,1.65
28.5620,0.07,0.13,-0.99,3.42,1.10,1.77
28.5780,0.08,0.13,-0.99,3.36,1.16,1.46
28.5990,0.07,0.14,-0.99,3.42,0.79,1.59
28.6160,0.07,0.13,-0.99,3.36,0.98,1.71
28.6320,0.07,0.13,-0.99,3.42,1.04,1.65
28.6490,0.07,0.13,-0.99,3.42,1.04,1.71
28.6660,0.07,0.13,-0.99,3.48,0.85,1.71
28.6810,0.07,0.13,-0.99,3.36,0.92,1.59
28.6970,0.07,0.13,-0.98,3.30,1.34,1.59
28.6990,0.08,0.13,-0.99,3.36,1.34,1.65
28.7150,0.08,0.13,-0.99,3.48,1.40,1.53
28.7390,0.08,0.13,-0.99,3.54,1.04,1.59
28.7560,0.07,0.13,-0.99,3.42,1.22,1.71
28.7720,0.07,0.13,-0.99,3.36,1.16,1.65
28.7880,0.07,0.13,-0.99,3.30,1.28,1.71
28.8050,0.07,0.13,-0.99,3.54,0.73,1.53
28.8210,0.08,0.13,-0.98,3.42,1.10,1.53
28.8380,0.07,0.13,-0.99,3.42,1.04,1.65
28.8540,0.07,0.13,-0.99,3.36,1.10,1.89
28.8700,0.07,0.13,-0.99,3.54,1.04,1.65
28.8860,0.07,0.13,-0.99,3.48,0.85,1.59
28.9020,0.08,0.13,-0.98,3.42,0.55,1.65
28.9180,0.08,0.13,-0.99,3.36,1.16,1.77
28.9340,0.08,0.13,-0.99,3.48,0.79,1.71
28.9500,0.07,0.13,-0.99,3.54,0.92,1.95
28.9650,0.07,0.13,-0.99,3.42,0.85,1.95
28.9800,0.07,0.13,-0.99,3.54,0.61,1.89
28.9890,0.07,0.13,-0.99,3.48,0.79,1.77
29.0050,0.07,0.13,-0.99,3.23,1.28,1.59
29.0250,0.08,0.13,-0.99,3.36,1.16,1.77
29.0400,0.07,0.13,-0.99,3.36,1.16,1.83
29.0560,0.07,0.13,-0.99,3.36,0.98,1.83
29.0640,0.08,0.13,-0.99,3.36,0.73,2.01
29.0800,0.07,0.13,-0.99,3.36,0.98,1.95
29.0990,0.07,0.13,-0.99,3.48,0.92,1.77
29.1160,0.08,0.13,-0.99,3.30,0.98,1.77
29.1320,0.08,0.13,-0.99,3.54,1.10,1.65
29.1490,0.07,0.13,-0.99,3.36,1.28,1.65
29.1650,0.07,0.13,-0.99,3.48,1.22,1.83
29.1810,0.07,0.13,-0.99,3.36,0.79,1.71
29.1980,0.07,0.13,-0.99,3.36,1.10,1.83
29.2140,0.08,0.13,-0.99,3.36,1.10,1.77
29.2290,0.07,0.13,-0.99,3.42,1.34,1.59
29.2440,0.07,0.13,-0.99,3.42,1.46,1.59
29.2590,0.07,0.13,-0.99,3.42,1.34,1.59
29.2740,0.08,0.13,-0.98,3.36,0.98,1.65
29.2820,0.07,0.13,-0.99,3.42,1.16,1.65
29.3060,0.07,0.13,-0.99,3.36,1.53,1.83
29.3220,0.07,0.13,-0.99,3.48,1.16,1.71
29.3380,0.07,0.13,-0.99,3.36,1.10,1.77
29.3400,0.07,0.13,-0.99,3.42,1.04,1.71
29.3550,0.07,0.13,-0.99,3.36,0.98,1.71
29.3850,0.07,0.13,-0.99,3.36,1.10,1.77
29.4000,0.07,0.13,-0.99,3.42,0.92,1.77
29.4050,0.07,0.13,-0.99,3.36,1.04,1.89
29.4200,0.07,0.13,-0.99,3.42,0.98,1.65
29.4420,0.07,0.13,-0.99,3.36,0.98,1.77
29.4590,0.07,0.13,-0.99,3.30,1.10,1.53
29.4750,0.07,0.13,-0.99,3.23,1.16,1.65
29.4920,0.07,0.13,-0.99,3.30,1.16,1.71
29.5080,0.07,0.13,-0.99,3.48,1.04,1.71
29.5250,0.07,0.13,-0.99,3.42,1.04,1.71
29.5400,0.07,0.13,-0.99,3.60,0.92,1.71
29.5430,0.07,0.13,-0.99,3.30,1.04,1.83
29.5590,0.07,0.13,-0.99,3.48,1.10,1.65
29.5860,0.07,0.13,-0.99,3.48,1.10,1.77
29.5980,0.07,0.13,-0.99,3.54,0.98,1.71
29.6140,0.07,0.13,-0.99,3.48,0.98,1.59
29.6320,0.08,0.13,-0.99,3.30,1.16,1.53
29.6470,0.07,0.13,-0.99,3.30,1.22,1.83
29.6630,0.07,0.13,-0.99,3.54,1.22,1.77
29.6780,0.07,0.13,-0.99,3.54,1.04,1.71
29.6930,0.07,0.13,-0.99,3.42,0.98,1.65
29.7080,0.07,0.13,-0.99,3.17,1.10,1.71
29.7230,0.07,0.13,-0.99,3.36,0.98,1.53
29.7310,0.07,0.13,-0.99,3.36,1.04,1.59
29.7460,0.07,0.13,-0.99,3.48,1.04,1.77
29.7690,0.07,0.13,-0.99,3.30,1.22,1.71
29.7850,0.07,0.13,-0.99,3.54,1.10,1.53
29.8010,0.08,0.13,-0.99,3.48,0.92,1.59
29.8170,0.08,0.13,-0.99,3.42,1.34,1.65
29.8340,0.07,0.13,-0.99,3.23,1.16,1.65
29.8500,0.07,0.13,-0.99,3.42,1.04,1.71
29.8670,0.07,0.13,-0.99,3.60,1.04,1.59
29.8760,0.08,0.13,-0.99,3.36,1.28,1.71
29.8990,0.08,0.13,-0.99,3.54,1.28,1.77
29.9150,0.07,0.13,-0.99,3.48,0.92,1.65
29.9190,0.07,0.13,-0.98,3.48,1.10,1.65
29.9350,0.07,0.13,-0.99,3.42,1.28,1.65
29.9560,0.07,0.13,-0.99,3.36,0.92,1.59
29.9730,0.08,0.13,-0.99,3.42,0.85,1.53
29.9900,0.08,0.13,-0.99,3.60,1.28,1.71
30.0060,0.08,0.13,-0.99,3.54,1.22,1.83
30.0220,0.08,0.13,-0.99,3.42,1.04,1.95
30.0380,0.07,0.13,-0.99,3.36,1.10,2.01
30.0540,0.07,0.13,-0.99,3.42,0.92,1.83
30.0690,0.07,0.13,-0.99,3.48,1.04,1.83
30.0840,0.07,0.13,-0.99,3.36,1.28,1.77
30.0900,0.08,0.13,-0.99,3.60,1.04,1.46
30.1050,0.07,0.13,-0.99,3.48,0.73,1.59
30.1300,0.07,0.13,-0.99,3.36,0.92,1.53
30.1460,0.07,0.13,-0.99,3.36,1.46,1.46
30.1620,0.07,0.13,-0.99,3.42,1.22,1.46
30.1770,0.07,0.13,-0.99,3.30,1.16,1.77
30.1920,0.07,0.13,-0.99,3.48,1.22,1.71
30.1970,0.07,0.13,-0.99,3.36,0.92,1.46
30.2220,0.08,0.13,-0.99,3.11,1.04,1.65
30.2390,0.07,0.13,-0.99,3.30,1.28,1.77
30.2540,0.08,0.13,-0.99,3.36,1.16,1.77
30.2680,0.07,0.13,-0.99,3.36,0.79,1.83
30.2790,0.07,0.13,-0.99,3.42,0.79,1.77
30.2970,0.07,0.13,-0.99,3.60,0.98,1.65
30.3130,0.08,0.13,-0.99,3.42,0.85,1.71
30.3290,0.07,0.13,-0.99,3.36,0.73,1.77
30.3440,0.07,0.13,-0.99,3.60,0.85,1.77
30.3590,0.07,0.13,-0.99,3.66,0.85,1.65
30.3760,0.07,0.13,-0.99,3.23,0.98,1.65
30.3790,0.07,0.13,-0.99,3.30,0.98,1.65
30.4030,0.08,0.13,-0.98,3.60,0.85,1.59
30.4210,0.07,0.13,-0.99,3.48,0.79,1.71
30.4350,0.07,0.13,-0.99,3.48,0.92,1.71
30.4520,0.07,0.13,-0.99,3.48,0.79,1.83
30.4680,0.07,0.13,-0.99,3.30,0.92,1.65
30.4760,0.07,0.13,-0.98,3.30,1.10,1.65
30.4850,0.07,0.13,-0.99,3.42,0.85,1.65
30.5150,0.07,0.13,-0.99,3.54,1.22,1.83
30.5190,0.07,0.13,-0.99,3.36,1.28,1.71
30.5350,0.07,0.13,-0.99,3.42,1.10,1.65
30.5570,0.07,0.13,-0.99,3.54,1.22,1.71
30.5760,0.07,0.13,-0.99,3.42,0.98,1.65
30.5910,0.07,0.13,-0.99,3.42,0.61,1.65
30.6060,0.07,0.13,-0.99,3.36,0.92,1.71
30.6230,0.07,0.13,-0.98,3.36,0.79,1.83
30.6390,0.07,0.13,-0.99,3.42,1.16,1.65
30.6550,0.07,0.13,-0.99,3.36,1.34,1.59
30.6700,0.07,0.13,-0.99,3.36,0.92,1.71
30.6860,0.08,0.13,-0.99,3.36,1.22,1.71
30.6910,0.07,0.13,-0.99,3.30,1.16,1.65
30.7180,0.07,0.13,-0.99,3.36,1.16,1.71
30.7330,0.08,0.13,-0.99,3.48,1.10,1.71
30.7400,0.08,0.13,-0.99,3.54,1.04,1.71
30.7570,0.08,0.13,-0.98,3.48,0.67,1.71
30.7760,0.08,0.13,-0.99,3.48,0.92,1.71
30.7890,0.08,0.13,-0.99,3.42,0.85,1.89
30.8110,0.07,0.13,-0.99,3.36,0.98,1.89
30.8260,0.07,0.13,-0.99,3.42,0.98,1.95
30.8410,0.07,0.13,-0.99,3.23,1.16,1.65
30.8570,0.08,0.13,-0.98,3.66,0.92,1.77
30.8630,0.08,0.13,-0.98,3.23,0.85,2.08
30.8780,0.07,0.13,-0.99,3.23,0.85,2.32
30.9020,0.07,0.13,-0.99,3.66,0.85,2.26
30.9180,0.07,0.13,-0.99,3.42,1.22,2.01
30.9350,0.07,0.13,-0.98,3.60,0.85,2.14
30.9360,0.07,0.13,-0.99,3.48,1.16,2.01
30.9510,0.07,0.13,-0.99,3.42,1.04,1.95
30.9810,0.07,0.13,-0.99,3.30,1.22,1.89
30.9860,0.07,0.13,-0.99,3.48,0.85,1.83
31.0010,0.08,0.13,-0.99,3.36,1.28,1.83
31.0250,0.07,0.13,-0.99,3.42,0.92,2.01
31.0420,0.07,0.13,-0.99,3.60,0.73,2.08
31.0580,0.07,0.13,-0.99,3.11,0.55,1.77
31.0740,0.07,0.13,-0.99,3.48,0.98,1.83
31.0900,0.08,0.13,-0.99,3.42,1.28,1.89
31.1050,0.08,0.13,-0.99,3.48,0.61,1.83
31.1200,0.07,0.13,-0.99,3.17,1.22,1.83
31.1350,0.08,0.13,-0.99,3.48,1.22,1.71
31.1500,0.07,0.13,-0.99,3.48,1.04,1.89
31.1640,0.07,0.13,-0.99,3.42,0.67,1.83
31.1800,0.08,0.13,-0.99,3.54,1.04,1.83
31.1920,0.08,0.13,-0.99,3.42,1.04,1.77
31.2080,0.07,0.13,-0.99,3.30,1.04,1.71
31.2250,0.08,0.13,-0.99,3.42,1.16,1.77
31.2410,0.07,0.13,-0.99,3.42,1.04,1.95
31.2560,0.07,0.13,-0.99,3.48,0.85,2.08
31.2730,0.07,0.13,-0.99,3.60,0.79,1.95
31.2770,0.08,0.13,-0.99,3.48,0.67,1.77
31.2910,0.07,0.13,-0.99,3.30,1.16,1.83
31.3190,0.07,0.13,-0.99,3.30,0.92,1.89
31.3290,0.07,0.13,-0.99,3.48,0.49,1.53
31.3450,0.07,0.13,-0.99,3.42,0.79,1.71
31.3650,0.07,0.13,-0.99,3.42,0.67,1.83
31.3810,0.07,0.13,-0.99,3.42,0.73,1.89
31.3970,0.07,0.13,-0.99,3.36,0.85,1.65
31.4120,0.08,0.13,-0.99,3.42,0.37,1.59
31.4270,0.08,0.13,-0.99,3.23,0.92,1.53
31.4420,0.07,0.13,-0.99,3.36,1.04,1.71
31.4570,0.07,0.13,-0.99,3.48,0.67,1.53
31.4660,0.07,0.13,-0.99,3.48,1.10,1.65
31.4830,0.08,0.13,-0.99,3.48,0.67,1.40
31.4990,0.08,0.13,-0.99,3.48,0.98,1.53
31.5160,0.07,0.13,-0.99,3.42,0.85,1.71
31.5330,0.07,0.13,-0.99,3.36,0.61,1.77
31.5480,0.07,0.13,-0.99,3.36,1.22,1.77
31.5630,0.08,0.13,-0.99,3.30,0.92,1.65
31.5780,0.08,0.13,-0.99,3.42,1.16,1.59
31.5930,0.08,0.13,-0.98,3.48,0.92,1.59
31.5990,0.08,0.13,-0.99,3.30,0.98,1.46
31.6150,0.07,0.13,-0.99,3.48,1.46,1.77
31.6380,0.07,0.13,-0.99,3.60,0.61,1.59
31.6540,0.07,0.13,-0.99,3.48,1.16,1.77
31.6700,0.07,0.13,-0.99,3.54,1.40,1.77
31.6780,0.08,0.13,-0.99,3.48,0.92,1.53
31.7000,0.08,0.13,-0.99,3.36,0.85,1.53
31.7060,0.07,0.13,-0.99,3.23,0.85,1.46
31.7220,0.07,0.13,-0.99,3.60,0.79,1.46
31.7450,0.07,0.13,-0.99,3.48,0.92,1.59
31.7600,0.07,0.13,-0.99,3.36,0.92,1.65
31.7630,0.07,0.13,-0.99,3.23,0.92,1.40
31.7780,0.08,0.13,-0.99,3.42,1.16,1.53
31.7990,0.07,0.13,-0.99,3.42,1.10,1.34
31.8160,0.07,0.13,-0.99,3.17,1.28,1.40
31.8320,0.07,0.13,-0.99,3.42,1.16,1.46
31.8520,0.07,0.13,-0.99,3.36,0.92,1.53
31.8680,0.07,0.13,-0.99,3.30,1.04,1.59
31.8830,0.07,0.13,-0.99,3.54,1.16,1.77
31.8870,0.07,0.13,-0.99,3.54,1.10,1.71
31.9030,0.07,0.13,-0.99,3.48,0.79,1.53
31.9270,0.07,0.13,-0.98,3.54,0.92,1.53
31.9440,0.07,0.13,-0.99,3.30,1.28,1.71
31.9590,0.07,0.13,-0.99,3.36,0.55,1.59
31.9760,0.07,0.13,-0.99,3.60,1.04,1.59
31.9910,0.07,0.13,-0.99,3.48,1.16,1.65
32.0080,0.07,0.13,-0.99,3.54,0.98,1.59
32.0120,0.08,0.13,-0.99,3.42,1.04,1.65
32.0280,0.07,0.13,-0.99,3.42,1.28,1.59
32.0490,0.07,0.13,-0.99,3.48,1.22,1.53
32.0660,0.07,0.13,-0.99,3.36,1.46,1.40
32.0820,0.07,0.13,-0.99,3.54,0.85,1.65
32.0980,0.07,0.13,-0.98,3.36,0.92,1.59
32.1140,0.07,0.14,-0.99,3.42,0.98,1.53
32.1310,0.07,0.13,-0.99,3.23,1.46,1.65
32.1460,0.07,0.13,-0.99,3.30,1.34,1.40
32.1630,0.07,0.13,-0.99,3.30,1.16,1.65
32.1780,0.07,0.13,-0.99,3.48,0.92,1.65
32.1940,0.07,0.13,-0.99,3.42,1.10,1.65
32.2090,0.07,0.13,-0.99,3.30,1.04,1.59
32.2240,0.07,0.13,-0.99,3.17,1.16,1.65
32.2320,0.07,0.13,-0.99,3.42,1.04,1.65
32.2480,0.07,0.13,-0.99,3.36,1.10,1.71
32.2710,0.07,0.13,-0.99,3.42,1.22,1.59
32.2880,0.07,0.13,-0.99,3.42,1.22,1.65
32.3040,0.07,0.13,-0.99,3.42,1.04,1.46
32.3190,0.07,0.13,-0.99,3.60,1.22,1.65
32.3370,0.07,0.13,-0.99,3.54,0.92,1.59
32.3520,0.07,0.13,-0.99,3.42,1.22,1.46
32.3560,0.07,0.13,-0.99,3.48,1.04,1.46
32.3800,0.07,0.13,-0.99,3.48,0.67,1.59
32.3920,0.07,0.13,-0.99,3.60,0.85,1.53
32.4090,0.09,0.12,-0.99,3.54,0.73,1.22
32.4260,0.08,0.12,-0.99,3.85,1.10,-1.89
32.4430,0.07,0.11,-0.99,3.66,1.16,-1.46
32.4580,0.07,0.13,-0.99,3.54,1.10,0.73
32.4730,0.07,0.14,-0.99,3.48,1.46,-0.85
32.4880,0.07,0.14,-0.98,3.72,1.40,-1.40
32.5050,0.07,0.14,-0.99,3.54,1.10,-0.92
32.5090,0.07,0.14,-0.98,3.60,1.34,-0.61
32.5240,0.08,0.14,-0.99,3.48,1.46,0.00
32.5470,0.07,0.14,-0.99,3.54,1.16,0.31
32.5630,0.07,0.14,-0.99,3.48,1.22,0.43
32.5800,0.08,0.13,-0.99,3.42,0.98,0.43
32.5970,0.08,0.13,-0.99,3.54,1.34,-0.12
32.6120,0.07,0.13,-0.99,3.60,1.10,-0.06
32.6160,0.07,0.14,-0.99,3.48,1.16,0.55
32.6320,0.07,0.14,-0.99,3.48,0.98,0.85
32.6510,0.07,0.14,-0.99,3.30,1.34,0.98
32.6680,0.08,0.13,-0.99,3.36,1.22,1.65
32.6850,0.07,0.13,-0.99,3.42,1.10,1.59
32.7020,0.09,0.12,-0.99,3.23,0.85,1.34
32.7190,0.07,0.13,-0.98,3.54,1.28,0.37
32.7350,0.06,0.14,-0.99,3.48,1.28,0.24
32.7510,0.06,0.14,-0.99,3.36,1.40,0.92
32.7670,0.07,0.13,-0.99,3.36,1.28,1.53
32.7800,0.08,0.13,-0.99,3.30,1.16,1.46
32.7860,0.08,0.13,-0.99,3.30,1.28,1.22
32.8020,0.07,0.13,-0.99,3.42,1.34,0.98
32.8310,0.07,0.13,-0.99,3.42,0.92,0.92
32.8460,0.07,0.14,-0.99,3.60,1.16,1.22
32.8610,0.07,0.13,-0.98,3.30,1.04,1.53
32.8710,0.07,0.13,-0.99,3.42,0.79,1.40
32.8880,0.07,0.13,-0.99,3.54,0.92,1.59
32.9040,0.08,0.13,-0.99,3.60,0.67,1.34
32.9210,0.08,0.13,-0.99,3.54,0.85,0.98
32.9380,0.08,0.13,-0.99,3.60,1.10,0.06
32.9540,0.07,0.13,-0.99,3.54,1.16,-0.43
32.9700,0.06,0.14,-0.99,3.48,1.10,-0.18
32.9860,0.07,0.14,-0.99,3.30,1.59,0.98
33.0020,0.07,0.13,-0.98,3.36,1.22,1.34
33.0190,0.08,0.13,-0.99,3.42,1.22,1.59
33.0340,0.09,0.16,-0.99,3.48,1.10,0.31
33.0510,0.08,0.13,-0.99,3.54,1.10,-0.73
33.0660,0.07,0.14,-0.99,3.78,1.10,-0.37
33.0810,0.07,0.14,-0.99,3.60,1.10,0.61
33.0980,0.07,0.14,-0.99,3.42,0.92,1.22
33.1130,0.07,0.13,-0.99,3.36,1.04,1.59
33.1280,0.07,0.13,-0.99,3.36,1.22,1.40
33.1430,0.07,0.13,-0.99,3.60,0.98,1.53
33.1540,0.08,0.13,-0.99,3.60,0.85,1.28
33.1700,0.07,0.13,-0.99,3.48,0.98,1.10
33.1890,0.07,0.13,-0.99,3.60,1.04,1.28
33.2040,0.07,0.13,-0.99,3.54,1.10,1.16
33.2200,0.07,0.13,-0.99,3.54,1.34,0.49
33.2350,0.07,0.13,-0.99,3.48,1.28,0.67
33.2510,0.07,0.13,-0.99,3.54,1.22,0.98
33.2660,0.07,0.13,-0.99,3.54,1.28,1.10
33.2800,0.07,0.14,-0.98,3.54,0.98,1.22
33.2910,0.07,0.15,-0.98,3.36,1.34,0.85
33.3080,0.07,0.14,-0.99,3.36,1.16,1.22
33.3240,0.07,0.14,-0.99,3.42,1.10,1.46
33.3410,0.07,0.13,-0.99,3.48,1.04,1.65
33.3570,0.07,0.13,-0.99,3.54,0.98,1.59
33.3590,0.07,0.13,-0.99,3.48,1.10,1.59
33.3890,0.08,0.13,-0.99,3.48,1.28,1.22
33.4040,0.08,0.13,-0.99,3.54,0.73,0.37
33.4190,0.07,0.13,-0.99,3.48,1.04,0.49
33.4350,0.07,0.13,-0.99,3.42,1.40,0.49
33.4520,0.07,0.13,-0.99,3.66,0.98,0.43
33.4680,0.07,0.14,-0.99,3.48,1.16,0.18
33.4840,0.07,0.14,-0.99,3.54,1.28,0.24
33.5000,0.07,0.13,-0.99,3.48,1.10,0.55
33.5150,0.07,0.14,-0.99,3.42,1.40,0.73
33.5300,0.07,0.14,-0.99,3.48,1.46,0.92
33.5420,0.07,0.14,-0.99,3.42,1.34,1.16
33.5580,0.07,0.14,-0.99,3.54,1.28,1.34
33.5750,0.07,0.13,-0.99,3.48,1.10,1.16
33.5900,0.08,0.13,-0.99,3.48,1.34,1.16
33.6060,0.07,0.13,-0.99,3.30,1.16,0.18
33.6220,0.07,0.13,-0.99,3.42,1.22,0.12
33.6380,0.07,0.12,-0.99,3.54,1.53,-0.06
33.6540,0.07,0.14,-0.99,3.60,1.53,-0.55
33.6700,0.08,0.14,-0.98,3.78,1.40,-0.55
33.6870,0.08,0.14,-0.99,3.48,1.22,-0.12
33.7010,0.07,0.14,-0.99,3.48,1.34,0.37
33.7190,0.07,0.13,-0.99,3.48,1.16,0.43
33.7250,0.07,0.13,-0.98,3.48,1.40,0.18
33.7400,0.07,0.14,-0.99,3.48,1.28,0.55
33.7630,0.07,0.13,-0.99,3.48,0.98,0.61
33.7800,0.07,0.14,-0.98,3.54,1.40,0.79
33.7960,0.07,0.13,-0.99,3.54,1.28,1.53
33.8120,0.07,0.13,-0.99,3.36,1.04,1.46
33.8290,0.07,0.13,-0.99,3.42,0.92,1.04
33.8440,0.07,0.12,-0.99,3.48,1.40,0.24
33.8590,0.08,0.14,-0.99,3.48,1.83,-0.67
33.8740,0.08,0.15,-0.98,3.48,1.59,-0.06
33.8820,0.07,0.14,-0.99,3.60,1.04,0.92
33.9060,0.07,0.14,-0.99,3.23,0.92,1.34
33.9210,0.07,0.13,-0.99,3.36,1.40,1.53
33.9370,0.08,0.13,-0.98,3.60,1.40,1.40
33.9520,0.07,0.12,-0.99,3.66,1.65,0.24
33.9630,0.07,0.13,-0.99,3.60,1.53,-1.10
33.9800,0.07,0.13,-0.99,3.72,1.28,-0.85
33.9970,0.07,0.14,-0.99,3.48,1.71,-0.18
34.0130,0.07,0.14,-0.99,3.48,1.65,0.55
34.0300,0.07,0.13,-0.99,3.48,1.71,0.73
34.0460,0.07,0.13,-0.99,3.42,1.04,0.18
34.0620,0.07,0.14,-0.98,3.54,1.22,0.18
34.0780,0.07,0.14,-0.99,3.48,1.53,0.61
34.0930,0.07,0.13,-0.99,3.36,1.46,0.98
34.1080,0.07,0.13,-0.99,3.48,1.10,1.16
34.1230,0.07,0.12,-0.99,3.54,1.28,0.79
34.1370,0.08,0.13,-0.99,3.54,1.46,-0.37
34.1530,0.08,0.14,-0.98,3.42,1.53,-0.55
34.1630,0.07,0.15,-0.99,3.48,1.40,0.06
34.1830,0.07,0.14,-0.98,3.54,1.16,0.92
34.1960,0.07,0.14,-0.99,3.36,1.53,1.16
34.2130,0.07,0.13,-0.98,3.30,1.77,1.53
34.2290,0.07,0.13,-0.99,3.42,1.10,1.40
34.2450,0.07,0.13,-0.99,3.36,1.46,1.22
34.2600,0.07,0.13,-0.99,3.48,1.22,0.98
34.2630,0.07,0.13,-0.99,3.42,1.40,0.92
34.2830,0.07,0.13,-0.99,3.48,1.65,0.24
34.3010,0.07,0.13,-0.99,3.48,1.89,-0.18
34.3190,0.08,0.14,-0.99,3.48,1.65,-0.31
34.3340,0.08,0.14,-0.98,3.42,1.53,0.12
34.3500,0.07,0.14,-0.99,3.48,1.34,0.92
34.3690,0.07,0.14,-0.99,3.48,0.98,0.98
34.3840,0.07,0.14,-0.99,3.72,1.22,1.46
34.3880,0.07,0.13,-0.99,3.36,1.28,1.34
34.4040,0.07,0.12,-0.99,3.36,1.77,0.67
34.4260,0.07,0.12,-0.99,3.48,1.40,0.06
34.4420,0.07,0.13,-0.99,3.66,1.65,-1.04
34.4580,0.07,0.14,-0.98,3.48,1.53,-0.55
34.4740,0.07,0.14,-0.98,3.48,1.40,0.18
34.4900,0.07,0.14,-0.99,3.30,1.28,0.92
34.5060,0.07,0.13,-0.99,3.36,1.34,0.24
34.5090,0.07,0.13,-0.99,3.48,1.10,-0.55
34.5250,0.07,0.13,-0.99,3.72,1.71,-1.16
34.5490,0.07,0.14,-0.98,3.60,1.59,-1.04
34.5650,0.07,0.14,-0.99,3.66,1.34,0.37
34.5830,0.07,0.13,-0.99,3.42,1.53,0.73
34.5990,0.07,0.13,-0.99,3.42,1.34,0.00
34.6140,0.07,0.13,-0.99,3.54,1.53,-0.67
34.6220,0.07,0.13,-0.99,3.54,1.65,-1.16
34.6410,0.08,0.14,-0.99,3.36,1.89,-1.04
34.6560,0.07,0.14,-0.98,3.42,1.53,0.37
34.6750,0.07,0.14,-0.99,3.54,1.46,0.61
34.6910,0.07,0.14,-0.98,3.48,1.53,0.55
34.6930,0.07,0.13,-0.99,3.42,1.40,0.37
34.7090,0.07,0.13,-0.99,3.60,1.71,-0.31
34.7340,0.08,0.14,-0.98,3.60,1.83,-0.85
34.7500,0.08,0.15,-0.99,3.48,1.59,-0.06
34.7670,0.08,0.14,-0.98,3.36,0.98,0.37
34.7840,0.07,0.13,-0.99,3.48,1.40,0.85
34.8000,0.07,0.14,-0.99,3.48,1.22,0.79
34.8150,0.07,0.13,-0.99,3.30,1.40,0.43
34.8170,0.07,0.12,-0.99,3.54,1.77,-0.24
34.8330,0.07,0.14,-0.98,3.48,1.71,-0.61
34.8610,0.07,0.14,-0.99,3.42,1.53,0.00
34.8730,0.07,0.14,-0.99,3.30,1.40,0.85
34.8880,0.07,0.14,-0.99,3.30,1.22,1.22
34.9040,0.06,0.12,-0.99,3.42,1.34,1.46
34.9140,0.06,0.12,-0.99,3.42,1.34,0.43
34.9310,0.08,0.14,-0.98,3.42,1.46,-0.73
34.9480,0.08,0.15,-0.98,3.60,1.65,15.14
34.9640,0.08,0.14,-0.98,3.48,1.34,0.61
34.9800,0.07,0.14,-0.99,3.36,1.10,1.40
34.9970,0.07,0.13,-0.99,3.17,1.65,1.59
35.0130,0.07,0.13,-0.99,3.48,1.22,1.77
35.0290,0.06,0.13,-0.99,3.42,1.40,1.65
35.0440,0.07,0.13,-0.99,3.54,1.22,1.34
35.0590,0.08,0.14,-0.99,3.36,1.34,1.28
35.0740,0.07,0.13,-0.99,3.30,1.34,1.34
35.0840,0.07,0.13,-0.99,3.42,1.16,0.67
35.0960,0.07,0.14,-0.99,3.48,1.59,0.43
35.1200,0.08,0.14,-0.98,3.48,1.46,0.73
35.1360,0.08,0.14,-0.99,3.60,0.98,1.04
35.1510,0.08,0.14,-0.99,3.54,1.40,1.28
35.1670,0.07,0.13,-0.99,3.30,1.16,1.71
35.1700,0.07,0.13,-0.98,3.48,1.04,1.59
35.1850,0.07,0.13,-0.99,3.48,1.46,1.59
35.2080,0.07,0.13,-0.99,3.48,1.22,1.71
35.2240,0.07,0.13,-0.98,3.48,1.22,1.65
35.2410,0.07,0.13,-0.99,3.48,1.28,1.65
35.2570,0.08,0.12,-0.99,3.48,1.10,1.22
35.2730,0.07,0.13,-0.99,3.60,1.28,-0.31
35.2900,0.07,0.13,-0.99,3.36,1.77,-0.06
35.3040,0.07,0.13,-0.99,3.48,1.53,-0.31
35.3220,0.08,0.13,-0.99,3.60,1.28,0.00
35.3260,0.07,0.14,-0.99,3.36,1.16,-0.18
35.3530,0.07,0.14,-0.99,3.48,1.16,0.61
35.3690,0.07,0.14,-0.99,3.42,0.98,0.85
35.3840,0.07,0.13,-0.99,3.54,0.98,1.04
35.3910,0.07,0.13,-0.99,3.54,1.28,0.79
35.4140,0.07,0.13,-0.99,3.42,1.53,0.24
35.4300,0.07,0.13,-0.99,3.66,1.65,0.06
35.4460,0.07,0.13,-0.99,3.66,1.59,0.06
35.4620,0.07,0.14,-0.99,3.54,1.22,-0.12
35.4780,0.07,0.14,-0.99,3.66,1.40,0.24
35.4930,0.07,0.14,-0.99,3.48,1.46,0.61
35.5070,0.07,0.14,-0.98,3.42,1.34,1.16
35.5140,0.07,0.14,-0.98,3.30,0.92,1.34
35.5300,0.07,0.13,-0.99,3.36,1.16,1.53
35.5520,0.07,0.13,-0.99,3.48,1.10,1.34
35.5540,0.07,0.12,-0.99,3.36,1.65,0.43
35.5830,0.07,0.13,-0.99,3.66,1.59,-0.31
35.5990,0.07,0.14,-0.99,3.60,1.83,-0.06
35.6160,0.07,0.14,-0.99,3.60,1.46,0.67
35.6320,0.07,0.15,-0.99,3.30,1.34,0.85
35.6480,0.07,0.14,-0.99,3.42,1.34,1.34
35.6530,0.07,0.13,-0.99,3.23,1.10,1.22
35.6690,0.08,0.12,-0.99,3.60,1.40,0.43
35.6940,0.07,0.12,-0.99,3.36,1.83,-0.18
35.7080,0.07,0.12,-0.99,3.54,1.10,0.31
35.7240,0.07,0.14,-0.98,3.48,1.04,0.55
35.7400,0.07,0.13,-0.99,3.36,1.22,0.43
35.7540,0.07,0.13,-0.99,3.48,1.46,-0.43
35.7700,0.08,0.13,-0.99,3.54,1.22,-1.04
35.7860,0.07,0.14,-0.99,3.48,1.77,-0.55
35.8020,0.07,0.14,-0.98,3.66,1.28,0.31
35.8180,0.07,0.14,-0.99,3.42,1.59,0.85
35.8330,0.07,0.14,-0.99,3.54,1.40,1.04
35.8440,0.07,0.13,-0.99,3.48,1.16,1.46
35.8600,0.07,0.13,-0.99,3.23,0.98,0.92
35.8760,0.07,0.13,-0.99,3.60,1.40,0.61
35.8930,0.08,0.13,-0.99,3.42,1.53,0.24
35.9090,0.07,0.13,-0.99,3.42,1.46,0.18
35.9110,0.07,0.13,-0.99,3.72,1.59,-0.06
35.9410,0.07,0.13,-0.99,3.60,1.16,-0.12
35.9560,0.07,0.14,-0.99,3.60,1.46,-0.18
35.9720,0.07,0.13,-0.99,3.60,1.22,-0.24
35.9870,0.07,0.14,-0.98,3.42,1.04,-0.12
36.0030,0.07,0.14,-0.98,3.42,1.34,0.61
36.0180,0.07,0.14,-0.99,3.36,1.16,0.98
36.0330,0.07,0.14,-0.99,3.36,1.22,1.40
36.0480,0.07,0.13,-0.99,3.42,1.34,1.53
36.0600,0.07,0.12,-0.99,3.42,1.40,0.85
36.0760,0.07,0.12,-0.99,3.48,1.34,-0.37
36.0930,0.07,0.13,-0.99,3.48,1.28,-0.85
36.1080,0.08,0.14,-0.98,3.72,1.77,-0.49
36.1240,0.07,0.15,-0.98,3.60,1.28,0.43
36.1390,0.07,0.14,-0.99,3.42,1.53,1.04
36.1540,0.07,0.14,-0.99,3.36,1.59,1.16
36.1610,0.07,0.13,-0.99,3.23,1.59,1.16
36.1860,0.07,0.13,-0.99,3.72,1.22,0.79
36.2020,0.07,0.13,-0.99,3.54,1.28,0.49
36.2170,0.07,0.13,-0.98,3.54,1.34,0.12
36.2320,0.07,0.14,-0.99,3.54,1.53,0.43
36.2440,0.07,0.14,-0.98,3.54,1.40,0.37
36.2600,0.07,0.13,-0.99,3.54,1.22,0.43
36.2750,0.07,0.14,-0.99,3.48,1.40,0.49
36.2910,0.08,0.13,-0.99,3.30,1.53,0.00
36.3000,0.08,0.14,-0.98,3.54,1.53,-0.31
36.3170,0.08,0.13,-0.98,3.48,1.53,0.18
36.3320,0.07,0.13,-0.99,3.42,0.67,0.49
36.3520,0.07,0.13,-0.99,3.30,1.28,0.49
36.3680,0.08,0.14,-0.98,3.54,1.16,0.43
36.3730,0.07,0.12,-0.99,3.54,1.28,0.24
36.3890,0.07,0.13,-0.99,3.54,1.10,-0.37
36.4090,0.08,0.13,-0.99,3.66,1.10,-0.61
36.4260,0.07,0.14,-0.99,3.54,1.46,-0.12
36.4420,0.07,0.14,-0.99,3.48,1.46,0.18
36.4580,0.07,0.14,-0.98,3.36,1.34,0.73
36.4740,0.07,0.14,-0.98,3.36,1.28,0.92
36.4900,0.07,0.13,-0.99,3.48,0.98,0.79
36.5040,0.07,0.13,-0.99,3.42,0.98,0.43
36.5200,0.07,0.13,-0.99,3.78,1.40,-0.12
36.5360,0.07,0.13,-0.99,3.66,1.40,-0.43
36.5520,0.07,0.13,-0.99,3.66,1.28,0.12
36.5680,0.07,0.13,-0.99,3.78,1.34,-0.12
36.5830,0.07,0.13,-0.99,3.66,1.40,-0.06
36.5980,0.07,0.13,-0.99,3.60,1.40,-0.37
36.6090,0.07,0.14,-0.99,3.54,1.28,-0.24
36.6260,0.08,0.14,-0.98,3.60,0.92,0.24
36.6430,0.08,0.13,-0.99,3.54,1.04,0.37
36.6580,0.08,0.14,-0.99,3.48,1.34,0.37
36.6740,0.08,0.13,-0.99,3.60,1.34,0.55
36.6850,0.07,0.13,-0.99,3.54,1.53,-0.12
36.6990,0.07,0.13,-0.99,3.42,1.89,-0.61
36.7160,0.07,0.14,-0.98,3.60,1.77,-0.55
36.7330,0.07,0.14,-0.99,3.54,1.40,-0.12
36.7480,0.08,0.14,-0.98,3.54,1.16,0.24
36.7660,0.07,0.14,-0.98,3.36,1.40,0.98
36.7810,0.08,0.13,-0.99,3.54,1.10,1.34
36.7890,0.07,0.12,-0.99,3.48,1.22,1.28
36.8110,0.07,0.12,-0.99,3.54,1.22,0.18
36.8220,0.07,0.13,-0.99,3.54,1.40,-0.31
36.8380,0.07,0.13,-0.99,3.54,1.59,-0.55
36.8550,0.07,0.14,-0.99,3.54,1.77,-0.67
36.8720,0.07,0.14,-0.99,3.60,1.77,-0.37
36.8890,0.07,0.14,-0.99,3.36,1.34,0.18
36.9050,0.08,0.13,-0.99,3.48,1.16,0.24
36.9220,0.07,0.13,-0.99,3.54,1.40,-0.31
36.9370,0.07,0.13,-0.99,3.54,1.46,-0.12
36.9530,0.08,0.14,-0.98,3.42,1.59,0.24
36.9680,0.07,0.15,-0.98,3.36,1.22,0.31
36.9840,0.07,0.14,-0.98,3.42,1.28,1.10
36.9880,0.07,0.13,-0.99,3.36,0.98,1.59
37.0030,0.07,0.13,-0.98,3.42,0.92,1.59
37.0260,0.07,0.13,-0.99,3.42,1.16,1.59
37.0430,0.08,0.13,-0.99,3.60,0.92,1.34
37.0600,0.07,0.11,-0.99,3.66,0.98,0.43
37.0760,0.07,0.12,-0.99,3.36,1.53,-1.46
37.0920,0.07,0.12,-0.99,3.72,1.89,-2.20
37.1080,0.08,0.14,-0.98,3.85,1.77,-1.95
37.1230,0.08,0.15,-0.98,3.48,0.98,-1.16
37.1380,0.08,0.15,-0.98,3.72,1.34,-0.92
37.1540,0.08,0.14,-0.98,3.48,1.53,-0.24
37.1700,0.08,0.13,-0.99,3.60,1.28,-0.06
37.1860,0.07,0.13,-0.99,3.36,1.16,0.00
37.2020,0.07,0.12,-0.99,3.42,1.46,-0.06
37.2180,0.07,0.13,-0.99,3.66,1.71,-0.92
37.2340,0.07,0.14,-0.99,3.42,1.34,-0.92
37.2490,0.07,0.14,-0.99,3.60,1.28,-0.55
37.2590,0.07,0.13,-0.99,3.60,1.10,-0.67
37.2750,0.08,0.13,-0.99,3.54,1.65,-0.73
37.2940,0.08,0.14,-0.99,3.78,1.65,-1.04
37.3090,0.08,0.14,-0.98,3.54,1.46,-0.49
37.3240,0.07,0.14,-0.99,3.54,1.28,0.24
37.3390,0.07,0.14,-0.99,3.60,1.10,0.43
37.3550,0.07,0.13,-0.99,3.60,1.10,0.43
37.3700,0.07,0.13,-0.99,3.60,1.59,-0.18
37.3860,0.07,0.13,-0.99,3.54,1.40,-0.85
37.3970,0.08,0.14,-0.99,3.60,1.89,-0.31
37.4130,0.07,0.14,-0.98,3.66,1.46,0.37
37.4290,0.08,0.14,-0.98,3.42,1.34,0.37
37.4440,0.07,0.13,-0.99,3.42,1.40,0.67
37.4530,0.07,0.13,-0.99,3.54,1.46,0.37
37.4700,0.08,0.13,-0.99,3.66,1.40,-0.67
37.4860,0.08,0.14,-0.98,3.36,1.53,-0.37
37.5090,0.08,0.14,-0.99,3.48,1.53,0.37
37.5240,0.07,0.14,-0.99,3.54,1.10,0.37
37.5390,0.07,0.13,-0.99,3.48,1.40,0.24
37.5540,0.07,0.12,-0.99,3.48,1.53,-0.43
37.5590,0.07,0.12,-0.99,3.66,1.53,-2.08
37.5860,0.08,0.14,-0.99,3.85,1.71,-2.69
37.6010,0.08,0.14,-0.98,3.85,1.34,-1.46
37.6110,0.08,0.15,-0.98,3.66,1.59,-0.49
37.6280,0.08,0.15,-0.98,3.66,1.34,0.79
37.6440,0.08,0.14,-0.99,3.36,1.40,1.16
37.6610,0.07,0.13,-0.99,3.36,0.92,1.22
37.6780,0.07,0.12,-0.99,3.54,1.46,0.61
37.6930,0.07,0.13,-0.99,3.60,1.40,-0.18
37.7090,0.07,0.13,-0.99,3.48,1.59,-0.12
37.7240,0.07,0.13,-0.99,3.60,1.77,0.00
37.7290,0.07,0.13,-0.99,3.66,1.59,-0.12
37.7440,0.07,0.13,-0.99,3.48,1.46,-0.37
37.7680,0.08,0.14,-0.98,3.42,1.89,-0.55
37.7860,0.08,0.14,-0.98,3.48,1.46,-0.24
37.8020,0.08,0.13,-0.99,3.48,1.34,-0.31
37.8180,0.08,0.14,-0.99,3.54,1.53,-0.43
37.8190,0.07,0.13,-0.99,3.48,1.46,-0.49
37.8500,0.07,0.13,-0.99,3.36,1.77,-0.43
37.8530,0.08,0.13,-0.99,3.66,1.34,-0.31
37.8690,0.08,0.14,-0.99,3.36,1.71,-0.49
37.8980,0.08,0.14,-0.99,3.54,1.53,-0.12
37.9130,0.07,0.14,-0.99,3.48,1.65,0.67
37.9300,0.07,0.14,-0.99,3.48,1.10,0.98
37.9350,0.07,0.14,-0.99,3.36,1.53,1.04
37.9510,0.07,0.13,-0.99,3.36,1.65,1.10
37.9760,0.07,0.13,-0.99,3.48,1.46,0.67
37.9900,0.08,0.14,-0.98,3.54,1.77,0.55
38.0060,0.07,0.14,-0.99,3.48,1.10,0.49
38.0090,0.07,0.13,-0.99,3.48,1.59,0.43
38.0240,0.07,0.13,-0.99,3.36,1.53,0.37
38.0530,0.07,0.13,-0.99,3.48,1.10,0.24
38.0640,0.08,0.14,-0.98,3.48,1.16,0.55
38.0810,0.07,0.14,-0.99,3.48,0.85,1.04
38.0970,0.07,0.13,-0.99,3.42,1.22,1.10
38.1130,0.07,0.13,-0.99,3.42,1.22,0.92
38.1200,0.07,0.12,-0.99,3.42,1.40,0.55
38.1370,0.07,0.12,-0.99,3.48,1.28,-0.73
38.1590,0.08,0.13,-0.99,3.72,1.53,-1.16
38.1740,0.07,0.15,-0.98,3.66,1.34,-0.24
38.1890,0.08,0.15,-0.99,3.30,1.22,0.85
38.2040,0.08,0.14,-0.98,3.36,1.04,1.10
38.2210,0.07,0.13,-0.99,3.48,1.28,1.40
38.2210,0.07,0.12,-0.99,3.48,1.53,0.85
38.2370,0.08,0.12,-0.99,3.54,1.53,-0.61
38.2660,0.07,0.13,-0.99,3.48,1.83,-0.98
38.2800,0.08,0.14,-0.99,3.54,1.77,-0.73
38.2880,0.07,0.15,-0.98,3.60,1.77,0.37
38.3060,0.08,0.14,-0.98,3.60,1.10,0.79
38.3200,0.07,0.14,-0.99,3.42,1.40,1.28
38.3380,0.07,0.14,-0.99,3.42,1.28,1.16
38.3540,0.08,0.13,-0.99,3.30,1.28,1.04
38.3700,0.07,0.13,-0.99,3.48,1.53,0.55
38.3870,0.07,0.13,-0.99,3.48,1.46,0.43
38.4040,0.07,0.14,-0.99,3.42,1.34,0.43
38.4190,0.07,0.14,-0.99,3.60,1.59,0.37
38.4350,0.08,0.13,-0.99,3.30,1.65,0.18
38.4370,0.08,0.13,-0.99,3.48,1.46,-0.49
38.4670,0.07,0.13,-0.99,3.48,1.46,-0.55
38.4830,0.07,0.14,-0.99,3.42,1.46,0.06
38.4990,0.07,0.14,-0.98,3.48,1.28,0.61
38.5150,0.08,0.14,-0.99,3.36,1.22,0.85
38.5310,0.08,0.13,-0.99,3.23,1.40,1.22
38.5370,0.07,0.14,-0.99,3.42,1.53,0.92
38.5530,0.07,0.13,-0.99,3.42,1.71,1.16
38.5780,0.07,0.14,-0.98,3.60,1.53,0.98
38.5940,0.07,0.13,-0.99,3.36,1.22,1.10
38.6100,0.08,0.13,-0.99,3.54,1.34,0.73
38.6250,0.08,0.13,-0.99,3.54,1.65,0.79
38.6410,0.08,0.12,-0.99,3.36,1.65,0.18
38.6560,0.07,0.14,-0.98,3.48,1.65,-0.37
38.6720,0.07,0.14,-0.98,3.48,1.34,0.31
38.6880,0.07,0.14,-0.99,3.60,1.40,0.55
38.7030,0.08,0.14,-0.99,3.60,1.28,0.85
38.7190,0.07,0.14,-0.99,3.42,1.53,1.28
38.7340,0.08,0.14,-0.99,3.42,0.98,1.53
38.7490,0.08,0.13,-0.98,3.30,1.04,1.34
38.7590,0.07,0.14,-0.99,3.36,1.46,1.34
38.7750,0.07,0.14,-0.99,3.48,1.16,1.34
38.7960,0.07,0.13,-0.99,3.42,1.04,1.53
38.8130,0.07,0.13,-0.99,3.48,1.22,1.53
38.8290,0.08,0.12,-0.99,3.42,1.22,1.34
38.8450,0.08,0.12,-0.99,3.36,1.28,0.79
38.8480,0.08,0.12,-0.99,3.48,1.34,0.61
38.8770,0.07,0.13,-0.99,3.54,1.65,0.00
38.8880,0.07,0.13,-0.99,3.36,1.71,0.12
38.9030,0.07,0.14,-0.98,3.48,1.59,-0.37
38.9180,0.08,0.14,-0.98,3.54,1.65,0.31
38.9340,0.07,0.14,-0.98,3.54,1.46,0.24
38.9440,0.08,0.13,-0.99,3.60,1.77,0.73
38.9680,0.07,0.13,-0.99,3.48,1.28,0.55
38.9760,0.07,0.13,-0.98,3.42,0.85,0.37
38.9910,0.08,0.14,-0.98,3.60,1.34,0.79
39.0140,0.08,0.14,-0.99,3.48,1.22,1.10
39.0300,0.08,0.14,-0.99,3.42,1.22,1.34
39.0460,0.08,0.13,-0.99,3.36,1.22,1.10
39.0620,0.07,0.13,-0.99,3.23,1.46,1.10
39.0780,0.07,0.13,-0.99,3.60,1.53,0.61
39.0940,0.08,0.13,-0.99,3.42,1.53,0.31
39.1090,0.08,0.14,-0.98,3.48,1.34,0.00
39.1250,0.08,0.13,-0.99,3.48,1.71,0.00
39.1410,0.07,0.13,-0.99,3.36,1.59,-0.06
39.1560,0.07,0.13,-0.99,3.48,1.28,-0.12
39.1700,0.07,0.13,-0.98,3.60,1.53,-0.24
39.1860,0.07,0.13,-0.99,3.66,1.71,-0.24
39.1970,0.07,0.13,-0.99,3.72,1.77,-0.73
39.2130,0.07,0.13,-0.99,3.60,1.46,-1.10
39.2300,0.08,0.15,-0.98,3.60,1.59,-0.73
39.2470,0.08,0.15,-0.98,3.60,1.28,0.61
39.2630,0.07,0.14,-0.99,3.42,1.40,1.28
39.2800,0.07,0.13,-0.99,3.30,1.16,1.34
39.2960,0.08,0.12,-0.99,3.48,1.53,0.31
39.3120,0.07,0.13,-0.99,3.36,1.65,-0.37
39.3280,0.07,0.14,-0.99,3.42,1.46,0.24
39.3440,0.07,0.15,-0.98,3.42,1.53,0.85
39.3590,0.08,0.15,-0.98,3.42,1.40,1.04
39.3650,0.08,0.13,-0.99,3.30,1.53,1.53
39.3870,0.08,0.13,-0.99,3.23,1.10,1.10
39.3970,0.07,0.13,-0.99,3.48,1.22,0.67
39.4130,0.07,0.13,-0.99,3.42,1.28,0.98
39.4280,0.08,0.15,-0.99,3.48,1.16,1.83
39.4510,0.08,0.14,-0.98,3.54,0.98,1.95
39.4530,0.07,0.14,-0.99,3.54,1.22,0.49
39.4810,0.07,0.14,-0.99,3.42,1.28,0.92
39.4880,0.08,0.13,-0.99,3.30,1.59,0.85
39.5030,0.08,0.13,-0.99,3.30,1.22,0.00
39.5260,0.07,0.13,-0.99,3.60,1.22,-0.31
39.5360,0.07,0.13,-0.99,3.36,1.65,-0.61
39.5530,0.07,0.14,-0.99,3.42,1.34,-0.49
39.5690,0.08,0.14,-0.99,3.48,1.40,0.55
39.5880,0.08,0.14,-0.99,3.17,1.46,0.85
39.6020,0.08,0.14,-0.99,3.60,1.28,0.85
39.6180,0.07,0.14,-0.99,3.30,1.46,0.31
39.6340,0.07,0.13,-0.99,3.30,1.46,0.43
39.6500,0.07,0.13,-0.99,3.36,1.71,0.55
39.6520,0.08,0.14,-0.98,3.42,1.53,1.04
39.6680,0.08,0.14,-0.99,3.48,1.22,1.46
39.6980,0.07,0.13,-0.99,3.42,1.04,1.46
39.7080,0.07,0.13,-0.99,3.60,1.22,1.46
39.7240,0.08,0.13,-0.99,3.36,1.22,1.10
39.7400,0.07,0.13,-0.99,3.54,1.22,0.18
39.7580,0.07,0.13,-0.99,3.60,1.40,-0.31
39.7740,0.08,0.13,-0.99,3.54,1.65,-0.49
39.7900,0.07,0.13,-0.99,3.66,1.71,-0.67
39.8060,0.07,0.12,-0.99,3.48,1.89,-1.65
39.8210,0.07,0.14,-0.98,3.60,2.01,-1.83
39.8370,0.07,0.15,-0.98,3.54,1.65,-1.10
39.8520,0.08,0.15,-0.98,3.60,1.59,0.12
39.8670,0.08,0.14,-0.99,3.42,1.34,0.61
39.8780,0.08,0.13,-0.99,3.60,1.46,0.61
39.8940,0.07,0.13,-0.99,3.42,1.53,0.43
39.9100,0.08,0.13,-0.99,3.48,1.77,0.37
39.9270,0.07,0.14,-0.99,3.48,1.28,0.67
39.9440,0.07,0.14,-0.99,3.42,1.40,1.28
39.9590,0.08,0.14,-0.98,3.30,1.59,1.40
39.9750,0.08,0.13,-0.99,3.30,1.71,1.40
39.9900,0.08,0.13,-0.99,3.42,1.53,1.46
39.9940,0.08,0.12,-0.99,3.17,1.71,0.43
40.0100,0.08,0.13,-0.99,3.30,1.65,-0.55
40.0370,0.07,0.13,-0.99,3.60,1.53,-0.55
40.0480,0.07,0.14,-0.98,3.66,1.65,-0.24
40.0640,0.07,0.14,-0.99,3.36,1.77,0.12
40.0820,0.07,0.14,-0.99,3.48,1.34,0.37
40.0980,0.07,0.13,-0.99,3.42,1.28,0.37
40.1010,0.07,0.13,-0.99,3.42,1.65,0.18
40.1180,0.07,0.12,-0.99,3.36,1.77,-0.31
40.1460,0.07,0.12,-0.99,3.54,1.95,-1.40
40.1500,0.07,0.13,-0.99,3.60,1.77,-2.01
40.1790,0.07,0.15,-0.98,3.54,1.22,-1.40
40.1890,0.08,0.16,-0.98,3.36,1.46,0.18
40.2100,0.08,0.15,-0.98,3.54,1.10,1.10
40.2170,0.07,0.14,-0.98,3.42,0.85,1.53
40.2330,0.08,0.13,-0.99,3.54,0.92,1.59
40.2510,0.07,0.13,-0.99,3.42,0.98,1.89
40.2670,0.08,0.13,-0.98,3.36,1.10,1.77
40.2820,0.08,0.13,-0.99,3.30,1.40,1.71
40.3020,0.07,0.13,-0.99,3.17,1.53,1.40
40.3180,0.07,0.12,-0.99,3.42,0.85,1.34
40.3230,0.07,0.12,-0.99,3.48,1.46,0.67
40.3390,0.07,0.13,-0.99,3.60,1.59,-0.43
40.3630,0.07,0.14,-0.99,3.78,1.16,-0.43
40.3790,0.08,0.15,-0.98,3.54,1.22,0.24
40.3940,0.08,0.15,-0.98,3.48,1.46,0.79
40.3970,0.08,0.14,-0.98,3.54,1.40,1.04
40.4240,0.08,0.13,-0.99,3.42,1.34,1.22
40.4400,0.08,0.12,-0.99,3.54,1.40,0.49
40.4550,0.07,0.12,-0.99,3.42,1.71,-0.18
40.4690,0.07,0.12,-0.99,3.54,1.65,-0.55
40.4850,0.07,0.14,-0.99,3.54,1.77,-0.43
40.4960,0.08,0.15,-0.98,3.48,1.40,0.31
40.5130,0.08,0.14,-0.98,3.54,1.46,0.98
40.5290,0.08,0.14,-0.99,3.36,1.46,1.22
40.5440,0.08,0.13,-0.99,3.48,1.46,1.16
40.5590,0.07,0.12,-0.99,3.42,1.28,0.37
40.5750,0.07,0.12,-0.99,3.66,1.65,-0.49
40.5900,0.07,0.13,-0.99,3.66,1.71,-0.06
40.6060,0.08,0.14,-0.99,3.48,1.71,-0.43
40.6220,0.08,0.14,-0.99,3.36,1.83,-0.43
40.6300,0.08,0.14,-0.98,3.54,1.59,0.24
40.6530,0.08,0.14,-0.99,3.48,1.53,0.55
40.6680,0.07,0.13,-0.99,3.36,1.34,0.79
40.6800,0.07,0.13,-0.99,3.54,1.65,0.49
40.6960,0.07,0.12,-0.99,3.48,1.71,-0.43
40.7130,0.07,0.12,-0.99,3.54,1.40,-1.71
40.7300,0.08,0.14,-0.99,3.66,1.95,-1.65
40.7460,0.08,0.15,-0.98,3.48,1.28,-0.67
40.7620,0.08,0.15,-0.98,3.48,1.59,1.04
40.7770,0.08,0.14,-0.99,3.30,1.46,1.77
40.7940,0.07,0.13,-0.99,3.42,1.46,1.71
40.8090,0.07,0.13,-0.99,3.42,1.53,1.46
40.8250,0.07,0.13,-0.99,3.42,1.77,1.04
40.8400,0.08,0.13,-0.99,3.48,1.71,0.67
40.8470,0.08,0.13,-0.99,3.54,1.40,0.49
40.8620,0.08,0.14,-0.98,3.42,1.10,0.24
40.8850,0.08,0.14,-0.98,3.60,1.65,0.43
40.9020,0.08,0.14,-0.98,3.54,1.65,1.22
40.9170,0.08,0.13,-0.99,3.42,1.53,1.46
40.9340,0.07,0.13,-0.99,3.30,1.40,1.46
40.9500,0.07,0.13,-0.99,3.23,1.22,1.53
40.9660,0.08,0.14,-0.99,3.30,1.04,1.77
40.9820,0.07,0.13,-0.99,3.42,1.28,1.53
40.9890,0.08,0.13,-0.99,3.30,1.59,1.77
41.0020,0.07,0.13,-0.99,3.54,1.40,1.65
41.0180,0.07,0.13,-0.99,3.66,1.22,1.77
41.0400,0.08,0.13,-0.99,3.36,1.71,1.59
41.0560,0.07,0.12,-0.99,3.42,1.46,1.46
41.0720,0.07,0.12,-0.99,3.30,1.28,1.16
41.0880,0.07,0.13,-0.99,3.30,1.34,0.55
41.1030,0.08,0.13,-0.99,3.42,1.34,0.49
41.1200,0.07,0.14,-0.99,3.36,1.71,-0.18
41.1360,0.07,0.14,-0.98,3.66,1.77,-0.06
41.1510,0.07,0.14,-0.99,3.66,1.59,0.37
41.1660,0.08,0.14,-0.99,3.48,1.71,0.92
41.1820,0.07,0.14,-0.99,3.54,1.46,1.40
41.1980,0.08,0.14,-0.99,3.30,1.40,1.34
41.2120,0.08,0.13,-0.99,3.48,1.34,1.34
41.2230,0.08,0.13,-0.99,3.30,1.53,1.10
41.2400,0.08,0.13,-0.99,3.48,1.65,1.22
41.2560,0.07,0.13,-0.99,3.60,1.28,1.04
41.2720,0.08,0.13,-0.99,3.36,1.34,0.49
41.2740,0.07,0.13,-0.99,3.42,1.71,0.24
41.3030,0.07,0.14,-0.99,3.48,1.40,0.49
41.3180,0.07,0.14,-0.99,3.30,1.77,0.49
41.3340,0.07,0.14,-0.98,3.66,1.22,0.98
41.3400,0.07,0.13,-0.98,3.36,1.40,1.04
41.3690,0.07,0.13,-0.99,3.48,1.77,0.67
41.3740,0.08,0.13,-0.99,3.42,1.53,0.06
41.4010,0.07,0.13,-0.99,3.60,1.34,0.12
41.4170,0.08,0.15,-0.98,3.42,1.40,0.98
41.4330,0.07,0.14,-0.99,3.48,0.85,1.46
41.4470,0.08,0.13,-0.99,3.36,0.98,1.65
41.4580,0.07,0.12,-0.99,3.48,1.53,1.28
41.4740,0.08,0.11,-0.99,3.48,1.59,0.67
41.4920,0.07,0.12,-0.99,3.85,1.65,-0.92
41.5080,0.07,0.13,-0.99,3.60,1.83,-1.22
41.5230,0.08,0.16,-0.98,3.48,1.59,-0.37
41.5250,0.08,0.16,-0.98,3.42,1.28,0.37
41.5410,0.08,0.15,-0.98,3.48,1.16,1.46
41.5650,0.08,0.13,-0.98,3.48,1.16,1.65
41.5820,0.07,0.13,-0.99,3.60,1.40,1.65
41.5980,0.07,0.13,-0.99,3.36,1.22,1.77
41.6150,0.07,0.13,-0.99,3.42,1.22,1.89
41.6320,0.07,0.13,-0.99,3.48,1.04,1.71
41.6480,0.07,0.13,-0.99,3.48,1.34,1.46
41.6640,0.08,0.13,-0.99,3.54,1.28,1.10
41.6790,0.07,0.13,-0.99,3.42,1.34,0.37
41.6900,0.07,0.13,-0.99,3.60,1.71,-0.43
41.6980,0.08,0.14,-0.99,3.48,1.71,-0.24
41.7200,0.08,0.14,-0.99,3.54,1.10,0.24
41.7370,0.08,0.14,-0.99,3.42,1.34,0.61
41.7550,0.08,0.13,-0.99,3.60,1.83,0.79
41.7710,0.08,0.13,-0.99,3.48,1.46,0.43
41.7720,0.07,0.12,-0.99,3.54,1.59,-0.61
41.8010,0.07,0.14,-0.98,3.60,1.71,-0.85
41.8180,0.07,0.15,-0.98,3.66,1.53,0.12
41.8210,0.08,0.15,-0.98,3.11,1.53,1.04
41.8500,0.08,0.14,-0.98,3.30,1.28,1.59
41.8540,0.08,0.13,-0.99,3.36,1.34,1.59
41.8700,0.08,0.11,-0.99,3.30,1.46,0.67
41.8970,0.07,0.11,-0.99,3.66,2.08,-2.14
41.9090,0.07,0.13,-0.99,3.60,2.20,-2.44
41.9250,0.07,0.14,-0.98,3.60,1.83,-2.32
41.9420,0.08,0.16,-0.98,3.72,1.83,-1.22
41.9580,0.08,0.17,-0.98,3.48,1.59,0.55
41.9740,0.08,0.15,-0.98,3.54,1.16,1.16
41.9890,0.07,0.13,-0.98,3.23,1.46,1.65
41.9920,0.07,0.13,-0.99,3.48,1.40,1.59
42.0080,0.08,0.13,-0.99,3.60,0.92,1.53
42.0360,0.07,0.14,-0.99,3.48,1.10,1.46
42.0470,0.08,0.14,-0.98,3.36,1.28,1.65
42.0640,0.08,0.13,-0.99,3.42,1.10,1.77
42.0800,0.08,0.13,-0.99,3.42,1.40,1.71
42.0970,0.08,0.13,-0.99,3.48,1.22,1.71
42.1140,0.08,0.13,-0.99,3.48,1.28,1.65
42.1150,0.08,0.12,-0.99,3.42,1.16,1.34
42.1460,0.08,0.13,-0.99,3.48,1.10,0.43
42.1620,0.07,0.13,-0.98,3.42,1.34,0.73
42.1650,0.07,0.13,-0.99,3.54,1.40,1.22
42.1900,0.08,0.13,-0.99,3.48,1.28,1.04
42.2030,0.08,0.13,-0.99,3.48,1.16,0.85
42.2200,0.08,0.13,-0.99,3.54,1.22,0.18
42.2370,0.08,0.13,-0.99,3.60,1.40,0.18
42.2530,0.07,0.14,-0.99,3.48,1.65,-0.06
42.2710,0.07,0.14,-0.98,3.60,1.46,0.06
42.2870,0.07,0.13,-0.98,3.66,1.28,0.24
42.3030,0.08,0.12,-0.99,3.60,1.28,-0.12
42.3190,0.07,0.13,-0.99,3.60,1.83,-1.46
42.3350,0.08,0.14,-0.99,3.72,1.95,-1.59
42.3520,0.07,0.15,-0.98,3.54,1.83,-0.92
42.3670,0.08,0.15,-0.98,3.42,1.59,0.55
42.3830,0.08,0.14,-0.99,3.48,0.92,1.16
42.3980,0.07,0.12,-0.99,3.42,1.53,0.85
42.4030,0.08,0.12,-0.99,3.66,1.28,-1.04
42.4190,0.08,0.12,-0.99,3.78,1.95,-1.83
42.4420,0.07,0.14,-0.99,3.66,1.83,-1.83
42.4590,0.07,0.15,-0.98,3.66,1.22,-0.79
42.4740,0.08,0.15,-0.98,3.48,1.40,0.18
42.4890,0.08,0.13,-0.99,3.23,1.65,0.73
42.5060,0.08,0.13,-0.99,3.54,0.98,0.49
42.5220,0.08,0.11,-0.99,3.48,1.65,-0.24
42.5380,0.07,0.11,-0.99,3.54,1.65,-2.20
42.5540,0.07,0.14,-0.99,3.78,1.53,-2.56
42.5700,0.07,0.15,-0.98,3.66,1.53,-1.46
42.5860,0.08,0.16,-0.98,3.54,1.34,0.12
42.6020,0.08,0.14,-0.99,3.48,1.22,1.10
42.6180,0.08,0.13,-0.99,3.42,1.46,0.92
42.6340,0.08,0.12,-0.99,3.66,1.59,0.18
42.6420,0.07,0.12,-0.99,3.54,1.65,-1.28
42.6650,0.07,0.13,-0.99,3.72,1.65,-1.46
42.6750,0.08,0.14,-0.98,3.66,1.83,-1.10
42.6920,0.08,0.13,-0.99,3.60,1.46,-0.98
42.7090,0.08,0.13,-0.99,3.36,1.89,-1.22
42.7250,0.07,0.14,-0.98,3.66,1.40,-1.34
42.7420,0.08,0.15,-0.98,3.60,1.04,-0.49
42.7580,0.08,0.15,-0.98,3.54,1.53,0.85
42.7730,0.08,0.14,-0.98,3.42,0.98,1.46
42.7880,0.08,0.13,-0.99,3.42,1.10,1.59
42.7910,0.07,0.12,-0.99,3.54,1.34,0.61
42.8070,0.07,0.13,-0.99,3.78,1.34,-0.98
42.8340,0.07,0.14,-0.98,3.66,1.46,-0.61
42.8460,0.08,0.15,-0.98,3.66,1.10,0.43
42.8630,0.08,0.14,-0.98,3.42,0.98,1.71
42.8800,0.08,0.13,-0.99,3.42,1.10,1.77
42.8950,0.08,0.13,-0.99,3.60,1.46,1.65
42.9120,0.07,0.10,-0.99,3.42,1.65,0.85
42.9290,0.07,0.14,-0.98,3.78,1.46,-1.40
42.9460,0.07,0.15,-0.98,3.54,1.65,0.06
42.9610,0.08,0.15,-0.98,3.36,1.40,1.46
42.9770,0.07,0.14,-0.99,3.23,1.10,1.65
42.9920,0.08,0.13,-0.99,3.05,1.40,1.65
43.0070,0.08,0.13,-0.99,3.23,0.92,1.59
43.0230,0.08,0.13,-0.99,3.30,1.40,1.71
43.0370,0.08,0.13,-0.98,3.48,1.10,1.65
43.0520,0.07,0.14,-0.99,3.48,0.73,1.65
43.0630,0.08,0.14,-0.98,3.42,0.79,1.71
43.0790,0.08,0.13,-0.98,3.17,0.55,1.65
43.0970,0.08,0.13,-0.99,3.23,0.98,1.65
43.1130,0.08,0.13,-0.99,3.36,1.28,1.65
43.1290,0.08,0.13,-0.99,3.36,1.16,1.59
43.1460,0.08,0.13,-0.99,3.17,1.04,1.53
43.1610,0.08,0.13,-0.99,3.30,0.79,1.71
43.1780,0.08,0.13,-0.99,3.23,1.10,1.65
43.1940,0.08,0.13,-0.99,3.36,1.46,1.65
43.2090,0.08,0.13,-0.99,3.48,1.16,1.53
43.2240,0.08,0.13,-0.99,3.72,1.34,1.83
43.2390,0.08,0.13,-0.99,3.78,1.22,1.65
43.2530,0.08,0.13,-0.99,3.66,1.22,1.53
43.2680,0.08,0.13,-0.99,3.60,1.34,1.53
43.2790,0.08,0.13,-0.99,3.42,1.22,1.65
43.2960,0.08,0.13,-0.98,3.42,1.04,1.65
43.3130,0.08,0.13,-0.99,3.30,1.16,1.46
43.3290,0.07,0.13,-0.99,3.54,0.98,1.65
43.3450,0.08,0.13,-0.99,3.54,1.16,1.65
43.3600,0.06,0.13,-0.99,3.30,1.10,1.71
43.3750,0.08,0.14,-0.99,3.48,1.28,2.32
43.3900,0.07,0.13,-0.99,3.54,1.04,1.71
43.3970,0.07,0.13,-0.99,3.48,1.40,1.59
43.4200,0.07,0.13,-0.99,3.48,1.22,1.53
43.4350,0.07,0.14,-0.99,3.36,1.40,1.28
43.4460,0.07,0.13,-0.99,3.66,1.28,0.55
43.4630,0.10,0.13,-0.98,3.72,1.46,1.04
43.4790,0.08,0.14,-0.99,3.60,1.34,1.04
43.4960,0.08,0.14,-0.99,3.48,1.22,1.46
43.4970,0.08,0.14,-0.98,3.42,1.10,1.65
43.5280,0.07,0.13,-0.99,3.42,1.46,1.40
43.5440,0.08,0.13,-0.99,3.42,1.04,1.34
43.5600,0.08,0.13,-0.99,3.60,1.10,1.34
43.5740,0.08,0.14,-0.99,3.60,1.34,1.65
43.5790,0.08,0.13,-0.99,3.42,1.28,1.65
43.5950,0.07,0.13,-0.99,3.48,1.53,1.59
43.6170,0.07,0.14,-0.99,3.48,1.16,1.34
43.6350,0.07,0.13,-0.99,3.54,1.34,0.85
43.6500,0.08,0.13,-0.99,3.48,1.28,0.67
43.6670,0.09,0.13,-0.98,3.54,0.98,1.16
43.6830,0.08,0.13,-0.99,3.54,0.67,1.28
43.6990,0.07,0.13,-0.99,3.54,1.16,1.59
43.7010,0.07,0.13,-0.99,3.48,1.04,1.40
43.7310,0.07,0.13,-0.99,3.48,1.10,1.16
43.7470,0.08,0.13,-0.99,3.54,1.16,1.10
43.7510,0.08,0.14,-0.99,3.48,1.28,1.10
43.7660,0.07,0.13,-0.99,3.60,1.34,0.98
43.7940,0.07,0.13,-0.99,3.48,1.22,1.28
43.8060,0.07,0.13,-0.99,3.54,1.46,1.10
43.8220,0.08,0.13,-0.99,3.54,1.34,1.22
43.8390,0.08,0.14,-0.99,3.66,0.67,1.40
43.8560,0.08,0.13,-0.99,3.42,1.10,1.46
43.8710,0.08,0.14,-0.99,3.30,1.16,1.53
43.8870,0.08,0.13,-0.99,3.54,0.92,1.65
43.9030,0.08,0.14,-0.99,3.48,1.16,1.65
43.9190,0.08,0.14,-0.98,3.48,0.98,1.89
43.9350,0.08,0.13,-0.99,3.48,0.98,1.65
43.9520,0.08,0.13,-0.99,3.30,0.98,1.71
43.9570,0.07,0.13,-0.99,3.36,0.98,1.71
43.9720,0.08,0.13,-0.98,3.23,1.22,1.71
43.9940,0.07,0.13,-0.99,3.42,0.73,1.71
44.0120,0.07,0.14,-0.99,3.48,1.04,1.95
44.0280,0.07,0.14,-0.99,3.30,1.16,1.89
44.0440,0.07,0.14,-0.99,3.66,1.16,1.89
44.0600,0.08,0.14,-0.98,3.42,1.16,1.83
44.0750,0.08,0.13,-0.99,3.54,1.04,1.59
44.0780,0.08,0.13,-0.99,3.48,0.92,1.46
44.0940,0.08,0.13,-0.99,3.54,0.98,1.77
44.1190,0.08,0.13,-0.99,3.54,0.79,1.71
44.1360,0.07,0.14,-0.99,3.36,1.16,1.95
44.1510,0.07,0.14,-0.99,3.36,1.10,2.14
44.1680,0.07,0.13,-0.99,3.23,1.22,2.14
44.1840,0.08,0.13,-0.99,3.30,1.16,2.14
44.1990,0.08,0.13,-0.99,3.30,0.98,1.77
44.2150,0.08,0.13,-0.98,3.66,1.10,1.65
44.2200,0.08,0.13,-0.99,3.60,1.16,1.59
44.2470,0.07,0.13,-0.99,3.60,0.98,1.53
44.2530,0.07,0.14,-0.99,3.30,0.85,1.53
44.2680,0.08,0.13,-0.99,3.36,1.16,1.89
44.2910,0.08,0.13,-0.99,3.30,1.22,1.89
44.3080,0.07,0.13,-0.99,3.36,1.22,1.83
44.3250,0.07,0.13,-0.99,3.72,0.92,1.71
44.3400,0.08,0.13,-0.98,3.48,1.40,1.65
44.3560,0.07,0.14,-0.99,3.54,1.28,1.65
44.3730,0.07,0.13,-0.99,3.42,1.34,1.77
44.3890,0.07,0.13,-0.99,3.36,1.22,1.89
44.4050,0.07,0.14,-0.99,3.48,1.16,2.01
44.4210,0.08,0.13,-0.99,3.42,0.98,1.95
44.4370,0.08,0.13,-0.99,3.42,1.34,1.83
44.4520,0.08,0.13,-0.98,3.42,1.40,1.71
44.4680,0.07,0.14,-0.99,3.42,1.16,1.95
44.4840,0.07,0.13,-0.99,3.42,1.22,1.89
44.4990,0.07,0.13,-0.99,3.42,0.79,2.08
44.5150,0.08,0.13,-0.99,3.42,0.49,1.95
44.5250,0.08,0.13,-0.99,3.54,0.98,1.71
44.5410,0.07,0.14,-0.99,3.48,1.04,1.65
44.5580,0.07,0.14,-0.99,3.42,1.34,1.83
44.5740,0.07,0.14,-0.99,3.30,1.10,1.95
44.5890,0.07,0.14,-0.99,3.42,1.22,1.89
44.6060,0.08,0.13,-0.98,3.17,1.22,1.83
44.6090,0.08,0.13,-0.99,3.60,1.04,1.71
44.6380,0.08,0.13,-0.99,3.42,0.92,1.65
44.6410,0.08,0.13,-0.99,3.54,0.85,1.65
44.6570,0.07,0.14,-0.99,3.23,1.04,1.59
44.6800,0.07,0.13,-0.99,3.42,1.53,1.71
44.6960,0.07,0.13,-0.99,3.48,1.28,1.65
44.7130,0.07,0.13,-0.99,3.48,1.34,1.65
44.7290,0.08,0.14,-0.99,3.48,1.46,1.65
44.7480,0.08,0.13,-0.98,3.48,1.10,1.59
44.7630,0.08,0.13,-0.99,3.36,1.16,1.59
44.7790,0.08,0.13,-0.99,3.48,0.98,1.59
44.7910,0.07,0.13,-0.99,3.48,1.16,1.65
44.8000,0.07,0.13,-0.99,3.54,1.22,1.59
44.8240,0.07,0.13,-0.99,3.42,1.28,1.65
44.8400,0.07,0.13,-0.99,3.30,1.34,1.59
44.8570,0.08,0.13,-0.99,3.42,1.40,1.53
44.8730,0.08,0.13,-0.99,3.36,1.16,1.46
44.8890,0.07,0.14,-0.99,3.30,1.10,1.28
44.9050,0.07,0.13,-0.99,3.36,0.85,1.53
44.9070,0.07,0.13,-0.98,3.23,1.22,1.71
44.9230,0.07,0.13,-0.99,3.36,1.34,1.71
44.9470,0.07,0.13,-0.99,3.36,1.34,1.65
44.9640,0.08,0.13,-0.99,3.60,1.34,1.53
44.9800,0.08,0.13,-0.99,3.23,1.71,1.46
44.9970,0.09,0.13,-0.99,3.54,1.40,1.65
45.0130,0.08,0.13,-0.99,3.36,1.59,1.77
45.0290,0.08,0.13,-0.99,3.36,1.28,1.77
45.0450,0.07,0.13,-0.98,3.54,1.22,1.71
45.0620,0.08,0.13,-0.99,3.54,1.40,1.77
45.0770,0.07,0.13,-0.99,3.30,1.77,1.53
45.0930,0.07,0.14,-0.99,3.42,1.16,1.59
45.1080,0.07,0.13,-0.99,3.42,1.28,1.71
45.1230,0.08,0.13,-0.99,3.54,1.10,1.65
45.1390,0.08,0.13,-0.99,3.60,1.40,1.53
45.1550,0.08,0.13,-0.99,3.42,1.34,1.46
45.1700,0.08,0.13,-0.98,3.30,1.04,1.53
45.1800,0.08,0.13,-0.99,3.60,1.34,1.53
45.1960,0.07,0.13,-0.99,3.66,1.34,1.59
45.2170,0.07,0.13,-0.99,3.54,1.22,1.40
45.2210,0.07,0.13,-0.99,3.60,1.28,1.34
45.2470,0.07,0.13,-0.99,3.54,1.10,1.22
45.2540,0.08,0.13,-0.99,3.48,1.22,1.04
45.2720,0.08,0.14,-0.99,3.54,1.16,0.98
45.2920,0.09,0.14,-0.99,3.60,1.22,1.22
45.3050,0.08,0.14,-0.99,3.36,1.16,1.40
45.3210,0.08,0.13,-0.98,3.23,1.40,1.71
45.3370,0.07,0.13,-0.98,3.23,1.46,1.71
45.3540,0.07,0.13,-0.99,3.60,1.22,1.34
45.3710,0.07,0.13,-0.99,3.60,1.10,1.28
45.3870,0.08,0.13,-0.99,3.54,1.28,1.16
45.4020,0.08,0.14,-0.99,3.54,1.10,1.53
45.4040,0.08,0.13,-0.99,3.42,1.28,1.59
45.4330,0.08,0.13,-0.99,3.48,1.40,1.53
45.4490,0.08,0.13,-0.99,3.42,1.34,1.46
45.4540,0.07,0.13,-0.99,3.60,1.22,1.28
45.4710,0.07,0.13,-0.98,3.36,1.34,1.10
45.4920,0.07,0.14,-0.99,3.42,1.22,1.28
45.5100,0.07,0.14,-0.99,3.42,1.10,1.34
45.5270,0.08,0.13,-0.99,3.30,1.28,1.22
45.5430,0.08,0.13,-0.98,3.60,0.92,1.04
45.5590,0.08,0.13,-0.98,3.54,1.40,1.04
45.5750,0.08,0.13,-0.99,3.48,1.40,1.10
45.5900,0.07,0.14,-0.99,3.36,1.40,1.28
45.6060,0.08,0.13,-0.99,3.36,1.34,1.16
45.6210,0.08,0.13,-0.98,3.30,1.59,1.28
45.6380,0.07,0.13,-0.99,3.36,1.40,1.34
45.6530,0.07,0.13,-0.99,3.60,1.34,1.22
45.6680,0.08,0.13,-0.99,3.48,1.53,1.34
45.6840,0.08,0.13,-0.99,3.42,1.53,1.34
45.6940,0.08,0.13,-0.99,3.48,1.28,1.34
45.7090,0.08,0.13,-0.99,3.42,1.10,1.65
45.7300,0.07,0.13,-0.99,3.42,1.59,1.77
45.7450,0.07,0.13,-0.99,3.54,1.22,1.46
45.7480,0.07,0.13,-0.99,3.60,1.53,1.40
45.7640,0.08,0.13,-0.99,3.42,0.98,1.34
45.7860,0.08,0.13,-0.99,3.36,1.16,1.59
45.8050,0.08,0.13,-0.99,3.30,1.16,1.65
45.8210,0.08,0.13,-0.99,3.42,0.98,1.71
45.8360,0.08,0.13,-0.99,3.72,1.34,1.71
45.8530,0.07,0.13,-0.98,3.48,1.28,1.59
45.8540,0.07,0.14,-0.99,3.60,1.40,1.53
45.8850,0.08,0.13,-0.98,3.48,1.34,1.53
45.8920,0.08,0.13,-0.99,3.60,1.10,1.53
45.9030,0.07,0.13,-0.99,3.66,1.22,1.71
45.9210,0.07,0.13,-0.99,3.48,1.28,1.46
45.9470,0.07,0.13,-0.99,3.54,1.22,1.53
45.9550,0.08,0.13,-0.98,3.42,1.16,1.46
45.9700,0.07,0.13,-0.99,3.36,1.59,1.59
45.9930,0.07,0.13,-0.99,3.42,1.59,1.83
46.0090,0.07,0.13,-0.99,3.48,1.40,1.89
46.0230,0.07,0.13,-0.99,3.60,1.40,1.71
46.0290,0.07,0.14,-0.99,3.42,1.28,1.53
46.0450,0.07,0.14,-0.99,3.23,1.40,1.46
46.0660,0.07,0.13,-0.98,3.48,0.92,1.53
46.0840,0.07,0.13,-0.99,3.54,1.28,1.83
46.0920,0.07,0.13,-0.98,3.48,1.28,1.53
46.1000,0.07,0.14,-0.99,3.42,1.04,1.34
46.1170,0.07,0.13,-0.99,3.60,1.22,1.34
46.1340,0.08,0.14,-0.99,3.42,0.98,1.22
46.1510,0.07,0.13,-0.99,3.42,1.46,1.40
46.1680,0.08,0.13,-0.99,3.48,1.16,1.40
46.1890,0.08,0.13,-0.99,3.42,1.34,1.40
46.2010,0.07,0.13,-0.99,3.60,1.40,1.46
46.2160,0.07,0.13,-0.99,3.78,1.40,1.46
46.2370,0.08,0.14,-0.98,3.23,1.28,1.40
46.2400,0.08,0.14,-0.99,3.36,1.22,1.77
46.2690,0.08,0.13,-0.99,3.23,1.59,1.95
46.2730,0.07,0.13,-0.99,3.54,1.46,1.71
46.3000,0.07,0.13,-0.99,3.54,1.59,1.34
46.3060,0.07,0.14,-0.99,3.36,1.34,1.46
46.3290,0.08,0.14,-0.99,3.30,1.04,1.34
46.3390,0.07,0.13,-0.98,3.48,1.10,1.46
46.3540,0.08,0.13,-0.99,3.42,1.34,1.71
46.3700,0.08,0.13,-0.98,3.48,1.16,1.65
46.3810,0.08,0.14,-0.99,3.42,1.16,1.65
46.3970,0.08,0.13,-0.99,3.36,1.83,1.59
46.4140,0.08,0.13,-0.99,3.30,1.53,1.65
46.4300,0.08,0.13,-0.99,3.66,1.16,1.65
46.4470,0.08,0.13,-0.99,3.42,0.79,1.83
46.4630,0.08,0.13,-0.99,3.54,1.10,1.77
46.4790,0.08,0.13,-0.99,3.36,1.40,1.83
46.4960,0.08,0.13,-0.99,3.17,1.40,1.65
46.5110,0.07,0.13,-0.99,3.17,1.04,1.59
46.5270,0.07,0.14,-0.99,3.23,1.10,1.71
46.5430,0.07,0.14,-0.98,3.30,1.59,1.83
46.5570,0.07,0.13,-0.99,3.48,1.22,1.77
46.5720,0.07,0.13,-0.99,3.48,1.22,1.95
46.5870,0.07,0.13,-0.99,3.48,1.28,1.71
46.6020,0.08,0.13,-0.99,3.42,1.34,1.46
46.6130,0.08,0.13,-0.98,3.30,1.40,1.40
46.6300,0.07,0.13,-0.99,3.42,1.34,1.59
46.6480,0.08,0.13,-0.98,3.54,0.98,1.59
46.6630,0.07,0.13,-0.99,3.48,1.59,1.53
46.6650,0.08,0.14,-0.99,3.42,1.22,1.59
46.6940,0.08,0.13,-0.99,3.42,1.53,1.77
46.7090,0.08,0.13,-0.99,3.36,1.16,1.71
46.7230,0.08,0.13,-0.99,3.42,1.22,1.59
46.7390,0.08,0.13,-0.99,3.36,1.34,1.46
46.7530,0.07,0.13,-0.99,3.48,1.22,1.65
46.7640,0.08,0.13,-0.99,3.42,1.53,1.59
46.7810,0.07,0.14,-0.99,3.05,1.65,1.71
46.7970,0.08,0.13,-0.98,3.42,0.98,1.83
46.8130,0.07,0.13,-0.99,3.36,1.22,1.83
46.8290,0.07,0.13,-0.99,3.42,1.28,1.59
46.8460,0.07,0.13,-0.99,3.36,1.46,1.65
46.8620,0.08,0.13,-0.99,3.30,1.34,1.53
46.8790,0.07,0.13,-0.99,3.17,1.46,1.59
46.8950,0.07,0.13,-0.99,3.54,1.04,1.71
46.9110,0.08,0.13,-0.99,3.54,1.10,1.71
46.9270,0.08,0.13,-0.99,3.60,1.34,1.71
46.9310,0.08,0.13,-0.99,3.54,1.40,1.59
46.9590,0.08,0.13,-0.99,3.23,1.16,1.34
46.9650,0.08,0.13,-0.99,3.48,0.98,1.34
46.9800,0.08,0.13,-0.99,3.60,0.79,1.22
47.0030,0.08,0.13,-0.99,3.48,1.10,1.53
47.0190,0.08,0.13,-0.99,3.60,1.34,1.46
47.0210,0.08,0.13,-0.99,3.48,0.92,1.46
47.0370,0.07,0.13,-0.99,3.48,1.53,1.46
47.0650,0.07,0.13,-0.99,3.60,1.40,1.40
47.0710,0.07,0.13,-0.99,3.54,1.46,1.53
47.0930,0.08,0.13,-0.99,3.54,1.65,1.34
47.1030,0.07,0.13,-0.99,3.42,1.59,1.34
47.1260,0.08,0.13,-0.99,3.60,1.40,1.28
47.1410,0.07,0.13,-0.99,3.60,1.34,1.40
47.1570,0.07,0.13,-0.99,3.54,1.34,1.34
47.1610,0.07,0.13,-0.99,3.42,1.28,1.22
47.1760,0.07,0.13,-0.98,3.36,1.04,1.10
47.1990,0.08,0.13,-0.99,3.54,1.40,1.28
47.2160,0.08,0.14,-0.99,3.66,1.59,1.53
47.2170,0.08,0.13,-0.99,3.42,1.22,1.53
47.2340,0.08,0.14,-0.98,3.54,1.28,1.46
47.2510,0.07,0.13,-0.99,3.48,1.16,1.53
47.2670,0.08,0.14,-0.98,3.42,1.22,1.59
47.2930,0.07,0.13,-0.99,3.23,1.16,1.65
47.3080,0.08,0.13,-0.98,3.60,0.67,1.65
47.3240,0.07,0.13,-0.99,3.42,1.34,1.83
47.3390,0.07,0.13,-0.99,3.36,1.16,1.59
47.3550,0.08,0.13,-0.99,3.36,1.46,1.40
47.3700,0.07,0.13,-0.99,3.30,1.16,1.46
47.3750,0.08,0.13,-0.99,3.36,1.04,1.46
47.4020,0.08,0.13,-0.99,3.23,0.67,1.65
47.4170,0.08,0.13,-0.99,3.54,1.04,1.71
47.4340,0.07,0.14,-0.99,3.54,0.98,1.53
47.4490,0.08,0.13,-0.99,3.36,0.85,1.53
47.4620,0.07,0.13,-0.99,3.48,1.16,1.46
47.4740,0.07,0.13,-0.99,3.36,1.22,1.59
47.4930,0.07,0.13,-0.99,3.54,0.98,1.53
47.5060,0.07,0.13,-0.99,3.36,1.46,1.59
47.5240,0.07,0.14,-0.99,3.17,1.46,1.40
47.5390,0.07,0.13,-0.99,3.54,1.28,1.28
47.5550,0.08,0.14,-0.99,3.60,1.40,1.22
47.5720,0.07,0.14,-0.99,3.36,1.10,1.04
47.5860,0.07,0.14,-0.98,3.30,1.16,1.10
47.5930,0.08,0.13,-0.99,3.42,1.04,1.22
47.6060,0.07,0.13,-0.99,3.72,0.98,1.16
47.6280,0.07,0.13,-0.99,3.48,1.34,1.16
47.6450,0.07,0.13,-0.99,3.36,1.46,1.22
47.6610,0.08,0.13,-0.99,3.42,1.22,1.28
47.6790,0.07,0.13,-0.99,3.17,1.46,1.46
47.6940,0.08,0.13,-0.99,3.42,1.22,1.46
47.6960,0.08,0.13,-0.99,3.60,1.53,1.59
47.7260,0.07,0.13,-0.99,3.48,1.28,1.53
47.7410,0.08,0.13,-0.99,3.30,1.40,1.40
47.7570,0.07,0.13,-0.99,3.42,1.22,1.53
47.7710,0.08,0.13,-0.99,3.60,1.28,1.53
47.7780,0.08,0.13,-0.99,3.30,1.34,1.59
