Timestamp, AccX, AccY, AccZ, GyroX, GyroY, GyroZ
0.0110,0.08,0.13,-0.99,3.36,0.37,1.22
0.0260,0.08,0.13,-0.98,3.11,0.31,1.16
0.0420,0.08,0.13,-0.99,3.54,0.24,1.16
0.0560,0.08,0.13,-0.99,3.54,0.55,1.34
0.0660,0.08,0.13,-0.99,3.60,0.31,1.22
0.0830,0.08,0.13,-0.99,3.91,0.18,1.28
0.1000,0.08,0.13,-0.99,3.60,0.43,1.34
0.1170,0.08,0.13,-0.99,3.72,0.55,1.34
0.1320,0.08,0.13,-0.99,3.91,0.67,1.40
0.1480,0.08,0.13,-0.99,3.72,0.73,1.40
0.1630,0.08,0.13,-0.99,3.48,0.43,1.59
0.1670,0.08,0.14,-0.99,3.91,0.00,1.22
0.1840,0.08,0.14,-0.98,3.54,0.61,1.59
0.2070,0.12,0.15,-0.98,3.66,0.31,2.26
0.2170,0.08,0.16,-0.98,2.69,-0.79,9.77
0.2380,0.11,0.16,-0.98,2.50,-0.55,12.45
0.2490,0.12,0.18,-0.98,2.38,-1.53,14.89
0.2670,0.13,0.18,-0.97,2.75,-2.69,18.98
0.2830,0.11,0.17,-0.99,2.44,-2.32,17.33
0.2980,0.12,0.18,-0.97,2.20,-2.01,16.24
0.3130,0.08,0.15,-0.98,2.99,-1.59,14.59
0.3290,0.05,0.13,-0.99,2.99,-0.73,10.31
0.3440,0.03,0.13,-0.99,2.69,-0.49,8.97
0.3590,0.00,0.11,-1.00,2.69,-0.37,9.89
0.3750,-0.01,0.02,-1.01,3.05,-0.55,8.85
0.3830,0.06,0.03,-1.00,3.11,0.18,4.52
0.4000,-0.01,0.10,-1.00,3.54,0.79,1.16
0.4160,-0.03,0.06,-1.00,3.42,1.34,1.28
0.4340,0.03,0.05,-1.00,3.30,1.46,0.98
0.4500,0.08,0.05,-1.00,3.23,1.95,-3.36
0.4660,0.13,0.10,-0.99,4.15,2.75,-11.11
0.4820,0.11,0.16,-0.98,4.33,3.48,-14.34
0.4980,0.07,0.16,-0.98,4.46,2.50,-10.01
0.5140,0.11,0.19,-0.98,4.03,1.89,-5.98
0.5290,0.10,0.18,-0.98,3.97,1.28,-4.70
0.5460,0.10,0.17,-0.98,3.91,1.40,-4.27
0.5500,0.09,0.16,-0.98,3.85,1.04,-2.99
0.5650,0.07,0.14,-0.99,3.54,0.79,-0.31
0.5880,0.06,0.12,-0.99,3.78,0.24,0.98
0.6040,0.05,0.10,-0.99,4.09,1.22,-0.49
0.6210,0.05,0.06,-1.00,4.09,1.34,-2.20
0.6370,0.05,0.05,-1.00,4.52,1.65,-4.39
0.6530,0.10,0.15,-0.98,4.39,2.75,-9.09
0.6540,0.10,0.19,-0.98,4.39,2.38,-7.20
0.6840,0.11,0.20,-0.98,3.66,1.04,-1.95
0.6990,0.11,0.16,-0.98,3.05,0.31,2.81
0.7100,0.10,0.13,-0.98,2.38,0.00,3.91
0.7200,0.09,0.12,-0.98,2.50,-0.06,4.27
0.7410,0.08,0.13,-0.99,3.60,0.61,2.08
0.7580,0.08,0.13,-0.99,3.97,0.43,1.34
0.7760,0.07,0.14,-0.98,3.54,0.49,1.46
0.7920,0.07,0.15,-0.99,3.23,0.24,3.36
0.8080,0.09,0.16,-0.98,3.54,-0.06,5.07
0.8240,0.07,0.13,-0.98,3.48,0.00,4.39
0.8400,0.08,0.12,-0.99,3.66,0.12,3.42
0.8550,0.08,0.11,-0.99,3.78,0.49,1.59
0.8720,0.08,0.13,-0.96,3.91,0.67,1.10
0.8750,0.08,0.13,-0.99,3.66,0.79,1.22
0.8900,0.09,0.16,-0.98,3.48,0.37,1.28
0.9170,0.08,0.14,-0.99,3.91,0.49,0.73
0.9290,0.08,0.12,-0.99,3.85,0.18,1.28
0.9440,0.08,0.13,-0.99,3.54,0.55,0.37
0.9620,0.08,0.12,-0.99,3.91,0.79,0.12
0.9780,0.08,0.14,-0.99,3.66,0.37,0.43
0.9810,0.08,0.15,-0.98,3.48,0.31,1.22
0.9970,0.08,0.14,-0.98,3.30,0.00,3.36
1.0190,0.08,0.13,-0.98,3.30,-0.31,3.60
1.0350,0.07,0.11,-0.99,3.78,-0.06,2.01
1.0520,0.07,0.12,-0.99,3.78,0.67,0.73
1.0680,0.07,0.12,-0.99,3.72,0.61,0.85
1.0860,0.08,0.14,-0.99,3.66,0.31,1.22
1.1020,0.08,0.14,-0.99,3.48,0.18,1.46
1.1100,0.07,0.13,-0.99,3.54,-0.06,2.32
1.1190,0.07,0.11,-0.99,3.48,-0.06,2.62
1.1370,0.08,0.13,-0.99,3.54,0.24,1.40
1.1650,0.08,0.13,-0.99,3.78,0.49,1.34
1.1800,0.08,0.13,-0.99,3.72,0.24,1.16
1.1900,0.08,0.13,-0.99,3.48,0.49,1.28
1.2100,0.08,0.13,-0.99,3.60,0.55,1.28
1.2240,0.08,0.13,-0.99,3.66,0.06,1.28
1.2400,0.08,0.13,-0.99,3.66,0.24,1.34
1.2560,0.08,0.13,-0.99,3.60,0.73,1.53
1.2730,0.08,0.13,-0.99,3.66,0.85,1.53
1.2890,0.08,0.13,-0.99,3.66,0.49,1.46
1.3050,0.08,0.13,-0.99,3.30,0.43,1.40
1.3200,0.08,0.13,-0.98,3.48,0.73,1.46
1.3360,0.08,0.14,-0.99,3.78,0.31,0.98
1.3520,0.07,0.13,-0.99,3.72,0.06,1.22
1.3580,0.08,0.13,-0.99,3.78,0.43,1.46
1.3730,0.08,0.13,-0.99,3.72,0.31,1.59
1.3970,0.08,0.13,-0.99,3.54,0.55,1.59
1.4140,0.08,0.13,-0.99,3.60,0.49,1.40
1.4300,0.07,0.13,-0.99,3.72,0.43,1.40
1.4460,0.08,0.13,-0.99,3.66,0.79,1.40
1.4620,0.08,0.13,-0.99,3.72,0.37,1.40
1.4780,0.08,0.13,-0.99,3.54,0.55,1.40
1.4930,0.08,0.13,-0.99,3.78,0.49,1.34
1.5090,0.08,0.13,-0.99,3.60,0.55,1.40
1.5240,0.08,0.13,-0.99,3.78,0.37,1.40
1.5400,0.08,0.13,-0.99,3.54,0.37,1.46
1.5560,0.08,0.13,-0.99,3.54,0.55,1.40
1.5620,0.08,0.13,-0.99,3.66,0.85,1.46
1.5780,0.08,0.13,-0.99,3.54,0.61,1.40
1.6010,0.08,0.13,-0.99,3.36,0.92,1.34
1.6170,0.08,0.13,-0.99,3.72,0.49,1.40
1.6320,0.08,0.13,-0.98,3.66,0.79,1.34
1.6480,0.08,0.13,-0.99,3.54,0.61,1.40
1.6630,0.08,0.13,-0.99,3.66,0.37,1.40
1.6780,0.08,0.13,-0.99,3.72,0.43,1.40
1.6850,0.08,0.13,-0.99,3.42,0.61,1.53
1.7000,0.08,0.13,-0.99,3.54,0.31,1.34
1.7230,0.08,0.13,-0.99,3.23,0.55,1.34
1.7400,0.08,0.13,-0.99,3.42,0.49,1.34
1.7560,0.08,0.13,-0.99,3.60,0.55,1.40
1.7720,0.08,0.13,-0.98,3.66,0.31,1.40
1.7880,0.08,0.13,-0.99,3.54,0.55,1.46
1.8050,0.08,0.13,-0.99,3.72,0.85,1.53
1.8200,0.08,0.13,-0.99,3.48,0.73,1.46
1.8360,0.08,0.13,-0.98,3.78,0.37,1.34
1.8520,0.08,0.13,-0.99,3.60,0.43,1.40
1.8570,0.08,0.13,-0.99,3.54,0.37,1.46
1.8720,0.08,0.13,-0.99,3.72,0.24,1.34
1.8940,0.08,0.13,-0.99,3.72,0.67,1.34
1.9100,0.08,0.13,-0.99,3.48,0.43,1.34
1.9270,0.08,0.13,-0.99,3.72,0.18,1.40
1.9430,0.08,0.13,-0.99,3.42,0.49,1.46
1.9610,0.08,0.13,-0.99,3.60,0.67,1.53
1.9760,0.08,0.13,-0.99,3.54,0.61,1.40
1.9900,0.08,0.13,-0.99,3.48,0.12,1.34
2.0070,0.08,0.13,-0.99,3.54,0.31,1.46
2.0110,0.08,0.13,-0.99,3.60,0.55,1.46
2.0260,0.08,0.13,-0.99,3.72,0.18,1.40
2.0530,0.08,0.13,-0.99,3.48,-0.12,1.40
2.0640,0.08,0.13,-0.99,3.48,0.12,1.40
2.0810,0.08,0.13,-0.99,3.48,0.31,1.46
2.0980,0.08,0.13,-0.99,3.66,0.37,1.34
2.1140,0.08,0.13,-0.99,3.60,0.73,1.40
2.1300,0.08,0.13,-0.99,3.60,0.24,1.40
2.1460,0.08,0.13,-0.99,3.54,0.43,1.53
2.1630,0.08,0.13,-0.99,3.48,0.43,1.28
2.1790,0.08,0.13,-0.99,3.72,0.61,1.40
2.1960,0.08,0.13,-0.99,3.72,0.55,1.59
2.2120,0.08,0.13,-0.99,3.54,0.49,1.34
2.2140,0.08,0.13,-0.99,3.54,0.37,1.40
2.2300,0.08,0.13,-0.99,3.60,0.55,1.34
2.2520,0.08,0.13,-0.99,3.66,0.43,1.40
2.2690,0.08,0.13,-0.99,3.60,0.31,1.65
2.2850,0.08,0.13,-0.99,3.60,0.49,1.46
2.3020,0.08,0.13,-0.99,3.66,0.55,1.46
2.3200,0.08,0.13,-0.99,3.60,0.31,1.34
2.3350,0.08,0.13,-0.99,3.48,0.49,1.46
2.3510,0.08,0.13,-0.99,3.60,0.49,1.28
2.3670,0.08,0.13,-0.99,3.60,0.55,1.40
2.3820,0.08,0.13,-0.99,3.60,0.79,1.40
2.3970,0.08,0.13,-0.99,3.72,0.55,1.40
2.4110,0.08,0.13,-0.99,3.78,0.49,1.40
2.4180,0.08,0.13,-0.99,3.78,0.67,1.46
2.4390,0.08,0.13,-0.99,3.54,0.49,1.46
2.4560,0.08,0.13,-0.99,3.48,0.85,1.40
2.4730,0.08,0.13,-0.99,3.48,0.43,1.28
2.4890,0.08,0.13,-0.99,3.48,0.18,1.28
2.5050,0.08,0.13,-0.99,3.42,0.43,1.40
2.5210,0.08,0.13,-0.99,3.60,0.12,1.28
2.5370,0.08,0.13,-0.99,3.60,0.06,1.28
2.5530,0.08,0.13,-0.99,3.66,0.37,1.46
2.5690,0.08,0.13,-0.98,3.54,0.43,1.34
2.5860,0.08,0.13,-0.99,3.72,0.06,1.28
2.6010,0.08,0.13,-0.99,3.60,0.31,1.10
2.6160,0.08,0.13,-0.98,3.60,0.85,1.46
2.6230,0.08,0.13,-0.99,3.72,0.67,1.46
2.6390,0.08,0.13,-0.99,3.60,0.24,1.46
2.6560,0.08,0.13,-0.99,3.66,0.49,1.34
2.6720,0.08,0.13,-0.99,3.66,0.31,1.34
2.6890,0.08,0.13,-0.99,3.54,0.12,1.34
2.7070,0.08,0.13,-0.99,3.78,0.00,1.46
2.7110,0.08,0.13,-0.99,3.60,0.37,1.34
2.7370,0.08,0.13,-0.99,3.60,0.12,1.34
2.7380,0.08,0.13,-0.99,3.42,0.24,1.53
2.7680,0.08,0.13,-0.99,3.72,0.55,1.40
2.7720,0.08,0.13,-0.99,3.48,0.24,1.28
2.7990,0.08,0.13,-0.99,3.60,0.55,1.46
2.8110,0.08,0.13,-0.99,3.66,0.43,1.65
2.8220,0.08,0.13,-0.99,3.54,0.85,1.40
2.8420,0.08,0.13,-0.99,3.60,0.49,1.34
2.8580,0.08,0.13,-0.99,3.72,0.37,1.40
2.8740,0.08,0.13,-0.99,3.48,0.31,1.40
2.8900,0.08,0.13,-0.99,3.42,0.31,1.28
2.9060,0.08,0.13,-0.99,3.66,0.73,1.40
2.9220,0.08,0.13,-0.99,3.60,0.31,1.46
2.9370,0.08,0.13,-0.99,3.54,0.24,1.34
2.9520,0.08,0.13,-0.99,3.60,0.31,1.40
2.9670,0.08,0.13,-0.99,3.72,0.43,1.40
2.9820,0.08,0.13,-0.99,3.72,0.31,1.46
2.9920,0.08,0.13,-0.99,3.54,0.92,1.53
3.0110,0.08,0.13,-0.99,3.54,0.31,1.40
3.0250,0.08,0.13,-0.99,3.66,0.18,1.40
3.0420,0.08,0.13,-0.99,3.54,0.31,1.40
3.0570,0.08,0.13,-0.99,3.54,0.24,1.40
3.0720,0.08,0.13,-0.99,3.78,0.49,1.34
3.0870,0.08,0.13,-0.99,3.60,0.43,1.22
3.1010,0.08,0.13,-0.99,3.60,0.06,1.28
3.1170,0.08,0.13,-0.99,3.54,0.37,1.46
3.1320,0.08,0.13,-0.99,3.78,0.24,1.46
3.1420,0.08,0.13,-0.99,3.66,0.12,1.34
3.1590,0.08,0.13,-0.99,3.54,0.31,1.46
3.1760,0.08,0.13,-0.99,3.66,0.37,1.46
3.1920,0.08,0.13,-0.99,3.66,0.49,1.46
3.2110,0.08,0.13,-0.99,3.60,0.18,1.28
3.2270,0.08,0.13,-0.99,3.60,0.43,1.40
3.2430,0.08,0.13,-0.99,3.54,0.37,1.40
3.2580,0.08,0.13,-0.99,3.60,0.49,1.40
3.2730,0.08,0.13,-0.99,3.78,0.06,1.22
3.2880,0.08,0.13,-0.99,3.36,0.31,1.46
3.3030,0.08,0.13,-0.99,3.36,0.67,1.40
3.3190,0.11,0.18,-0.97,3.42,0.49,1.53
3.3350,0.06,0.12,-0.99,3.66,0.18,2.62
3.3500,0.08,0.13,-0.99,3.23,0.43,3.11
3.3650,0.07,0.11,-0.99,3.66,0.37,2.20
3.3750,0.07,0.12,-0.99,3.60,0.67,1.83
3.3930,0.07,0.13,-0.99,3.78,0.43,1.89
3.4100,0.08,0.13,-0.99,3.54,0.55,1.71
3.4120,0.08,0.14,-0.99,3.48,0.31,1.83
3.4410,0.08,0.14,-0.99,3.48,0.18,2.38
3.4570,0.08,0.13,-0.99,3.48,0.24,2.50
3.4590,0.08,0.13,-0.99,3.54,0.31,2.75
3.4740,0.08,0.14,-0.99,3.60,0.24,2.50
3.5030,0.08,0.14,-0.99,3.48,0.00,2.69
3.5130,0.08,0.13,-0.99,3.42,0.49,2.93
3.5290,0.08,0.14,-0.99,3.48,0.00,2.69
3.5470,0.08,0.13,-0.99,3.54,0.18,3.66
3.5630,0.08,0.12,-0.99,3.42,0.00,3.05
3.5800,0.08,0.13,-0.99,3.36,0.37,2.62
3.5970,0.07,0.12,-0.99,3.54,0.24,2.50
3.6130,0.08,0.12,-0.99,3.60,0.49,2.01
3.6290,0.08,0.13,-0.99,3.54,0.12,1.71
3.6450,0.08,0.13,-0.99,3.48,0.61,1.65
3.6600,0.08,0.13,-0.99,3.36,0.49,1.34
3.6760,0.08,0.13,-0.99,3.72,0.49,1.77
3.6910,0.08,0.14,-0.99,3.66,0.18,1.95
3.7060,0.08,0.14,-0.99,3.66,0.24,2.32
3.7130,0.08,0.14,-0.98,3.36,0.24,2.38
3.7290,0.08,0.14,-0.99,3.48,0.24,2.62
3.7510,0.08,0.14,-0.99,3.54,0.12,3.17
3.7680,0.08,0.13,-0.99,3.42,0.06,3.78
3.7840,0.08,0.13,-0.99,3.48,-0.18,3.85
3.8000,0.07,0.13,-0.99,3.48,0.12,3.30
3.8120,0.08,0.13,-0.99,3.54,0.55,2.75
3.8320,0.08,0.13,-0.99,3.30,0.61,2.56
3.8340,0.08,0.12,-0.99,3.36,0.49,1.83
3.8500,0.08,0.13,-0.99,3.60,0.43,1.46
3.8720,0.08,0.14,-0.99,3.48,0.79,1.59
3.8890,0.08,0.14,-0.99,3.48,0.73,1.95
3.9070,0.08,0.13,-0.99,3.42,0.55,2.08
3.9220,0.08,0.13,-0.99,3.42,0.67,2.08
3.9390,0.08,0.13,-0.99,3.54,0.73,1.89
3.9540,0.08,0.13,-0.99,3.48,0.55,1.77
3.9560,0.08,0.13,-0.99,3.60,0.37,1.95
3.9860,0.08,0.13,-0.99,3.42,0.37,2.01
4.0020,0.08,0.13,-0.99,3.42,0.18,1.95
4.0180,0.08,0.13,-0.99,3.60,0.49,2.08
4.0330,0.08,0.14,-0.99,3.78,0.43,2.14
4.0490,0.08,0.13,-0.99,3.54,0.55,2.38
4.0570,0.08,0.13,-0.99,3.48,0.06,2.75
4.0720,0.08,0.13,-0.99,3.42,0.06,2.56
4.0930,0.08,0.13,-0.99,3.36,0.31,2.50
4.1110,0.08,0.13,-0.99,3.42,0.31,2.44
4.1260,0.08,0.14,-0.99,3.42,0.18,2.56
4.1280,0.07,0.13,-0.99,3.42,0.49,3.05
4.1560,0.08,0.13,-0.99,3.42,0.24,2.87
4.1590,0.08,0.13,-0.99,3.60,0.24,2.44
4.1750,0.08,0.13,-0.99,3.42,0.00,2.38
4.2030,0.08,0.13,-0.99,3.48,0.00,2.26
4.2130,0.08,0.14,-0.99,3.42,0.55,2.14
4.2300,0.08,0.13,-0.99,3.30,0.49,2.14
4.2470,0.08,0.14,-0.99,3.48,0.31,2.44
4.2630,0.08,0.14,-0.99,3.48,0.49,2.62
4.2790,0.08,0.13,-0.99,3.60,0.43,2.93
4.2950,0.08,0.13,-0.99,3.66,0.37,3.11
4.3110,0.08,0.13,-0.99,3.66,0.31,2.62
4.3270,0.08,0.13,-0.99,3.36,0.61,2.62
4.3430,0.08,0.13,-0.99,3.60,0.37,2.56
4.3460,0.08,0.13,-0.99,3.30,0.55,2.26
4.3620,0.08,0.13,-0.99,3.42,0.31,2.38
4.3830,0.08,0.13,-0.99,3.54,0.49,2.44
4.4010,0.08,0.13,-0.99,3.42,0.12,2.56
4.4170,0.08,0.13,-0.99,3.66,0.73,2.38
4.4330,0.08,0.14,-0.99,3.23,0.55,2.62
4.4470,0.08,0.13,-0.99,3.42,0.73,2.87
4.4490,0.08,0.13,-0.99,3.42,0.31,3.23
4.4670,0.08,0.13,-0.99,3.42,0.49,2.99
4.4930,0.08,0.13,-0.99,3.54,0.61,2.50
4.5080,0.08,0.13,-0.99,3.60,0.67,2.38
4.5160,0.08,0.13,-0.99,3.60,0.49,2.32
4.5410,0.08,0.14,-0.99,3.60,0.73,2.32
4.5500,0.08,0.14,-0.99,3.30,0.24,2.93
4.5670,0.08,0.13,-0.99,3.42,0.00,3.60
4.5830,0.08,0.13,-0.99,3.42,0.12,3.30
4.6010,0.08,0.15,-0.99,3.48,0.24,2.81
4.6170,0.08,0.13,-0.99,3.36,0.12,2.50
4.6330,0.07,0.14,-0.99,3.36,0.12,2.38
4.6490,0.07,0.13,-0.99,3.48,0.00,2.81
4.6510,0.08,0.14,-0.99,3.23,0.49,3.42
4.6820,0.08,0.13,-0.99,3.48,0.24,3.42
4.6840,0.08,0.13,-0.99,3.66,0.12,2.81
4.7140,0.08,0.13,-0.99,3.54,0.24,2.08
4.7170,0.08,0.13,-0.99,3.48,0.24,2.14
4.7330,0.08,0.13,-0.99,3.78,0.79,2.56
4.7580,0.08,0.13,-0.99,3.66,0.37,2.50
4.7740,0.08,0.13,-0.99,3.36,0.55,2.75
4.7900,0.08,0.13,-0.99,3.60,0.37,2.38
4.8060,0.08,0.13,-0.99,3.60,0.18,1.89
4.8210,0.07,0.14,-0.99,3.54,0.55,1.83
4.8240,0.08,0.14,-0.99,3.48,0.43,2.56
4.8400,0.08,0.13,-0.99,3.60,-0.31,3.05
4.8670,0.08,0.13,-0.99,3.36,0.18,3.23
4.8830,0.08,0.12,-0.99,3.42,0.31,2.93
4.8950,0.08,0.13,-0.99,3.66,0.18,1.83
4.9120,0.08,0.13,-0.99,3.60,0.61,1.83
4.9280,0.08,0.13,-0.99,3.72,0.31,1.71
4.9450,0.07,0.14,-0.99,3.54,0.24,2.14
4.9610,0.07,0.13,-0.99,3.60,0.12,2.69
4.9780,0.08,0.13,-0.99,3.42,0.31,2.87
4.9940,0.08,0.13,-0.99,3.36,0.55,2.38
5.0100,0.08,0.13,-0.99,3.48,0.18,2.38
5.0260,0.08,0.14,-0.99,3.42,0.61,2.81
5.0400,0.08,0.13,-0.99,3.54,0.18,3.05
5.0570,0.08,0.13,-0.99,3.48,0.24,2.56
5.0720,0.08,0.13,-0.99,3.60,0.43,2.26
5.0860,0.08,0.14,-0.99,3.54,0.06,2.26
5.1020,0.08,0.14,-0.99,3.72,0.24,2.87
5.1170,0.08,0.13,-0.99,3.54,0.06,2.81
5.1290,0.08,0.13,-0.99,3.48,0.31,2.81
5.1450,0.08,0.13,-0.99,3.60,15.50,2.81
5.1610,0.08,0.13,-0.99,3.42,0.24,2.87
5.1780,0.08,0.13,-0.99,3.48,0.18,2.69
5.1950,0.08,0.13,-0.99,3.66,0.43,2.20
5.2100,0.08,0.14,-0.99,3.48,0.79,2.50
5.2260,0.08,0.13,-0.99,3.42,0.06,2.87
5.2280,0.08,0.13,-0.99,3.23,0.31,2.26
5.2440,0.08,0.14,-0.99,3.54,0.18,2.38
5.2670,0.08,0.13,-0.99,3.54,-0.06,2.69
5.2840,0.08,0.13,-0.99,3.42,0.61,2.75
5.3000,0.08,0.13,-0.99,3.48,0.37,2.50
5.3170,0.08,0.13,-0.99,3.60,0.55,2.50
5.3350,0.07,0.13,-0.99,3.36,0.12,2.56
5.3510,0.08,0.13,-0.99,3.54,0.49,2.26
5.3660,0.08,0.13,-0.99,3.48,0.18,2.08
5.3670,0.08,0.13,-0.99,3.54,0.37,2.14
5.3970,0.08,0.13,-0.99,3.48,0.49,2.26
5.4130,0.08,0.13,-0.98,3.66,-0.12,2.26
5.4300,0.08,0.13,-0.99,3.54,0.24,2.56
5.4340,0.08,0.13,-0.99,3.48,0.31,2.50
5.4500,0.07,0.13,-0.99,3.72,0.43,2.01
5.4680,0.08,0.14,-0.99,3.60,0.43,2.14
5.4930,0.08,0.14,-0.99,3.30,0.55,2.62
5.5010,0.07,0.13,-0.99,3.36,0.24,3.11
5.5160,0.08,0.13,-0.99,3.54,0.31,2.93
5.5390,0.08,0.13,-0.99,3.60,0.06,2.56
5.5570,0.08,0.13,-0.99,3.36,0.49,2.38
5.5720,0.08,0.13,-0.99,3.54,0.67,2.26
5.5870,0.08,0.13,-0.99,3.48,0.49,2.38
5.5880,0.08,0.13,-0.99,3.30,-0.06,2.38
5.6190,0.08,0.13,-0.99,3.54,-0.18,2.44
5.6360,0.08,0.13,-0.99,3.72,0.31,2.38
5.6390,0.08,0.13,-0.99,3.54,0.55,2.14
5.6680,0.08,0.13,-0.98,3.60,0.31,2.01
5.6830,0.08,0.13,-0.99,3.42,0.55,2.20
5.6880,0.08,0.13,-0.99,3.48,0.49,2.50
5.7130,0.07,0.13,-0.99,3.48,0.31,2.62
5.7210,0.08,0.12,-0.99,3.36,0.79,2.32
5.7380,0.08,0.13,-0.99,3.54,0.61,2.14
5.7540,0.08,0.13,-0.99,3.48,0.37,2.26
5.7730,0.08,0.14,-0.99,3.60,0.18,1.95
5.7890,0.08,0.13,-0.99,3.60,0.18,2.14
5.8030,0.08,0.13,-0.99,3.42,0.06,2.14
5.8190,0.08,0.13,-0.99,3.42,0.24,2.26
5.8340,0.08,0.13,-0.99,3.48,-0.06,2.50
5.8500,0.08,0.12,-0.99,3.54,0.43,2.14
5.8600,0.08,0.13,-0.99,3.66,0.55,1.71
5.8760,0.08,0.14,-0.99,3.66,0.18,1.65
5.8930,0.08,0.13,-0.99,3.42,0.31,1.59
5.9100,0.08,0.13,-0.99,3.48,0.55,1.77
5.9130,0.08,0.13,-0.99,3.54,0.61,1.95
5.9420,0.08,0.13,-0.99,3.48,0.61,1.95
5.9570,0.08,0.13,-0.99,3.85,0.43,1.71
5.9730,0.08,0.13,-0.99,3.42,0.18,1.77
5.9880,0.08,0.14,-0.99,3.54,0.18,1.71
6.0030,0.08,0.13,-0.99,3.42,0.31,1.95
6.0130,0.08,0.13,-0.99,3.48,0.55,1.83
6.0260,0.08,0.13,-0.99,3.48,0.73,1.83
6.0490,0.07,0.13,-0.99,3.54,0.55,2.08
6.0650,0.08,0.13,-0.99,3.48,0.31,2.08
6.0810,0.08,0.13,-0.99,3.48,0.18,2.14
6.0980,0.08,0.13,-0.99,3.66,0.37,2.20
6.1140,0.08,0.13,-0.99,3.72,0.06,2.50
6.1290,0.08,0.13,-0.99,3.72,0.43,2.20
6.1330,0.08,0.13,-0.99,3.60,0.37,2.14
6.1610,0.08,0.13,-0.99,3.42,0.49,2.56
6.1770,0.08,0.13,-0.99,3.60,0.49,2.56
6.1920,0.08,0.13,-0.99,3.72,0.61,2.26
6.2080,0.08,0.13,-0.99,3.48,0.18,1.83
6.2230,0.08,0.13,-0.99,3.60,0.37,1.89
6.2320,0.08,0.13,-0.99,3.54,0.61,1.77
6.2480,0.08,0.14,-0.99,3.48,0.31,1.83
6.2690,0.07,0.13,-0.99,3.54,0.12,2.08
6.2850,0.08,0.13,-0.99,3.72,0.49,2.08
6.2860,0.08,0.13,-0.99,3.60,0.43,2.20
6.3170,0.08,0.13,-0.99,3.66,0.00,2.08
6.3340,0.08,0.13,-0.99,3.60,-0.31,1.89
6.3490,0.08,0.13,-0.99,3.60,0.43,2.20
6.3520,0.08,0.14,-0.99,3.48,0.06,2.01
6.3680,0.08,0.13,-0.99,3.54,0.49,2.14
6.3930,0.08,0.13,-0.99,3.66,0.24,2.01
6.4080,0.08,0.13,-0.99,3.54,0.31,2.08
6.4240,0.08,0.13,-0.99,3.42,0.67,2.01
6.4410,0.08,0.13,-0.99,3.54,0.55,1.95
6.4570,0.08,0.13,-0.99,3.72,0.31,1.89
6.4730,0.08,0.13,-0.99,3.54,0.37,1.83
6.4880,0.07,0.13,-0.99,3.66,0.37,2.26
6.5040,0.07,0.13,-0.99,3.36,0.79,2.75
6.5200,0.08,0.13,-0.99,3.60,0.37,2.87
6.5260,0.08,0.13,-0.99,3.60,0.37,2.93
6.5420,0.08,0.13,-0.99,3.54,0.55,2.87
6.5640,0.08,0.13,-0.99,3.36,0.49,2.87
6.5810,0.08,0.13,-0.99,3.54,0.24,2.32
6.5970,0.08,0.13,-0.99,3.48,0.49,2.14
6.6130,0.08,0.14,-0.99,3.48,0.49,2.50
6.6290,0.07,0.14,-0.99,3.48,0.37,3.05
6.6460,0.07,0.13,-0.99,3.42,0.37,3.60
6.6630,0.08,0.13,-0.99,3.48,0.24,3.54
6.6790,0.08,0.13,-0.99,3.48,0.18,3.36
6.6940,0.08,0.13,-0.99,3.42,0.49,3.48
6.7110,0.08,0.13,-0.99,3.36,0.31,3.54
6.7260,0.08,0.13,-0.99,3.36,0.37,2.69
6.7440,0.08,0.13,-0.99,3.48,0.37,2.20
6.7590,0.08,0.13,-0.99,3.42,0.37,2.56
6.7740,0.08,0.14,-0.99,3.48,0.43,2.99
6.7910,0.08,0.13,-0.99,3.54,0.31,2.99
6.7970,0.08,0.12,-0.99,3.66,0.55,2.38
6.8150,0.08,0.13,-0.99,3.60,0.49,2.14
6.8310,0.08,0.13,-0.99,3.54,0.49,2.26
6.8520,0.08,0.14,-0.99,3.54,0.37,2.20
6.8680,0.08,0.13,-0.99,3.36,0.24,2.62
6.8840,0.08,0.13,-0.99,3.36,0.37,2.93
6.8850,0.08,0.13,-0.99,3.36,0.31,2.38
6.9160,0.08,0.13,-0.99,3.42,0.18,2.44
6.9310,0.07,0.13,-0.99,3.54,-0.12,2.75
6.9470,0.07,0.13,-0.99,3.42,-0.06,3.17
6.9520,0.08,0.13,-0.99,3.54,0.12,3.60
6.9790,0.08,0.13,-0.99,3.48,0.12,2.81
6.9850,0.08,0.13,-0.99,3.42,0.24,2.87
7.0120,0.08,0.13,-0.99,3.54,0.00,2.75
7.0190,0.08,0.13,-0.99,3.54,0.61,3.23
7.0420,0.08,0.12,-0.99,3.30,0.43,2.38
7.0520,0.08,0.13,-0.99,3.36,0.79,2.14
7.0690,0.08,0.13,-0.99,3.42,0.43,1.89
7.0850,0.08,0.14,-0.99,3.48,0.55,1.77
7.1020,0.08,0.14,-0.99,3.72,0.43,2.26
7.1200,0.08,0.13,-0.98,3.48,-0.06,2.87
7.1350,0.08,0.12,-0.99,3.42,0.24,3.05
7.1510,0.08,0.13,-0.99,3.60,0.31,2.69
7.1670,0.08,0.13,-0.99,3.42,0.43,2.50
7.1690,0.08,0.13,-0.99,3.23,-0.06,2.56
7.1860,0.08,0.13,-0.99,3.42,0.18,2.56
7.2150,0.08,0.13,-0.99,3.54,0.31,2.56
7.2310,0.08,0.13,-0.99,3.30,0.12,2.81
7.2470,0.08,0.13,-0.99,3.48,0.49,3.11
7.2630,0.08,0.13,-0.99,3.42,0.12,3.11
7.2790,0.08,0.12,-0.99,3.54,0.12,2.56
7.2850,0.08,0.13,-0.99,3.48,0.61,2.01
7.3030,0.07,0.13,-0.99,3.54,0.49,2.08
7.3190,0.07,0.14,-0.99,3.42,0.37,2.44
7.3410,0.08,0.13,-0.99,3.48,0.24,2.50
7.3530,0.08,0.13,-0.99,3.42,0.55,2.75
7.3680,0.08,0.13,-0.99,3.60,0.24,2.14
7.3870,0.08,0.14,-0.99,3.48,0.43,1.83
7.4030,0.08,0.14,-0.98,3.60,0.24,2.14
7.4190,0.08,0.13,-0.99,3.66,0.37,2.26
7.4340,0.08,0.13,-0.99,3.72,0.12,2.26
7.4490,0.08,0.13,-0.99,3.48,0.31,2.44
7.4580,0.08,0.13,-0.99,3.48,0.49,2.62
7.4740,0.08,0.13,-0.99,3.48,0.79,2.50
7.4970,0.08,0.13,-0.99,3.54,0.12,2.32
7.5120,0.07,0.13,-0.99,3.42,0.12,2.08
7.5280,0.08,0.13,-0.99,3.60,0.31,2.01
7.5440,0.08,0.13,-0.99,3.54,0.06,2.01
7.5610,0.08,0.14,-0.98,3.42,0.37,1.71
7.5760,0.08,0.14,-0.99,3.54,0.43,2.01
7.5790,0.08,0.13,-0.99,3.48,0.00,2.56
7.5950,0.08,0.13,-0.99,3.42,0.06,2.69
7.6170,0.08,0.13,-0.99,3.60,0.12,2.62
7.6330,0.08,0.13,-0.99,3.30,0.24,2.93
7.6510,0.08,0.13,-0.99,3.36,0.49,2.81
7.6670,0.08,0.13,-0.99,3.36,0.18,2.81
7.6830,0.08,0.13,-0.99,3.48,0.00,2.93
7.7000,0.08,0.13,-0.99,3.42,0.12,2.75
7.7160,0.08,0.13,-0.99,3.48,0.31,2.50
7.7170,0.08,0.14,-0.99,3.54,0.00,2.44
7.7480,0.08,0.14,-0.99,3.54,0.18,3.17
7.7640,0.08,0.13,-0.99,3.42,0.06,3.30
7.7670,0.08,0.12,-0.99,3.54,0.61,3.05
7.7840,0.08,0.12,-0.99,3.30,0.24,2.38
7.7990,0.08,0.14,-0.98,3.66,0.06,2.38
7.8260,0.08,0.13,-0.99,3.54,0.49,3.11
7.8370,0.08,0.13,-0.99,3.54,0.24,2.87
7.8550,0.08,0.13,-0.99,3.36,0.31,2.75
7.8710,0.08,0.13,-0.99,3.54,0.00,2.69
7.8870,0.08,0.13,-0.99,3.48,0.12,2.69
7.9030,0.08,0.13,-0.99,3.30,0.06,2.56
7.9190,0.08,0.13,-0.99,3.66,0.00,2.75
7.9210,0.08,0.13,-0.99,3.60,0.43,3.11
7.9370,0.08,0.13,-0.99,3.60,0.00,2.93
7.9560,0.08,0.13,-0.99,3.66,-0.18,2.56
7.9710,0.08,0.13,-0.99,3.36,0.00,2.44
7.9870,0.08,0.13,-0.99,3.60,-0.18,2.56
8.0150,0.08,0.13,-0.99,3.42,0.24,2.75
8.0310,0.08,0.13,-0.99,3.54,0.18,2.81
8.0410,0.08,0.13,-0.99,3.42,0.00,2.50
8.0580,0.08,0.13,-0.98,3.54,-0.06,2.44
8.0750,0.08,0.13,-0.99,3.54,0.18,2.62
8.0910,0.08,0.13,-0.99,3.54,0.37,2.26
8.1070,0.08,0.13,-0.99,3.54,0.12,1.77
8.1150,0.08,0.13,-0.99,3.48,0.18,1.83
8.1290,0.08,0.14,-0.99,3.54,0.31,2.08
8.1440,0.08,0.13,-0.99,3.48,0.37,2.32
8.1630,0.08,0.13,-0.99,3.42,0.24,2.50
8.1780,0.08,0.14,-0.99,3.36,-0.31,2.62
8.1950,0.07,0.13,-0.99,3.48,0.00,2.87
8.2120,0.08,0.12,-0.99,3.60,0.06,2.81
8.2280,0.08,0.13,-0.99,3.60,0.31,2.20
8.2450,0.08,0.14,-0.98,3.36,0.18,2.08
8.2610,0.08,0.14,-0.99,3.42,-0.06,2.87
8.2770,0.08,0.13,-0.99,3.23,0.73,2.62
8.2920,0.08,0.13,-0.99,3.30,0.37,2.50
8.3070,0.08,0.13,-0.99,3.48,0.61,2.87
8.3150,0.08,0.13,-0.99,3.23,0.55,2.75
8.3270,0.08,0.12,-0.99,3.54,0.18,2.56
8.3530,0.08,0.13,-0.99,3.60,0.12,1.89
8.3650,0.08,0.13,-0.99,3.54,0.37,1.95
8.3810,0.08,0.14,-0.99,3.66,0.00,1.95
8.3970,0.08,0.14,-0.99,3.54,0.18,2.26
8.4150,0.08,0.14,-0.99,3.48,0.31,2.14
8.4310,0.08,0.13,-0.99,3.42,-0.18,2.08
8.4480,0.07,0.13,-0.99,3.48,0.12,2.08
8.4630,0.08,0.13,-0.99,3.60,0.37,2.14
8.4790,0.08,0.13,-0.99,3.54,0.49,2.32
8.4960,0.08,0.13,-0.99,3.54,0.00,2.08
8.5120,0.08,0.13,-0.99,3.60,0.49,2.26
8.5150,0.08,0.13,-0.99,3.60,0.55,2.14
8.5300,0.08,0.13,-0.99,3.60,0.18,2.38
8.5520,0.08,0.13,-0.99,3.48,0.31,2.32
8.5680,0.08,0.13,-0.99,3.48,0.79,2.08
8.5860,0.07,0.14,-0.99,3.60,0.49,1.89
8.6020,0.08,0.14,-0.99,3.60,0.37,2.14
8.6180,0.08,0.13,-0.99,3.54,0.12,2.69
8.6350,0.08,0.13,-0.99,3.54,0.24,2.56
8.6520,0.08,0.13,-0.99,3.66,0.00,2.08
8.6680,0.08,0.14,-0.99,3.54,-0.06,2.08
8.6840,0.08,0.13,-0.99,3.48,0.12,2.62
8.6860,0.08,0.13,-0.99,3.48,0.24,2.87
8.7150,0.08,0.13,-0.99,3.54,0.18,2.75
8.7200,0.08,0.13,-0.99,3.60,0.12,2.81
8.7350,0.08,0.13,-0.99,3.48,0.24,2.62
8.7580,0.07,0.13,-0.99,3.36,0.00,2.50
8.7740,0.08,0.13,-0.99,3.48,0.37,2.50
8.7900,0.08,0.13,-0.99,3.48,-0.18,2.50
8.8080,0.08,0.13,-0.99,3.54,0.18,2.87
8.8230,0.08,0.13,-0.99,3.48,0.12,2.69
8.8390,0.08,0.13,-0.99,3.66,0.06,2.32
8.8560,0.08,0.13,-0.99,3.72,0.24,2.32
8.8700,0.08,0.13,-0.99,3.54,0.31,2.32
8.8860,0.08,0.13,-0.99,3.42,0.24,2.38
8.9020,0.08,0.13,-0.99,3.72,0.00,2.14
8.9180,0.08,0.13,-0.99,3.54,-0.31,1.77
8.9340,0.08,0.14,-0.99,3.60,0.24,1.89
8.9490,0.08,0.14,-0.99,3.42,0.06,2.26
8.9580,0.08,0.13,-0.99,3.42,0.31,2.44
8.9740,0.08,0.13,-0.99,3.48,0.06,2.75
8.9940,0.08,0.13,-0.99,3.60,-0.31,2.62
9.0120,0.08,0.12,-0.99,3.54,0.18,2.56
9.0270,0.08,0.13,-0.99,3.60,0.18,2.44
9.0450,0.08,0.14,-0.99,3.54,0.12,2.75
9.0610,0.08,0.13,-0.99,3.30,0.00,3.36
9.0770,0.08,0.12,-0.99,3.60,0.06,2.93
9.0930,0.08,0.13,-0.99,3.66,0.06,2.38
9.1090,0.08,0.13,-0.99,3.48,0.43,2.38
9.1240,0.07,0.13,-0.99,3.54,-0.12,2.93
9.1400,0.08,0.13,-0.99,3.42,0.18,2.93
9.1550,0.08,0.13,-0.99,3.48,-0.24,2.44
9.1710,0.08,0.13,-0.99,3.60,0.31,2.08
9.1870,0.08,0.14,-0.99,3.60,0.12,2.32
9.2030,0.08,0.13,-0.99,3.66,0.12,2.87
9.2180,0.08,0.13,-0.99,3.66,0.06,3.23
9.2330,0.08,0.13,-0.99,3.48,0.31,2.93
9.2440,0.08,0.13,-0.99,3.48,0.31,2.44
9.2620,0.08,0.13,-0.99,3.42,0.37,2.50
9.2780,0.08,0.13,-0.99,3.54,0.24,2.56
9.2950,0.08,0.14,-0.99,3.48,0.31,3.05
9.3110,0.07,0.13,-0.99,3.42,-0.18,3.72
9.3280,0.08,0.12,-0.99,3.36,0.06,3.54
9.3440,0.08,0.12,-0.99,3.36,0.06,2.93
9.3600,0.08,0.13,-0.99,3.60,0.00,2.26
9.3750,0.08,0.14,-0.99,3.72,0.24,2.14
9.3900,0.08,0.14,-0.99,3.48,-0.12,2.26
9.4050,0.07,0.13,-0.99,3.36,-0.12,3.23
9.4210,0.08,0.13,-0.99,3.42,0.37,3.48
9.4370,0.08,0.13,-0.99,3.48,0.12,3.17
9.4530,0.08,0.13,-0.99,3.54,-0.06,2.44
9.4680,0.08,0.13,-0.99,3.48,0.43,2.50
9.4840,0.08,0.14,-0.99,3.66,-0.49,2.81
9.4940,0.08,0.13,-0.99,3.30,0.00,3.23
9.5110,0.08,0.13,-0.99,3.36,0.55,3.42
9.5280,0.08,0.13,-0.99,3.36,0.24,3.05
9.5450,0.08,0.13,-0.99,3.48,0.31,2.75
9.5610,0.07,0.13,-0.99,3.66,0.49,2.69
9.5760,0.08,0.13,-0.99,3.72,0.49,2.69
9.5900,0.08,0.14,-0.99,3.60,0.61,2.62
9.6070,0.08,0.13,-0.99,3.23,0.79,3.11
9.6170,0.08,0.13,-0.99,3.23,0.18,3.05
9.6280,0.08,0.13,-0.99,3.48,0.24,2.75
9.6500,0.07,0.13,-0.99,3.60,0.00,2.62
9.6660,0.08,0.13,-0.99,3.54,-0.06,2.75
9.6840,0.08,0.13,-0.99,3.42,0.24,2.69
9.7000,0.08,0.13,-0.99,3.60,0.12,2.81
9.7150,0.08,0.13,-0.99,3.78,0.24,3.05
9.7320,0.08,0.13,-0.99,3.54,0.43,2.69
9.7340,0.08,0.13,-0.99,3.54,0.00,2.81
9.7640,0.08,0.13,-0.99,3.54,0.18,2.81
9.7680,0.08,0.13,-0.98,3.36,0.24,3.30
9.7850,0.08,0.13,-0.99,3.48,0.31,3.17
9.8000,0.08,0.12,-0.99,3.54,0.61,2.93
9.8170,0.08,0.13,-0.99,3.60,0.31,2.44
9.8320,0.08,0.13,-0.99,3.54,-0.06,2.50
9.8520,0.08,0.14,-0.99,3.42,0.24,2.99
9.8690,0.08,0.13,-0.99,3.60,0.24,2.87
9.8850,0.08,0.13,-0.99,3.60,-0.12,2.99
9.9030,0.07,0.13,-0.99,3.85,0.06,2.75
9.9190,0.08,0.13,-0.99,3.66,0.55,2.56
9.9190,0.08,0.14,-0.99,3.54,0.06,3.11
9.9500,0.08,0.13,-0.99,3.36,0.12,3.54
9.9660,0.08,0.13,-0.99,3.30,-0.06,3.36
9.9820,0.08,0.13,-0.99,3.66,0.12,2.62
9.9980,0.08,0.13,-0.99,3.54,0.61,2.26
10.0030,0.08,0.13,-0.99,3.60,0.18,2.75
10.0190,0.08,0.14,-0.99,3.54,0.06,2.75
10.0410,0.07,0.13,-0.99,3.48,-0.12,2.93
10.0580,0.08,0.12,-0.99,3.66,-0.18,2.62
10.0740,0.08,0.13,-0.99,3.54,0.55,2.01
10.0900,0.08,0.14,-0.99,3.36,0.31,2.01
10.1050,0.08,0.14,-0.99,3.60,0.06,2.56
10.1170,0.08,0.13,-0.99,3.48,-0.06,2.93
10.1230,0.08,0.13,-0.99,3.54,0.00,2.50
10.1460,0.08,0.13,-0.99,3.66,0.06,2.26
10.1630,0.08,0.13,-0.99,3.54,0.31,2.44
10.1800,0.08,0.14,-0.99,3.42,0.18,2.75
10.1970,0.08,0.13,-0.99,3.60,-0.12,3.11
10.2120,0.08,0.13,-0.99,3.54,-0.12,2.69
10.2290,0.08,0.13,-0.99,3.60,0.31,2.69
10.2460,0.08,0.14,-0.99,3.66,0.12,2.87
10.2620,0.08,0.14,-0.99,3.36,0.00,3.78
10.2790,0.08,0.13,-0.99,3.48,-0.12,3.85
10.2800,0.08,0.12,-0.99,3.78,-0.12,3.66
10.3090,0.08,0.13,-0.99,3.60,0.12,2.50
10.3240,0.08,0.13,-0.99,3.78,0.12,2.32
10.3400,0.08,0.13,-0.99,3.66,0.12,2.38
10.3560,0.08,0.14,-0.99,3.54,-0.06,2.50
10.3710,0.07,0.13,-0.99,3.66,0.24,2.93
10.3800,0.08,0.13,-0.99,3.60,-0.31,3.30
10.4010,0.08,0.12,-0.99,3.48,-0.06,2.75
10.4130,0.08,0.13,-0.99,3.54,0.31,2.14
10.4290,0.08,0.13,-0.99,3.48,0.24,2.50
10.4460,0.08,0.13,-0.99,3.48,15.56,2.69
10.4620,0.08,0.13,-0.99,3.60,-0.06,2.75
10.4760,0.08,0.13,-0.99,3.66,0.06,2.69
10.4920,0.07,0.13,-0.99,3.85,0.49,2.81
10.5070,0.07,0.13,-0.99,3.60,-0.12,2.69
10.5230,0.08,0.13,-0.99,3.66,0.00,3.05
10.5390,0.08,0.13,-0.99,3.48,0.43,3.23
10.5530,0.08,0.13,-0.99,3.60,0.37,2.62
10.5690,0.08,0.13,-0.99,3.66,0.12,2.62
10.5800,0.08,0.14,-0.99,3.48,0.18,2.62
10.5980,0.07,0.14,-0.99,3.36,0.00,3.54
10.6130,0.08,0.12,-0.99,3.42,-0.24,3.60
10.6290,0.08,0.12,-0.99,3.54,0.06,2.75
10.6450,0.07,0.13,-0.99,3.60,0.00,2.50
10.6620,0.08,0.13,-0.99,3.54,0.00,2.93
10.6770,0.08,0.13,-0.99,3.48,0.06,2.93
10.6930,0.08,0.13,-0.99,3.48,0.43,2.44
10.6960,0.08,0.13,-0.99,3.48,0.37,2.20
10.7190,0.08,0.13,-0.99,3.66,0.37,2.20
10.7340,0.08,0.14,-0.98,3.36,0.00,2.69
10.7500,0.08,0.13,-0.99,3.54,-0.31,3.42
10.7670,0.08,0.13,-0.99,3.17,-0.06,3.54
10.7840,0.07,0.13,-0.99,3.36,-0.06,2.75
10.8000,0.08,0.12,-0.99,3.42,0.12,2.75
10.8150,0.08,0.13,-0.99,3.60,0.00,2.50
10.8190,0.08,0.14,-0.99,3.60,0.24,2.99
10.8340,0.08,0.14,-0.98,3.36,0.24,3.54
10.8520,0.08,0.13,-0.99,3.48,0.00,3.60
10.8670,0.07,0.13,-0.99,3.66,0.06,3.23
10.8850,0.08,0.12,-0.99,3.42,0.06,3.42
10.9000,0.08,0.13,-0.99,3.48,0.24,2.99
10.9190,0.08,0.13,-0.99,3.42,-0.06,2.75
10.9350,0.08,0.13,-0.99,3.72,0.18,2.56
10.9540,0.08,0.13,-0.99,3.66,0.55,2.26
10.9680,0.08,0.14,-0.99,3.48,0.31,2.56
10.9850,0.08,0.13,-0.99,3.42,-0.06,2.99
11.0000,0.08,0.13,-0.99,3.30,0.00,3.05
11.0160,0.07,0.13,-0.99,3.48,-0.06,3.17
11.0310,0.07,0.13,-0.99,3.23,0.37,3.36
11.0350,0.08,0.13,-0.99,3.48,0.12,3.66
11.0520,0.08,0.13,-0.99,3.54,0.00,3.11
11.0700,0.08,0.13,-0.99,3.42,-0.06,3.05
11.0850,0.08,0.13,-0.99,3.54,0.12,3.11
11.1060,0.07,0.13,-0.99,3.54,0.24,3.30
11.1240,0.08,0.13,-0.99,3.36,0.24,2.87
11.1390,0.08,0.13,-0.99,3.23,0.43,2.69
11.1550,0.08,0.13,-0.99,3.36,0.06,2.38
11.1710,0.08,0.13,-0.99,3.72,0.37,2.38
11.1880,0.08,0.13,-0.99,3.66,0.37,2.32
11.2030,0.08,0.13,-0.99,3.78,0.18,2.38
11.2190,0.08,0.13,-0.99,3.48,0.24,2.69
11.2350,0.08,0.13,-0.99,3.48,0.31,2.56
11.2510,0.08,0.13,-0.99,3.42,0.37,2.26
11.2670,0.08,0.13,-0.99,3.54,0.24,2.20
11.2840,0.07,0.13,-0.99,3.66,0.18,2.69
11.2900,0.07,0.13,-0.99,3.54,-0.18,2.81
11.3060,0.08,0.12,-0.99,3.66,0.24,2.75
11.3280,0.08,0.13,-0.99,3.72,0.00,1.95
11.3440,0.08,0.13,-0.99,3.60,0.06,1.95
11.3610,0.08,0.14,-0.99,3.48,0.12,2.01
11.3770,0.08,0.15,-0.98,3.42,0.00,3.11
11.3940,0.08,0.14,-0.99,3.42,-0.31,4.09
11.4090,0.07,0.12,-0.99,3.36,-0.12,3.78
11.4240,0.07,0.12,-0.99,3.60,0.06,3.17
11.4400,0.07,0.12,-0.99,3.66,-0.55,2.38
11.4450,0.08,0.14,-0.99,3.72,-0.55,2.38
11.4600,0.08,0.14,-0.98,3.48,-0.06,3.36
11.4840,0.08,0.13,-0.99,3.48,-0.12,3.66
11.5000,0.08,0.12,-0.99,3.42,0.18,2.87
11.5170,0.07,0.13,-0.99,3.30,0.12,2.56
11.5330,0.08,0.13,-0.99,3.66,-0.18,2.50
11.5500,0.08,0.14,-0.99,3.60,-0.31,2.99
11.5660,0.08,0.13,-0.99,3.48,-0.18,2.69
11.5810,0.07,0.13,-0.99,3.54,-0.24,2.69
11.5960,0.08,0.13,-0.99,3.42,-0.12,2.69
11.6000,0.07,0.12,-0.99,3.66,0.18,2.75
11.6190,0.07,0.13,-0.99,3.66,-0.06,2.32
11.6360,0.08,0.13,-0.99,3.54,-0.18,2.44
11.6540,0.08,0.14,-0.98,3.54,-0.18,2.44
11.6700,0.08,0.14,-0.99,3.60,-0.06,2.81
11.6870,0.08,0.13,-0.99,3.36,-0.18,3.30
11.7030,0.07,0.13,-0.99,3.42,-0.12,3.11
11.7190,0.08,0.12,-0.99,3.36,0.24,2.87
11.7350,0.08,0.16,-0.99,3.72,-0.12,2.20
11.7370,0.07,0.14,-0.98,3.60,-15.56,3.11
11.7660,0.08,0.15,-0.99,3.66,-0.06,3.91
11.7710,0.08,0.13,-0.99,3.36,-0.37,4.58
11.7880,0.08,0.11,-0.99,3.42,-0.12,3.78
11.8150,0.07,0.12,-0.99,3.54,-0.12,2.44
11.8310,0.08,0.13,-0.99,3.72,-0.31,2.38
11.8370,0.08,0.15,-0.98,3.48,0.12,2.62
11.8540,0.08,0.15,-0.99,3.30,0.12,3.78
11.8720,0.07,0.12,-0.99,3.17,0.12,3.78
11.8870,0.08,0.12,-0.99,3.72,-0.12,3.05
11.9020,0.08,0.13,-0.99,3.54,0.12,2.14
11.9220,0.08,0.14,-0.99,3.60,0.18,2.38
11.9270,0.08,0.14,-0.99,3.48,-0.31,2.93
11.9440,0.08,0.14,-0.99,3.42,-0.61,3.23
11.9600,0.08,0.12,-0.99,3.42,-0.37,3.23
11.9830,0.07,0.12,-0.99,3.66,0.18,2.26
11.9980,0.08,0.13,-0.99,3.72,-0.06,1.89
12.0140,0.08,0.14,-0.98,3.54,0.06,1.83
12.0300,0.08,0.14,-0.99,3.54,0.12,2.08
12.0470,0.08,0.13,-0.99,3.66,0.06,2.20
12.0620,0.08,0.14,-0.99,3.48,-0.18,2.69
12.0770,0.07,0.13,-0.99,3.54,-0.06,3.66
12.0810,0.08,0.13,-0.99,3.23,0.18,3.60
12.0970,0.08,0.13,-0.99,3.42,-0.12,2.81
12.1200,0.08,0.13,-0.99,3.66,-0.12,2.69
12.1340,0.08,0.13,-0.99,3.66,0.06,2.50
12.1510,0.08,0.13,-0.99,3.54,0.00,2.26
12.1670,0.07,0.13,-0.99,3.48,0.73,1.53
12.1820,0.08,0.13,-0.99,3.54,0.49,1.53
12.1980,0.07,0.13,-0.99,3.78,-0.06,1.83
12.2120,0.08,0.13,-0.99,3.60,0.18,1.71
12.2270,0.07,0.13,-0.99,3.54,0.49,1.77
12.2340,0.07,0.13,-0.99,3.42,0.00,1.89
12.2500,0.07,0.13,-0.99,3.54,0.00,1.95
12.2760,0.08,0.12,-0.99,3.72,0.31,2.01
12.2850,0.08,0.13,-0.99,3.72,0.85,1.34
12.3020,0.08,0.13,-0.99,3.66,0.43,1.46
12.3200,0.08,0.14,-0.99,3.48,0.61,1.71
12.3350,0.08,0.15,-0.99,3.48,-0.37,2.44
12.3530,0.08,0.14,-0.99,3.42,-0.18,3.85
12.3680,0.07,0.13,-0.99,3.17,-0.06,4.03
12.3840,0.07,0.12,-0.99,3.54,0.00,3.30
12.3990,0.08,0.12,-0.99,3.54,0.37,2.26
12.4020,0.08,0.13,-0.99,3.54,0.55,2.20
12.4210,0.08,0.14,-0.98,3.36,0.55,2.01
12.4460,0.08,0.15,-0.98,3.60,0.18,2.56
12.4570,0.07,0.12,-0.99,3.36,0.31,3.60
12.4740,0.07,0.11,-0.99,3.36,-0.18,2.87
12.4910,0.07,0.13,-0.99,3.72,0.18,1.71
12.5070,0.08,0.13,-0.99,3.66,0.43,1.53
12.5230,0.08,0.14,-0.99,3.54,0.18,1.71
12.5400,0.08,0.14,-0.99,3.54,0.49,2.32
12.5550,0.08,0.12,-0.99,3.48,0.24,2.32
12.5710,0.07,0.12,-0.99,3.60,0.18,1.40
12.5870,0.08,0.13,-0.99,3.48,0.67,1.28
12.6020,0.08,0.14,-0.99,3.30,0.18,1.46
12.6070,0.08,0.14,-0.99,3.60,0.18,2.01
12.6220,0.08,0.13,-0.99,3.48,0.06,3.11
12.6500,0.08,0.13,-0.99,3.23,0.37,3.05
12.6610,0.08,0.13,-0.99,3.66,0.12,3.11
12.6780,0.08,0.13,-0.99,3.48,-0.12,3.05
12.6950,0.07,0.13,-0.99,3.36,0.31,3.17
12.7110,0.08,0.13,-0.99,3.54,-0.06,2.99
12.7270,0.08,0.13,-0.99,3.60,-0.06,2.62
12.7430,0.08,0.14,-0.99,3.60,-0.37,2.32
12.7580,0.08,0.13,-0.99,3.54,0.49,2.75
12.7740,0.07,0.14,-0.99,3.30,0.12,2.93
12.7900,0.08,0.13,-0.99,3.36,0.31,3.23
12.8060,0.07,0.13,-0.98,3.48,0.06,3.11
12.8220,0.08,0.14,-0.99,3.23,-0.06,3.36
12.8380,0.08,0.13,-0.99,3.54,-0.18,4.21
12.8450,0.08,0.13,-0.99,3.54,-0.24,4.15
12.8600,0.07,0.12,-0.99,3.30,-0.24,3.78
12.8820,0.08,0.13,-0.99,3.54,-0.31,3.11
12.9000,0.08,0.12,-0.99,3.30,0.24,3.48
12.9160,0.08,0.13,-0.99,3.66,0.55,3.36
12.9320,0.07,0.13,-0.99,3.66,0.49,3.23
12.9490,0.08,0.13,-0.99,3.54,0.12,3.30
12.9650,0.08,0.14,-0.99,3.48,0.18,3.05
12.9810,0.08,0.13,-0.99,3.42,-0.06,3.30
12.9830,0.08,0.13,-0.99,3.42,0.06,3.54
12.9990,0.08,0.14,-0.99,3.48,0.06,4.03
13.0280,0.08,0.14,-0.99,3.42,0.12,4.33
13.0320,0.08,0.13,-0.98,3.36,-0.18,5.00
13.0590,0.08,0.14,-0.99,3.60,-0.24,4.94
13.0650,0.07,0.11,-0.99,3.30,-0.37,5.19
13.0830,0.07,0.11,-0.99,3.48,-0.24,3.91
13.0990,0.08,0.13,-0.99,3.54,0.43,3.60
13.1160,0.07,0.14,-0.99,3.54,0.06,3.78
13.1320,0.08,0.11,-0.99,3.42,-0.43,4.15
13.1470,0.08,0.12,-0.99,3.66,-0.43,2.26
13.1680,0.07,0.11,-0.99,3.78,0.12,1.89
13.1840,0.08,0.13,-0.99,3.85,0.43,1.40
13.2010,0.08,0.13,-0.99,3.66,-0.06,1.34
13.2170,0.08,0.13,-0.98,3.66,-0.24,1.34
13.2210,0.08,0.13,-0.99,3.97,0.18,1.46
13.2370,0.08,0.13,-0.99,3.97,-0.06,1.22
13.2520,0.08,0.13,-0.99,3.72,0.31,0.98
13.2750,0.08,0.13,-0.99,3.72,0.06,0.98
13.2920,0.08,0.13,-0.99,3.78,0.37,0.92
13.3080,0.08,0.13,-0.99,3.85,-0.06,0.85
13.3250,0.07,0.13,-0.99,3.78,0.00,0.67
13.3400,0.08,0.13,-0.99,3.66,0.37,0.85
13.3550,0.08,0.13,-0.99,3.66,0.37,0.79
13.3710,0.08,0.13,-0.99,3.91,0.43,0.67
13.3800,0.08,0.13,-0.99,3.60,0.31,0.92
13.3980,0.08,0.13,-0.99,3.60,0.67,1.10
13.4140,0.08,0.13,-0.99,3.85,0.06,1.16
13.4300,0.08,0.13,-0.99,3.97,0.24,0.85
13.4460,0.08,0.13,-0.99,3.72,0.06,0.61
13.4630,0.08,0.13,-0.99,3.78,0.49,1.10
13.4780,0.08,0.13,-0.99,3.60,0.18,1.22
13.4950,0.08,0.13,-0.99,3.60,0.73,1.28
13.5110,0.08,0.13,-0.99,3.66,0.12,1.40
13.5210,0.07,0.13,-0.99,3.54,0.43,1.53
13.5290,0.08,0.13,-0.99,3.78,0.49,1.34
13.5520,0.08,0.13,-0.99,3.54,0.61,1.46
13.5700,0.07,0.13,-0.99,3.60,0.61,1.34
13.5870,0.08,0.13,-0.99,3.66,0.24,1.34
13.6020,0.08,0.13,-0.99,3.66,0.49,1.53
13.6210,0.08,0.13,-0.99,3.72,0.37,1.40
13.6350,0.08,0.13,-0.99,3.60,0.37,1.40
13.6530,0.08,0.13,-0.99,3.78,0.43,1.46
13.6690,0.08,0.13,-0.99,3.78,0.43,1.59
13.6850,0.08,0.13,-0.99,3.66,0.37,1.40
13.7010,0.08,0.13,-0.99,3.85,0.79,1.65
13.7170,0.08,0.13,-0.99,3.91,0.24,1.46
13.7330,0.08,0.13,-0.99,3.66,0.49,1.46
13.7360,0.08,0.13,-0.99,3.48,0.49,1.53
13.7520,0.08,0.13,-0.99,3.54,0.31,1.28
13.7740,0.08,0.13,-0.99,3.66,0.49,1.40
13.7920,0.08,0.13,-0.99,3.48,0.24,1.40
13.8080,0.08,0.13,-0.99,3.42,0.43,1.28
13.8240,0.08,0.13,-0.99,3.48,0.67,1.40
13.8390,0.08,0.13,-0.99,3.72,0.24,1.22
13.8540,0.08,0.13,-0.99,3.72,0.06,1.34
13.8700,0.08,0.13,-0.99,3.78,0.12,1.28
13.8860,0.08,0.13,-0.99,3.48,0.79,1.40
13.9030,0.07,0.13,-0.99,3.54,-0.12,1.34
13.9180,0.08,0.13,-0.99,3.60,0.43,1.40
13.9330,0.08,0.13,-0.99,3.48,0.37,1.40
13.9480,0.08,0.13,-0.99,3.66,0.31,1.46
13.9630,0.08,0.13,-0.99,3.66,0.43,1.46
13.9740,0.08,0.13,-0.99,3.60,0.37,1.46
13.9910,0.08,0.13,-0.99,3.54,0.12,1.28
14.0070,0.08,0.13,-0.99,3.72,0.24,1.53
14.0240,0.08,0.13,-0.99,3.72,0.55,1.40
14.0400,0.08,0.13,-0.99,3.54,0.43,1.34
14.0550,0.08,0.13,-0.99,3.60,0.18,1.22
14.0580,0.08,0.13,-0.99,3.60,0.18,1.34
14.0730,0.08,0.13,-0.99,3.72,0.24,1.46
14.1010,0.08,0.13,-0.99,3.60,0.31,1.34
14.1110,0.08,0.13,-0.99,3.78,0.37,1.28
14.1280,0.08,0.13,-0.99,3.72,0.79,1.34
14.1450,0.08,0.13,-0.99,3.66,0.12,1.46
14.1620,0.08,0.13,-0.99,3.72,0.18,1.22
14.1780,0.08,0.13,-0.99,3.54,0.24,1.34
14.1940,0.08,0.13,-0.99,3.54,0.61,1.46
14.2120,0.08,0.13,-0.99,3.60,0.55,1.34
14.2270,0.08,0.13,-0.99,3.60,0.12,1.40
14.2430,0.08,0.13,-0.99,3.60,0.92,1.53
14.2590,0.08,0.13,-0.99,3.66,0.12,1.34
14.2740,0.08,0.13,-0.99,3.72,0.24,1.34
14.2890,0.08,0.13,-0.99,3.60,0.43,1.46
14.3050,0.08,0.13,-0.99,3.72,0.37,1.34
14.3110,0.08,0.13,-0.99,3.66,0.67,1.34
14.3340,0.08,0.13,-0.99,3.60,0.31,1.34
14.3450,0.08,0.13,-0.99,3.48,0.06,1.40
14.3610,0.08,0.13,-0.99,3.72,0.61,1.53
14.3780,0.08,0.13,-0.99,3.60,0.12,1.28
14.3960,0.07,0.13,-0.99,3.48,0.31,1.59
14.4120,0.08,0.13,-0.99,3.54,0.31,1.40
14.4280,0.07,0.13,-0.99,3.72,0.18,1.40
14.4430,0.08,0.13,-0.99,3.66,0.06,1.34
14.4600,0.08,0.13,-0.99,3.54,0.43,1.34
14.4750,0.08,0.13,-0.99,3.66,0.18,1.22
14.4900,0.08,0.13,-0.99,3.60,0.31,1.40
14.4940,0.08,0.13,-0.99,3.48,0.24,1.46
14.5100,0.08,0.13,-0.99,3.66,0.00,1.40
14.5330,0.07,0.13,-0.99,3.66,0.12,1.40
14.5500,0.08,0.13,-0.99,3.66,0.24,1.40
14.5680,0.08,0.13,-0.98,3.78,0.37,1.34
14.5830,0.08,0.13,-0.99,3.54,0.18,1.22
14.5990,0.08,0.13,-0.99,3.60,0.31,1.22
14.6010,0.08,0.13,-0.99,3.60,0.31,1.34
14.6300,0.08,0.13,-0.99,3.85,0.18,1.34
14.6470,0.08,0.13,-0.99,3.66,0.18,1.34
14.6500,0.08,0.13,-0.99,3.78,0.00,1.16
14.6800,0.07,0.13,-0.99,3.66,-0.12,1.40
14.6950,0.08,0.13,-0.99,3.60,-0.12,1.28
14.7040,0.08,0.13,-0.99,3.48,0.61,1.40
14.7230,0.08,0.13,-0.99,3.72,0.61,1.40
14.7370,0.07,0.13,-0.99,3.72,0.06,1.34
14.7550,0.08,0.13,-0.99,3.85,0.06,1.34
14.7710,0.08,0.13,-0.99,3.60,0.31,1.46
14.7870,0.08,0.13,-0.99,3.72,0.31,1.34
14.8040,0.08,0.13,-0.99,3.60,0.06,1.40
14.8200,0.07,0.13,-0.99,3.85,0.43,1.46
14.8370,0.08,0.13,-0.99,3.60,0.43,1.40
14.8520,0.07,0.13,-0.99,3.66,0.31,1.46
14.8680,0.08,0.13,-0.99,3.72,0.31,1.46
14.8840,0.08,0.13,-0.99,3.30,0.43,1.34
14.9000,0.08,0.13,-0.99,3.60,0.43,1.40
14.9040,0.07,0.13,-0.99,3.60,0.12,1.28
14.9230,0.08,0.13,-0.99,3.72,0.37,1.28
14.9430,0.08,0.13,-0.99,3.42,0.31,1.46
14.9590,0.07,0.13,-0.99,3.60,0.61,1.28
14.9770,0.08,0.13,-0.99,3.54,0.61,1.40
14.9930,0.08,0.13,-0.99,3.78,0.37,1.40
15.0090,0.08,0.13,-0.99,3.48,0.49,1.46
15.0240,0.08,0.13,-0.99,3.72,0.18,1.40
15.0400,0.08,0.13,-0.99,3.66,0.12,1.40
15.0550,0.08,0.13,-0.99,3.60,0.55,1.46
15.0710,0.08,0.13,-0.99,3.60,0.61,1.34
15.0860,0.08,0.13,-0.99,3.54,0.18,1.40
15.1030,0.08,0.13,-0.99,3.60,0.61,1.53
15.1190,0.08,0.13,-0.99,3.60,0.61,1.40
15.1350,0.08,0.13,-0.99,3.66,0.24,1.34
15.1510,0.08,0.13,-0.99,3.60,0.18,1.22
15.1660,0.08,0.13,-0.99,3.60,0.31,1.40
15.1760,0.08,0.13,-0.99,3.54,0.24,1.46
15.1930,0.08,0.13,-0.99,3.54,0.24,1.34
15.2090,0.08,0.13,-0.99,3.66,0.24,1.40
15.2260,0.08,0.13,-0.99,3.66,-0.06,1.16
15.2420,0.08,0.13,-0.99,3.72,-0.12,1.40
15.2570,0.08,0.13,-0.99,3.48,0.49,1.34
15.2720,0.08,0.13,-0.99,3.60,0.43,1.34
15.2870,0.08,0.13,-0.99,3.66,0.43,1.34
15.3030,0.08,0.13,-0.99,3.72,0.43,1.46
15.3100,0.08,0.13,-0.99,3.54,0.43,1.28
15.3250,0.08,0.13,-0.98,3.54,0.55,1.40
15.3480,0.08,0.13,-0.98,3.60,0.24,1.40
15.3640,0.08,0.13,-0.99,3.66,-0.24,1.28
15.3800,0.07,0.13,-0.99,3.60,0.00,1.28
15.3960,0.08,0.13,-0.99,3.36,0.37,1.34
15.4130,0.08,0.13,-0.98,3.54,0.61,1.46
15.4280,0.08,0.13,-0.99,3.54,0.43,1.53
15.4440,0.08,0.13,-0.99,3.30,0.37,1.34
15.4470,0.07,0.13,-0.99,3.91,0.49,1.28
15.4630,0.08,0.13,-0.98,3.23,0.18,1.22
15.4870,0.08,0.13,-0.99,3.72,0.55,1.46
15.5030,0.08,0.13,-0.99,3.91,0.24,1.16
15.5210,0.07,0.13,-0.98,3.78,0.12,0.92
15.5370,0.08,0.13,-0.99,3.72,0.31,1.40
15.5530,0.08,0.13,-0.99,3.78,-0.06,1.46
15.5690,0.08,0.13,-0.99,3.66,0.18,1.40
15.5850,0.08,0.13,-0.99,3.78,0.24,1.40
15.5870,0.08,0.13,-0.99,3.66,-0.06,1.53
15.6030,0.08,0.13,-0.99,3.97,-0.18,1.28
15.6320,0.08,0.13,-0.99,3.54,0.00,1.46
15.6480,0.07,0.13,-0.99,3.48,0.31,1.46
15.6590,0.08,0.13,-0.99,3.42,0.00,1.46
15.6750,0.08,0.13,-0.99,3.66,0.12,1.46
15.6920,0.08,0.13,-0.99,3.60,0.24,1.28
15.7090,0.08,0.13,-0.99,3.85,-0.12,1.34
15.7250,0.08,0.13,-0.99,3.60,0.49,1.53
15.7400,0.08,0.13,-0.99,3.66,0.37,1.34
15.7560,0.08,0.13,-0.99,3.91,-0.06,1.34
15.7730,0.08,0.13,-0.99,3.78,-0.12,1.34
15.7910,0.08,0.13,-0.99,3.54,0.61,1.46
15.8060,0.08,0.13,-0.99,3.54,0.31,1.46
15.8210,0.08,0.13,-0.99,3.72,-0.06,1.28
15.8390,0.08,0.13,-0.99,3.72,0.37,1.53
15.8550,0.08,0.13,-0.99,3.66,0.49,1.28
15.8710,0.07,0.13,-0.99,3.91,0.37,1.59
15.8860,0.08,0.13,-0.99,3.72,0.55,1.40
15.9030,0.07,0.13,-0.99,3.78,0.24,1.34
15.9180,0.08,0.13,-0.99,3.36,0.55,1.40
15.9250,0.07,0.13,-0.99,3.60,0.55,1.28
15.9410,0.08,0.13,-0.99,3.54,0.12,1.28
15.9640,0.08,0.13,-0.99,3.48,0.31,1.34
15.9650,0.08,0.13,-0.99,4.21,0.79,1.46
15.9810,0.08,0.13,-0.99,3.91,0.49,1.28
15.9970,0.08,0.13,-0.99,3.78,0.55,1.40
16.0290,0.08,0.13,-0.99,3.48,0.49,1.40
16.0440,0.08,0.13,-0.99,3.72,0.06,1.53
16.0530,0.08,0.13,-0.99,3.60,0.73,0.79
16.0710,0.08,0.13,-0.99,3.72,1.04,-0.37
16.0870,0.08,0.13,-0.99,3.54,0.73,0.67
16.1040,0.07,0.14,-0.99,3.54,0.31,1.40
16.1200,0.07,0.13,-0.99,3.60,0.12,1.22
16.1360,0.08,0.13,-0.99,3.66,0.79,1.46
16.1520,0.08,0.13,-0.99,3.66,0.55,1.40
16.1690,0.08,0.13,-0.99,3.36,0.98,1.04
16.1840,0.08,0.13,-0.99,3.48,0.67,0.61
16.2010,0.08,0.13,-0.99,3.60,0.73,0.49
16.2160,0.08,0.13,-0.99,3.78,0.43,0.12
16.2320,0.07,0.13,-0.99,3.66,0.61,0.49
16.2370,0.07,0.13,-0.99,3.72,0.55,0.67
16.2630,0.08,0.13,-0.99,3.72,0.79,0.55
16.2700,0.09,0.13,-0.99,3.72,0.79,-0.06
16.2860,0.07,0.14,-0.99,3.78,0.43,-0.49
16.3020,0.06,0.13,-0.99,3.66,0.61,-0.73
16.3250,0.07,0.13,-0.99,3.72,0.67,-0.37
16.3360,0.07,0.13,-0.99,3.66,0.92,0.12
16.3520,0.07,0.13,-0.99,3.54,1.16,0.61
16.3690,0.07,0.13,-0.99,3.54,0.85,0.92
16.3860,0.07,0.13,-0.99,3.85,0.73,0.79
16.4030,0.07,0.13,-0.99,3.60,0.24,0.98
16.4200,0.08,0.13,-0.99,3.85,0.37,1.04
16.4350,0.08,0.13,-0.99,3.85,0.31,0.85
16.4530,0.08,0.13,-0.99,3.66,0.49,0.85
16.4530,0.08,0.14,-0.99,3.66,0.55,0.73
16.4840,0.08,0.13,-0.99,3.66,0.55,0.73
16.4870,0.08,0.13,-0.99,3.85,0.12,0.79
16.5150,0.09,0.12,-0.99,3.66,0.00,1.10
16.5310,0.07,0.13,-0.99,3.72,0.12,1.10
16.5360,0.07,0.13,-0.99,3.85,0.43,0.98
16.5620,0.07,0.14,-0.99,3.66,0.31,0.98
16.5700,0.07,0.14,-0.99,3.66,0.37,1.10
16.5860,0.07,0.13,-0.99,3.60,0.00,1.04
16.6030,0.08,0.13,-0.99,3.66,0.49,1.28
16.6190,0.08,0.13,-0.99,3.66,0.49,1.28
16.6360,0.07,0.13,-0.99,3.60,0.24,1.22
16.6520,0.08,0.13,-0.99,3.72,0.49,1.22
16.6680,0.08,0.13,-0.99,3.60,0.73,0.79
16.6840,0.07,0.14,-0.99,3.66,0.31,0.37
16.6990,0.08,0.13,-0.99,3.78,0.49,0.92
16.7040,0.07,0.13,-0.99,3.72,0.49,1.10
16.7250,0.07,0.13,-0.99,3.54,0.73,1.46
16.7380,0.08,0.13,-0.99,3.60,0.37,1.34
16.7530,0.08,0.13,-0.99,3.60,0.49,1.40
16.7750,0.07,0.13,-0.99,3.78,0.24,1.40
16.7910,0.07,0.13,-0.99,3.48,0.24,1.46
16.8060,0.07,0.13,-0.99,3.42,0.37,1.46
16.8210,0.06,0.13,-0.99,3.48,0.24,1.83
16.8350,0.07,0.13,-0.99,3.36,0.24,1.53
16.8500,0.08,0.13,-0.99,3.54,0.37,1.53
16.8610,0.08,0.13,-0.99,3.54,0.67,1.77
16.8770,0.08,0.13,-0.98,3.60,0.67,1.65
16.8950,0.08,0.13,-0.99,3.60,0.49,1.71
16.9110,0.08,0.13,-0.99,3.23,0.61,1.40
16.9270,0.08,0.13,-0.99,3.66,0.43,1.04
16.9430,0.08,0.13,-0.99,3.60,0.43,1.04
16.9580,0.08,0.13,-0.99,3.60,0.24,1.16
16.9730,0.08,0.12,-0.99,3.91,0.55,1.28
16.9880,0.07,0.13,-0.99,3.91,0.61,0.92
17.0050,0.07,0.14,-0.99,3.78,0.61,0.73
17.0210,0.07,0.14,-0.99,3.54,0.49,0.98
17.0370,0.07,0.13,-0.99,3.42,0.61,1.16
17.0530,0.08,0.13,-0.99,3.66,0.55,1.22
17.0610,0.07,0.13,-0.99,3.60,0.85,1.16
17.0770,0.07,0.13,-0.99,3.36,1.04,1.16
17.0990,0.08,0.13,-0.99,3.54,0.67,1.34
17.1150,0.08,0.13,-0.99,3.54,0.31,1.22
17.1300,0.08,0.13,-0.99,3.66,0.73,1.04
17.1460,0.08,0.13,-0.99,3.72,0.67,0.98
17.1490,0.08,0.14,-0.98,3.60,0.55,0.73
17.1650,0.08,0.13,-0.99,3.78,0.79,0.67
17.1870,0.08,0.13,-0.99,3.66,0.98,0.85
17.2040,0.08,0.13,-0.99,3.72,0.98,1.28
17.2210,0.07,0.13,-0.99,3.72,0.79,1.28
17.2390,0.08,0.13,-0.99,3.85,0.55,1.28
17.2390,0.08,0.14,-0.98,3.60,0.67,1.04
17.2540,0.08,0.14,-0.99,3.48,0.73,0.92
17.2720,0.08,0.13,-0.99,3.54,0.67,0.92
17.3000,0.08,0.13,-0.99,3.72,0.79,0.55
17.3160,0.07,0.13,-0.99,3.66,0.79,0.55
17.3310,0.07,0.13,-0.99,3.78,0.55,0.67
17.3380,0.07,0.13,-0.99,3.66,0.43,0.85
17.3610,0.07,0.13,-0.99,3.54,0.49,0.85
17.3710,0.07,0.13,-0.99,3.54,0.49,1.34
17.3880,0.08,0.13,-0.99,3.48,0.61,1.34
17.4040,0.08,0.13,-0.99,3.85,0.18,1.34
17.4210,0.07,0.13,-0.99,3.72,0.18,1.40
17.4370,0.08,0.13,-0.99,3.72,0.31,1.34
17.4540,0.08,0.13,-0.99,3.72,0.61,1.40
17.4710,0.08,0.13,-0.99,3.54,0.73,1.34
17.4870,0.08,0.13,-0.99,3.60,0.55,1.10
17.5020,0.08,0.13,-0.99,3.60,1.10,0.61
17.5180,0.07,0.13,-0.99,3.66,0.61,0.49
17.5250,0.07,0.13,-0.99,3.78,0.43,0.85
17.5370,0.07,0.13,-0.99,3.60,0.12,1.28
17.5530,0.08,0.13,-0.99,3.48,0.43,1.04
17.5770,0.08,0.13,-0.99,3.85,0.73,0.92
17.5930,0.08,0.13,-0.99,3.66,0.67,0.85
17.6110,0.07,0.13,-0.99,3.66,0.73,0.79
17.6280,0.09,0.13,-0.99,3.66,0.49,0.98
17.6440,0.07,0.13,-0.99,3.54,0.61,0.79
17.6590,0.07,0.13,-0.99,3.54,0.43,0.98
17.6750,0.08,0.13,-0.99,3.78,0.43,1.16
17.6900,0.08,0.13,-0.99,3.78,0.31,1.16
17.6940,0.08,0.13,-0.99,3.60,0.67,1.16
17.7100,0.08,0.13,-0.99,3.54,0.73,1.34
17.7330,0.08,0.13,-0.99,3.60,0.49,1.10
17.7500,0.07,0.13,-0.99,3.60,0.61,1.10
17.7670,0.07,0.13,-0.99,3.66,0.55,1.28
17.7840,0.08,0.13,-0.99,3.78,0.49,1.34
17.7990,0.08,0.13,-0.99,3.54,0.37,1.28
17.8170,0.08,0.13,-0.99,3.66,0.18,1.40
17.8330,0.08,0.13,-0.99,3.54,-0.12,1.22
17.8490,0.09,0.13,-0.98,3.60,0.31,0.92
17.8640,0.08,0.14,-0.99,3.42,0.49,0.49
17.8670,0.07,0.13,-0.99,3.54,0.73,0.24
17.8940,0.07,0.13,-0.99,3.78,0.79,0.43
17.9000,0.07,0.13,-0.99,3.78,0.67,0.73
17.9160,0.08,0.13,-0.99,3.91,0.37,0.67
17.9370,0.07,0.13,-0.99,3.78,0.49,0.92
17.9540,0.08,0.13,-0.99,3.48,0.49,1.10
17.9710,0.08,0.13,-0.99,3.42,1.04,1.40
17.9870,0.08,0.14,-0.99,3.48,0.49,0.98
18.0030,0.08,0.13,-0.99,3.66,0.61,1.10
18.0180,0.08,0.13,-0.99,3.66,0.73,1.34
18.0260,0.08,0.13,-0.99,3.54,0.55,1.28
18.0500,0.08,0.13,-0.99,3.54,0.37,1.04
18.0660,0.07,0.13,-0.99,3.54,0.55,1.04
18.0810,0.08,0.12,-0.99,3.66,0.61,1.16
18.0950,0.07,0.12,-0.99,3.72,0.61,1.46
18.1050,0.07,0.13,-0.99,3.66,0.55,0.98
18.1260,0.08,0.13,-0.98,3.60,0.55,0.79
18.1410,0.08,0.13,-0.99,3.66,0.67,0.85
18.1560,0.07,0.13,-0.99,3.60,0.79,0.92
18.1720,0.07,0.13,-0.99,3.54,1.04,1.04
18.1870,0.08,0.13,-0.98,3.72,0.85,0.55
18.2030,0.08,0.14,-0.99,3.60,0.85,0.24
18.2180,0.08,0.14,-0.99,3.60,0.79,0.12
18.2320,0.07,0.13,-0.99,3.60,0.31,0.55
18.2420,0.07,0.13,-0.99,3.72,0.37,0.85
18.2580,0.08,0.13,-0.99,3.60,0.55,1.34
18.2760,0.08,0.13,-0.99,3.54,0.73,1.28
18.2940,0.07,0.13,-0.99,3.85,0.49,1.10
18.3090,0.08,0.13,-0.99,3.66,0.61,1.28
18.3260,0.07,0.13,-0.99,3.72,0.55,1.22
18.3270,0.07,0.13,-0.99,3.60,0.67,1.40
18.3580,0.08,0.13,-0.99,3.72,0.73,1.22
18.3740,0.08,0.13,-0.99,3.72,0.31,1.34
18.3880,0.08,0.13,-0.99,3.72,0.49,1.53
18.4050,0.08,0.13,-0.99,3.72,0.12,1.40
18.4200,0.08,0.13,-0.99,3.66,0.43,1.46
18.4270,0.08,0.13,-0.99,3.85,0.67,1.34
18.4420,0.07,0.13,-0.99,3.36,0.55,1.34
18.4650,0.07,0.13,-0.99,3.42,0.49,1.40
18.4820,0.07,0.13,-0.99,3.60,0.61,1.40
18.4980,0.08,0.13,-0.99,3.97,0.67,1.34
18.4990,0.08,0.13,-0.99,3.60,0.43,1.34
18.5270,0.08,0.13,-0.99,3.48,0.49,1.40
18.5320,0.06,0.14,-0.99,3.54,0.85,1.16
18.5620,0.08,0.13,-0.99,3.66,0.61,1.04
18.5650,0.08,0.13,-0.99,3.66,0.31,1.10
18.5810,0.08,0.13,-0.99,3.72,0.18,1.10
18.5960,0.07,0.13,-0.99,3.78,0.61,0.85
18.6190,0.08,0.13,-0.99,3.78,0.73,1.10
18.6350,0.07,0.13,-0.99,3.54,0.55,1.16
18.6500,0.08,0.13,-0.99,3.60,0.61,1.16
18.6710,0.08,0.13,-0.99,3.48,0.98,1.34
18.6870,0.08,0.13,-0.99,3.66,0.79,1.46
18.6890,0.08,0.13,-0.99,3.48,0.73,1.40
18.7050,0.08,0.13,-0.99,3.54,0.79,1.28
18.7320,0.08,0.13,-0.99,3.60,0.67,1.40
18.7410,0.08,0.13,-0.99,3.60,0.55,1.04
18.7580,0.07,0.13,-0.99,3.66,0.55,0.85
18.7760,0.07,0.13,-0.99,3.42,0.67,1.28
18.7910,0.07,0.13,-0.99,3.60,0.85,1.04
18.8080,0.07,0.13,-0.99,3.60,0.67,1.16
18.8240,0.07,0.13,-0.99,3.66,0.67,1.16
18.8280,0.08,0.13,-0.99,3.66,0.61,1.40
18.8540,0.07,0.13,-0.99,3.48,0.49,1.34
18.8590,0.08,0.13,-0.99,3.42,0.49,1.34
18.8740,0.08,0.13,-0.99,3.72,0.12,1.10
18.9010,0.08,0.13,-0.99,3.78,0.85,1.16
18.9130,0.08,0.13,-0.99,3.72,0.85,1.10
18.9300,0.06,0.13,-0.99,3.54,0.67,1.10
18.9460,0.08,0.13,-0.99,3.66,0.37,1.10
18.9630,0.08,0.13,-0.99,3.60,0.85,1.22
18.9790,0.07,0.13,-0.99,3.42,0.37,1.22
18.9950,0.08,0.13,-0.99,3.48,0.67,1.22
19.0110,0.07,0.13,-0.99,3.48,0.61,1.28
19.0270,0.08,0.13,-0.99,3.42,0.67,1.10
19.0430,0.08,0.13,-0.99,3.54,0.79,0.92
19.0570,0.07,0.13,-0.99,3.72,0.98,1.16
19.0730,0.07,0.13,-0.99,3.54,0.92,1.22
19.0790,0.08,0.13,-0.99,3.54,0.79,1.28
19.0950,0.08,0.13,-0.99,3.42,0.43,1.34
19.1190,0.08,0.13,-0.99,3.54,0.67,1.40
19.1360,0.07,0.13,-0.99,3.54,0.24,1.65
19.1370,0.07,0.13,-0.99,3.60,0.79,1.59
19.1670,0.08,0.13,-0.99,3.66,0.24,1.59
19.1700,0.08,0.13,-0.99,3.72,0.37,1.46
19.1870,0.07,0.13,-0.99,3.78,0.31,1.34
19.2020,0.07,0.13,-0.99,3.42,0.67,1.34
19.2290,0.07,0.13,-0.99,3.48,0.61,1.40
19.2410,0.07,0.13,-0.99,3.54,0.67,1.40
19.2570,0.08,0.13,-0.99,3.72,0.37,1.40
19.2750,0.08,0.13,-0.99,3.36,0.55,1.34
19.2910,0.08,0.13,-0.99,3.66,0.73,1.28
19.3060,0.07,0.13,-0.99,3.42,0.49,1.10
19.3210,0.08,0.13,-0.99,3.42,0.37,1.22
19.3370,0.07,0.13,-0.99,3.48,0.85,1.40
19.3520,0.08,0.13,-0.99,3.78,0.92,1.34
19.3680,0.08,0.13,-0.99,3.60,0.92,1.46
19.3830,0.08,0.13,-0.99,3.17,0.49,1.16
19.3970,0.07,0.13,-0.99,3.42,0.73,1.22
19.4080,0.07,0.13,-0.99,3.54,0.98,1.28
19.4300,0.07,0.13,-0.99,3.54,0.98,1.34
19.4460,0.08,0.13,-0.99,3.78,0.79,1.40
19.4610,0.08,0.13,-0.99,3.42,0.85,1.53
19.4770,0.08,0.13,-0.99,3.48,0.79,1.28
19.4930,0.08,0.13,-0.99,3.54,0.79,1.34
19.5090,0.08,0.13,-0.99,3.78,0.79,1.34
19.5250,0.08,0.13,-0.99,3.72,0.43,1.10
19.5400,0.07,0.13,-0.99,3.36,1.10,1.34
19.5570,0.08,0.13,-0.99,3.78,0.43,1.22
19.5640,0.08,0.13,-0.99,3.60,0.67,1.34
19.5800,0.07,0.13,-0.99,3.42,1.04,1.28
19.5970,0.07,0.13,-0.99,3.66,0.67,1.16
19.6140,0.08,0.13,-0.99,3.48,0.55,1.34
19.6300,0.08,0.13,-0.99,3.42,0.85,1.53
19.6490,0.08,0.13,-0.99,3.48,0.43,1.59
19.6540,0.08,0.13,-0.99,3.42,0.18,1.59
19.6800,0.07,0.13,-0.99,3.48,0.79,1.83
19.6960,0.07,0.13,-0.99,3.48,0.37,1.95
19.7030,0.09,0.13,-0.99,4.09,0.73,1.89
19.7260,0.08,0.13,-0.99,3.85,0.49,1.59
19.7370,0.08,0.13,-0.98,3.48,0.55,1.46
19.7530,0.08,0.13,-0.99,3.54,0.73,1.46
19.7710,0.08,0.13,-0.99,3.66,0.67,1.40
19.7860,0.08,0.13,-0.99,3.78,0.79,1.34
19.8020,0.07,0.13,-0.99,3.78,0.61,1.28
19.8040,0.07,0.13,-0.99,3.78,0.61,1.40
19.8310,0.08,0.13,-0.99,3.54,0.31,1.16
19.8360,0.08,0.14,-0.99,3.60,0.61,1.34
19.8650,0.07,0.13,-0.99,3.66,0.37,1.59
19.8700,0.07,0.13,-0.99,3.72,0.55,1.46
19.8970,0.08,0.13,-0.99,3.48,0.55,1.59
19.9120,0.08,0.13,-0.98,3.60,0.43,1.65
19.9200,0.08,0.13,-0.99,3.54,0.37,1.53
19.9420,0.08,0.13,-0.99,3.66,0.43,1.46
19.9530,0.08,0.13,-0.99,3.78,0.92,0.92
19.9690,0.07,0.13,-0.99,3.91,0.55,0.43
19.9860,0.07,0.13,-0.99,3.54,0.67,0.55
20.0040,0.07,0.13,-0.99,3.66,0.79,1.10
20.0200,0.08,0.13,-0.99,3.60,0.49,1.28
20.0310,0.08,0.13,-0.99,3.66,0.31,1.34
20.0370,0.08,0.13,-0.99,3.66,0.73,1.10
20.0660,0.07,0.13,-0.99,3.78,0.61,0.92
20.0700,0.07,0.13,-0.99,3.60,0.73,1.34
20.0860,0.08,0.13,-0.99,3.60,0.43,1.28
20.1040,0.08,0.13,-0.99,3.54,0.37,1.53
20.1310,0.08,0.13,-0.99,3.72,0.31,1.28
20.1360,0.08,0.13,-0.99,3.60,0.18,1.34
20.1530,0.08,0.13,-0.99,3.78,0.67,1.28
20.1690,0.08,0.13,-0.99,3.66,0.67,1.40
20.1860,0.08,0.13,-0.99,3.54,0.55,1.40
20.2040,0.07,0.13,-0.99,3.54,0.67,1.59
20.2200,0.08,0.13,-0.99,3.48,0.55,1.65
20.2360,0.08,0.13,-0.99,3.66,0.37,1.53
20.2540,0.08,0.13,-0.99,3.42,0.43,1.40
20.2540,0.07,0.13,-0.99,3.66,0.49,1.59
20.2860,0.08,0.13,-0.99,3.60,0.61,1.46
20.3010,0.08,0.13,-0.99,3.60,0.24,1.53
20.3040,0.08,0.13,-0.99,3.48,0.43,1.22
20.3310,0.08,0.13,-0.99,3.66,0.79,1.04
20.3360,0.08,0.13,-0.99,3.60,0.43,0.92
20.3530,0.08,0.13,-0.99,3.78,0.73,1.04
20.3700,0.08,0.13,-0.99,3.72,0.49,1.16
20.3870,0.07,0.13,-0.99,3.54,0.31,1.34
20.4030,0.08,0.13,-0.99,3.66,0.49,1.22
20.4200,0.08,0.13,-0.99,3.54,0.73,1.22
20.4370,0.08,0.13,-0.99,3.66,0.24,1.28
20.4530,0.08,0.13,-0.99,3.78,0.73,1.40
20.4540,0.07,0.13,-0.99,3.60,0.55,1.28
20.4830,0.07,0.13,-0.99,3.66,0.61,1.10
20.4980,0.07,0.13,-0.99,3.72,0.43,1.16
20.5030,0.07,0.13,-0.99,3.60,0.61,1.40
20.5200,0.08,0.13,-0.99,3.72,0.49,1.16
20.5360,0.08,0.13,-0.99,3.54,0.00,1.10
20.5530,0.08,0.13,-0.99,3.36,0.18,1.10
20.5690,0.08,0.13,-0.99,3.42,0.43,1.04
20.5870,0.08,0.13,-0.99,3.72,0.55,0.85
20.6040,0.07,0.13,-0.99,3.54,0.49,0.67
20.6040,0.08,0.13,-0.99,3.60,0.49,0.85
20.6310,0.08,0.13,-0.99,3.72,0.73,1.04
20.6370,0.08,0.13,-0.99,3.36,0.67,1.10
20.6650,0.07,0.13,-0.99,3.42,0.55,1.28
20.6700,0.07,0.13,-0.99,3.48,0.31,0.98
20.6960,0.07,0.13,-0.99,3.54,0.61,1.10
20.7110,0.07,0.13,-0.99,3.54,0.73,1.34
20.7200,0.07,0.13,-0.99,3.60,0.61,1.34
20.7380,0.08,0.13,-0.99,3.78,0.55,1.28
20.7530,0.08,0.13,-0.99,3.54,0.67,1.16
20.7700,0.08,0.13,-0.99,3.48,0.67,1.34
20.7880,0.08,0.13,-0.99,3.60,0.37,1.28
20.8030,0.07,0.13,-0.99,3.66,0.55,1.22
20.8200,0.08,0.13,-0.99,3.48,0.31,1.10
20.8320,0.07,0.13,-0.99,3.72,0.18,0.98
20.8370,0.07,0.13,-0.99,3.72,0.24,1.10
20.8540,0.07,0.13,-0.99,3.78,0.37,1.34
20.8830,0.08,0.13,-0.99,3.60,0.18,1.28
20.8860,0.08,0.13,-0.99,3.54,0.43,1.28
20.9140,0.08,0.13,-0.99,3.42,0.67,1.22
20.9300,0.08,0.13,-0.99,3.72,0.61,1.10
20.9370,0.08,0.13,-0.99,3.54,0.49,1.10
20.9600,0.08,0.13,-0.99,3.60,0.98,1.04
20.9700,0.08,0.13,-0.99,3.60,0.49,1.04
20.9860,0.08,0.13,-0.99,3.72,0.18,0.73
21.0080,0.07,0.13,-0.99,3.66,0.79,0.85
21.0240,0.07,0.13,-0.99,3.78,0.92,1.10
21.0380,0.08,0.13,-0.99,3.54,0.67,1.28
21.0540,0.07,0.13,-0.99,3.66,0.61,1.28
21.0690,0.08,0.13,-0.99,3.54,0.49,1.40
21.0760,0.07,0.13,-0.99,3.54,0.55,1.34
21.0910,0.08,0.13,-0.99,3.72,0.55,1.53
21.1130,0.07,0.13,-0.99,3.66,0.49,1.28
21.1290,0.07,0.13,-0.99,3.66,0.67,1.46
21.1450,0.07,0.13,-0.99,3.54,0.55,1.40
21.1620,0.07,0.13,-0.99,3.66,0.49,1.46
21.1790,0.08,0.13,-0.99,3.48,0.67,1.40
21.1950,0.08,0.13,-0.99,3.30,0.85,1.28
21.2110,0.08,0.13,-0.99,3.30,0.43,1.53
21.2270,0.08,0.13,-0.99,3.72,0.31,1.53
21.2420,0.08,0.13,-0.99,3.48,0.43,1.53
21.2460,0.07,0.13,-0.99,3.66,0.31,1.59
21.2610,0.08,0.13,-0.99,3.42,0.67,1.46
21.2840,0.08,0.13,-0.99,3.48,0.12,1.59
21.3010,0.08,0.13,-0.99,3.60,0.61,1.53
21.3170,0.08,0.13,-0.99,3.36,0.73,1.65
21.3340,0.08,0.13,-0.99,3.60,0.49,1.46
21.3500,0.07,0.13,-0.99,3.72,0.79,1.46
21.3660,0.07,0.13,-0.99,3.78,0.73,1.59
21.3840,0.07,0.13,-0.99,3.78,0.43,1.28
21.3990,0.07,0.13,-0.99,3.54,0.85,1.34
21.4160,0.08,0.13,-0.99,3.85,0.43,1.40
21.4320,0.08,0.13,-0.99,3.72,0.43,1.28
21.4340,0.08,0.14,-0.99,3.66,0.92,1.40
21.4500,0.08,0.13,-0.99,3.60,0.67,1.46
21.4660,0.08,0.13,-0.99,3.36,0.49,1.46
21.4930,0.08,0.13,-0.99,3.48,0.67,1.40
21.5060,0.07,0.13,-0.99,3.42,0.73,1.40
21.5210,0.07,0.13,-0.99,3.30,0.67,1.46
21.5380,0.08,0.13,-0.99,3.36,0.61,1.34
21.5540,0.08,0.14,-0.99,3.54,0.49,1.34
21.5700,0.08,0.13,-0.98,3.30,0.61,1.40
21.5850,0.08,0.13,-0.99,3.60,0.79,1.34
21.5890,0.10,0.12,-0.99,3.42,0.67,1.22
21.6170,0.07,0.13,-0.99,3.66,0.79,0.43
21.6320,0.07,0.13,-0.99,3.66,0.67,0.98
21.6490,0.07,0.13,-0.99,3.54,0.79,1.16
21.6640,0.08,0.13,-0.99,3.42,0.55,1.53
21.6790,0.08,0.13,-0.99,3.48,0.37,1.40
21.6940,0.08,0.13,-0.99,3.60,0.79,1.71
21.7050,0.08,0.13,-0.99,3.78,0.67,1.65
21.7220,0.09,0.12,-0.99,3.60,0.55,1.04
21.7390,0.07,0.14,-0.99,3.30,0.92,-0.24
21.7540,0.08,0.13,-0.99,3.66,0.61,0.24
21.7710,0.07,0.13,-0.99,3.91,1.28,-0.98
21.7870,0.07,0.13,-0.99,4.03,0.98,-0.92
21.8030,0.08,0.13,-0.99,3.78,1.28,-1.46
21.8200,0.07,0.14,-0.99,3.85,1.46,-1.10
21.8340,0.07,0.13,-0.99,3.72,0.73,0.61
21.8510,0.08,0.13,-0.99,3.60,0.85,0.92
21.8670,0.08,0.13,-0.99,3.72,0.61,1.10
21.8820,0.08,0.13,-0.99,3.48,0.85,0.79
21.8960,0.08,0.13,-0.99,3.60,0.61,0.73
21.9110,0.08,0.13,-0.99,3.60,0.73,0.61
21.9220,0.08,0.13,-0.99,3.66,0.61,0.73
21.9380,0.07,0.13,-0.99,3.60,0.85,0.49
21.9550,0.08,0.13,-0.99,3.60,0.61,0.79
21.9720,0.08,0.13,-0.99,3.48,0.49,0.79
21.9870,0.08,0.13,-0.99,3.78,0.43,0.12
21.9890,0.07,0.13,-0.99,3.72,0.79,0.00
22.0050,0.08,0.13,-0.99,3.72,0.85,1.04
22.0340,0.08,0.14,-0.99,3.72,0.98,0.49
22.0500,0.08,0.13,-0.99,3.60,0.55,-0.06
22.0650,0.07,0.13,-0.99,3.72,0.37,0.49
22.0820,0.08,0.13,-0.99,3.72,0.37,0.43
22.0890,0.07,0.14,-0.99,3.85,0.06,0.06
22.1120,0.08,0.13,-0.99,3.72,0.37,0.73
22.1270,0.08,0.13,-0.99,3.66,0.55,0.49
22.1380,0.07,0.14,-0.99,3.72,0.73,0.12
22.1540,0.08,0.14,-0.99,3.66,0.73,0.12
22.1720,0.07,0.14,-0.99,3.66,0.61,0.37
22.1880,0.07,0.13,-0.99,3.60,0.49,0.92
22.2040,0.08,0.13,-0.99,3.66,0.67,1.34
22.2200,0.08,0.13,-0.99,3.30,0.73,0.98
22.2360,0.08,0.13,-0.99,3.60,0.55,0.55
22.2380,0.07,0.14,-0.99,3.60,0.55,0.24
22.2560,0.07,0.13,-0.99,3.66,0.73,0.92
22.2720,0.08,0.13,-0.99,3.72,0.73,0.92
22.3000,0.08,0.13,-0.99,3.66,1.04,0.73
22.3150,0.08,0.13,-0.99,3.72,0.61,0.55
22.3210,0.07,0.13,-0.99,3.91,0.73,-0.12
22.3370,0.08,0.13,-0.99,3.54,0.73,0.85
22.3580,0.08,0.13,-0.99,3.72,0.67,0.85
22.3760,0.08,0.13,-0.99,3.66,0.55,0.49
22.3910,0.08,0.13,-0.99,3.66,0.79,0.00
22.4080,0.08,0.13,-0.99,3.66,0.73,0.43
22.4230,0.07,0.13,-0.99,3.85,0.67,0.98
22.4390,0.07,0.13,-0.99,3.60,0.43,1.16
22.4540,0.08,0.13,-0.99,3.60,0.79,1.22
22.4710,0.08,0.13,-0.99,3.54,0.18,1.22
22.4870,0.08,0.13,-0.99,3.54,0.31,1.22
22.4910,0.08,0.13,-0.99,3.78,0.49,1.34
22.5070,0.08,0.13,-0.99,3.72,0.73,1.34
22.5290,0.08,0.13,-0.99,3.66,0.49,1.22
22.5460,0.08,0.13,-0.99,3.85,0.37,1.04
22.5620,0.08,0.13,-0.99,3.78,0.31,0.73
22.5790,0.07,0.13,-0.99,3.48,0.92,0.37
22.5960,0.08,0.13,-0.99,3.78,0.61,0.55
22.6110,0.08,0.13,-0.99,3.60,0.73,0.24
22.6270,0.07,0.12,-0.99,3.78,0.43,0.06
22.6430,0.08,0.14,-0.99,3.91,0.79,-0.06
22.6580,0.08,0.14,-0.99,3.72,0.31,0.61
22.6740,0.08,0.13,-0.99,3.72,0.79,1.34
22.6880,0.08,0.13,-0.99,3.48,0.37,1.34
22.7040,0.07,0.13,-0.99,3.60,0.79,1.46
22.7190,0.08,0.13,-0.99,3.60,0.06,1.34
22.7300,0.08,0.13,-0.99,3.66,0.61,1.28
22.7460,0.08,0.13,-0.99,3.60,1.04,0.85
22.7620,0.08,0.13,-0.99,3.66,0.85,0.67
22.7790,0.08,0.14,-0.99,3.72,0.67,0.12
22.7950,0.08,0.14,-0.99,3.78,0.12,0.92
22.8120,0.08,0.13,-0.99,3.60,0.49,1.34
22.8290,0.07,0.12,-0.99,3.23,0.73,1.46
22.8450,0.08,0.13,-0.99,3.54,0.37,1.28
22.8600,0.07,0.14,-0.99,3.54,0.85,0.55
22.8750,0.08,0.14,-0.99,3.78,0.43,0.61
22.8780,0.08,0.13,-0.99,3.54,0.37,0.98
22.8940,0.08,0.13,-0.99,3.72,0.49,0.98
22.9170,0.08,0.13,-0.99,3.72,0.55,0.55
22.9340,0.08,0.13,-0.99,3.66,0.61,0.55
22.9500,0.08,0.13,-0.99,3.66,0.61,0.18
22.9660,0.07,0.13,-0.99,3.60,0.55,-0.37
22.9840,0.08,0.14,-0.99,3.60,1.10,0.37
23.0000,0.07,0.13,-0.99,3.72,0.43,0.92
23.0150,0.08,0.13,-0.99,3.78,0.31,0.49
23.0160,0.08,0.13,-0.99,3.72,0.37,0.55
23.0480,0.08,0.13,-0.99,3.91,0.55,0.43
23.0640,0.08,0.13,-0.99,3.85,0.43,0.43
23.0800,0.08,0.13,-0.99,3.78,0.85,0.49
23.0960,0.07,0.13,-0.99,3.66,0.67,0.12
23.1120,0.08,0.13,-0.99,3.78,0.98,0.18
23.1270,0.08,0.13,-0.99,3.97,0.79,-0.06
23.1340,0.07,0.13,-0.99,3.85,1.40,0.18
23.1490,0.08,0.14,-0.98,3.66,0.92,-0.12
23.1650,0.08,0.13,-0.99,3.97,0.73,0.24
23.1880,0.08,0.13,-0.99,3.85,0.85,-0.31
23.2040,0.08,0.14,-0.99,3.78,0.92,-0.49
23.2200,0.08,0.14,-0.99,3.54,1.10,0.18
23.2360,0.08,0.13,-0.99,3.72,0.79,0.85
23.2530,0.08,0.13,-0.99,3.48,0.73,0.79
23.2550,0.07,0.12,-0.99,3.72,0.79,0.18
23.2710,0.07,0.12,-0.99,3.66,0.98,-0.49
23.2990,0.08,0.13,-0.99,3.78,1.59,-0.85
23.3100,0.07,0.13,-0.99,3.78,1.22,-1.22
23.3260,0.08,0.14,-0.99,3.91,1.16,-0.85
23.3440,0.08,0.14,-0.99,3.85,1.16,-0.85
23.3620,0.08,0.14,-0.99,3.78,1.04,-0.55
23.3760,0.08,0.13,-0.99,3.66,1.16,-0.31
23.3940,0.08,0.13,-0.99,3.78,0.79,-0.55
23.4090,0.07,0.13,-0.99,3.91,0.98,-0.85
23.4250,0.08,0.14,-0.99,3.85,1.28,-0.06
23.4420,0.08,0.14,-0.98,3.60,0.73,0.67
23.4570,0.08,0.13,-0.99,3.72,0.85,1.10
23.4730,0.08,0.13,-0.99,3.60,0.85,0.73
23.4880,0.08,0.13,-0.99,3.66,0.73,0.24
23.5040,0.08,0.14,-0.99,3.78,1.22,0.37
23.5180,0.08,0.14,-0.99,3.66,1.16,0.37
23.5270,0.08,0.13,-0.99,3.72,0.92,0.79
23.5430,0.08,0.13,-0.99,3.72,0.98,0.73
23.5660,0.07,0.12,-0.99,3.85,0.98,0.12
23.5830,0.07,0.13,-0.99,3.48,0.92,-0.31
23.6000,0.08,0.13,-0.99,3.85,0.61,-0.18
23.6150,0.08,0.13,-0.99,3.66,0.98,-0.55
23.6310,0.08,0.13,-0.99,3.78,1.22,-1.59
23.6360,0.08,0.14,-0.98,3.85,1.22,-1.16
23.6530,0.08,0.13,-0.99,3.78,1.10,-0.79
23.6780,0.08,0.14,-0.99,3.97,0.73,-0.12
23.6860,0.08,0.13,-0.99,3.85,0.67,0.12
23.7040,0.08,0.12,-0.99,3.60,0.73,-0.31
23.7200,0.08,0.13,-0.99,3.78,0.79,-0.85
23.7360,0.08,0.14,-0.99,3.78,0.92,-1.28
23.7530,0.07,0.14,-0.99,3.97,0.49,-0.55
23.7690,0.07,0.13,-0.99,3.78,0.73,-0.24
23.7870,0.08,0.13,-0.99,3.72,0.43,-0.24
23.8020,0.08,0.12,-0.99,3.66,0.92,-0.67
23.8170,0.08,0.13,-0.99,3.85,0.92,-1.71
23.8190,0.08,0.14,-0.99,3.72,1.04,-1.22
23.8370,0.08,0.14,-0.98,3.91,0.67,-0.12
23.8530,0.07,0.14,-0.99,3.85,0.67,0.49
23.8810,0.08,0.14,-0.99,3.54,0.55,0.73
23.8850,0.08,0.13,-0.99,3.85,0.85,0.92
23.9010,0.08,0.13,-0.99,3.60,0.49,0.73
23.9250,0.08,0.12,-0.99,3.60,0.37,0.79
23.9410,0.08,0.13,-0.99,3.66,0.79,0.49
23.9570,0.08,0.13,-0.99,3.72,0.73,-0.12
23.9720,0.08,0.13,-0.99,3.66,0.73,-0.61
23.9880,0.08,0.14,-0.99,3.85,0.98,-1.16
24.0040,0.08,0.14,-0.99,3.72,0.92,-0.55
24.0200,0.08,0.13,-0.99,3.85,1.10,-0.18
24.0360,0.08,0.13,-0.99,3.66,0.67,0.00
24.0520,0.08,0.13,-0.99,3.66,0.61,-0.24
24.0580,0.08,0.13,-0.99,3.72,0.55,-0.49
24.0730,0.08,0.13,-0.99,3.66,0.49,-0.18
24.0960,0.08,0.12,-0.99,3.91,0.67,0.06
24.1130,0.08,0.13,-0.99,3.72,0.98,-0.31
24.1290,0.08,0.13,-0.99,3.85,0.55,-0.55
24.1460,0.08,0.14,-0.99,3.78,0.67,-0.61
24.1610,0.08,0.14,-0.99,3.54,0.73,-0.06
24.1780,0.08,0.13,-0.99,3.78,0.49,0.37
24.1940,0.08,0.13,-0.99,3.66,0.85,0.18
24.2090,0.08,0.13,-0.99,3.85,0.85,0.12
24.2130,0.08,0.12,-0.99,3.54,0.61,0.18
24.2350,0.08,0.13,-0.99,3.72,0.92,-0.92
24.2540,0.08,0.13,-0.99,3.66,0.67,-1.34
24.2550,0.07,0.10,-0.99,3.97,0.73,-1.34
24.2710,0.08,0.14,-0.99,3.97,0.67,-1.34
24.2880,0.08,0.13,-0.99,3.85,0.85,-1.22
24.3160,0.08,0.13,-0.98,3.66,0.98,-0.67
24.3320,0.08,0.13,-0.99,3.72,0.85,-0.67
24.3380,0.08,0.13,-0.99,3.66,1.10,-0.92
24.3530,0.07,0.13,-0.99,3.72,0.92,-1.16
24.3780,0.08,0.13,-0.99,3.85,0.79,-1.22
24.3930,0.08,0.14,-0.99,3.66,0.67,-0.73
24.4100,0.08,0.13,-0.99,3.60,0.79,-0.06
24.4250,0.08,0.13,-0.99,3.54,0.73,0.12
24.4410,0.08,0.13,-0.99,3.78,0.79,-0.12
24.4450,0.08,0.13,-0.99,3.97,0.67,-0.61
24.4610,0.08,0.13,-0.99,3.54,0.73,-0.37
24.4840,0.08,0.13,-0.99,3.66,0.73,-0.31
24.5020,0.08,0.14,-0.99,3.85,0.67,-0.43
24.5170,0.08,0.12,-0.99,3.85,1.16,-0.92
24.5340,0.08,0.13,-0.99,3.66,0.67,-1.65
24.5490,0.07,0.13,-0.99,4.03,0.98,-1.16
24.5510,0.08,0.13,-0.99,3.72,1.53,-0.43
24.5680,0.08,0.13,-0.99,3.85,1.10,-0.43
24.5960,0.08,0.13,-0.99,3.78,1.04,-0.55
24.6010,0.08,0.13,-0.99,3.72,0.79,-0.92
24.6260,0.07,0.13,-0.99,3.72,1.16,-2.14
24.6410,0.08,0.13,-0.99,4.09,1.16,-2.20
24.6510,0.07,0.14,-0.99,4.15,0.98,-1.77
24.6660,0.08,0.14,-0.99,4.21,0.61,-1.22
24.6860,0.08,0.13,-0.99,3.78,1.16,-1.10
24.7010,0.08,0.12,-0.99,3.85,1.10,-1.89
24.7080,0.07,0.12,-0.99,3.78,1.22,-2.50
24.7230,0.07,0.14,-0.99,3.97,1.34,-2.14
24.7400,0.07,0.14,-0.99,3.78,1.22,-1.22
24.7620,0.08,0.15,-0.98,3.66,0.98,-0.37
24.7630,0.08,0.13,-0.99,3.72,0.55,0.73
24.7810,0.07,0.13,-0.99,3.42,0.85,0.49
24.7970,0.08,0.12,-0.99,3.85,0.61,-0.43
24.8210,0.08,0.13,-0.99,4.03,0.85,-1.16
24.8370,0.07,0.14,-0.99,3.91,1.04,0.31
24.8530,0.08,0.13,-0.99,3.97,0.85,0.61
24.8720,0.08,0.13,-0.99,3.60,0.67,0.18
24.8870,0.08,0.13,-0.99,3.85,0.73,-0.79
24.9050,0.07,0.14,-0.99,3.78,1.10,-0.61
24.9200,0.08,0.13,-0.99,3.54,0.85,0.43
24.9360,0.08,0.13,-0.99,3.54,0.61,0.98
24.9530,0.08,0.13,-0.99,3.78,0.55,0.98
24.9540,0.08,0.12,-0.99,3.54,0.67,0.24
24.9840,0.08,0.16,-0.99,3.97,0.92,-1.22
24.9870,0.08,0.13,-0.99,3.97,0.92,-1.16
25.0160,0.07,0.13,-0.99,3.72,0.98,-0.67
25.0320,0.08,0.13,-0.99,3.78,0.79,-0.18
25.0380,0.08,0.13,-0.99,3.85,0.61,-0.61
25.0620,0.08,0.13,-0.99,3.66,0.73,-0.92
25.0710,0.08,0.13,-0.99,3.72,1.46,-1.22
25.0860,0.08,0.13,-0.99,3.78,1.59,-1.22
25.1040,0.07,0.14,-0.99,3.85,0.98,-1.22
25.1200,0.08,0.13,-0.99,3.91,0.61,-0.85
25.1380,0.08,0.12,-0.99,3.91,1.10,-1.59
25.1530,0.07,0.12,-0.99,3.91,1.34,-2.38
25.1700,0.08,0.12,-0.99,3.91,1.34,-2.62
25.1860,0.08,0.13,-0.99,3.97,1.89,-3.97
25.1880,0.07,0.14,-0.99,4.09,1.77,-4.15
25.2170,0.08,0.14,-0.99,4.03,1.28,-2.50
25.2330,0.08,0.14,-0.99,3.97,1.22,-1.53
25.2490,0.08,0.14,-0.98,3.97,0.92,-1.34
25.2540,0.08,0.13,-0.99,3.72,1.16,-0.61
25.2700,0.08,0.13,-0.99,3.78,1.16,-0.92
25.2860,0.08,0.13,-0.99,3.66,1.10,-0.98
25.3120,0.08,0.13,-0.99,3.85,1.22,-0.37
25.3200,0.08,0.12,-0.99,3.72,1.16,-0.43
25.3370,0.08,0.13,-0.99,3.66,1.16,-0.85
25.3570,0.08,0.14,-0.99,3.60,1.28,-0.73
25.3610,0.08,0.13,-0.99,3.72,0.61,-0.67
25.3880,0.08,0.13,-0.99,3.78,0.92,-0.79
25.3930,0.08,0.13,-0.99,3.85,0.85,-1.04
25.4090,0.08,0.13,-0.99,4.09,0.73,-1.04
25.4290,0.08,0.12,-0.99,3.85,1.34,-1.28
25.4450,0.08,0.13,-0.99,4.03,1.16,-2.50
25.4630,0.08,0.14,-0.99,3.97,0.92,-2.08
25.4790,0.08,0.14,-0.99,3.91,0.98,-1.59
25.4940,0.08,0.14,-0.99,3.60,0.92,-1.04
25.5100,0.08,0.13,-0.99,3.72,0.67,-0.92
25.5240,0.07,0.14,-0.99,3.85,0.61,-0.85
25.5390,0.08,0.13,-0.99,3.78,0.85,-0.18
25.5450,0.08,0.13,-0.99,3.72,0.92,-0.24
25.5610,0.08,0.12,-0.99,3.85,0.61,-0.92
25.5850,0.08,0.12,-0.99,3.91,0.79,-3.05
25.6010,0.07,0.13,-0.99,4.21,1.53,-4.70
25.6030,0.08,0.14,-0.98,3.97,1.59,-3.91
25.6330,0.08,0.14,-0.99,4.15,1.22,-2.62
25.6380,0.07,0.14,-0.98,3.85,1.16,-1.53
25.6640,0.07,0.14,-0.99,3.78,0.85,-1.16
25.6690,0.08,0.13,-0.99,4.03,0.85,-0.61
25.6950,0.08,0.12,-0.99,3.66,0.79,-0.85
25.7030,0.08,0.13,-0.99,3.72,1.34,-1.89
25.7180,0.07,0.14,-0.98,3.97,1.04,-1.95
25.7370,0.07,0.14,-0.98,3.91,1.10,-0.55
25.7570,0.08,0.12,-0.99,3.66,0.79,0.24
25.7730,0.07,0.13,-0.99,3.72,0.79,-0.61
25.7880,0.08,0.13,-0.99,3.66,1.04,-0.61
25.7920,0.08,0.13,-0.99,3.85,1.10,-1.34
25.8200,0.08,0.13,-0.99,3.97,1.04,-1.89
25.8360,0.08,0.13,-0.99,3.85,1.10,-1.22
25.8420,0.08,0.12,-0.99,3.91,0.79,-1.40
25.8670,0.08,0.13,-0.99,3.78,1.04,-1.77
25.8820,0.08,0.13,-0.99,4.15,1.04,-1.40
25.8920,0.08,0.13,-0.99,3.91,1.04,-1.71
25.9090,0.08,0.14,-0.99,3.97,1.34,-2.50
25.9250,0.07,0.13,-0.99,4.03,1.59,-2.62
25.9430,0.08,0.13,-0.99,3.85,1.10,-1.89
25.9590,0.08,0.12,-0.99,4.03,1.28,-2.93
25.9750,0.08,0.12,-0.99,3.97,1.53,-3.66
25.9900,0.08,0.13,-0.99,4.09,1.53,-3.66
26.0070,0.07,0.16,-0.98,4.21,1.40,-2.44
26.0220,0.08,0.15,-0.99,3.97,0.92,-0.55
26.0370,0.07,0.14,-0.99,3.66,1.10,0.00
26.0520,0.08,0.13,-0.99,3.60,0.85,0.49
26.0670,0.08,0.13,-0.99,3.72,0.79,0.31
26.0760,0.08,0.12,-0.99,3.72,0.79,-0.49
26.0910,0.08,0.13,-0.99,3.85,1.22,-1.16
26.1090,0.08,0.14,-0.99,3.78,0.85,-0.43
26.1260,0.08,0.13,-0.99,3.66,0.67,0.24
26.1410,0.08,0.10,-0.99,3.60,0.61,-0.37
26.1600,0.07,0.12,-0.99,3.60,0.67,-0.92
26.1750,0.08,0.13,-0.99,3.78,1.46,-1.77
26.1790,0.08,0.14,-0.99,3.85,0.67,-1.83
26.1940,0.08,0.14,-0.99,3.97,0.98,-0.67
26.2140,0.08,0.13,-0.99,3.91,0.85,-0.43
26.2380,0.08,0.12,-0.99,4.03,0.67,-1.40
26.2470,0.08,0.13,-0.99,3.72,1.10,-1.77
26.2690,0.08,0.13,-0.99,3.97,1.04,-1.77
26.2860,0.08,0.13,-0.99,3.78,0.92,-1.10
26.3020,0.08,0.14,-0.98,3.91,1.10,-1.04
26.3030,0.08,0.13,-0.99,3.78,0.85,-0.43
26.3340,0.08,0.12,-0.99,3.78,0.85,-1.10
26.3390,0.07,0.12,-0.99,3.97,1.04,-2.50
26.3650,0.08,0.13,-0.99,4.09,1.16,-2.44
26.3690,0.08,0.13,-0.99,4.09,1.22,-2.01
26.3950,0.08,0.13,-0.99,3.91,1.16,-1.83
26.4010,0.08,0.13,-0.99,3.66,1.10,-2.08
26.4190,0.08,0.12,-0.99,3.91,1.28,-2.81
26.4390,0.07,0.14,-0.99,4.21,1.16,-3.36
26.4520,0.07,0.15,-0.98,3.78,1.16,-1.89
26.4720,0.08,0.15,-0.99,3.78,1.16,-0.85
26.4870,0.08,0.14,-0.99,3.54,1.10,0.12
26.5030,0.08,0.12,-0.99,3.66,0.79,-0.55
26.5070,0.08,0.12,-0.99,3.97,0.92,-1.95
26.5230,0.08,0.13,-0.99,3.91,1.34,-2.87
26.5500,0.08,0.15,-0.98,3.97,1.28,-2.44
26.5570,0.08,0.15,-0.98,4.03,0.67,-0.85
26.5720,0.08,0.14,-0.99,3.85,0.43,-0.55
26.5960,0.08,0.13,-0.99,3.72,0.24,0.37
26.5970,0.08,0.13,-0.99,3.78,0.92,-0.12
26.6150,0.07,0.12,-0.99,3.91,1.04,0.00
26.6390,0.07,0.12,-0.99,3.66,1.28,-0.61
26.6480,0.08,0.13,-0.99,3.72,1.16,-0.92
26.6640,0.07,0.14,-0.98,4.03,1.28,-1.77
26.6820,0.08,0.14,-0.99,3.78,1.10,-0.49
26.6980,0.08,0.13,-0.99,3.66,0.31,-0.31
26.7150,0.07,0.12,-0.99,4.03,0.49,-1.34
26.7310,0.08,0.13,-0.99,3.97,1.10,-2.14
26.7480,0.08,0.14,-0.99,4.09,0.85,-1.95
26.7640,0.08,0.14,-0.99,3.91,0.85,-1.46
26.7830,0.08,0.13,-0.99,3.66,0.61,-0.98
26.7980,0.07,0.14,-0.99,3.72,0.79,-1.65
26.7980,0.08,0.14,-0.99,3.97,0.85,-1.10
26.8150,0.08,0.13,-0.99,3.72,1.10,-0.73
26.8400,0.08,0.13,-0.99,3.78,0.85,-1.59
26.8590,0.08,0.13,-0.99,3.85,1.22,-1.83
26.8750,0.08,0.13,-0.99,3.91,0.92,-1.53
26.8900,0.08,0.14,-0.99,3.78,1.04,-0.67
26.8980,0.08,0.13,-0.99,3.78,0.55,0.43
26.9140,0.08,0.13,-0.99,3.54,0.85,0.61
26.9300,0.08,0.13,-0.99,3.78,0.79,0.12
26.9530,0.08,0.13,-0.99,3.66,0.79,-0.43
26.9550,0.08,0.13,-0.99,3.78,0.55,-0.55
26.9820,0.08,0.13,-0.99,3.78,0.98,0.12
26.9980,0.08,0.13,-0.99,3.85,0.61,0.00
27.0060,0.08,0.14,-0.99,3.91,0.55,0.67
27.0220,0.08,0.13,-0.99,3.54,0.43,0.85
27.0400,0.08,0.12,-0.99,3.66,0.73,0.61
27.0550,0.08,0.12,-0.99,3.66,0.92,-0.79
27.0750,0.08,0.13,-0.99,3.91,0.92,-2.26
27.0900,0.08,0.13,-0.99,3.85,1.04,-2.01
27.1050,0.08,0.14,-0.99,3.78,0.92,-1.53
27.1200,0.07,0.14,-0.99,3.78,0.92,-0.73
27.1270,0.08,0.14,-0.99,3.78,0.79,0.00
27.1440,0.08,0.13,-0.99,3.60,0.67,0.92
27.1590,0.08,0.13,-0.99,3.66,0.49,0.37
27.1810,0.08,0.12,-0.99,3.97,0.67,-0.73
27.1970,0.08,0.13,-0.99,3.97,1.16,-2.14
27.1990,0.08,0.13,-0.99,3.97,1.22,-2.14
27.2290,0.08,0.14,-0.99,3.91,0.85,-1.77
27.2440,0.08,0.14,-0.99,3.78,0.98,-0.85
27.2600,0.08,0.13,-0.99,3.85,0.55,-0.18
27.2760,0.08,0.13,-0.99,4.03,0.61,-0.55
27.2830,0.08,0.12,-0.99,3.78,0.98,-1.10
27.3060,0.08,0.15,-0.99,3.97,0.67,-1.83
27.3160,0.08,0.13,-0.99,3.91,0.98,-2.01
27.3310,0.08,0.14,-0.99,4.03,0.61,-1.46
27.3540,0.08,0.14,-0.99,3.54,1.34,-0.79
27.3700,0.08,0.14,-0.99,3.54,1.40,-0.37
27.3850,0.08,0.13,-0.99,3.66,1.10,0.12
27.4010,0.08,0.12,-0.99,3.54,0.61,-0.24
27.4160,0.08,0.12,-0.99,3.85,0.43,-1.22
27.4200,0.08,0.13,-0.99,3.78,0.67,-1.53
27.4410,0.08,0.13,-0.99,3.78,0.85,-1.04
27.4590,0.08,0.14,-0.99,4.03,0.61,-0.73
27.4760,0.08,0.13,-0.99,3.85,0.43,-0.18
27.4770,0.08,0.13,-0.99,3.72,0.73,0.43
27.5070,0.08,0.14,-0.99,3.78,0.24,0.43
27.5230,0.08,0.13,-0.99,3.60,0.73,0.31
27.5390,0.08,0.12,-0.99,3.72,0.67,-0.06
27.5540,0.08,0.13,-0.99,3.78,0.98,-0.98
27.5710,0.08,0.13,-0.99,3.66,1.28,-1.16
27.5860,0.08,0.14,-0.98,3.97,1.04,-1.10
27.6020,0.08,0.14,-0.99,3.97,1.10,-0.98
27.6170,0.08,0.14,-0.99,3.91,0.73,-0.79
27.6260,0.08,0.13,-0.99,3.85,0.98,-0.24
27.6410,0.07,0.13,-0.99,3.97,1.04,-1.22
27.6630,0.07,0.13,-0.99,3.97,0.79,-0.85
27.6640,0.08,0.13,-0.99,3.85,0.92,-0.43
27.6800,0.08,0.14,-0.99,3.91,0.79,-0.67
27.6980,0.08,0.13,-0.99,3.78,0.73,-0.43
27.7260,0.08,0.13,-0.99,3.72,1.04,-0.55
27.7420,0.08,0.13,-0.99,3.66,0.92,-1.04
27.7480,0.07,0.13,-0.99,3.85,1.10,-1.34
27.7720,0.08,0.13,-0.99,3.97,0.85,-0.92
27.7810,0.08,0.14,-0.99,3.78,0.92,-0.98
27.7980,0.08,0.14,-0.99,3.66,0.67,-0.06
27.8140,0.08,0.13,-0.99,3.48,0.79,0.37
27.8310,0.08,0.13,-0.99,3.72,1.10,0.12
27.8490,0.08,0.13,-0.99,3.97,0.85,-0.43
27.8650,0.08,0.13,-0.99,3.60,1.16,-0.43
27.8830,0.08,0.13,-0.99,3.60,0.79,-0.18
27.8850,0.08,0.13,-0.99,3.91,1.40,-1.04
27.9010,0.08,0.14,-0.99,3.97,0.98,-0.98
27.9190,0.08,0.14,-0.98,3.85,1.40,-0.24
27.9420,0.08,0.14,-0.98,3.85,0.73,0.92
27.9510,0.08,0.13,-0.99,3.60,0.37,1.10
27.9770,0.08,0.13,-0.99,3.60,0.73,0.79
27.9870,0.08,0.13,-0.99,3.42,0.37,0.37
28.0040,0.08,0.14,-0.99,3.66,0.55,0.55
28.0190,0.08,0.13,-0.99,3.66,0.31,0.92
28.0390,0.08,0.13,-0.99,3.60,0.85,0.85
28.0430,0.08,0.12,-0.99,3.54,0.61,-0.31
28.0710,0.07,0.12,-0.99,3.60,0.92,-0.73
28.0860,0.08,0.12,-0.99,3.85,1.04,-1.53
28.1010,0.08,0.13,-0.99,3.91,1.28,-2.01
28.1090,0.08,0.13,-0.99,3.72,1.10,-1.59
28.1250,0.08,0.15,-0.99,4.03,0.73,-0.85
28.1420,0.08,0.14,-0.99,3.97,0.85,-0.37
28.1600,0.08,0.13,-0.99,3.60,0.49,0.85
28.1760,0.08,0.12,-0.99,3.66,0.67,-0.37
28.1760,0.08,0.13,-0.99,3.91,1.16,-1.77
28.1940,0.08,0.13,-0.99,3.85,0.85,-1.95
28.2100,0.08,0.13,-0.99,3.91,0.92,-1.71
28.2370,0.08,0.13,-0.98,3.97,0.73,-1.59
28.2530,0.08,0.14,-0.99,3.85,1.10,-1.22
28.2680,0.08,0.14,-0.99,3.91,1.34,-0.79
28.2760,0.08,0.13,-0.99,3.72,0.55,-0.31
28.2930,0.08,0.12,-0.99,3.85,0.79,-0.49
28.3090,0.08,0.12,-0.99,3.72,0.79,-1.04
28.3250,0.08,0.14,-0.99,3.85,0.98,-1.34
28.3460,0.08,0.14,-0.98,3.85,0.61,-0.43
28.3470,0.08,0.13,-0.99,3.78,0.73,0.55
28.3650,0.08,0.13,-0.99,3.97,0.79,-0.06
28.3800,0.08,0.12,-0.99,3.72,0.85,-0.55
28.4100,0.08,0.13,-0.99,3.72,0.85,-0.49
28.4140,0.08,0.14,-0.98,3.60,0.73,0.24
28.4300,0.08,0.14,-0.99,3.54,0.67,0.43
28.4530,0.08,0.13,-0.99,3.60,0.61,0.37
28.4710,0.08,0.13,-0.99,3.54,1.28,-0.43
28.4870,0.08,0.13,-0.99,3.97,0.61,-1.10
28.5030,0.08,0.12,-0.99,4.03,1.10,-0.92
28.5040,0.08,0.13,-0.99,3.78,1.22,-1.34
28.5200,0.08,0.14,-0.99,3.85,1.04,-1.34
28.5440,0.08,0.14,-0.99,3.85,0.73,-0.49
28.5600,0.08,0.12,-0.99,3.66,0.98,-0.43
28.5780,0.08,0.12,-0.99,3.85,1.22,-1.53
28.5940,0.08,0.12,-0.99,3.97,1.10,-2.44
28.6100,0.08,0.13,-0.99,3.91,1.22,-2.44
28.6260,0.08,0.14,-0.99,3.97,1.22,-2.38
28.6410,0.09,0.15,-0.98,3.60,1.16,-1.10
28.6440,0.08,0.13,-0.99,3.91,0.67,-0.73
28.6730,0.08,0.13,-0.99,3.72,0.43,-0.67
28.6890,0.08,0.12,-0.99,3.72,1.16,-1.10
28.7040,0.08,0.13,-0.99,3.85,0.98,-1.22
28.7190,0.08,0.14,-0.99,3.72,1.34,-0.67
28.7350,0.08,0.15,-0.98,3.91,0.67,15.56
28.7500,0.08,0.14,-0.99,3.54,0.85,0.73
28.7600,0.08,0.13,-0.99,3.48,0.73,0.31
28.7760,0.07,0.12,-0.99,3.78,0.98,-0.43
28.7970,0.07,0.12,-0.99,3.78,0.85,-0.55
28.8130,0.08,0.13,-0.99,3.72,0.85,-1.04
28.8280,0.08,0.14,-0.99,3.72,0.92,-0.79
28.8440,0.08,0.14,-0.99,3.72,0.61,-0.73
28.8600,0.08,0.13,-0.99,3.85,0.67,-0.18
28.8630,0.08,0.12,-0.99,3.78,0.85,-0.61
28.8790,0.07,0.13,-0.99,3.78,0.85,-1.65
28.9020,0.08,0.14,-0.98,3.85,0.61,-0.73
28.9180,0.08,0.14,-0.99,3.85,0.98,0.12
28.9350,0.08,0.14,-0.99,3.91,0.73,0.85
28.9520,0.08,0.13,-0.99,3.66,0.61,0.79
28.9670,0.08,0.13,-0.99,3.66,0.67,0.43
28.9690,0.07,0.13,-0.99,3.78,0.24,0.67
29.0000,0.08,0.14,-0.99,3.60,0.37,0.98
29.0020,0.08,0.14,-0.99,3.48,0.43,1.46
29.0320,0.08,0.13,-0.99,3.66,0.31,1.46
29.0470,0.08,0.13,-0.99,3.60,0.43,1.40
29.0630,0.08,0.13,-0.99,3.54,0.31,1.34
29.0680,0.08,0.13,-0.99,3.78,0.37,1.34
29.0950,0.08,0.13,-0.99,3.72,0.12,1.40
29.1010,0.08,0.14,-0.99,3.72,0.00,1.46
29.1180,0.08,0.13,-0.99,3.66,0.55,1.46
29.1340,0.08,0.13,-0.99,3.54,0.24,1.40
29.1560,0.08,0.14,-0.99,3.60,0.61,1.40
29.1720,0.08,0.13,-0.98,3.36,0.49,1.53
29.1870,0.08,0.13,-0.99,3.17,0.31,1.53
29.1890,0.08,0.13,-0.99,3.30,0.49,1.46
29.2050,0.08,0.14,-1.00,3.48,0.37,1.40
29.2340,0.08,0.13,-0.98,3.42,0.49,1.34
29.2440,0.08,0.13,-0.99,3.66,0.06,1.34
29.2650,0.08,0.13,-0.99,3.72,-0.31,1.40
29.2740,0.08,0.13,-0.99,3.48,0.55,1.46
29.2900,0.08,0.13,-0.99,3.17,0.37,1.46
29.3080,0.07,0.13,-0.99,3.42,0.49,2.62
29.3240,0.08,0.13,-0.98,3.30,0.37,2.75
29.3410,0.08,0.13,-0.99,3.48,0.31,2.38
29.3440,0.08,0.13,-0.99,3.17,0.18,2.62
29.3580,0.08,0.13,-0.99,3.54,0.49,2.14
29.3750,0.08,0.13,-0.99,3.54,0.12,2.75
29.4030,0.08,0.13,-0.99,3.66,0.24,3.05
29.4190,0.05,0.12,-0.99,4.03,-0.24,3.42
29.4250,0.01,0.13,-0.99,3.91,0.49,3.72
29.4440,0.08,0.12,-0.99,3.78,0.18,3.91
29.4650,0.08,0.13,-0.99,2.87,0.98,3.72
29.4670,0.08,0.13,-0.99,2.62,1.34,3.78
29.4960,0.08,0.13,-0.99,2.99,0.79,4.09
29.5000,0.08,0.13,-0.99,3.17,0.43,4.39
29.5270,0.07,0.13,-0.99,3.17,0.55,4.33
29.5330,0.08,0.13,-0.99,3.11,0.55,4.21
29.5500,0.08,0.13,-0.99,3.17,0.43,3.97
29.5660,0.07,0.14,-0.99,3.23,0.49,3.97
29.5820,0.07,0.14,-0.99,3.36,-0.12,4.70
29.5990,0.08,0.13,-0.99,3.48,-0.06,5.07
29.6170,0.08,0.13,-0.99,3.48,0.18,3.91
29.6330,0.08,0.13,-0.99,3.60,0.12,3.72
29.6490,0.08,0.13,-0.99,3.66,0.12,2.99
29.6670,0.08,0.13,-0.99,3.48,0.31,2.99
29.6830,0.07,0.13,-0.99,3.54,0.43,2.81
29.6980,0.08,0.13,-0.99,3.60,0.12,2.93
29.7000,0.08,0.13,-0.99,3.66,0.43,2.50
29.7290,0.08,0.13,-0.99,3.91,0.49,1.95
29.7440,0.07,0.13,-0.99,3.97,0.24,1.65
29.7500,0.08,0.13,-0.99,3.66,0.31,1.71
29.7650,0.06,0.13,-0.99,3.48,0.61,1.65
29.7890,0.08,0.13,-0.99,3.72,0.92,1.53
29.8070,0.08,0.13,-0.99,3.66,0.92,1.46
29.8220,0.07,0.13,-0.99,3.60,0.61,1.34
29.8380,0.08,0.13,-0.99,3.60,0.67,1.40
29.8530,0.08,0.13,-0.99,3.48,0.49,1.40
29.8700,0.08,0.13,-0.99,3.60,0.67,1.40
29.8720,0.07,0.13,-0.99,3.60,0.85,1.65
29.8870,0.07,0.13,-0.99,3.66,0.79,1.59
29.9110,0.07,0.13,-0.99,3.60,0.37,1.53
29.9270,0.08,0.14,-0.99,3.60,0.31,1.53
29.9450,0.07,0.14,-0.99,3.60,0.18,1.59
29.9610,0.08,0.13,-0.99,3.48,0.55,1.83
29.9770,0.09,0.13,-0.99,3.30,0.67,1.95
29.9930,0.08,0.13,-0.99,3.54,0.79,1.83
30.0090,0.08,0.13,-0.99,3.54,0.24,1.65
30.0250,0.07,0.13,-0.99,3.85,0.31,1.71
30.0410,0.07,0.13,-0.99,3.48,0.49,1.83
30.0570,0.07,0.13,-0.99,3.72,0.67,2.20
30.0710,0.08,0.13,-0.99,3.60,0.49,2.20
30.0870,0.08,0.13,-0.99,3.54,0.61,2.01
30.0940,0.07,0.13,-0.99,3.66,0.55,2.08
30.1100,0.06,0.13,-0.99,3.66,0.06,2.01
30.1320,0.07,0.13,-0.99,3.78,0.55,2.14
30.1480,0.08,0.13,-0.99,3.91,0.73,1.89
30.1510,0.08,0.13,-0.99,3.78,0.85,1.40
30.1680,0.08,0.13,-0.98,3.78,0.31,0.92
30.1960,0.08,0.13,-0.99,3.66,0.67,1.10
30.2000,0.08,0.13,-0.99,3.42,0.92,1.04
30.2170,0.08,0.13,-0.99,3.78,0.67,1.22
30.2330,0.09,0.13,-0.99,3.72,0.37,1.22
30.2550,0.08,0.13,-0.99,3.78,0.31,1.22
30.2730,0.08,0.13,-0.99,3.85,0.61,1.34
30.2890,0.07,0.13,-0.99,3.48,0.43,1.28
30.2890,0.07,0.13,-0.99,3.42,0.92,1.34
30.3200,0.08,0.13,-0.99,3.54,0.85,1.40
30.3350,0.08,0.13,-0.99,3.54,0.92,1.53
30.3500,0.08,0.13,-0.99,3.54,0.49,1.40
30.3660,0.08,0.13,-0.99,3.60,0.61,1.40
30.3830,0.08,0.13,-0.99,3.48,0.67,1.53
30.3990,0.08,0.13,-0.99,3.54,0.73,1.46
30.4140,0.07,0.13,-0.99,3.30,0.61,1.46
30.4300,0.08,0.13,-0.99,3.42,0.73,1.53
30.4390,0.08,0.13,-0.99,3.54,0.61,1.53
30.4550,0.07,0.13,-0.99,3.54,0.37,1.53
30.4720,0.08,0.13,-0.99,3.91,0.37,1.53
30.4880,0.07,0.13,-0.99,3.60,0.37,1.34
30.5060,0.07,0.13,-0.99,3.66,0.79,1.59
30.5210,0.08,0.13,-0.99,3.54,0.37,1.34
30.5370,0.08,0.13,-0.99,3.78,0.55,1.59
30.5530,0.08,0.13,-0.99,3.85,0.18,1.40
30.5680,0.08,0.13,-0.99,3.60,0.49,1.04
30.5830,0.08,0.13,-0.99,3.36,0.49,1.40
30.5990,0.08,0.13,-0.99,3.42,0.61,1.40
30.6150,0.08,0.13,-0.99,3.48,0.43,1.34
30.6300,0.07,0.13,-0.99,3.54,0.24,1.16
30.6390,0.08,0.13,-0.99,3.85,0.31,1.28
30.6560,0.08,0.13,-0.99,3.66,0.67,1.28
30.6720,0.08,0.13,-0.99,3.60,0.73,1.40
30.6890,0.08,0.13,-0.99,3.42,0.61,1.22
30.7050,0.07,0.13,-0.99,3.42,0.37,1.46
30.7200,0.07,0.13,-0.99,3.30,0.55,1.59
30.7350,0.07,0.13,-0.99,3.54,0.79,1.65
30.7510,0.08,0.13,-0.99,3.48,0.37,1.77
30.7680,0.08,0.13,-0.99,3.66,0.79,1.59
30.7710,0.07,0.13,-0.99,3.48,0.24,1.59
30.7870,0.07,0.13,-0.99,3.48,0.12,1.59
30.8100,0.07,0.13,-0.99,3.60,0.31,1.77
30.8260,0.08,0.13,-0.99,3.72,0.00,2.01
30.8470,0.08,0.13,-0.99,3.72,0.67,1.89
30.8590,0.08,0.13,-0.99,3.78,0.31,1.71
30.8770,0.08,0.13,-0.99,3.78,0.49,1.59
30.8930,0.08,0.13,-0.99,3.48,0.67,1.59
30.9090,0.08,0.13,-0.99,3.54,0.55,1.34
30.9110,0.07,0.13,-0.99,3.78,0.24,1.46
30.9410,0.07,0.13,-0.99,3.78,0.18,1.53
30.9580,0.08,0.13,-1.00,4.09,0.43,1.53
30.9730,0.08,0.13,-0.99,4.82,0.24,1.65
30.9880,0.07,0.13,-0.99,3.85,0.12,1.83
31.0030,0.08,0.13,-0.99,3.66,0.37,2.14
31.0180,0.08,0.13,-0.99,3.72,0.18,2.32
31.0330,0.08,0.13,-0.99,3.66,0.31,1.89
31.0470,0.07,0.13,-0.98,3.91,0.24,1.89
31.0590,0.07,0.13,-0.99,3.78,0.24,2.08
31.0760,0.07,0.13,-0.99,3.72,0.37,2.32
31.0930,0.07,0.13,-0.99,3.72,0.49,2.50
31.1090,0.08,0.13,-0.99,3.72,0.67,2.50
31.1250,0.08,0.13,-0.99,3.48,0.31,2.32
31.1420,0.07,0.13,-0.99,3.60,0.37,2.26
31.1470,0.07,0.13,-0.99,3.72,0.12,2.81
31.1730,0.06,0.13,-0.99,3.66,0.18,3.42
31.1880,0.08,0.13,-0.99,3.60,0.18,4.21
31.2020,0.08,0.13,-0.99,3.17,0.24,4.27
31.2100,0.08,0.14,-0.99,3.30,0.06,3.42
31.2330,0.07,0.13,-0.99,3.54,0.18,3.36
31.2470,0.07,0.13,-0.99,3.48,0.24,3.66
31.2590,0.07,0.13,-0.99,3.72,0.00,4.03
31.2770,0.08,0.13,-0.99,3.72,0.06,4.33
31.2920,0.09,0.14,-0.99,3.60,0.00,3.54
31.3090,0.09,0.14,-0.98,3.60,0.31,2.99
31.3250,0.08,0.13,-0.99,3.54,0.61,2.44
31.3410,0.08,0.14,-0.99,3.54,0.73,2.26
31.3570,0.08,0.13,-0.99,3.60,0.49,1.59
31.3720,0.07,0.13,-0.99,3.72,0.43,1.53
31.3870,0.07,0.13,-0.99,3.66,0.55,1.83
31.3930,0.06,0.12,-0.99,3.54,0.67,3.11
31.4090,0.08,0.13,-0.99,3.36,0.18,3.36
31.4300,0.07,0.14,-0.99,3.30,0.37,3.30
31.4470,0.07,0.13,-0.99,3.48,0.43,2.93
31.4630,0.08,0.13,-0.99,3.30,0.67,2.87
31.4790,0.08,0.13,-0.99,3.42,0.61,2.81
31.4950,0.08,0.14,-0.99,3.48,0.73,2.87
31.5110,0.07,0.14,-0.99,3.60,0.06,3.11
31.5130,0.07,0.13,-0.99,3.78,0.31,3.91
31.5300,0.08,0.13,-0.99,3.54,0.12,3.78
31.5480,0.08,0.13,-0.99,3.36,0.55,3.85
31.5640,0.08,0.13,-0.99,3.54,0.61,3.05
31.5800,0.08,0.14,-0.99,3.48,0.49,2.69
31.5950,0.08,0.13,-0.99,3.66,0.67,2.69
31.6190,0.07,0.13,-0.99,3.72,0.67,2.87
31.6220,0.08,0.13,-0.99,3.54,0.24,3.48
31.6480,0.06,0.13,-0.99,3.36,0.18,3.85
31.6670,0.07,0.13,-0.99,3.30,0.37,5.37
31.6720,0.08,0.14,-0.99,3.60,0.31,4.82
31.7000,0.08,0.14,-0.99,3.66,0.37,3.85
31.7050,0.08,0.13,-0.99,3.48,0.24,3.17
31.7300,0.07,0.13,-0.98,3.54,0.31,3.17
31.7380,0.08,0.13,-0.99,3.60,0.49,3.48
31.7540,0.08,0.13,-0.99,3.66,0.00,3.78
31.7710,0.08,0.13,-0.99,3.36,0.37,3.97
31.7880,0.07,0.13,-0.99,3.36,0.31,3.60
31.8050,0.08,0.13,-0.99,3.42,0.61,3.54
31.8210,0.08,0.14,-0.99,3.36,0.43,3.42
31.8360,0.09,0.14,-0.99,3.66,0.49,3.23
31.8480,0.08,0.14,-0.99,3.66,0.92,2.62
31.8670,0.08,0.13,-0.99,3.54,0.61,2.32
31.8710,0.08,0.13,-0.99,3.66,0.37,2.62
31.8870,0.08,0.13,-0.99,3.66,0.61,2.50
31.9110,0.07,0.13,-0.99,3.48,0.73,2.44
31.9280,0.08,0.13,-0.99,3.48,0.73,2.56
31.9440,0.07,0.13,-0.99,3.60,0.79,2.75
31.9610,0.08,0.13,-0.99,3.54,0.49,3.05
31.9770,0.08,0.14,-0.99,3.42,0.24,2.87
31.9930,0.08,0.13,-0.99,3.36,0.49,2.75
32.0100,0.07,0.13,-0.99,3.48,0.61,2.50
32.0250,0.08,0.13,-0.99,3.54,0.37,2.75
32.0280,0.08,0.13,-0.99,3.54,0.37,2.81
32.0490,0.07,0.13,-0.99,3.30,0.55,2.69
32.0680,0.07,0.13,-0.99,3.30,0.55,2.87
32.0870,0.06,0.13,-0.99,3.66,0.00,3.17
32.1030,0.08,0.13,-0.99,3.36,0.55,3.85
32.1220,0.09,0.14,-0.99,3.17,0.79,3.54
32.1370,0.08,0.14,-0.99,3.48,0.61,2.99
32.1530,0.09,0.13,-0.99,3.54,0.49,2.69
32.1680,0.08,0.13,-0.99,3.60,0.55,2.14
32.1830,0.07,0.13,-0.99,3.54,0.55,2.50
32.1910,0.07,0.13,-0.99,3.54,0.85,2.93
32.2070,0.08,0.13,-0.99,3.54,0.24,3.23
32.2240,0.08,0.14,-0.98,3.66,0.43,3.11
32.2410,0.07,0.14,-0.99,3.48,0.43,2.99
32.2590,0.08,0.13,-0.99,3.54,0.49,2.56
32.2740,0.07,0.13,-0.99,3.72,0.98,2.50
32.2900,0.07,0.13,-0.99,3.54,0.98,2.99
32.3070,0.07,0.13,-0.99,3.78,0.31,3.42
32.3230,0.07,0.14,-0.99,3.72,0.31,3.54
32.3380,0.08,0.13,-0.99,3.60,0.73,3.78
32.3530,0.09,0.13,-0.99,3.66,0.37,3.42
32.3680,0.08,0.13,-0.99,3.78,0.43,3.17
32.3740,0.08,0.13,-0.99,3.48,0.67,2.56
32.3890,0.08,0.13,-0.99,3.48,0.06,2.26
32.4130,0.08,0.14,-0.99,3.54,0.55,2.01
32.4310,0.07,0.13,-0.99,3.66,0.49,2.14
32.4470,0.07,0.13,-0.99,3.72,0.55,2.32
32.4630,0.08,0.14,-0.99,3.30,0.67,2.44
32.4640,0.08,0.14,-0.99,3.42,1.04,2.32
32.4800,0.08,0.13,-0.99,3.42,0.55,2.32
32.5100,0.07,0.14,-0.99,3.54,0.55,2.38
32.5250,0.07,0.13,-0.99,3.85,0.37,2.69
32.5310,0.07,0.14,-0.99,3.54,0.43,2.75
32.5500,0.08,0.14,-0.99,3.72,0.43,2.44
32.5630,0.08,0.14,-0.99,3.54,0.55,1.83
32.5850,0.08,0.13,-0.98,3.78,0.12,1.65
32.6010,0.08,0.13,-0.99,3.72,0.55,1.89
32.6180,0.08,0.13,-0.99,3.60,0.67,2.01
32.6350,0.07,0.13,-0.99,3.85,0.79,2.01
32.6510,0.08,0.13,-0.99,3.66,0.73,2.14
32.6670,0.08,0.13,-0.99,3.36,0.98,2.01
32.6690,0.08,0.13,-0.99,3.42,0.73,1.77
32.6850,0.08,0.13,-0.99,3.48,0.24,1.59
32.7030,0.08,0.13,-0.99,3.54,0.18,1.53
32.7180,0.07,0.14,-0.99,3.66,0.31,1.65
32.7360,0.08,0.13,-0.99,3.60,0.61,2.20
32.7510,0.08,0.13,-0.99,3.66,0.37,1.95
32.7670,0.08,0.14,-0.99,3.60,0.37,2.14
32.7920,0.08,0.13,-0.99,3.60,0.61,1.89
32.8080,0.07,0.14,-0.99,3.36,0.49,1.89
32.8240,0.07,0.13,-0.99,3.60,0.61,2.26
32.8400,0.08,0.13,-0.99,3.72,0.49,2.08
32.8550,0.08,0.13,-0.99,3.66,0.43,2.01
32.8700,0.08,0.13,-0.99,3.72,0.24,1.89
32.8860,0.07,0.13,-0.99,3.36,0.55,1.71
32.9030,0.08,0.13,-0.99,3.66,0.24,1.65
32.9180,0.08,0.13,-0.99,3.48,0.85,1.46
32.9250,0.08,0.13,-0.99,3.60,0.43,1.59
32.9410,0.07,0.14,-0.99,3.60,0.61,1.46
32.9570,0.07,0.13,-0.99,3.30,0.55,1.46
32.9800,0.07,0.14,-0.99,3.72,0.92,1.46
32.9950,0.08,0.13,-0.99,3.66,1.10,1.53
33.0100,0.08,0.14,-0.99,3.85,0.67,1.59
33.0150,0.07,0.13,-0.99,3.91,0.37,1.34
33.0300,0.08,0.13,-0.99,3.78,0.55,1.53
33.0520,0.08,0.14,-0.99,3.48,0.49,1.65
33.0670,0.08,0.13,-0.99,3.60,0.73,1.65
33.0860,0.08,0.13,-0.99,3.72,-0.06,1.65
33.1020,0.07,0.13,-0.99,3.72,0.49,1.71
33.1170,0.07,0.14,-0.99,3.78,0.55,1.65
33.1330,0.07,0.14,-0.99,3.78,0.37,1.83
33.1350,0.08,0.13,-0.99,3.78,0.73,2.26
33.1650,0.07,0.14,-0.99,3.85,0.61,2.26
33.1680,0.07,0.13,-0.99,3.66,0.37,2.38
33.1850,0.08,0.13,-0.99,3.78,0.55,2.50
33.2020,0.07,0.13,-0.99,3.78,0.18,2.93
33.2180,0.07,0.13,-0.99,3.72,0.06,3.23
33.2330,0.07,0.14,-0.99,3.66,0.12,3.36
33.2580,0.08,0.14,-0.99,3.42,0.49,2.93
33.2740,0.09,0.14,-0.98,3.36,0.55,2.69
33.2910,0.08,0.14,-0.99,3.42,0.31,2.01
33.3070,0.07,0.13,-0.99,3.54,0.98,2.01
33.3230,0.07,0.13,-0.99,3.78,0.61,2.26
33.3380,0.07,0.13,-0.99,3.72,0.43,2.50
33.3510,0.08,0.14,-0.99,3.60,0.55,2.32
33.3570,0.08,0.14,-0.99,3.54,0.49,1.95
33.3800,0.08,0.14,-0.99,3.48,0.31,1.95
33.3960,0.07,0.13,-0.99,3.30,0.61,1.95
33.4130,0.07,0.14,-0.99,3.66,0.67,1.83
33.4290,0.07,0.14,-0.99,3.91,0.43,1.83
33.4450,0.08,0.14,-0.99,3.78,0.43,1.89
33.4610,0.08,0.14,-0.99,3.54,0.79,1.83
33.4640,0.07,0.14,-0.99,3.23,0.49,1.71
33.4790,0.08,0.13,-0.99,3.54,0.79,1.71
33.5030,0.07,0.13,-0.99,3.78,0.55,1.65
33.5200,0.08,0.13,-0.99,3.30,0.79,1.65
33.5350,0.08,0.14,-0.99,3.60,0.24,1.59
33.5530,0.08,0.13,-0.99,3.60,0.49,1.46
33.5690,0.08,0.14,-0.99,3.36,0.61,1.46
33.5700,0.08,0.14,-0.99,3.54,0.43,1.16
33.5860,0.07,0.14,-0.99,3.66,0.73,1.28
33.6160,0.07,0.13,-0.99,3.54,1.16,1.16
33.6320,0.07,0.13,-0.99,3.72,0.24,1.40
33.6470,0.08,0.13,-0.99,3.72,0.85,1.53
33.6540,0.08,0.14,-0.99,3.54,0.61,1.59
33.6800,0.08,0.13,-0.99,3.36,1.04,1.46
33.6870,0.07,0.13,-0.99,3.36,0.61,1.28
33.7130,0.07,0.13,-0.99,3.48,0.85,1.46
33.7280,0.08,0.14,-0.99,3.23,0.55,1.46
33.7360,0.07,0.14,-0.99,3.60,0.31,1.40
33.7520,0.07,0.13,-0.99,3.66,0.73,1.59
33.7700,0.07,0.13,-0.99,3.72,0.49,1.59
33.7880,0.07,0.13,-0.99,3.54,0.24,1.34
33.8030,0.07,0.14,-0.99,3.66,0.73,1.22
33.8180,0.08,0.13,-0.99,3.66,0.85,1.28
33.8210,0.08,0.13,-0.99,3.60,0.79,1.40
33.8510,0.07,0.13,-0.99,3.54,0.85,1.22
33.8520,0.08,0.13,-0.99,3.60,0.18,1.28
33.8700,0.08,0.13,-0.99,3.54,0.49,1.28
33.8860,0.08,0.13,-0.99,3.60,0.31,1.40
33.9150,0.08,0.13,-0.99,3.85,0.55,1.46
33.9310,0.08,0.13,-0.99,3.72,0.73,1.46
33.9470,0.08,0.13,-0.99,3.72,0.67,1.71
33.9540,0.08,0.13,-0.99,3.42,0.98,1.53
33.9700,0.07,0.14,-0.99,3.36,0.43,1.53
33.9930,0.08,0.13,-0.99,3.42,0.73,1.46
34.0090,0.08,0.13,-0.99,3.60,0.61,1.46
34.0250,0.07,0.13,-0.99,3.60,0.92,1.71
34.0420,0.07,0.13,-0.99,3.66,0.37,1.59
34.0570,0.08,0.13,-0.99,3.60,0.85,1.77
34.0730,0.07,0.13,-0.99,3.72,0.18,1.59
34.0890,0.08,0.13,-0.99,3.48,0.61,1.65
34.1050,0.07,0.14,-0.99,3.48,0.61,1.53
34.1210,0.07,0.13,-0.99,3.54,0.61,1.65
34.1270,0.07,0.13,-0.99,3.48,0.73,1.59
34.1510,0.08,0.13,-0.99,3.60,0.67,1.65
34.1640,0.08,0.13,-0.99,3.42,0.92,1.65
34.1830,0.08,0.13,-0.99,3.60,0.73,1.77
34.1970,0.07,0.13,-0.99,3.36,0.85,1.71
34.2150,0.08,0.13,-0.99,3.60,0.67,1.89
34.2310,0.07,0.13,-0.99,3.66,0.67,2.01
34.2470,0.08,0.13,-0.99,3.54,0.67,2.08
34.2630,0.08,0.13,-0.99,3.54,0.55,2.01
34.2650,0.09,0.13,-0.99,3.60,0.18,1.95
34.2940,0.07,0.13,-0.99,3.54,0.73,1.83
34.3110,0.08,0.13,-0.99,3.66,1.04,1.95
34.3150,0.08,0.13,-0.99,3.66,0.92,2.08
34.3320,0.08,0.13,-0.99,3.54,0.67,2.01
34.3520,0.08,0.13,-0.99,3.60,0.55,1.89
34.3690,0.08,0.13,-0.99,3.66,0.49,2.01
34.3860,0.08,0.13,-0.99,3.66,0.79,1.83
34.4030,0.07,0.13,-0.99,3.66,0.06,1.89
34.4030,0.08,0.13,-0.99,3.60,0.43,2.32
34.4340,0.08,0.14,-0.99,3.66,0.31,2.14
34.4370,0.08,0.14,-0.99,3.42,0.31,2.01
34.4650,0.07,0.13,-0.99,3.42,0.24,2.38
34.4810,0.07,0.13,-0.99,3.48,-0.06,2.69
34.4970,0.08,0.13,-0.99,3.60,0.18,2.75
34.5130,0.08,0.13,-0.99,3.54,0.55,2.62
34.5290,0.07,0.13,-0.99,3.54,0.43,2.20
34.5460,0.07,0.13,-0.99,3.60,0.37,2.14
34.5530,0.08,0.14,-0.99,3.85,0.43,2.26
34.5690,0.07,0.13,-0.99,3.72,0.49,2.20
34.5870,0.08,0.13,-0.99,3.78,0.55,2.01
34.6020,0.08,0.13,-0.99,3.60,0.55,2.01
34.6190,0.08,0.13,-0.99,3.54,0.73,1.83
34.6350,0.07,0.14,-0.99,3.66,0.85,1.83
34.6520,0.08,0.13,-0.99,3.60,0.55,2.01
34.6580,0.07,0.13,-0.99,3.60,0.61,2.01
34.6760,0.08,0.13,-0.99,3.60,0.55,2.26
34.6910,0.08,0.13,-0.99,3.66,0.37,2.20
34.7080,0.08,0.13,-0.99,3.48,0.37,2.08
34.7250,0.08,0.14,-0.99,3.60,0.37,1.95
34.7440,0.07,0.13,-0.99,3.42,0.73,1.89
34.7590,0.08,0.13,-0.99,3.66,0.55,1.95
34.7750,0.07,0.13,-0.99,3.60,0.37,1.95
34.7930,0.08,0.13,-0.99,3.72,0.24,2.14
34.7930,0.07,0.13,-0.99,3.91,0.37,2.01
34.8240,0.08,0.13,-0.99,3.54,0.55,1.89
34.8400,0.08,0.13,-0.99,3.91,0.24,2.08
34.8560,0.08,0.13,-0.99,3.78,0.79,2.26
34.8590,0.07,0.13,-0.99,3.78,0.67,2.20
34.8750,0.08,0.13,-0.99,3.54,0.43,2.01
34.9030,0.08,0.13,-0.99,3.78,0.43,2.08
34.9190,0.08,0.13,-0.99,3.60,0.24,2.14
34.9350,0.08,0.13,-0.99,3.54,0.73,2.32
34.9420,0.08,0.13,-0.99,3.54,0.67,2.20
34.9590,0.08,0.13,-0.99,3.72,0.61,2.14
34.9760,0.08,0.13,-0.99,3.48,0.55,1.95
34.9940,0.08,0.13,-0.99,3.48,0.79,2.08
35.0080,0.07,0.14,-0.99,3.42,0.79,2.26
35.0250,0.08,0.13,-0.99,3.54,0.67,2.56
35.0400,0.07,0.13,-0.99,3.42,0.98,2.20
35.0530,0.08,0.13,-0.99,3.66,0.55,2.20
35.0710,0.07,0.13,-0.99,3.72,0.37,2.14
35.0860,0.08,0.13,-0.99,3.54,0.55,2.08
35.1030,0.08,0.13,-0.99,3.42,0.79,2.14
35.1180,0.07,0.13,-0.99,3.60,0.85,2.32
35.1260,0.08,0.13,-0.99,3.54,0.55,2.44
35.1410,0.08,0.13,-0.99,3.54,0.67,2.44
35.1640,0.08,0.14,-0.99,3.60,0.61,2.44
35.1660,0.08,0.13,-0.99,3.66,0.31,2.62
35.1820,0.08,0.13,-0.99,3.54,0.55,2.44
35.2000,0.08,0.13,-0.99,3.54,0.18,2.14
35.2160,0.08,0.13,-0.99,3.60,0.49,2.01
35.2330,0.08,0.13,-0.99,3.48,0.85,2.08
35.2590,0.08,0.13,-0.99,3.42,0.61,2.26
35.2740,0.08,0.13,-0.99,3.48,0.49,2.20
35.2880,0.07,0.14,-0.99,3.85,0.61,2.08
35.3000,0.08,0.13,-0.99,3.66,0.31,2.14
35.3150,0.08,0.13,-0.99,3.66,0.55,2.14
35.3360,0.07,0.13,-0.99,3.72,0.12,2.14
35.3510,0.08,0.13,-0.99,3.60,0.55,2.26
35.3560,0.08,0.13,-0.99,3.66,0.55,2.14
35.3830,0.08,0.13,-0.99,3.60,0.55,2.01
35.3890,0.08,0.13,-0.99,3.36,0.61,1.95
35.4040,0.07,0.13,-0.99,3.54,1.10,2.01
35.4250,0.08,0.13,-0.99,3.60,1.16,2.08
35.4420,0.08,0.13,-0.99,3.66,0.18,2.08
35.4590,0.07,0.13,-0.99,3.36,0.85,2.20
35.4750,0.07,0.13,-0.99,3.54,0.43,2.20
35.4920,0.08,0.13,-0.99,3.42,0.73,2.32
35.4930,0.08,0.13,-0.99,3.60,0.43,2.26
35.5080,0.08,0.13,-0.99,3.66,0.49,2.14
35.5380,0.08,0.13,-0.99,3.91,0.61,2.26
35.5530,0.08,0.13,-0.99,3.54,0.67,1.89
35.5690,0.07,0.14,-0.99,3.54,0.67,1.83
35.5760,0.08,0.13,-0.99,3.72,0.24,1.77
35.5990,0.08,0.13,-0.99,3.78,0.37,1.77
35.6090,0.08,0.13,-0.99,3.60,0.79,1.89
35.6250,0.07,0.13,-0.99,3.48,0.24,1.77
35.6430,0.07,0.13,-0.99,3.78,0.67,1.89
35.6590,0.08,0.13,-0.99,3.72,0.55,2.01
35.6750,0.08,0.13,-0.99,3.72,0.37,2.26
35.6910,0.08,0.13,-0.99,3.54,0.31,2.38
35.7060,0.07,0.13,-0.99,3.60,0.79,2.14
35.7230,0.07,0.13,-0.99,3.54,0.92,1.95
35.7380,0.08,0.13,-0.99,3.66,0.61,1.95
35.7520,0.07,0.13,-0.99,3.91,0.24,2.20
35.7680,0.08,0.13,-0.99,3.78,0.55,2.08
35.7840,0.08,0.13,-0.99,3.60,0.73,2.32
35.7980,0.08,0.13,-0.99,3.60,0.79,2.20
35.8100,0.08,0.13,-0.99,3.54,0.61,2.26
35.8250,0.08,0.13,-0.99,3.60,0.55,1.95
35.8420,0.07,0.13,-0.99,3.54,0.49,2.14
35.8590,0.08,0.13,-0.99,3.66,0.61,2.08
35.8760,0.08,0.13,-0.99,3.54,0.49,2.01
35.8760,0.08,0.13,-0.99,3.54,0.85,2.08
35.9060,0.08,0.13,-0.99,3.72,1.10,1.89
35.9090,0.08,0.13,-0.99,3.36,0.43,1.65
35.9390,0.08,0.13,-0.99,3.42,0.43,1.77
35.9540,0.08,0.13,-0.99,3.72,0.43,1.77
35.9700,0.08,0.13,-0.99,3.72,0.73,1.71
35.9850,0.08,0.13,-0.99,3.72,0.55,1.77
36.0010,0.08,0.13,-0.99,3.78,0.31,1.65
36.0160,0.08,0.13,-0.99,3.66,1.10,1.71
36.0310,0.08,0.14,-0.99,3.54,0.31,1.53
36.0420,0.08,0.14,-0.99,3.91,0.31,1.46
36.0590,0.08,0.14,-0.99,3.66,0.61,1.59
36.0750,0.08,0.13,-0.99,3.60,0.49,1.59
36.0910,0.08,0.14,-0.99,3.54,0.61,1.59
36.1090,0.08,0.14,-0.99,3.54,0.73,1.77
36.1250,0.08,0.13,-0.99,3.66,0.55,1.83
36.1410,0.08,0.13,-0.99,3.54,0.79,1.77
36.1560,0.08,0.12,-0.98,4.76,1.10,1.71
36.1700,0.08,0.13,-0.99,3.72,0.73,1.65
36.1860,0.08,0.13,-0.99,3.23,0.24,1.65
36.2010,0.08,0.13,-0.99,3.36,0.49,1.65
36.2160,0.08,0.13,-0.99,3.66,0.49,1.71
36.2250,0.08,0.14,-0.99,3.91,0.37,1.59
36.2420,0.08,0.15,-0.99,3.42,0.12,2.01
36.2590,0.08,0.13,-0.99,3.17,-0.37,4.15
36.2750,0.08,0.14,-0.99,3.23,0.49,2.69
36.2910,0.08,0.13,-0.99,3.36,0.00,3.85
36.2910,0.08,0.13,-0.99,3.23,0.12,3.85
36.3090,0.08,0.15,-0.99,3.54,0.12,3.48
36.3260,0.07,0.13,-0.99,3.17,0.00,3.17
36.3510,0.08,0.14,-0.99,3.66,0.24,2.69
36.3590,0.07,0.13,-0.99,3.23,0.31,2.75
36.3760,0.07,0.14,-0.99,3.23,0.43,2.26
36.3920,0.03,0.18,-0.99,3.17,0.00,2.75
36.4090,0.06,0.18,-0.98,3.05,-0.18,7.93
36.4250,0.09,0.11,-0.99,3.30,-0.24,8.30
36.4420,0.09,0.11,-0.99,3.30,-0.37,7.51
36.4580,0.11,0.09,-0.99,3.17,-0.37,6.23
36.4730,0.08,0.13,-0.99,3.48,0.43,2.69
36.4760,0.08,0.13,-0.99,3.48,0.98,1.65
36.5030,0.09,0.13,-0.98,3.54,0.31,1.22
36.5180,0.11,0.12,-0.99,3.97,1.10,-1.46
36.5260,0.08,0.13,-0.99,3.97,1.04,-4.03
36.5410,0.05,0.15,-0.99,4.27,1.04,-3.72
36.5580,0.07,0.14,-0.99,4.03,0.85,-0.73
36.5740,0.08,0.13,-0.99,3.66,0.73,1.34
36.5820,0.08,0.13,-0.99,3.91,0.24,1.46
36.5990,0.08,0.13,-0.99,3.91,0.43,1.71
36.6160,0.08,0.13,-0.99,3.91,0.55,1.65
36.6320,0.08,0.13,-0.99,3.78,0.49,1.65
36.6550,0.08,0.13,-0.99,3.60,0.61,1.53
36.6690,0.08,0.13,-0.99,3.60,0.55,1.40
36.6870,0.08,0.13,-0.99,3.78,0.67,1.53
36.7020,0.08,0.13,-0.99,4.03,0.85,1.65
36.7190,0.08,0.13,-0.99,3.97,0.61,1.59
36.7350,0.08,0.13,-0.99,3.91,0.55,1.59
36.7370,0.08,0.13,-0.99,3.85,0.37,1.53
36.7550,0.08,0.13,-0.99,3.78,0.49,1.46
36.7700,0.08,0.13,-0.99,3.78,0.79,1.65
36.7980,0.08,0.13,-0.99,3.78,0.79,1.46
36.8140,0.09,0.12,-0.99,3.91,0.67,0.24
36.8200,0.07,0.13,-0.99,3.78,0.67,0.06
36.8370,0.07,0.13,-0.99,3.97,0.85,0.18
36.8550,0.08,0.13,-0.99,3.85,0.61,-0.06
36.8740,0.08,0.13,-0.99,3.78,0.85,0.12
36.8910,0.07,0.14,-0.99,3.85,0.43,0.49
36.9090,0.07,0.15,-0.99,3.72,0.67,1.53
36.9240,0.08,0.13,-0.99,3.72,0.37,1.53
36.9420,0.08,0.13,-0.99,3.54,0.12,1.16
36.9570,0.07,0.14,-0.99,3.66,0.85,0.73
36.9720,0.08,0.13,-0.99,3.72,1.04,0.67
36.9870,0.08,0.13,-0.99,3.66,1.10,0.61
37.0020,0.07,0.14,-0.99,3.60,0.43,0.55
37.0080,0.08,0.14,-0.99,3.60,0.73,0.85
37.0320,0.07,0.13,-0.99,3.78,0.18,1.28
37.0410,0.08,0.13,-0.99,3.78,0.73,1.04
37.0570,0.08,0.13,-0.99,3.91,0.49,0.61
37.0740,0.08,0.13,-0.99,4.03,0.67,-0.12
37.0920,0.08,0.14,-0.99,3.66,0.55,0.43
37.1070,0.09,0.14,-0.99,3.42,0.55,1.10
37.1250,0.08,0.14,-0.99,3.48,0.49,1.34
37.1410,0.07,0.13,-0.99,3.85,0.49,1.28
37.1570,0.07,0.13,-0.99,3.85,0.37,1.40
37.1730,0.08,0.13,-0.99,3.97,0.12,1.28
37.1750,0.08,0.14,-0.99,3.60,0.43,1.65
37.1910,0.09,0.13,-0.99,3.42,0.37,2.75
37.2190,0.08,0.13,-0.99,3.48,0.43,1.83
37.2250,0.07,0.13,-0.99,3.66,0.55,1.22
37.2400,0.06,0.13,-0.99,3.72,0.55,1.65
37.2580,0.07,0.13,-0.99,3.60,0.73,1.71
37.2750,0.08,0.13,-0.99,3.42,0.73,1.77
37.2920,0.08,0.13,-0.99,3.60,0.73,1.53
37.3080,0.08,0.13,-0.99,3.66,0.73,1.59
37.3240,0.08,0.13,-0.99,3.66,0.67,1.53
37.3410,0.08,0.13,-0.99,3.66,0.00,1.59
37.3580,0.08,0.14,-0.99,3.54,-0.18,2.44
37.3750,0.08,0.13,-0.99,3.48,-0.12,3.05
37.3900,0.08,0.13,-0.99,3.42,0.24,2.75
37.4050,0.08,0.13,-0.99,3.42,0.37,2.50
37.4210,0.08,0.13,-0.99,3.72,0.31,2.08
37.4360,0.08,0.13,-0.99,3.66,0.67,1.89
37.4520,0.08,0.14,-0.99,3.60,0.24,2.20
37.4580,0.08,0.13,-0.99,3.60,0.12,2.93
37.4740,0.08,0.14,-0.99,3.42,0.43,3.17
37.4970,0.08,0.14,-0.99,3.42,0.43,3.17
37.5130,0.07,0.13,-0.99,3.30,0.06,3.36
37.5310,0.07,0.13,-0.99,3.54,0.61,2.69
37.5470,0.08,0.14,-0.99,3.42,0.73,2.50
37.5630,0.08,0.13,-0.99,3.17,0.12,2.93
37.5790,0.08,0.14,-0.99,3.66,0.12,2.50
37.5800,0.08,0.14,-0.99,3.66,0.55,1.59
37.6100,0.08,0.14,-0.99,3.66,0.12,1.28
37.6140,0.08,0.14,-0.99,3.60,0.49,1.77
37.6300,0.07,0.13,-0.99,3.54,0.18,2.38
37.6520,0.07,0.13,-0.99,3.66,-0.06,2.44
37.6690,0.07,0.12,-0.99,3.72,0.18,2.08
37.6870,0.07,0.13,-0.99,3.66,0.31,1.53
37.7020,0.10,0.14,-0.99,3.78,0.55,1.71
37.7180,0.07,0.13,-0.99,3.97,0.00,2.81
37.7350,0.07,0.14,-0.99,3.42,0.37,3.91
37.7360,0.08,0.13,-0.99,3.42,0.18,3.17
37.7570,0.08,0.14,-0.98,3.23,0.00,2.20
37.7690,0.07,0.13,-0.99,3.48,0.55,1.71
37.7970,0.08,0.13,-0.99,3.78,0.37,1.89
37.8070,0.07,0.13,-0.99,3.54,0.43,1.89
37.8220,0.07,0.13,-0.99,3.48,0.18,1.65
37.8430,0.07,0.13,-0.99,3.54,0.61,1.53
37.8590,0.08,0.13,-0.99,3.66,0.67,1.65
37.8740,0.08,0.14,-0.98,3.78,0.12,1.89
37.8770,0.08,0.13,-0.99,3.48,0.24,3.42
37.8930,0.08,0.13,-0.99,3.54,0.24,2.93
37.9150,0.08,0.14,-0.99,3.54,0.37,2.69
37.9320,0.07,0.13,-0.99,3.23,0.67,2.87
37.9490,0.07,0.13,-0.99,3.36,0.31,1.95
37.9650,0.08,0.13,-0.99,3.66,0.31,2.26
37.9820,0.08,0.13,-0.99,3.72,0.73,2.56
37.9990,0.08,0.13,-0.99,3.48,0.85,2.26
38.0170,0.08,0.13,-0.98,3.42,0.43,1.83
38.0320,0.08,0.14,-0.99,3.60,0.61,1.46
38.0490,0.08,0.13,-0.99,3.97,0.24,1.65
38.0640,0.08,0.13,-0.99,3.66,0.37,2.26
38.0650,0.08,0.13,-0.99,3.54,0.55,1.89
38.0830,0.08,0.13,-0.99,3.42,0.55,1.59
38.1000,0.08,0.14,-0.99,3.54,0.37,1.40
38.1150,0.08,0.14,-0.99,3.54,0.61,1.59
38.1320,0.08,0.13,-0.99,3.72,0.12,1.83
38.1570,0.07,0.13,-0.99,3.48,0.31,2.14
38.1660,0.08,0.13,-0.99,3.54,0.00,2.08
38.1840,0.08,0.14,-0.99,3.48,0.12,2.44
38.1990,0.07,0.12,-0.99,3.42,-0.06,1.89
38.2190,0.08,0.13,-0.99,3.54,0.12,1.53
38.2340,0.08,0.14,-0.99,3.72,0.37,1.22
38.2520,0.08,0.14,-0.99,3.66,0.24,1.71
38.2670,0.08,0.13,-0.99,3.48,-0.06,2.26
38.2820,0.08,0.13,-0.99,3.54,0.61,2.14
38.2980,0.07,0.13,-0.99,3.54,0.37,1.53
38.3140,0.07,0.13,-0.99,3.78,0.43,1.46
38.3210,0.08,0.14,-0.99,3.66,0.55,1.34
38.3450,0.08,0.13,-0.99,3.54,0.31,2.14
38.3580,0.07,0.13,-0.99,3.54,0.06,2.14
38.3720,0.07,0.13,-0.99,3.66,0.43,2.26
38.3870,0.08,0.13,-0.99,3.60,0.73,1.83
38.4050,0.08,0.14,-0.99,3.60,0.67,1.71
38.4200,0.08,0.13,-0.99,3.60,0.73,1.65
38.4370,0.08,0.14,-0.99,3.60,0.73,1.65
38.4380,0.08,0.14,-0.99,3.78,0.55,1.95
38.4670,0.07,0.13,-0.99,3.54,0.55,2.50
38.4710,0.07,0.13,-0.99,3.66,0.49,2.44
38.4990,0.08,0.14,-0.99,3.54,0.31,1.89
38.5150,0.08,0.14,-0.98,3.48,0.24,2.01
38.5210,0.08,0.14,-0.99,3.36,0.43,2.75
38.5370,0.07,0.13,-0.99,3.48,0.31,2.93
38.5580,0.07,0.13,-0.99,3.48,0.61,2.69
38.5710,0.07,0.13,-0.99,3.54,0.49,2.56
38.5880,0.08,0.13,-0.99,3.78,0.49,2.62
38.6030,0.08,0.13,-0.99,3.54,0.18,2.99
38.6260,0.07,0.13,-0.99,3.42,0.24,3.42
38.6410,0.08,0.13,-0.99,3.42,0.12,2.62
38.6570,0.08,0.14,-0.99,3.36,0.85,2.44
38.6730,0.08,0.13,-0.99,3.48,0.55,2.62
38.6770,0.08,0.14,-0.99,3.54,0.61,2.50
38.6930,0.07,0.13,-0.99,3.30,0.37,2.62
38.7160,0.07,0.13,-0.99,3.30,0.61,2.38
38.7340,0.07,0.13,-0.99,3.42,0.61,2.20
38.7490,0.07,0.13,-0.99,3.66,0.31,2.20
38.7660,0.08,0.13,-0.99,3.60,0.31,2.01
38.7820,0.08,0.14,-0.99,3.54,0.73,2.50
38.7830,0.08,0.13,-0.99,3.54,0.73,2.81
38.8140,0.08,0.13,-0.99,3.54,0.18,2.32
38.8160,0.08,0.14,-0.99,3.54,0.06,2.26
38.8330,0.08,0.13,-0.99,3.72,0.43,2.56
38.8590,0.08,0.13,-0.99,3.54,0.18,2.44
38.8670,0.08,0.14,-0.99,3.54,0.61,2.20
38.8920,0.08,0.14,-0.99,3.42,0.43,2.14
38.9080,0.08,0.13,-0.99,3.48,0.18,2.50
38.9160,0.07,0.13,-0.99,3.54,0.12,2.14
38.9350,0.07,0.12,-0.99,3.48,0.43,2.20
38.9500,0.08,0.14,-0.99,3.54,0.37,2.08
38.9670,0.08,0.14,-0.99,3.54,0.24,2.44
38.9830,0.08,0.14,-0.99,3.48,0.24,2.38
39.0000,0.08,0.13,-0.99,3.72,0.55,2.20
39.0150,0.07,0.12,-0.99,3.66,0.24,1.95
39.0330,0.08,0.13,-0.99,3.91,0.37,1.95
39.0340,0.08,0.14,-0.99,3.54,0.73,2.08
39.0640,0.08,0.14,-0.99,3.48,0.12,2.93
39.0660,0.08,0.13,-0.99,3.48,0.55,3.30
39.0830,0.07,0.13,-0.99,3.66,0.31,2.56
39.1120,0.08,0.14,-0.99,3.36,0.37,2.50
39.1170,0.08,0.13,-0.99,3.60,0.12,2.87
39.1340,0.08,0.14,-0.99,3.48,0.06,2.56
39.1590,0.08,0.14,-0.99,3.60,0.18,2.69
39.1650,0.08,0.13,-0.98,3.48,-0.06,2.75
39.1910,0.07,0.13,-0.99,3.36,0.37,2.62
39.2070,0.08,0.14,-0.99,3.60,0.67,2.44
39.2080,0.08,0.14,-0.99,3.48,0.37,2.87
39.2240,0.07,0.14,-0.99,3.36,0.06,3.60
39.2390,0.07,0.13,-0.99,3.48,0.18,3.17
39.2630,0.07,0.13,-0.99,3.60,0.37,2.26
39.2800,0.08,0.13,-0.99,3.54,0.49,2.38
39.2980,0.07,0.13,-0.99,3.72,0.31,2.32
39.3130,0.07,0.13,-0.99,3.48,0.24,2.14
39.3290,0.08,0.14,-0.99,3.42,0.73,1.95
39.3450,0.08,0.13,-0.99,3.42,0.31,2.20
39.3600,0.07,0.13,-0.99,3.48,0.31,2.08
39.3630,0.08,0.14,-0.99,3.60,0.37,2.08
39.3790,0.07,0.13,-0.99,3.60,0.37,2.38
39.4030,0.08,0.13,-0.99,3.54,0.61,2.01
39.4210,0.06,0.12,-0.99,3.36,0.18,2.20
39.4360,0.07,0.12,-0.99,3.36,0.31,1.83
39.4520,0.08,0.13,-0.99,3.60,0.49,1.77
39.4590,0.08,0.13,-0.99,3.66,0.37,1.83
39.4830,0.08,0.14,-0.99,3.60,0.31,1.95
39.5000,0.07,0.13,-0.99,3.36,0.73,2.38
39.5030,0.07,0.12,-0.99,3.54,0.37,2.14
39.5180,0.08,0.13,-0.99,3.60,0.55,1.77
39.5420,0.08,0.14,-0.99,3.72,0.49,1.77
39.5590,0.09,0.14,-0.98,3.60,0.61,1.77
39.5750,0.08,0.14,-0.99,3.60,0.18,1.83
39.5760,0.07,0.13,-0.99,3.78,0.00,2.08
39.5920,0.07,0.13,-0.99,3.60,0.49,1.95
39.6100,0.08,0.13,-0.99,3.60,0.24,2.32
39.6380,0.08,0.13,-0.99,3.30,0.31,2.87
39.6540,0.08,0.13,-0.99,3.66,-0.37,2.93
39.6590,0.08,0.14,-0.99,3.60,0.55,3.05
39.6850,0.08,0.14,-0.99,3.54,-0.24,2.75
39.6990,0.08,0.13,-0.99,3.48,0.24,3.05
39.7090,0.07,0.13,-0.99,3.42,0.43,3.05
39.7250,0.07,0.13,-0.99,3.48,0.24,2.75
39.7420,0.07,0.13,-0.99,3.66,0.43,2.93
39.7600,0.08,0.14,-0.99,3.48,0.31,2.56
39.7760,0.08,0.14,-0.99,3.36,0.43,2.50
39.7910,0.07,0.13,-0.99,3.54,0.55,1.83
39.8080,0.08,0.13,-0.99,3.66,0.73,2.01
39.8240,0.07,0.13,-0.99,3.72,0.37,2.01
39.8390,0.07,0.13,-0.99,3.48,0.67,2.08
39.8420,0.07,0.13,-0.99,3.54,0.43,2.26
39.8600,0.08,0.13,-0.99,3.78,0.37,1.65
39.8820,0.08,0.13,-0.99,3.78,0.37,1.89
39.8980,0.08,0.14,-0.99,3.78,0.24,2.01
39.9150,0.08,0.13,-0.99,3.48,0.43,2.50
39.9320,0.07,0.13,-0.99,3.36,0.43,2.38
39.9480,0.07,0.13,-0.99,3.60,0.43,2.44
39.9640,0.08,0.14,-0.99,3.48,0.55,2.20
39.9810,0.08,0.14,-0.99,3.54,0.49,2.20
39.9970,0.08,0.13,-0.99,3.54,0.43,2.01
40.0130,0.08,0.13,-0.99,3.66,0.49,1.83
40.0140,0.07,0.13,-0.99,3.66,0.55,2.01
40.0450,0.08,0.13,-0.99,3.54,0.37,2.32
40.0600,0.08,0.13,-0.99,3.60,0.37,1.89
40.0630,0.08,0.14,-0.99,3.66,0.73,1.95
40.0900,0.08,0.14,-0.99,3.60,0.61,2.20
40.1070,0.08,0.13,-0.99,3.60,0.43,2.26
40.1240,0.07,0.13,-0.99,3.54,0.43,2.32
40.1400,0.07,0.13,-0.99,3.66,0.00,2.32
40.1560,0.08,0.13,-0.99,3.48,0.49,2.08
40.1720,0.08,0.13,-0.99,3.66,0.43,1.95
40.1870,0.08,0.13,-0.99,3.66,0.24,2.01
40.2020,0.07,0.13,-0.99,3.60,0.49,1.77
40.2170,0.07,0.13,-0.99,3.42,0.55,1.53
40.2330,0.07,0.13,-0.99,3.66,0.49,1.71
40.2480,0.08,0.13,-0.99,3.66,0.49,1.71
40.2610,0.08,0.14,-0.99,3.48,0.06,1.89
40.2730,0.08,0.13,-0.99,3.42,0.24,2.01
40.2900,0.08,0.13,-0.99,3.54,0.06,2.08
40.3070,0.07,0.13,-0.99,3.54,0.31,2.08
40.3230,0.08,0.13,-0.99,3.54,0.37,1.89
40.3410,0.08,0.13,-0.99,3.48,0.85,2.20
40.3560,0.08,0.13,-0.99,3.36,0.43,2.32
40.3740,0.08,0.13,-0.99,3.60,0.67,2.32
40.3750,0.08,0.13,-0.99,3.60,0.49,2.38
40.3900,0.08,0.14,-0.99,3.42,0.37,2.26
40.4070,0.07,0.13,-0.99,3.36,0.43,2.38
40.4350,0.08,0.13,-0.99,3.66,0.31,2.26
40.4510,0.08,0.13,-0.99,3.48,0.49,2.44
40.4670,0.07,0.13,-0.99,3.72,0.24,2.81
40.4840,0.08,0.13,-0.99,3.66,0.18,2.56
40.4910,0.08,0.13,-0.99,3.48,0.00,2.38
40.5060,0.08,0.14,-0.99,3.48,0.49,2.32
40.5230,0.07,0.13,-0.99,3.36,0.67,2.44
40.5400,0.07,0.13,-0.99,3.60,0.55,2.75
40.5570,0.07,0.13,-0.99,3.54,0.43,3.11
40.5730,0.08,0.13,-0.99,3.48,0.49,3.05
40.5910,0.08,0.13,-0.99,3.54,0.18,2.75
40.6070,0.08,0.14,-0.99,3.42,0.49,2.62
40.6230,0.08,0.13,-0.99,3.48,0.18,2.93
40.6230,0.07,0.13,-0.99,3.66,0.18,3.05
40.6400,0.08,0.13,-0.99,3.30,0.18,3.36
40.6700,0.08,0.13,-0.99,3.42,0.43,3.05
40.6850,0.08,0.13,-0.99,3.78,0.55,2.75
40.7020,0.08,0.13,-0.99,3.30,0.61,2.75
40.7070,0.08,0.13,-0.99,3.48,0.37,2.62
40.7220,0.08,0.13,-0.99,3.42,0.49,2.56
40.7460,0.07,0.13,-0.99,3.60,0.79,2.56
40.7620,0.08,0.14,-0.99,3.66,0.37,2.99
40.7650,0.07,0.13,-0.99,3.36,0.55,3.78
40.7930,0.07,0.13,-0.99,3.11,0.61,3.66
40.7990,0.08,0.13,-0.99,3.48,-0.06,2.69
40.8140,0.08,0.13,-0.99,3.78,0.37,2.62
40.8390,0.08,0.13,-0.99,3.48,0.12,2.50
40.8560,0.08,0.14,-0.99,3.48,0.12,2.87
40.8720,0.07,0.13,-0.99,3.36,0.06,3.05
40.8890,0.07,0.13,-0.99,3.60,0.00,2.75
40.9040,0.08,0.13,-0.99,3.66,0.55,2.26
40.9070,0.08,0.14,-0.99,3.54,0.61,2.56
40.9350,0.08,0.13,-0.99,3.60,0.43,3.17
40.9520,0.08,0.13,-0.99,3.78,0.49,2.62
40.9670,0.08,0.13,-0.99,3.72,0.12,2.44
40.9830,0.07,0.13,-0.99,3.48,0.31,2.62
40.9990,0.07,0.13,-0.99,3.42,-0.06,2.87
41.0150,0.08,0.13,-0.99,3.48,0.31,2.56
41.0290,0.08,0.13,-0.99,3.66,-0.06,2.26
41.0390,0.08,0.13,-0.99,3.60,0.67,2.32
41.0560,0.08,0.13,-0.99,3.60,0.49,2.32
41.0720,0.08,0.13,-0.99,3.48,0.79,2.32
41.0900,0.07,0.13,-0.99,3.48,0.37,2.62
41.1060,0.07,0.13,-0.99,3.42,0.37,2.50
41.1210,0.07,0.13,-0.99,3.60,0.06,2.38
41.1370,0.08,0.14,-0.99,3.23,0.61,2.26
41.1530,0.08,0.13,-0.99,3.36,0.67,2.75
41.1610,0.08,0.13,-0.99,3.54,0.43,2.75
41.1710,0.08,0.13,-0.99,3.48,0.49,2.56
41.1970,0.07,0.13,-0.99,3.60,0.37,2.56
41.2130,0.07,0.13,-0.99,3.42,0.31,2.32
41.2290,0.08,0.13,-0.99,3.66,0.37,2.44
41.2310,0.08,0.13,-0.99,3.60,0.24,2.44
41.2600,0.08,0.13,-0.99,3.54,0.37,2.62
41.2760,0.08,0.13,-0.99,3.48,0.24,2.81
41.2810,0.07,0.13,-0.99,3.30,0.55,2.75
41.3060,0.08,0.13,-0.99,3.36,0.24,2.87
41.3150,0.07,0.13,-0.99,3.60,0.12,3.05
41.3300,0.07,0.13,-0.99,3.54,0.24,3.11
41.3510,0.08,0.13,-0.99,3.60,0.43,2.93
41.3650,0.08,0.14,-0.99,3.36,0.24,2.56
41.3810,0.07,0.13,-0.99,3.30,0.43,2.87
41.3870,0.08,0.13,-0.99,3.54,0.55,2.81
41.4020,0.08,0.13,-0.99,3.66,0.43,2.62
41.4270,0.07,0.12,-0.99,3.36,0.37,2.20
41.4280,0.08,0.14,-0.99,3.48,0.67,2.08
41.4580,0.07,0.13,-0.99,3.48,0.24,2.56
41.4610,0.07,0.13,-0.99,3.48,0.43,2.50
41.4770,0.08,0.13,-0.99,3.54,0.37,2.01
41.4930,0.08,0.14,-0.99,3.42,0.55,2.20
41.5200,0.08,0.13,-0.99,3.66,-0.12,2.62
41.5360,0.07,0.13,-0.99,3.54,0.24,2.32
41.5510,0.07,0.13,-0.99,3.72,0.31,2.14
41.5620,0.08,0.13,-0.99,3.60,0.43,1.95
41.5820,0.08,0.14,-0.99,3.48,0.24,1.89
41.5980,0.08,0.13,-0.99,3.72,-0.06,2.14
41.6030,0.07,0.13,-0.99,3.48,0.49,1.89
41.6200,0.08,0.13,-0.99,3.66,0.43,1.59
41.6360,0.07,0.13,-0.99,3.72,0.18,1.53
41.6620,0.07,0.13,-0.99,3.78,0.24,1.34
41.6780,0.07,0.13,-0.99,3.54,0.73,1.83
41.6860,0.08,0.13,-0.99,3.66,0.55,2.20
41.7030,0.07,0.13,-0.99,3.36,0.24,2.20
41.7200,0.08,0.13,-0.99,3.60,0.55,1.95
41.7370,0.08,0.13,-0.99,3.54,0.49,1.83
41.7520,0.08,0.14,-0.99,3.78,0.43,1.71
41.7680,0.08,0.13,-0.99,3.30,0.73,1.95
41.7710,0.08,0.13,-0.99,3.66,0.61,2.20
41.7860,0.07,0.13,-0.99,3.85,0.31,2.26
41.8030,0.08,0.13,-0.99,3.72,0.31,1.95
41.8190,0.08,0.14,-0.99,3.66,0.67,2.14
41.8470,0.07,0.13,-0.99,3.66,0.31,2.44
41.8620,0.08,0.13,-0.99,3.48,0.67,2.38
41.8730,0.07,0.13,-0.99,3.78,0.18,2.20
41.8890,0.08,0.13,-0.99,3.66,0.18,2.14
41.9090,0.08,0.13,-0.99,3.72,0.67,2.20
41.9250,0.08,0.14,-0.99,3.66,0.55,2.38
41.9410,0.08,0.13,-0.99,3.66,0.37,2.44
41.9560,0.08,0.13,-0.99,3.48,0.49,2.44
41.9720,0.08,0.13,-0.99,3.60,0.55,2.56
41.9870,0.08,0.13,-0.99,3.42,0.37,2.81
41.9920,0.07,0.13,-0.99,3.54,-0.06,2.62
42.0190,0.08,0.13,-0.99,3.60,0.49,2.44
42.0350,0.08,0.14,-0.99,3.48,0.73,2.56
42.0420,0.08,0.14,-0.99,3.54,0.24,3.11
42.0660,0.07,0.13,-0.99,3.36,-0.06,4.33
42.0750,0.07,0.13,-0.99,3.17,-0.06,4.52
42.0920,0.08,0.13,-0.99,3.42,0.18,3.97
42.1080,0.08,0.13,-0.99,3.60,0.92,3.36
42.1260,0.08,0.14,-0.99,3.42,0.49,3.11
42.1420,0.07,0.13,-0.99,3.36,0.43,3.17
42.1430,0.07,0.13,-0.99,3.30,0.55,3.05
42.1730,0.07,0.13,-0.99,3.48,0.67,2.50
42.1890,0.08,0.14,-0.99,3.78,0.37,2.32
42.1930,0.08,0.14,-0.99,3.85,0.00,2.87
42.2090,0.08,0.13,-0.99,3.54,0.49,2.99
42.2240,0.07,0.13,-0.99,3.54,0.24,2.50
42.2470,0.08,0.13,-0.99,3.66,0.67,2.26
42.2640,0.08,0.13,-0.99,3.48,0.18,2.62
42.2810,0.08,0.13,-0.99,3.66,0.55,2.99
42.2980,0.08,0.13,-0.99,3.48,0.67,2.87
42.3140,0.08,0.14,-0.99,3.60,0.18,2.93
42.3310,0.08,0.14,-0.99,3.85,0.12,2.93
42.3460,0.07,0.13,-0.99,3.42,0.18,3.30
42.3620,0.08,0.13,-0.99,3.60,0.37,3.17
42.3640,0.08,0.14,-0.99,3.78,-0.12,2.93
42.3930,0.07,0.14,-0.99,3.48,0.37,3.66
42.4090,0.07,0.13,-0.99,3.54,0.24,3.48
42.4240,0.07,0.13,-0.99,3.48,0.31,2.62
42.4320,0.07,0.13,-0.99,3.54,0.55,2.62
42.4470,0.07,0.13,-0.99,3.60,0.24,2.50
42.4700,0.08,0.13,-0.99,3.48,0.43,2.50
42.4860,0.08,0.13,-0.99,3.54,0.37,2.38
42.4870,0.08,0.13,-0.99,3.66,0.37,2.50
42.5170,0.08,0.14,-0.99,3.54,0.24,2.56
42.5200,0.08,0.14,-0.99,3.54,0.00,2.81
42.5470,0.08,0.13,-0.99,3.72,-0.12,2.62
42.5620,0.07,0.13,-0.99,3.60,0.55,2.50
42.5710,0.08,0.13,-0.99,3.72,0.43,2.08
42.5870,0.08,0.14,-0.99,3.78,0.43,2.50
42.6040,0.08,0.14,-0.98,3.60,0.37,3.23
42.6200,0.07,0.13,-0.99,3.23,0.43,3.42
42.6370,0.08,0.14,-0.99,3.54,0.37,2.81
42.6370,0.07,0.14,-0.99,3.60,0.61,2.62
42.6630,0.08,0.14,-0.99,3.48,0.18,2.20
42.6700,0.09,0.14,-0.99,3.66,0.79,2.69
42.6890,0.07,0.12,-0.99,3.54,0.73,2.62
42.7090,0.07,0.13,-0.99,3.91,0.12,2.32
42.7270,0.07,0.13,-0.99,3.91,0.12,1.89
42.7430,0.08,0.13,-0.99,3.60,0.24,1.89
42.7600,0.08,0.14,-0.99,3.54,0.61,1.89
42.7760,0.08,0.14,-0.99,3.48,0.43,2.26
42.7920,0.07,0.13,-0.99,3.48,0.79,2.50
42.8070,0.07,0.12,-0.99,3.60,0.55,2.38
42.8220,0.08,0.14,-0.99,3.60,0.55,1.77
42.8260,0.08,0.13,-0.99,3.60,1.04,1.83
42.8420,0.08,0.14,-0.99,3.72,0.55,1.77
42.8650,0.08,0.13,-0.99,3.72,0.61,1.77
42.8820,0.07,0.13,-0.99,3.85,0.67,1.83
42.8980,0.08,0.14,-0.99,3.66,0.73,1.89
42.9170,0.07,0.13,-0.99,3.72,0.61,2.20
42.9330,0.08,0.13,-0.98,3.60,0.49,2.14
42.9490,0.08,0.13,-0.99,3.54,0.55,2.26
42.9650,0.08,0.14,-0.99,3.85,0.49,2.20
42.9660,0.08,0.13,-0.98,3.78,0.18,2.44
42.9970,0.07,0.13,-0.99,3.72,0.49,2.62
43.0130,0.08,0.13,-0.99,3.60,0.73,2.26
43.0150,0.07,0.13,-0.99,3.72,0.55,1.89
43.0450,0.08,0.13,-0.99,3.60,0.61,1.95
43.0480,0.08,0.13,-0.99,3.60,0.55,1.95
43.0660,0.08,0.14,-0.99,3.60,0.31,2.08
43.0820,0.08,0.14,-0.99,3.78,0.55,2.38
43.1060,0.07,0.13,-0.99,3.30,0.73,2.32
43.1220,0.08,0.13,-0.99,3.48,0.61,2.26
43.1390,0.08,0.14,-0.99,3.60,0.55,2.32
43.1400,0.08,0.13,-0.99,3.72,0.49,2.32
43.1630,0.08,0.13,-0.99,3.91,0.55,2.38
43.1730,0.08,0.13,-0.99,3.60,0.85,2.50
43.1880,0.07,0.13,-0.99,3.60,0.43,2.26
43.2040,0.07,0.13,-0.99,3.78,0.49,1.89
43.2310,0.08,0.13,-0.99,3.85,0.43,1.95
43.2420,0.08,0.13,-0.99,3.72,0.55,1.95
43.2600,0.08,0.13,-0.99,3.54,0.79,2.08
43.2760,0.08,0.13,-0.99,3.78,0.85,2.14
43.2910,0.07,0.13,-0.99,3.66,0.61,2.08
43.3070,0.08,0.13,-0.99,3.48,0.73,2.01
43.3090,0.08,0.14,-0.99,3.72,0.79,1.89
43.3250,0.08,0.14,-0.99,3.60,0.55,1.89
43.3410,0.08,0.13,-0.99,3.78,0.73,1.89
43.3650,0.08,0.14,-0.99,3.54,0.67,1.77
43.3810,0.07,0.13,-0.99,3.60,0.92,1.16
43.3970,0.07,0.13,-0.99,3.60,1.04,1.28
43.4140,0.07,0.13,-0.99,3.36,0.79,1.28
43.4310,0.08,0.14,-0.98,3.54,0.43,1.16
43.4470,0.08,0.13,-0.99,3.85,0.92,1.53
43.4620,0.07,0.14,-0.99,3.72,0.73,1.95
43.4650,0.07,0.13,-0.99,3.48,0.67,2.69
43.4940,0.07,0.13,-0.99,3.72,0.67,2.20
43.4980,0.08,0.13,-0.99,3.85,0.49,1.83
43.5140,0.08,0.14,-0.99,3.78,0.61,1.59
43.5370,0.08,0.14,-1.01,3.66,0.79,1.65
43.5550,0.08,0.14,-0.98,3.78,1.16,1.89
43.5700,0.08,0.14,-0.99,3.54,0.98,1.95
43.5860,0.08,0.13,-0.99,3.78,0.73,2.08
43.5880,0.08,0.13,-0.99,3.66,0.55,1.89
43.6180,0.08,0.13,-0.99,3.60,0.73,1.59
43.6350,0.08,0.14,-0.98,3.66,0.98,1.65
43.6380,0.08,0.13,-0.99,3.66,0.98,1.46
43.6640,0.08,0.14,-0.99,3.66,0.79,1.46
43.6690,0.07,0.13,-0.99,3.54,0.79,1.77
43.6900,0.07,0.13,-0.99,3.48,0.67,1.95
43.7080,0.08,0.13,-0.99,3.66,0.92,1.77
43.7240,0.08,0.14,-0.99,3.48,0.85,1.83
43.7410,0.08,0.13,-0.99,3.42,0.85,1.89
43.7580,0.08,0.14,-0.99,3.72,0.85,1.89
43.7740,0.08,0.13,-0.99,3.72,0.92,2.20
43.7900,0.08,0.13,-0.99,3.48,0.92,2.26
43.7910,0.08,0.13,-0.99,3.54,0.67,2.26
43.8210,0.08,0.13,-0.99,3.66,0.85,2.08
43.8370,0.07,0.13,-0.99,3.60,0.92,2.01
43.8520,0.08,0.13,-0.99,3.60,0.85,1.95
43.8670,0.08,0.14,-0.99,3.54,0.55,2.08
43.8740,0.08,0.14,-0.99,3.54,0.92,2.44
43.8900,0.07,0.12,-0.99,3.48,0.79,2.32
43.9070,0.07,0.12,-0.99,3.36,1.04,1.71
43.9240,0.08,0.14,-0.99,3.66,1.16,1.65
43.9410,0.08,0.14,-0.99,3.78,0.98,1.71
43.9590,0.07,0.13,-0.99,3.60,0.85,1.77
43.9740,0.08,0.13,-0.99,3.78,0.98,1.65
43.9900,0.07,0.13,-0.99,3.66,0.92,1.71
43.9910,0.07,0.13,-0.99,3.66,0.92,1.95
44.0220,0.08,0.13,-1.00,3.60,0.98,1.95
44.0360,0.08,0.14,-0.98,3.48,0.92,2.08
44.0510,0.08,0.13,-0.99,3.48,1.16,2.08
44.0650,0.07,0.13,-0.99,3.48,1.04,2.01
44.0740,0.07,0.13,-0.99,3.72,0.92,1.95
44.0980,0.08,0.14,-0.99,3.85,0.55,1.71
44.1140,0.08,0.14,-0.98,3.78,0.67,1.71
44.1300,0.08,0.13,-0.99,3.42,0.79,1.77
44.1320,0.07,0.13,-0.99,3.72,0.98,1.95
44.1620,0.08,0.14,-0.99,3.48,0.73,1.77
44.1790,0.08,0.13,-0.99,3.85,0.55,2.08
44.1930,0.08,0.13,-0.99,3.85,0.43,1.89
44.1980,0.08,0.14,-0.98,3.72,0.67,1.89
44.2140,0.08,0.13,-0.99,3.78,0.61,2.01
44.2390,0.08,0.13,-0.99,3.72,0.79,2.14
44.2560,0.07,0.12,-0.99,3.48,0.79,1.89
44.2650,0.08,0.14,-0.99,3.72,0.61,1.71
44.2870,0.07,0.13,-0.99,3.72,0.79,1.71
44.2900,0.08,0.13,-0.99,3.60,0.92,1.83
44.3180,0.07,0.13,-0.99,3.72,0.85,1.59
44.3230,0.08,0.13,-0.99,3.78,0.92,1.71
44.3390,0.08,0.14,-0.99,3.85,0.92,1.53
44.3610,0.08,0.13,-0.99,3.60,0.67,1.46
44.3790,0.08,0.13,-0.99,3.78,0.79,1.65
44.3950,0.08,0.13,-0.99,3.60,0.79,1.65
44.3960,0.07,0.13,-0.99,3.78,0.61,1.59
44.4260,0.07,0.12,-0.99,3.36,0.73,1.71
44.4420,0.07,0.14,-0.99,3.17,0.73,1.53
44.4450,0.08,0.14,-0.99,3.30,0.85,1.59
44.4650,0.07,0.14,-0.99,3.42,0.92,1.53
44.4840,0.09,0.14,-0.98,3.66,0.92,1.28
44.5020,0.07,0.13,-0.99,3.54,0.92,1.46
44.5180,0.09,0.14,-0.99,3.60,0.61,1.46
44.5340,0.07,0.13,-0.99,3.72,0.92,1.53
44.5510,0.08,0.13,-0.99,3.85,0.67,1.22
44.5680,0.08,0.13,-0.99,3.48,1.22,1.53
44.5690,0.08,0.13,-0.99,3.48,1.04,1.77
44.5990,0.08,0.13,-0.99,3.60,0.73,1.65
44.6150,0.11,0.14,-0.98,3.85,0.55,2.01
44.6310,0.04,0.13,-0.99,3.54,0.73,3.05
44.6470,0.07,0.13,-0.99,3.60,0.79,1.71
44.6630,0.08,0.13,-0.98,3.91,0.79,1.53
44.6790,0.08,0.13,-0.99,3.72,0.85,1.65
44.6940,0.08,0.13,-0.99,3.48,1.04,1.59
44.7020,0.08,0.13,-0.99,3.60,0.61,1.46
44.7250,0.08,0.13,-0.99,3.60,1.04,1.53
44.7360,0.08,0.13,-0.99,3.78,0.85,1.59
44.7510,0.08,0.13,-0.98,3.66,1.16,1.77
44.7670,0.13,0.12,-0.99,3.54,0.73,3.42
44.7780,0.09,0.13,-0.99,3.23,0.24,4.94
44.7950,0.07,0.13,-0.99,3.30,0.67,3.78
44.8120,0.06,0.13,-0.99,3.54,0.49,2.81
44.8280,0.05,0.14,-0.99,3.78,1.04,0.67
44.8450,0.06,0.14,-0.99,3.66,0.98,-0.61
44.8610,0.07,0.14,-0.99,3.48,0.79,0.18
44.8790,0.08,0.13,-0.99,3.30,0.85,1.59
44.8940,0.06,0.14,-0.98,3.42,0.92,1.89
44.9100,0.09,0.12,-0.99,3.30,0.85,4.03
44.9120,0.08,0.14,-0.98,3.72,0.61,1.59
44.9420,0.08,0.13,-0.99,3.72,0.67,1.59
44.9450,0.08,0.13,-0.99,3.72,0.73,1.53
44.9660,0.08,0.13,-0.99,3.36,1.10,1.46
44.9790,0.08,0.13,-0.99,3.54,0.43,1.53
44.9950,0.08,0.13,-0.99,3.72,0.61,1.59
45.0180,0.08,0.13,-0.99,3.66,0.18,1.59
45.0350,0.08,0.13,-0.99,3.54,0.92,1.59
45.0510,0.08,0.13,-0.99,3.60,0.31,1.65
45.0670,0.07,0.13,-0.99,3.60,0.43,1.65
45.0690,0.07,0.13,-0.99,3.54,0.31,2.87
45.0980,0.09,0.13,-0.98,3.60,0.43,2.56
45.1020,0.08,0.14,-0.99,3.85,0.61,1.95
45.1180,0.07,0.14,-0.99,3.54,0.31,2.87
45.1460,0.08,0.13,-0.99,3.85,0.31,4.82
45.1560,0.08,0.13,-0.99,3.54,0.67,3.36
45.1730,0.08,0.13,-0.99,3.60,0.37,1.65
45.1890,0.08,0.13,-0.99,3.91,0.79,1.71
45.2060,0.08,0.13,-0.99,3.54,0.92,1.65
45.2220,0.08,0.13,-0.99,3.60,0.92,1.59
45.2380,0.08,0.13,-0.99,3.72,0.79,1.71
45.2540,0.08,0.13,-0.99,3.54,1.10,1.83
45.2700,0.08,0.13,-0.98,3.72,0.85,1.53
45.2860,0.08,0.13,-0.99,3.66,0.73,1.65
45.3020,0.08,0.13,-0.99,3.66,0.61,1.59
45.3170,0.07,0.13,-0.99,3.60,0.61,1.71
45.3310,0.04,0.12,-0.99,3.60,0.73,3.54
45.3460,0.09,0.13,-0.99,3.54,0.49,4.82
45.3560,0.10,0.14,-0.99,3.54,0.92,2.75
45.3730,0.08,0.14,-0.98,3.85,0.61,1.71
45.3890,0.08,0.14,-0.99,3.78,1.04,1.65
45.4060,0.08,0.13,-0.99,3.60,0.61,1.46
45.4220,0.08,0.13,-0.99,3.23,0.85,1.65
45.4370,0.08,0.13,-0.99,3.42,0.49,3.11
45.4520,0.07,0.13,-0.99,3.60,0.67,2.26
45.4660,0.08,0.13,-0.99,3.60,0.73,2.20
45.4850,0.08,0.13,-0.99,3.72,0.79,1.71
45.4890,0.08,0.13,-0.99,3.78,0.73,1.65
45.5050,0.08,0.13,-0.99,3.66,0.67,1.59
45.5270,0.08,0.13,-0.99,3.48,0.61,1.65
45.5440,0.08,0.13,-0.99,3.60,0.73,1.71
45.5600,0.08,0.13,-0.99,3.60,0.61,1.65
45.5760,0.08,0.13,-0.99,3.66,1.10,1.59
45.5920,0.08,0.13,-0.99,3.60,0.49,1.59
45.6070,0.08,0.13,-0.99,3.72,1.10,1.83
45.6280,0.08,0.13,-0.99,3.78,0.98,1.53
45.6430,0.08,0.13,-0.99,3.60,0.73,1.65
45.6480,0.08,0.14,-0.98,3.72,0.67,1.77
45.6750,0.08,0.13,-0.99,3.60,0.61,1.53
45.6810,0.08,0.13,-0.99,3.66,0.92,1.53
45.7050,0.07,0.16,-1.01,3.66,0.73,1.65
45.7140,0.09,0.12,-0.99,2.75,0.31,1.83
45.7300,0.08,0.13,-0.98,3.66,0.85,1.65
45.7460,0.08,0.13,-0.99,3.97,0.79,1.71
45.7610,0.08,0.13,-0.99,3.48,0.85,1.65
45.7820,0.08,0.13,-0.99,3.60,0.92,1.59
45.7880,0.08,0.13,-0.99,3.60,0.55,1.46
45.8120,0.08,0.13,-0.99,3.48,0.79,1.53
45.8210,0.08,0.13,-0.99,3.54,0.73,1.65
45.8370,0.08,0.13,-0.99,3.42,0.85,1.71
45.8550,0.08,0.13,-0.99,3.60,1.10,1.71
45.8710,0.08,0.13,-0.99,3.66,0.67,1.65
45.8880,0.08,0.13,-0.99,3.60,0.98,1.71
45.9050,0.08,0.13,-0.99,3.72,0.73,1.65
45.9210,0.08,0.13,-0.99,3.54,0.55,1.53
45.9360,0.08,0.13,-0.98,3.72,0.98,1.53
45.9510,0.08,0.13,-0.99,3.60,0.55,1.59
45.9670,0.08,0.13,-0.99,3.72,0.73,1.65
45.9710,0.08,0.13,-0.98,3.66,0.37,1.59
45.9990,0.08,0.13,-0.99,3.54,0.92,1.59
46.0050,0.08,0.13,-0.99,3.54,0.85,1.59
46.0210,0.08,0.13,-0.99,3.48,0.61,1.59
46.0370,0.08,0.13,-0.99,3.48,0.37,1.71
46.0590,0.08,0.13,-0.99,3.66,0.85,1.65
46.0760,0.08,0.13,-0.99,3.72,0.67,1.71
46.0920,0.08,0.13,-0.99,3.72,0.85,1.53
46.1090,0.08,0.13,-0.99,3.72,0.79,1.77
46.1270,0.08,0.13,-0.99,3.66,0.61,1.65
46.1420,0.08,0.13,-0.99,3.85,0.73,1.71
46.1580,0.08,0.13,-0.99,3.60,0.43,1.53
46.1740,0.08,0.13,-0.99,3.42,0.98,1.53
46.1910,0.08,0.13,-0.99,3.78,0.49,1.53
46.2070,0.08,0.13,-0.99,3.48,0.79,1.59
46.2220,0.08,0.13,-0.99,3.54,0.85,1.59
46.2370,0.08,0.13,-0.99,3.60,0.85,1.65
46.2510,0.08,0.13,-0.99,3.78,0.73,1.65
46.2600,0.08,0.13,-0.99,3.60,0.79,1.65
46.2760,0.08,0.13,-0.99,3.72,0.67,1.65
46.2930,0.08,0.13,-0.99,3.66,0.67,1.71
46.3090,0.08,0.13,-0.99,3.72,0.73,1.71
46.3260,0.08,0.13,-0.99,3.42,1.04,1.65
46.3420,0.08,0.13,-0.99,3.60,0.92,1.65
46.3580,0.08,0.13,-0.99,3.72,0.92,1.83
46.3750,0.08,0.13,-0.99,3.66,0.92,1.65
46.3770,0.08,0.13,-0.99,3.66,0.49,1.65
46.4060,0.08,0.13,-0.99,3.72,0.85,1.53
46.4230,0.08,0.13,-0.99,3.72,0.79,1.65
46.4270,0.08,0.13,-0.99,3.60,1.28,1.59
46.4430,0.08,0.13,-0.99,3.60,0.92,1.53
46.4680,0.08,0.13,-0.99,3.60,0.98,1.59
46.4810,0.08,0.13,-0.99,3.36,1.10,1.71
46.4980,0.08,0.13,-0.99,3.60,0.85,1.53
46.5150,0.08,0.13,-0.99,3.60,0.85,1.65
46.5320,0.08,0.13,-0.99,3.66,1.16,1.71
46.5490,0.08,0.13,-0.99,3.66,0.49,1.59
46.5650,0.08,0.13,-0.99,3.72,0.55,1.59
46.5680,0.08,0.13,-0.99,3.60,0.73,1.65
46.5970,0.08,0.13,-0.99,3.42,0.73,1.65
46.5990,0.08,0.13,-0.99,3.54,0.67,1.59
46.6290,0.08,0.13,-0.99,3.54,0.98,1.71
46.6320,0.08,0.13,-0.99,3.54,1.34,1.77
46.6480,0.08,0.13,-0.99,3.60,0.55,1.65
46.6680,0.08,0.13,-0.99,3.66,0.85,1.65
46.6870,0.08,0.13,-0.99,3.60,0.98,1.59
46.7050,0.08,0.13,-0.99,3.48,0.67,1.65
46.7210,0.08,0.13,-0.99,3.48,0.98,1.53
46.7370,0.08,0.13,-0.99,3.48,1.04,1.77
46.7530,0.08,0.13,-0.99,3.66,0.92,1.59
46.7670,0.08,0.13,-0.99,3.48,0.79,1.46
46.7830,0.08,0.13,-0.99,3.54,0.98,1.53
46.8010,0.08,0.13,-0.99,3.66,0.67,1.59
46.8150,0.08,0.13,-0.99,3.60,0.79,1.59
46.8290,0.08,0.13,-0.99,3.72,0.85,1.59
46.8450,0.08,0.13,-0.99,3.66,1.16,1.59
46.8540,0.08,0.13,-0.99,3.60,1.40,1.53
46.8710,0.08,0.13,-0.99,3.48,1.10,1.65
46.8880,0.08,0.13,-0.99,3.72,0.85,1.65
46.9040,0.08,0.13,-0.99,3.72,1.10,1.83
46.9210,0.08,0.13,-0.99,3.72,0.49,1.77
46.9370,0.08,0.13,-0.98,3.54,0.73,1.71
46.9530,0.08,0.13,-0.99,3.54,1.28,1.83
46.9670,0.08,0.13,-0.99,3.66,1.10,1.59
46.9710,0.08,0.13,-0.99,3.85,0.67,1.59
46.9860,0.08,0.13,-0.99,3.60,0.61,1.65
47.0100,0.08,0.13,-0.99,3.54,0.79,1.77
47.0270,0.08,0.13,-0.99,3.78,0.55,1.59
47.0440,0.08,0.13,-0.99,3.48,0.92,1.65
47.0600,0.08,0.13,-0.99,3.66,1.16,1.77
47.0770,0.08,0.13,-0.98,3.42,0.98,1.59
47.0930,0.08,0.14,-0.99,3.48,0.92,1.65
47.1090,0.08,0.13,-0.99,3.91,0.85,1.71
47.1250,0.08,0.13,-0.99,3.60,0.92,1.77
47.1410,0.08,0.13,-0.99,3.72,0.61,1.65
47.1570,0.08,0.13,-0.99,3.54,0.61,1.59
47.1720,0.08,0.13,-0.99,3.48,0.43,1.53
47.1880,0.08,0.13,-0.99,3.42,0.67,1.65
47.2030,0.08,0.13,-0.99,3.60,1.04,1.65
47.2180,0.08,0.13,-0.99,3.66,0.92,1.65
47.2340,0.08,0.13,-0.99,3.42,0.79,1.46
47.2430,0.08,0.13,-0.99,3.54,1.16,1.71
47.2590,0.08,0.13,-0.99,3.30,0.92,1.40
47.2810,0.12,0.18,-0.98,3.72,0.85,2.01
47.2960,0.05,0.12,-0.99,3.60,0.67,5.37
47.3120,0.07,0.13,-0.99,3.05,-0.24,6.53
47.3280,0.08,0.14,-0.99,3.11,0.43,4.94
47.3340,0.08,0.14,-0.99,3.17,0.31,4.94
47.3520,0.07,0.14,-0.99,3.42,0.06,4.33
47.3700,0.07,0.11,-0.99,3.54,0.49,5.07
47.3900,0.07,0.11,-0.99,3.78,0.79,2.26
47.4050,0.08,0.13,-0.99,3.97,0.79,1.59
47.4210,0.08,0.14,-0.99,3.78,0.85,1.59
47.4360,0.10,0.15,-0.98,3.72,0.79,1.46
47.4520,0.08,0.16,-0.98,3.54,1.16,1.22
47.4600,0.08,0.15,-0.98,3.23,0.85,2.99
47.4760,0.07,0.11,-0.99,3.42,0.79,2.87
47.4930,0.07,0.11,-0.99,3.72,0.79,1.65
47.5100,0.09,0.13,-0.99,3.91,1.04,0.79
47.5270,0.09,0.14,-0.99,3.97,1.10,0.49
47.5430,0.08,0.15,-0.98,3.78,0.73,2.26
47.5590,0.08,0.14,-0.99,3.54,0.49,2.87
47.5760,0.08,0.13,-0.99,3.78,0.92,1.89
47.5920,0.08,0.13,-0.99,3.66,1.10,1.16
47.6080,0.08,0.13,-0.98,3.85,0.98,1.16
47.6230,0.07,0.14,-0.99,3.54,0.92,1.22
47.6390,0.07,0.13,-0.99,3.36,0.67,1.59
47.6550,0.07,0.13,-0.99,3.36,0.98,1.46
47.6710,0.07,0.13,-0.99,3.78,0.85,1.10
47.6860,0.06,0.13,-0.99,3.66,0.98,2.01
47.7010,0.06,0.12,-0.99,3.85,1.04,2.32
47.7100,0.08,0.13,-0.99,3.91,0.67,1.59
47.7270,0.09,0.14,-0.99,3.54,0.79,1.65
47.7430,0.10,0.15,-0.98,3.54,0.85,1.34
47.7600,0.07,0.14,-0.99,3.30,0.79,1.22
47.7770,0.07,0.13,-0.99,3.60,0.79,1.65
47.7930,0.07,0.12,-0.99,3.78,0.73,1.53
47.8090,0.08,0.13,-0.99,3.72,0.85,1.77
47.8250,0.08,0.14,-0.99,3.66,0.79,1.71
47.8410,0.08,0.13,-0.99,3.42,0.73,1.83
47.8570,0.08,0.14,-0.98,3.60,0.37,1.89
47.8730,0.08,0.15,-0.98,3.48,0.85,2.87
