Timestamp, AccX, AccY, AccZ, GyroX, GyroY, GyroZ
0.0120,0.08,0.11,-0.99,3.23,-0.24,1.53
0.0280,0.08,0.11,-0.99,3.54,-0.43,1.53
0.0430,0.08,0.11,-0.99,3.42,0.00,1.59
0.0580,0.08,0.11,-0.99,3.42,-0.31,1.65
0.0730,0.08,0.11,-0.99,3.48,0.00,1.59
0.0820,0.08,0.11,-0.99,3.48,-0.43,1.53
0.1000,0.08,0.11,-0.99,3.42,-0.37,1.46
0.1170,0.08,0.11,-0.99,3.48,-0.43,1.53
0.1330,0.08,0.11,-0.99,3.48,-0.43,1.46
0.1480,0.08,0.11,-0.99,3.48,-0.31,1.46
0.1630,0.08,0.11,-0.99,3.36,-0.43,1.46
0.1660,0.08,0.11,-0.99,3.66,-0.55,1.59
0.1830,0.08,0.11,-0.99,3.66,-15.63,1.71
0.2000,0.08,0.11,-0.99,3.60,0.06,1.59
0.2230,0.08,0.11,-0.99,3.66,-0.18,1.53
0.2390,0.08,0.11,-0.99,3.60,-0.24,1.53
0.2500,0.08,0.11,-0.99,3.42,-0.18,1.59
0.2660,0.08,0.11,-0.99,3.54,-0.31,1.65
0.2810,0.08,0.11,-0.99,3.48,-0.37,1.53
0.2990,0.08,0.11,-0.99,3.66,-0.18,1.53
0.3140,0.08,0.11,-0.99,3.36,-0.37,1.40
0.3200,0.08,0.11,-0.99,3.42,0.00,1.53
0.3350,0.08,0.11,-0.99,3.60,-0.06,1.71
0.3510,0.08,0.11,-0.99,3.48,-0.18,1.65
0.3720,0.08,0.11,-0.99,3.48,-0.49,1.46
0.3890,0.09,0.10,-0.99,3.54,-0.43,1.28
0.4060,0.07,0.11,-0.99,3.42,-0.12,1.34
0.4220,0.08,0.11,-0.99,3.30,-0.37,1.53
0.4380,0.08,0.11,-0.98,3.36,-0.31,1.53
0.4530,0.08,0.11,-0.98,3.42,-0.43,1.46
0.4690,0.08,0.11,-0.99,3.36,-0.24,1.53
0.4860,0.08,0.11,-0.99,3.42,-0.18,1.46
0.5010,0.08,0.11,-0.99,3.48,-0.24,1.53
0.5060,0.08,0.11,-0.99,3.42,-0.43,1.46
0.5220,0.08,0.11,-0.99,3.42,-0.24,1.59
0.5450,0.08,0.11,-0.99,3.42,-0.24,1.34
0.5610,0.08,0.11,-0.99,3.54,-0.24,1.59
0.5780,0.08,0.11,-0.99,3.17,-0.31,1.53
0.5950,0.08,0.11,-0.99,2.93,-0.49,1.95
0.6110,0.09,0.12,-0.99,3.23,-0.18,2.44
0.6260,0.07,0.10,-0.99,3.54,0.12,0.31
0.6410,0.08,0.11,-0.99,3.36,0.00,0.92
0.6560,0.08,0.12,-0.99,3.54,-0.43,0.73
0.6710,0.08,0.11,-0.98,3.36,-0.67,4.27
0.6870,0.08,0.10,-0.99,3.36,-0.67,3.60
0.7020,0.08,0.10,-0.99,2.93,-0.98,5.19
0.7170,0.09,0.10,-0.99,3.30,-0.73,3.23
0.7280,0.08,0.11,-0.99,3.36,-0.49,1.59
0.7440,0.08,0.11,-0.99,3.36,-0.31,1.59
0.7620,0.08,0.11,-0.99,3.60,-0.49,1.46
0.7790,0.08,0.11,-0.99,3.42,-0.43,1.40
0.7940,0.08,0.11,-0.99,3.36,0.12,1.34
0.8110,0.08,0.11,-0.99,3.54,-0.43,1.22
0.8270,0.08,0.11,-0.99,3.60,0.06,1.28
0.8420,0.08,0.11,-0.99,3.42,-0.49,1.34
0.8580,0.08,0.11,-0.99,3.48,-0.06,1.28
0.8730,0.08,0.11,-0.99,3.42,-0.37,1.46
0.8780,0.08,0.11,-0.99,3.54,-0.24,1.10
0.8980,0.08,0.11,-0.99,3.48,-0.55,1.34
0.9170,0.08,0.11,-0.99,3.17,-0.18,1.53
0.9340,0.08,0.11,-0.99,3.30,-0.12,1.46
0.9500,0.08,0.11,-0.99,3.36,-0.61,1.65
0.9670,0.08,0.11,-0.99,3.30,-0.79,1.71
0.9830,0.08,0.11,-0.99,3.48,-0.67,1.46
0.9990,0.08,0.11,-0.99,3.48,-0.61,1.71
1.0150,0.08,0.11,-0.99,3.30,-0.61,1.83
1.0160,0.08,0.11,-0.99,3.23,-0.67,1.89
1.0330,0.08,0.11,-0.99,3.42,-0.85,1.83
1.0630,0.08,0.11,-0.99,3.48,-0.31,1.46
1.0670,0.08,0.11,-0.99,3.30,-0.49,1.40
1.0950,0.08,0.11,-0.99,3.66,-0.73,1.46
1.1000,0.08,0.11,-0.99,3.36,-0.06,2.32
1.1160,0.08,0.11,-0.99,3.30,-0.55,2.75
1.1330,0.08,0.11,-0.99,3.42,-0.37,2.81
1.1510,0.08,0.11,-0.99,3.36,-0.61,1.95
1.1670,0.08,0.11,-0.99,3.42,-0.37,1.59
1.1840,0.08,0.11,-0.99,3.54,-0.37,1.77
1.2000,0.08,0.11,-0.99,3.42,-0.31,2.32
1.2170,0.08,0.11,-0.99,3.23,-0.67,2.99
1.2350,0.08,0.11,-0.99,3.48,-0.73,2.62
1.2500,0.08,0.11,-0.99,3.48,-0.49,2.32
1.2660,0.08,0.11,-0.99,3.36,-0.43,1.83
1.2680,0.08,0.11,-0.99,3.42,0.12,1.71
1.2840,0.08,0.11,-0.99,3.48,-0.55,2.01
1.3010,0.08,0.11,-0.99,3.36,-0.61,2.50
1.3170,0.08,0.11,-0.99,3.36,-0.61,2.75
1.3320,0.08,0.11,-0.99,3.05,-0.12,2.69
1.3500,0.08,0.11,-0.99,3.36,-0.31,2.20
1.3660,0.08,0.11,-0.99,3.66,-0.73,1.65
1.3820,0.08,0.11,-0.99,3.36,-0.12,1.77
1.4090,0.08,0.11,-0.99,3.36,-0.12,1.65
1.4200,0.08,0.11,-0.99,3.30,-0.49,2.01
1.4370,0.08,0.11,-0.99,3.36,-0.49,1.95
1.4540,0.08,0.11,-0.99,3.48,-0.67,1.65
1.4700,0.08,0.11,-0.99,3.54,-0.61,1.53
1.4870,0.08,0.11,-0.99,3.30,0.00,1.46
1.4990,0.08,0.11,-0.99,3.48,-0.37,1.71
1.5190,0.08,0.11,-0.99,3.36,-0.49,1.59
1.5350,0.08,0.11,-0.99,3.42,-0.55,1.65
1.5510,0.08,0.11,-0.99,3.54,-0.43,1.89
1.5540,0.08,0.11,-0.99,3.42,-0.43,1.65
1.5830,0.08,0.11,-0.99,3.54,-0.31,1.77
1.5880,0.08,0.11,-0.99,3.23,-0.31,1.65
1.6040,0.08,0.11,-0.99,3.36,-0.67,1.53
1.6310,0.08,0.11,-0.99,3.54,-0.79,1.46
1.6470,0.08,0.11,-0.99,3.54,-0.12,1.46
1.6530,0.08,0.11,-0.99,3.36,-0.31,1.59
1.6690,0.08,0.11,-0.99,3.36,-0.12,1.59
1.6890,0.08,0.11,-0.99,3.36,-0.31,1.95
1.7090,0.08,0.11,-0.99,3.30,-0.61,1.95
1.7230,0.08,0.11,-0.99,3.23,-0.49,1.77
1.7390,0.08,0.11,-0.99,3.54,-0.12,1.83
1.7550,0.08,0.11,-0.99,3.23,0.12,1.83
1.7710,0.08,0.11,-0.99,3.36,-0.24,2.08
1.7870,0.08,0.11,-0.99,3.23,-0.24,1.95
1.8030,0.08,0.11,-0.99,3.42,-0.18,1.83
1.8190,0.08,0.11,-0.99,3.30,-0.31,2.08
1.8350,0.08,0.11,-0.99,3.42,-0.49,2.08
1.8500,0.08,0.11,-0.99,3.48,-0.55,2.14
1.8660,0.08,0.11,-0.99,3.48,-0.61,2.20
1.8740,0.08,0.11,-0.99,3.17,-0.06,2.62
1.8970,0.08,0.11,-0.99,3.48,-0.79,2.26
1.9120,0.08,0.11,-0.99,3.23,-0.31,2.26
1.9240,0.08,0.11,-0.99,3.36,-0.31,1.95
1.9400,0.08,0.11,-0.99,3.42,-0.61,2.32
1.9600,0.08,0.11,-0.99,3.30,-0.37,2.32
1.9750,0.08,0.11,-0.99,3.36,-0.18,1.83
1.9910,0.08,0.11,-0.99,3.42,-0.49,1.71
2.0070,0.08,0.11,-0.99,3.36,-0.31,1.77
2.0220,0.08,0.11,-0.99,3.42,-0.49,1.65
2.0290,0.08,0.11,-0.99,3.54,-1.04,1.83
2.0440,0.08,0.11,-0.99,3.36,-0.49,2.14
2.0670,0.08,0.11,-0.99,3.48,-0.24,2.08
2.0850,0.08,0.11,-0.99,3.36,-0.73,2.14
2.1010,0.08,0.11,-0.99,3.30,-0.18,1.89
2.1170,0.08,0.11,-0.99,3.42,-0.37,2.08
2.1330,0.08,0.11,-0.99,3.36,-0.67,2.26
2.1490,0.08,0.11,-0.99,3.36,-0.24,2.32
2.1650,0.08,0.11,-0.99,3.42,-0.61,2.32
2.1810,0.08,0.11,-0.99,3.42,-0.43,2.26
2.1980,0.08,0.11,-0.99,3.48,-0.31,1.83
2.2130,0.08,0.11,-0.99,3.66,-0.31,2.01
2.2290,0.08,0.11,-0.99,3.42,-0.55,1.89
2.2440,0.08,0.11,-0.99,3.48,-0.55,1.65
2.2590,0.08,0.11,-0.99,3.66,-0.43,1.95
2.2750,0.08,0.11,-0.99,3.48,-0.12,2.14
2.2840,0.08,0.11,-0.99,3.54,-0.43,1.95
2.3000,0.08,0.11,-0.99,3.30,-0.55,1.95
2.3230,0.08,0.11,-0.99,3.54,-0.61,1.77
2.3390,0.08,0.11,-0.99,3.42,-0.49,2.20
2.3550,0.08,0.11,-0.99,3.42,-0.67,1.95
2.3710,0.08,0.11,-0.99,3.42,-0.37,2.01
2.3860,0.08,0.11,-0.99,3.30,-0.49,2.08
2.4010,0.08,0.11,-0.99,3.36,-0.67,2.38
2.4070,0.08,0.11,-0.99,3.54,-0.61,2.32
2.4300,0.08,0.11,-0.99,3.42,-0.67,2.20
2.4460,0.08,0.11,-0.99,3.30,-0.31,2.08
2.4620,0.08,0.11,-0.99,3.30,-0.31,2.38
2.4790,0.08,0.11,-0.99,3.48,-0.49,2.26
2.4970,0.08,0.11,-0.99,3.42,-0.73,2.32
2.5130,0.08,0.11,-0.99,3.42,-0.61,2.14
2.5280,0.08,0.11,-0.99,3.42,-0.61,1.77
2.5430,0.08,0.11,-0.99,3.36,-0.24,1.77
2.5590,0.08,0.11,-0.99,3.54,-0.43,1.77
2.5740,0.08,0.11,-0.99,3.48,-0.49,1.89
2.5900,0.08,0.11,-0.99,3.48,-0.31,1.95
2.6010,0.08,0.11,-0.99,3.48,-0.55,1.83
2.6120,0.08,0.11,-0.99,3.48,-0.61,1.89
2.6350,0.08,0.11,-0.99,3.30,-0.37,1.95
2.6500,0.08,0.11,-0.99,3.42,-0.12,1.95
2.6670,0.08,0.11,-0.99,3.60,-0.12,1.83
2.6840,0.08,0.11,-0.99,3.60,-0.43,1.65
2.7000,0.08,0.11,-0.99,3.66,-0.31,1.59
2.7160,0.08,0.11,-0.99,3.54,-0.49,1.89
2.7320,0.08,0.11,-0.99,3.42,-0.43,1.95
2.7340,0.08,0.11,-0.99,3.48,-0.31,2.01
2.7500,0.08,0.11,-0.99,3.36,-0.18,2.38
2.7790,0.08,0.11,-0.99,3.42,-0.73,2.20
2.7890,0.08,0.11,-0.99,3.42,-0.85,2.56
2.8050,0.08,0.11,-0.99,3.48,-0.85,2.38
2.8250,0.08,0.11,-0.99,3.42,-0.55,2.56
2.8400,0.08,0.11,-0.99,3.23,-0.43,2.32
2.8570,0.08,0.11,-0.99,3.48,-0.67,2.38
2.8720,0.08,0.11,-0.99,3.30,-0.43,1.77
2.8870,0.08,0.11,-0.99,3.36,-0.55,2.01
2.9010,0.08,0.11,-0.99,3.60,-0.55,2.01
2.9090,0.08,0.11,-0.99,3.42,-0.55,2.32
2.9310,0.08,0.11,-0.99,3.42,-0.85,2.20
2.9490,0.08,0.11,-0.99,3.23,-0.31,2.38
2.9650,0.08,0.11,-0.99,3.54,-0.67,1.83
2.9820,0.08,0.11,-0.99,3.60,-0.37,2.01
2.9980,0.08,0.11,-0.99,3.48,-0.24,2.38
3.0140,0.08,0.11,-0.99,3.42,-0.73,2.14
3.0290,0.08,0.11,-0.99,3.42,-0.31,2.26
3.0440,0.08,0.11,-0.99,3.23,-0.37,2.32
3.0480,0.08,0.11,-0.99,3.30,-0.24,2.56
3.0640,0.08,0.11,-0.99,3.54,-0.24,2.38
3.0870,0.08,0.11,-0.99,3.30,-0.49,2.32
3.1030,0.08,0.11,-0.99,3.42,0.06,1.95
3.1210,0.08,0.11,-0.99,3.30,-0.55,2.32
3.1370,0.08,0.11,-0.99,3.11,-0.55,2.38
3.1540,0.08,0.11,-0.99,3.17,-0.37,2.69
3.1550,0.08,0.11,-0.99,3.36,-0.79,2.62
3.1700,0.08,0.11,-0.99,3.36,-0.61,2.26
3.2010,0.08,0.11,-0.99,3.23,-0.31,2.14
3.2170,0.08,0.11,-0.99,3.42,-0.61,2.44
3.2220,0.08,0.11,-0.99,3.48,-0.49,2.20
3.2370,0.08,0.11,-0.99,3.54,-0.06,2.26
3.2600,0.08,0.11,-0.99,3.48,-0.37,2.14
3.2770,0.08,0.11,-0.99,3.36,-0.49,2.01
3.2940,0.08,0.11,-0.99,3.48,-0.12,2.38
3.3100,0.08,0.11,-0.99,3.42,-0.55,2.14
3.3260,0.08,0.11,-0.99,3.48,-0.61,2.26
3.3430,0.08,0.11,-0.99,3.54,0.00,2.32
3.3580,0.08,0.11,-0.99,3.30,-0.43,2.32
3.3740,0.08,0.11,-0.99,3.36,-0.18,2.32
3.3890,0.08,0.11,-0.99,3.23,-0.31,2.26
3.4050,0.08,0.11,-0.99,3.42,-0.55,2.20
3.4190,0.08,0.11,-0.99,3.30,-0.61,2.32
3.4360,0.08,0.11,-0.99,3.30,-0.24,2.44
3.4510,0.08,0.11,-0.99,3.23,0.00,2.44
3.4600,0.08,0.11,-0.99,3.23,-0.55,2.38
3.4760,0.08,0.11,-0.99,3.23,-0.37,2.50
3.4970,0.08,0.11,-0.99,3.42,-0.55,2.32
3.5110,0.08,0.11,-0.99,3.42,-0.49,2.20
3.5160,0.08,0.11,-0.99,3.23,0.06,2.38
3.5330,0.08,0.11,-0.99,3.23,-0.31,2.20
3.5500,0.08,0.11,-0.99,3.30,-0.43,2.08
3.5730,0.08,0.11,-0.99,3.42,-0.61,1.95
3.5820,0.08,0.11,-0.99,3.42,0.06,1.89
3.6050,0.08,0.11,-0.99,3.54,-0.12,1.95
3.6160,0.08,0.11,-0.99,3.54,-0.31,2.01
3.6320,0.08,0.11,-0.99,3.36,-0.43,1.83
3.6510,0.08,0.11,-0.99,3.36,-0.73,1.71
3.6510,0.08,0.11,-0.99,3.54,-0.37,1.95
3.6670,0.08,0.11,-0.99,3.54,-0.12,1.89
3.6840,0.08,0.11,-0.99,3.36,-0.49,1.95
3.7030,0.08,0.11,-0.99,3.36,-0.55,1.89
3.7160,0.08,0.11,-0.99,3.42,-0.43,1.89
3.7330,0.08,0.11,-0.99,3.54,-0.67,2.01
3.7500,0.08,0.11,-0.99,3.42,-0.37,1.83
3.7670,0.08,0.11,-0.99,3.42,-0.31,1.89
3.7840,0.08,0.11,-0.99,3.42,-0.31,2.01
3.7990,0.08,0.11,-0.99,3.60,-0.43,2.01
3.8160,0.08,0.11,-0.99,3.36,-0.31,2.01
3.8320,0.08,0.11,-0.99,3.42,-0.24,1.71
3.8340,0.08,0.11,-0.99,3.30,-0.73,1.83
3.8490,0.08,0.11,-0.99,3.30,-0.55,1.89
3.8790,0.08,0.11,-0.99,3.36,-0.85,1.89
3.8840,0.08,0.11,-0.99,3.54,-0.61,1.95
3.9110,0.08,0.11,-0.99,3.54,-0.55,1.83
3.9170,0.08,0.11,-0.99,3.42,-0.67,2.14
3.9430,0.08,0.11,-0.99,3.36,-0.43,2.26
3.9590,0.08,0.11,-0.99,3.60,-0.61,2.08
3.9670,0.08,0.11,-0.99,3.48,-0.55,2.14
3.9830,0.08,0.11,-0.99,3.60,-0.92,2.20
4.0030,0.08,0.11,-0.99,3.60,-0.73,2.32
4.0160,0.08,0.11,-0.99,3.23,-0.49,2.50
4.0340,0.08,0.11,-0.99,3.36,-0.49,2.32
4.0500,0.08,0.11,-0.99,3.48,-0.61,1.95
4.0650,0.08,0.11,-0.99,3.60,-0.31,2.08
4.0670,0.08,0.11,-0.99,3.54,-0.55,2.01
4.0830,0.08,0.11,-0.99,3.42,-0.37,2.26
4.1130,0.08,0.11,-0.99,3.54,-0.61,2.62
4.1170,0.08,0.11,-0.99,3.48,-0.85,2.50
4.1330,0.08,0.11,-0.99,3.54,-0.92,2.56
4.1500,0.08,0.11,-0.99,3.36,-0.37,2.50
4.1750,0.08,0.11,-0.99,3.48,-0.37,2.32
4.1840,0.08,0.11,-0.99,3.60,-0.55,2.08
4.2030,0.08,0.11,-0.99,3.54,-0.37,2.14
4.2160,0.08,0.11,-0.99,3.42,-0.18,2.26
4.2330,0.08,0.11,-0.99,3.36,-0.49,2.26
4.2490,0.08,0.11,-0.99,3.48,-0.55,2.62
4.2500,0.08,0.11,-0.99,3.48,-1.10,2.62
4.2670,0.08,0.11,-0.99,3.36,-0.12,2.75
4.2960,0.08,0.11,-0.99,3.48,-0.12,2.44
4.3030,0.08,0.11,-0.99,3.42,-0.31,2.08
4.3150,0.08,0.11,-0.99,3.23,-0.85,1.95
4.3370,0.08,0.11,-0.99,3.42,-0.61,2.20
4.3540,0.08,0.11,-0.99,3.48,-0.61,2.38
4.3700,0.08,0.11,-0.99,3.30,-0.18,2.38
4.3860,0.08,0.11,-0.99,3.36,-0.37,2.44
4.4020,0.08,0.11,-0.99,3.36,-0.43,2.62
4.4180,0.08,0.11,-0.99,3.23,-0.67,2.44
4.4340,0.08,0.11,-0.99,3.36,-0.43,2.38
4.4500,0.08,0.11,-0.99,3.54,-0.67,2.50
4.4580,0.08,0.11,-0.99,3.48,-0.37,2.62
4.4740,0.08,0.11,-0.99,3.23,-0.67,2.87
4.4970,0.08,0.11,-0.99,3.30,-0.61,2.44
4.5130,0.08,0.11,-0.99,3.48,-0.79,2.50
4.5290,0.08,0.11,-0.99,3.30,-0.43,2.44
4.5460,0.08,0.11,-0.99,3.54,-0.61,2.38
4.5610,0.08,0.11,-0.99,3.36,-0.73,2.69
4.5630,0.08,0.11,-0.99,3.48,-0.55,2.50
4.5930,0.08,0.11,-0.99,3.36,-0.55,2.44
4.6080,0.08,0.11,-0.99,3.48,-0.61,2.38
4.6190,0.08,0.11,-0.99,3.36,-0.43,2.38
4.6350,0.08,0.11,-0.99,3.54,-0.85,2.81
4.6520,0.08,0.11,-0.99,3.42,-0.67,2.75
4.6700,0.08,0.11,-0.99,3.36,-0.49,2.62
4.6850,0.08,0.11,-0.99,3.23,-0.37,2.50
4.7010,0.08,0.11,-0.99,3.42,-0.55,2.56
4.7180,0.08,0.11,-0.99,3.48,-0.37,2.75
4.7340,0.08,0.11,-0.99,3.30,-0.37,3.17
4.7500,0.08,0.11,-0.99,3.23,-0.31,2.93
4.7650,0.08,0.11,-0.99,3.42,-0.43,2.56
4.7810,0.08,0.11,-0.99,3.30,-0.43,2.56
4.7950,0.08,0.11,-0.99,3.48,-0.67,2.50
4.8110,0.08,0.11,-0.99,3.42,-0.61,2.56
4.8190,0.08,0.11,-0.99,3.36,-0.55,2.56
4.8350,0.08,0.11,-0.99,3.42,-0.24,2.38
4.8540,0.08,0.11,-0.99,3.42,-0.43,2.20
4.8710,0.08,0.11,-0.99,3.48,-0.24,2.14
4.8870,0.08,0.11,-0.99,3.36,-0.24,2.01
4.9030,0.08,0.11,-0.99,3.60,-0.61,2.20
4.9200,0.08,0.11,-0.99,3.66,-0.37,2.32
4.9360,0.08,0.11,-0.99,3.42,-0.49,2.38
4.9520,0.08,0.11,-0.99,3.42,-0.06,2.62
4.9540,0.08,0.11,-0.99,3.30,-0.49,2.93
4.9820,0.08,0.11,-0.99,3.30,-0.43,2.69
4.9870,0.08,0.11,-0.99,3.42,-0.43,2.87
5.0140,0.08,0.11,-0.99,3.23,-0.67,3.05
5.0210,0.08,0.11,-0.99,3.36,-0.49,3.36
5.0370,0.08,0.11,-0.99,3.23,-0.49,3.72
5.0540,0.08,0.11,-0.99,3.23,-0.31,3.54
5.0700,0.08,0.11,-0.99,3.30,-0.73,2.62
5.0870,0.08,0.11,-0.99,3.36,-0.43,2.62
5.1050,0.08,0.11,-0.99,3.42,-0.61,2.62
5.1220,0.08,0.11,-0.99,3.60,-0.24,2.69
5.1380,0.08,0.11,-0.99,3.11,-0.43,3.36
5.1520,0.08,0.11,-0.99,3.05,-0.61,3.54
5.1680,0.08,0.11,-0.99,3.36,-0.61,3.11
5.1840,0.08,0.11,-0.99,3.30,-0.67,2.99
5.1980,0.08,0.11,-0.99,3.60,-0.49,2.62
5.2090,0.08,0.11,-0.99,3.60,-0.55,2.56
5.2250,0.08,0.11,-0.99,3.42,-0.61,2.32
5.2420,0.08,0.11,-0.99,3.17,-0.49,2.20
5.2600,0.08,0.11,-0.99,3.42,-0.24,2.01
5.2740,0.08,0.11,-0.99,3.54,-0.31,1.89
5.2890,0.08,0.11,-0.99,3.54,-0.24,2.01
5.3050,0.08,0.11,-0.99,3.48,-0.24,2.26
5.3210,0.08,0.11,-0.99,3.54,-0.61,2.20
5.3370,0.08,0.11,-0.99,3.48,-0.49,2.56
5.3530,0.08,0.11,-0.99,3.42,-0.43,2.44
5.3690,0.08,0.11,-0.99,3.42,-0.49,2.69
5.3850,0.08,0.11,-0.99,3.42,-0.37,2.56
5.4010,0.08,0.11,-0.99,3.42,-0.43,2.50
5.4170,0.08,0.11,-0.99,3.30,-0.12,2.87
5.4320,0.08,0.11,-0.99,3.54,-0.31,2.62
5.4470,0.08,0.11,-0.99,3.42,-0.61,2.81
5.4580,0.08,0.11,-0.99,3.42,-0.37,2.99
5.4750,0.08,0.11,-0.99,3.36,-0.49,2.87
5.4920,0.08,0.11,-0.99,3.48,-0.43,2.69
5.5080,0.08,0.11,-0.99,3.48,-0.79,2.38
5.5240,0.08,0.11,-0.99,3.48,-0.49,2.56
5.5400,0.08,0.11,-0.99,3.36,-0.43,2.56
5.5550,0.08,0.11,-0.99,3.48,-0.85,2.44
5.5600,0.08,0.11,-0.99,3.60,-0.85,2.26
5.5760,0.08,0.11,-0.99,3.54,-0.92,2.50
5.5970,0.08,0.11,-0.99,3.42,-0.98,2.69
5.6150,0.08,0.12,-0.99,3.54,-1.34,2.99
5.6310,0.08,0.11,-0.99,3.17,-0.92,3.48
5.6470,0.08,0.11,-0.99,3.23,-0.37,3.17
5.6630,0.08,0.11,-0.99,3.36,-0.73,2.99
5.6780,0.08,0.11,-0.99,3.42,-0.18,3.05
5.6940,0.08,0.11,-0.99,3.11,0.06,2.99
5.7050,0.08,0.11,-0.99,3.36,-0.24,2.81
5.7120,0.08,0.11,-0.99,3.42,-0.43,2.75
5.7360,0.08,0.10,-0.99,3.36,-0.31,2.50
5.7520,0.08,0.11,-0.99,3.42,-0.61,2.01
5.7690,0.08,0.11,-0.99,3.54,-0.67,2.01
5.7870,0.08,0.11,-0.99,3.48,-0.79,1.83
5.8020,0.08,0.11,-0.99,3.36,-0.31,2.50
5.8180,0.08,0.11,-0.99,3.36,-0.55,2.26
5.8200,0.08,0.11,-0.99,3.54,-0.85,2.38
5.8500,0.08,0.11,-0.99,3.30,-0.67,2.50
5.8530,0.08,0.11,-0.99,3.36,-0.85,2.62
5.8810,0.08,0.11,-0.99,3.42,-0.67,2.56
5.8960,0.08,0.11,-0.99,3.48,-0.73,2.44
5.9120,0.08,0.11,-0.99,3.42,-0.49,2.62
5.9200,0.08,0.11,-0.99,3.30,-0.24,2.44
5.9430,0.08,0.11,-0.99,3.36,-0.43,2.26
5.9530,0.08,0.11,-0.99,3.30,0.06,2.01
5.9700,0.08,0.11,-0.99,3.42,0.00,2.26
5.9860,0.08,0.11,-0.99,3.36,-0.61,2.20
6.0060,0.08,0.11,-0.99,3.42,-0.67,2.38
6.0080,0.08,0.11,-0.99,3.36,-0.79,2.26
6.0250,0.08,0.11,-0.99,3.42,-0.43,2.20
6.0420,0.08,0.11,-0.99,3.36,-0.55,2.44
6.0680,0.08,0.11,-0.99,3.30,-0.55,2.81
6.0790,0.08,0.11,-0.99,3.42,-0.55,2.93
6.0950,0.08,0.11,-0.99,3.42,-0.73,2.93
6.1120,0.08,0.11,-0.99,3.23,-0.31,2.75
6.1290,0.08,0.11,-0.99,3.23,-0.24,2.44
6.1460,0.08,0.11,-0.99,3.48,-0.49,2.44
6.1620,0.08,0.11,-0.99,3.36,-0.55,2.56
6.1780,0.08,0.11,-0.99,3.42,-0.24,2.50
6.1940,0.08,0.11,-0.99,3.30,-0.73,2.50
6.2060,0.08,0.11,-0.99,3.30,-0.31,2.50
6.2120,0.08,0.11,-0.99,3.30,-0.37,2.69
6.2340,0.08,0.11,-0.99,3.48,-1.04,2.62
6.2510,0.08,0.11,-0.99,3.36,-0.37,2.69
6.2670,0.08,0.11,-0.99,3.42,-0.61,2.32
6.2850,0.08,0.11,-0.99,3.48,-0.79,2.56
6.3010,0.08,0.11,-0.99,3.48,-0.55,2.87
6.3060,0.08,0.11,-0.99,3.42,-0.98,3.23
6.3320,0.08,0.11,-0.99,3.42,-1.10,3.17
6.3350,0.08,0.11,-0.99,3.30,-0.98,2.44
6.3510,0.08,0.11,-0.99,3.36,-0.55,2.44
6.3670,0.08,0.11,-0.99,3.54,-0.18,2.26
6.3950,0.08,0.11,-0.99,3.36,-0.79,2.20
6.4060,0.08,0.11,-0.99,3.54,-0.61,2.14
6.4220,0.08,0.11,-0.99,3.42,-0.24,2.32
6.4370,0.08,0.11,-0.99,3.54,-0.49,2.32
6.4590,0.08,0.11,-0.99,3.54,-0.61,2.38
6.4740,0.08,0.11,-0.99,3.23,-0.18,2.93
6.4900,0.08,0.11,-0.99,3.42,-0.55,2.93
6.5060,0.08,0.11,-0.99,3.23,-0.55,2.87
6.5110,0.08,0.11,-0.99,3.36,-0.61,2.62
6.5270,0.08,0.11,-0.99,3.42,-0.61,2.56
6.5520,0.08,0.11,-0.99,3.36,-0.49,2.56
6.5650,0.08,0.11,-0.99,3.36,-0.18,2.32
6.5820,0.08,0.10,-0.99,3.42,-0.79,2.44
6.5980,0.08,0.11,-0.99,3.60,-1.04,2.62
6.6130,0.08,0.11,-0.99,3.36,-1.04,2.81
6.6280,0.08,0.11,-0.99,3.30,-0.73,2.87
6.6440,0.08,0.11,-0.99,3.54,-0.79,3.17
6.6480,0.08,0.11,-0.99,3.54,-0.61,2.56
6.6640,0.08,0.11,-0.99,3.54,-0.24,2.14
6.6870,0.08,0.11,-0.99,3.66,-0.61,2.50
6.7060,0.08,0.11,-0.99,3.42,-0.55,2.75
6.7200,0.08,0.11,-0.99,3.48,-0.73,2.56
6.7360,0.08,0.11,-0.99,3.54,-0.43,2.44
6.7530,0.08,0.11,-0.99,3.36,-0.18,2.38
6.7690,0.08,0.11,-0.99,3.54,-0.06,2.26
6.7860,0.08,0.11,-0.99,3.42,-0.06,2.81
6.8010,0.08,0.11,-0.99,3.36,-0.18,2.75
6.8060,0.08,0.11,-0.99,3.54,-0.37,2.50
6.8340,0.08,0.11,-0.99,3.42,-0.24,2.38
6.8500,0.08,0.11,-0.99,3.42,-0.18,2.62
6.8660,0.08,0.11,-0.99,3.48,-0.73,2.69
6.8810,0.08,0.11,-0.99,3.30,-0.55,2.81
6.8870,0.08,0.11,-0.99,3.42,-0.43,2.56
6.9070,0.08,0.11,-0.99,3.36,-0.43,2.69
6.9240,0.08,0.11,-0.99,3.36,-0.67,2.75
6.9410,0.08,0.11,-0.99,3.17,-0.18,3.11
6.9570,0.08,0.11,-0.99,3.36,-0.79,3.11
6.9720,0.08,0.11,-0.99,3.17,-0.31,3.17
6.9870,0.08,0.11,-0.99,3.17,-0.37,3.17
6.9910,0.08,0.11,-0.99,3.23,-0.79,3.60
7.0180,0.08,0.11,-0.99,3.17,-0.55,3.97
7.0330,0.08,0.11,-0.99,3.30,-0.61,4.09
7.0420,0.08,0.11,-0.99,3.36,-0.67,3.91
7.0580,0.08,0.11,-0.99,3.36,-0.98,3.48
7.0790,0.08,0.11,-0.99,3.42,-0.73,3.30
7.0940,0.08,0.11,-0.99,3.36,-0.43,2.99
7.1060,0.08,0.11,-0.99,3.30,-0.31,2.75
7.1130,0.08,0.11,-0.99,3.60,-0.31,2.69
7.1330,0.08,0.11,-0.99,3.48,-0.61,2.62
7.1500,0.08,0.11,-0.99,3.30,-0.18,2.62
7.1660,0.08,0.11,-0.99,3.48,-0.43,2.44
7.1840,0.08,0.11,-0.99,3.42,-0.61,2.38
7.2000,0.08,0.11,-0.99,3.42,-0.61,2.32
7.2150,0.08,0.11,-0.99,3.48,-0.24,2.26
7.2310,0.08,0.11,-0.99,3.42,-0.18,2.08
7.2450,0.08,0.11,-0.99,3.54,-0.31,2.32
7.2600,0.08,0.11,-0.99,3.30,-0.55,2.26
7.2710,0.08,0.11,-0.99,3.36,-0.92,2.26
7.2890,0.08,0.11,-0.99,3.17,-0.37,2.32
7.3050,0.08,0.11,-0.99,3.42,-0.43,2.38
7.3220,0.08,0.11,-0.99,3.42,-0.37,2.20
7.3380,0.08,0.11,-0.99,3.30,-0.49,2.38
7.3540,0.08,0.11,-0.99,3.23,-0.49,2.81
7.3700,0.08,0.11,-0.99,3.36,-0.67,3.17
7.3860,0.08,0.11,-0.99,3.42,-0.61,3.23
7.4020,0.09,0.11,-0.99,3.23,-0.67,3.23
7.4180,0.08,0.11,-0.99,3.36,-0.49,2.69
7.4320,0.08,0.11,-0.99,3.30,-0.18,2.44
7.4470,0.08,0.11,-0.99,3.48,-0.24,2.81
7.4620,0.08,0.11,-0.99,3.48,-0.24,3.11
7.4780,0.08,0.11,-0.99,3.48,-0.67,3.05
7.4880,0.08,0.11,-0.99,3.48,-0.79,2.50
7.5070,0.08,0.11,-0.99,3.66,-0.73,2.56
7.5220,0.08,0.11,-0.99,3.23,-0.55,2.62
7.5370,0.08,0.11,-0.99,3.42,-0.98,2.44
7.5530,0.08,0.11,-0.99,3.54,-0.98,2.50
7.5700,0.09,0.11,-0.99,3.72,-0.85,2.50
7.5850,0.08,0.11,-0.99,3.48,-0.61,2.01
7.5890,0.08,0.11,-0.99,3.48,-0.49,1.95
7.6070,0.08,0.11,-0.99,3.54,-0.37,1.95
7.6260,0.08,0.11,-0.99,3.42,-0.43,2.26
7.6430,0.08,0.11,-0.99,3.42,-0.61,2.26
7.6600,0.09,0.11,-0.99,3.48,-0.61,2.32
7.6780,0.08,0.11,-0.99,3.54,-0.98,2.20
7.6930,0.08,0.11,-0.99,3.54,-0.43,2.20
7.7090,0.08,0.11,-0.99,3.60,-0.43,2.01
7.7240,0.08,0.11,-0.99,3.48,-0.24,2.08
7.7390,0.08,0.11,-0.99,3.54,-0.73,2.26
7.7550,0.08,0.11,-0.99,3.42,-0.24,2.69
7.7600,0.08,0.11,-0.99,3.36,-0.24,2.69
7.7760,0.08,0.11,-0.99,3.36,-0.55,2.75
7.7990,0.08,0.11,-0.99,3.36,-0.61,2.26
7.8160,0.08,0.11,-0.99,3.30,-0.06,2.44
7.8330,0.08,0.11,-0.99,3.48,-0.31,2.38
7.8480,0.08,0.11,-0.99,3.54,-0.43,2.62
7.8640,0.08,0.11,-0.99,3.48,-0.12,2.62
7.8810,0.08,0.11,-0.99,3.66,-0.37,2.44
7.8970,0.08,0.11,-0.99,3.36,-0.12,2.32
7.9070,0.08,0.11,-0.99,3.42,-0.24,2.32
7.9280,0.08,0.11,-0.99,3.48,-0.73,2.26
7.9440,0.08,0.11,-0.99,3.54,-0.49,2.26
7.9600,0.08,0.11,-0.99,3.48,-0.31,2.14
7.9740,0.08,0.11,-0.99,3.48,-0.24,2.14
7.9890,0.08,0.11,-0.99,3.60,-0.12,2.08
7.9990,0.08,0.11,-0.99,3.60,-0.31,2.14
8.0140,0.08,0.11,-0.99,3.66,-0.18,2.01
8.0360,0.08,0.11,-0.99,3.54,-0.49,2.26
8.0520,0.08,0.11,-0.99,3.54,-0.61,2.62
8.0670,0.08,0.11,-0.99,3.48,-0.55,2.56
8.0830,0.08,0.11,-0.99,3.42,-0.55,2.44
8.0880,0.08,0.11,-0.99,3.42,-0.06,2.44
8.1080,0.08,0.11,-0.99,3.60,-0.18,2.20
8.1310,0.08,0.11,-0.99,3.60,-0.06,2.20
8.1430,0.08,0.11,-0.99,3.36,-0.12,1.95
8.1600,0.08,0.11,-0.99,3.54,-0.24,1.95
8.1760,0.08,0.11,-0.99,3.42,-0.12,1.89
8.1930,0.08,0.11,-0.99,3.48,15.44,1.71
8.2090,0.08,0.11,-0.99,3.36,-0.18,1.77
8.2240,0.08,0.11,-0.99,3.42,0.00,1.65
8.2390,0.08,0.11,-0.99,3.54,-0.12,1.77
8.2430,0.08,0.11,-0.99,3.42,-0.37,1.65
8.2590,0.08,0.11,-0.99,3.42,-0.12,1.65
8.2850,0.08,0.11,-0.99,3.54,-0.12,1.71
8.2960,0.08,0.11,-0.99,3.48,-0.37,1.89
8.3130,0.08,0.11,-0.99,3.54,-0.37,1.77
8.3310,0.08,0.11,-0.99,3.54,-0.67,1.71
8.3470,0.08,0.11,-0.99,3.42,-0.31,1.95
8.3630,0.08,0.11,-0.99,3.48,-0.67,2.26
8.3790,0.08,0.11,-0.99,3.42,-0.49,2.26
8.3950,0.08,0.11,-0.99,3.30,-0.37,2.44
8.4110,0.08,0.11,-0.99,3.42,-0.43,2.75
8.4270,0.08,0.11,-0.99,3.48,-0.49,2.69
8.4410,0.08,0.11,-0.99,3.30,0.00,2.50
8.4470,0.08,0.12,-0.99,3.36,-0.67,2.26
8.4620,0.08,0.11,-0.99,3.48,-0.61,2.38
8.4840,0.08,0.11,-0.99,3.60,-0.06,2.44
8.5020,0.08,0.11,-0.99,3.54,-0.43,2.26
8.5180,0.08,0.11,-0.99,3.48,-0.55,2.44
8.5340,0.08,0.12,-0.99,3.60,-0.37,2.62
8.5500,0.09,0.11,-0.99,3.17,-0.73,2.87
8.5660,0.09,0.11,-0.99,3.30,-0.37,3.05
8.5820,0.08,0.11,-0.99,3.30,-0.79,2.56
8.5980,0.08,0.11,-0.99,3.23,-0.37,2.69
8.6130,0.08,0.11,-0.99,3.54,-0.12,2.75
8.6280,0.08,0.11,-0.99,3.36,-0.61,3.30
8.6440,0.08,0.11,-0.99,3.23,-0.18,3.17
8.6520,0.08,0.13,-0.99,3.36,-0.55,3.72
8.6680,0.08,0.12,-0.99,3.30,-0.49,5.07
8.6900,0.08,0.11,-0.99,3.30,-0.85,5.13
8.7040,0.08,0.10,-0.99,3.11,-0.49,4.82
8.7190,0.08,0.11,-0.99,3.30,-0.31,5.07
8.7350,0.08,0.12,-0.99,3.17,-0.98,4.82
8.7500,0.08,0.09,-0.99,2.99,-0.43,4.64
8.7590,0.09,0.10,-0.99,2.99,-0.24,3.72
8.7800,0.08,0.10,-0.99,3.36,0.06,2.93
8.7910,0.08,0.11,-0.99,3.42,-0.43,2.14
8.8090,0.08,0.11,-0.99,3.48,-0.06,2.32
8.8250,0.08,0.11,-0.99,3.66,-0.18,1.95
8.8410,0.08,0.11,-0.99,3.48,-0.31,1.95
8.8580,0.08,0.11,-0.99,3.48,-0.55,1.83
8.8750,0.08,0.11,-0.99,3.72,-0.24,1.77
8.8920,0.08,0.11,-0.99,3.36,-0.18,1.65
8.8930,0.08,0.11,-0.99,3.42,-0.06,1.71
8.9220,0.08,0.11,-0.99,3.54,-0.43,1.59
8.9380,0.08,0.11,-0.99,3.48,-0.18,1.83
8.9420,0.08,0.11,-0.99,3.48,0.06,2.08
8.9690,0.09,0.11,-0.99,3.30,-0.24,1.83
8.9850,0.08,0.11,-0.99,3.30,-0.24,2.01
9.0020,0.08,0.11,-0.99,3.30,-0.18,2.32
9.0180,0.08,0.11,-0.99,3.36,-0.61,2.32
9.0350,0.08,0.11,-0.99,3.42,-0.18,2.99
9.0510,0.09,0.11,-0.99,3.48,-0.43,2.93
9.0670,0.08,0.11,-0.99,3.36,-0.49,2.75
9.0820,0.08,0.11,-0.99,3.42,-0.31,3.05
9.0980,0.08,0.11,-0.99,3.36,-0.24,2.99
9.1120,0.08,0.11,-0.99,3.23,-0.31,2.56
9.1250,0.08,0.11,-0.99,3.30,-0.67,2.26
9.1410,0.08,0.11,-0.99,3.36,-0.55,2.20
9.1580,0.08,0.12,-0.99,3.36,-0.24,2.56
9.1750,0.09,0.12,-0.99,3.36,-0.55,3.42
9.1900,0.08,0.11,-0.99,3.30,-0.85,4.03
9.1920,0.08,0.11,-0.99,3.23,-0.98,3.78
9.2220,0.08,0.11,-0.99,3.30,-0.06,3.30
9.2380,0.08,0.11,-0.99,3.23,-0.24,3.17
9.2520,0.08,0.11,-0.99,3.17,-0.31,3.11
9.2680,0.08,0.12,-0.99,3.42,-0.67,3.78
9.2830,0.09,0.11,-0.99,3.23,-0.61,4.70
9.2980,0.08,0.10,-0.99,3.11,-0.43,4.21
9.3090,0.08,0.11,-0.99,3.36,-0.43,3.48
9.3250,0.08,0.11,-0.99,3.48,-0.49,3.42
9.3410,0.08,0.10,-0.99,3.30,0.00,2.93
9.3600,0.08,0.11,-0.99,3.42,-0.24,2.50
9.3760,0.08,0.12,-0.99,3.54,-0.31,2.32
9.3920,0.08,0.11,-0.99,3.42,-0.67,3.17
9.4070,0.08,0.11,-0.99,3.36,-0.67,3.30
9.4130,0.08,0.11,-0.99,3.30,-0.18,3.11
9.4280,0.08,0.11,-0.99,3.42,-0.73,2.75
9.4500,0.08,0.11,-0.99,3.42,-0.92,2.87
9.4650,0.08,0.11,-0.99,3.42,-0.73,2.81
9.4830,0.08,0.11,-0.99,3.17,-0.43,3.48
9.4990,0.09,0.12,-0.99,3.23,-0.85,4.27
9.5170,0.09,0.11,-0.99,3.23,-0.85,4.70
9.5330,0.08,0.11,-0.99,3.30,-0.67,4.52
9.5480,0.08,0.11,-0.99,3.23,-0.67,4.46
9.5660,0.09,0.11,-0.99,3.17,-0.92,4.33
9.5820,0.08,0.10,-0.99,3.36,-0.55,3.91
9.5980,0.08,0.10,-0.99,3.36,-0.55,3.48
9.6130,0.08,0.10,-0.99,3.36,-0.61,3.17
9.6170,0.08,0.11,-0.99,3.23,-0.73,2.81
9.6320,0.08,0.11,-0.99,3.36,-0.37,2.69
9.6600,0.08,0.12,-0.99,3.42,-0.79,2.93
9.6670,0.09,0.11,-0.99,3.17,-0.85,3.36
9.6900,0.08,0.11,-0.99,3.36,-1.10,3.42
9.7000,0.09,0.10,-0.99,3.23,-0.61,3.42
9.7170,0.09,0.11,-0.99,3.60,-1.16,2.87
9.7330,0.08,0.11,-0.99,3.48,-0.43,2.56
9.7490,0.08,0.11,-0.99,3.54,-0.43,2.75
9.7660,0.08,0.11,-0.99,3.54,-0.73,2.99
9.7820,0.08,0.11,-0.99,3.42,-0.85,3.23
9.7980,0.08,0.11,-0.99,3.42,-0.79,3.48
9.8120,0.08,0.11,-0.99,3.23,-0.37,3.23
9.8160,0.08,0.11,-0.99,3.42,-0.92,2.81
9.8320,0.08,0.11,-0.99,3.48,-0.43,2.99
9.8560,0.08,0.11,-0.99,3.42,-0.37,2.69
9.8730,0.08,0.11,-0.99,3.54,-0.43,2.69
9.8890,0.08,0.11,-0.99,3.42,-0.85,2.32
9.9050,0.08,0.11,-0.99,3.54,-0.61,2.69
9.9210,0.08,0.11,-0.99,3.17,-0.18,2.93
9.9370,0.08,0.11,-0.99,3.11,-0.24,3.05
9.9530,0.08,0.11,-0.99,3.48,-0.98,2.87
9.9570,0.08,0.11,-0.99,3.60,-0.67,2.99
9.9720,0.08,0.11,-0.99,3.23,-0.55,3.30
10.0000,0.08,0.11,-0.99,3.36,-0.43,3.36
10.0120,0.08,0.11,-0.99,3.17,-0.37,3.48
10.0300,0.09,0.11,-0.99,3.36,-0.79,3.72
10.0450,0.09,0.11,-0.99,3.42,-0.55,3.30
10.0620,0.08,0.11,-0.99,3.36,-0.61,3.17
10.0780,0.08,0.11,-0.99,3.42,-0.43,3.17
10.0930,0.08,0.11,-0.99,3.23,-0.37,2.81
10.1090,0.08,0.11,-0.99,3.36,-0.37,2.50
10.1250,0.08,0.11,-0.99,3.54,-0.55,2.50
10.1400,0.08,0.11,-0.99,3.30,-0.37,3.11
10.1560,0.08,0.11,-0.99,3.23,-0.37,3.17
10.1620,0.08,0.11,-0.99,3.36,-0.92,3.54
10.1780,0.09,0.10,-0.99,3.30,-0.85,2.99
10.2000,0.08,0.10,-0.99,3.36,-0.67,2.93
10.2160,0.08,0.11,-0.99,3.42,-0.43,2.20
10.2330,0.08,0.12,-0.99,3.42,-0.18,2.81
10.2500,0.08,0.11,-0.99,3.17,-0.73,3.60
10.2660,0.09,0.11,-0.99,3.17,-0.43,4.09
10.2670,0.09,0.10,-0.99,3.30,-0.43,3.48
10.2980,0.09,0.11,-0.99,3.42,-0.24,2.69
10.3140,0.09,0.11,-0.99,3.48,-0.43,2.32
10.3290,0.08,0.11,-0.99,3.54,-0.55,2.38
10.3450,0.08,0.12,-0.99,3.42,-0.49,2.44
10.3600,0.08,0.11,-0.99,3.48,-0.24,3.05
10.3760,0.09,0.11,-0.99,3.42,-0.43,3.11
10.3910,0.09,0.11,-0.99,3.42,-0.43,2.93
10.4060,0.08,0.11,-0.99,3.30,-0.49,2.62
10.4170,0.09,0.11,-0.99,3.23,-0.37,2.50
10.4340,0.09,0.11,-0.99,3.30,-0.18,2.56
10.4540,0.08,0.11,-0.99,3.17,-0.06,2.50
10.4690,0.08,0.11,-0.99,3.36,-0.24,2.38
10.4850,0.08,0.11,-0.99,3.36,-0.18,2.69
10.5020,0.08,0.11,-0.99,3.23,-0.24,2.44
10.5180,0.08,0.11,-0.99,3.36,-0.49,2.01
10.5340,0.08,0.11,-0.99,3.54,-0.12,2.20
10.5500,0.09,0.11,-0.99,3.36,-0.18,2.32
10.5570,0.08,0.11,-0.99,3.30,-0.49,2.32
10.5800,0.09,0.11,-0.99,3.30,-0.49,2.87
10.5900,0.09,0.11,-0.99,3.30,-0.37,2.75
10.6070,0.08,0.11,-0.99,3.48,-0.49,2.69
10.6230,0.09,0.11,-0.99,3.36,-0.55,2.44
10.6400,0.09,0.11,-0.99,3.54,-0.31,2.50
10.6550,0.09,0.11,-0.99,3.54,-0.43,2.50
10.6710,0.08,0.11,-0.99,3.30,-0.12,2.44
10.6860,0.08,0.11,-0.99,3.36,-0.43,2.56
10.7020,0.08,0.11,-0.99,3.30,-0.12,2.38
10.7180,0.08,0.11,-0.99,3.30,-0.37,2.38
10.7330,0.09,0.11,-0.99,3.23,-0.67,2.32
10.7490,0.08,0.11,-0.98,3.30,-0.06,2.69
10.7650,0.09,0.11,-0.99,3.30,-0.43,2.69
10.7800,0.08,0.11,-0.99,3.30,-0.31,2.69
10.7910,0.09,0.11,-0.99,3.48,-0.67,2.75
10.8070,0.08,0.11,-0.99,3.36,-0.43,2.99
10.8230,0.08,0.11,-0.99,3.30,-0.18,2.99
10.8400,0.09,0.11,-0.99,3.36,-0.06,3.17
10.8550,0.08,0.11,-0.99,3.36,-0.61,2.56
10.8720,0.09,0.11,-0.99,3.42,-0.37,2.99
10.8880,0.08,0.11,-0.99,3.30,-0.06,3.17
10.8900,0.08,0.10,-0.99,3.36,-0.18,2.99
10.9190,0.08,0.11,-0.99,3.23,0.06,2.50
10.9350,0.08,0.11,-0.99,3.36,0.06,2.50
10.9420,0.08,0.11,-0.99,3.42,-0.49,2.69
10.9600,0.09,0.11,-0.99,3.36,-0.31,2.99
10.9810,0.08,0.11,-0.99,3.17,-0.12,2.87
10.9920,0.09,0.12,-0.99,3.17,-0.43,3.42
11.0080,0.09,0.12,-0.99,3.30,-0.49,3.66
11.0260,0.08,0.11,-0.99,3.30,-0.31,3.54
11.0320,0.09,0.11,-0.99,3.30,-0.31,3.23
11.0570,0.08,0.10,-0.99,3.42,-0.55,3.30
11.0650,0.08,0.11,-0.99,3.42,-0.37,3.05
11.0830,0.08,0.11,-0.99,3.42,-0.31,2.93
11.0980,0.09,0.11,-0.99,3.23,-0.31,2.62
11.1160,0.08,0.11,-0.99,3.36,-0.18,2.08
11.1320,0.08,0.11,-0.99,3.36,-0.37,2.01
11.1330,0.08,0.11,-0.99,3.36,-0.18,2.08
11.1480,0.08,0.11,-0.99,3.42,-0.37,2.26
11.1660,0.08,0.11,-0.99,3.48,-0.49,2.56
11.1820,0.09,0.11,-0.99,3.30,-0.43,2.50
11.1980,0.09,0.11,-0.99,3.48,-0.18,2.38
11.2270,0.08,0.11,-0.99,3.54,-0.43,2.44
11.2320,0.09,0.11,-0.99,3.42,-0.24,2.26
11.2580,0.09,0.11,-0.99,3.48,-0.31,2.44
11.2650,0.08,0.11,-0.99,3.48,-0.67,2.56
11.2820,0.08,0.11,-0.99,3.48,-0.18,2.75
11.2980,0.09,0.11,-0.99,3.60,-0.43,2.81
11.3140,0.08,0.11,-0.99,3.60,-0.43,2.56
11.3340,0.08,0.11,-0.99,3.60,-0.92,2.50
11.3500,0.09,0.11,-0.99,3.48,-0.31,2.38
11.3660,0.08,0.11,-0.99,3.36,-0.31,2.69
11.3830,0.08,0.11,-0.99,3.23,-0.37,2.81
11.3990,0.08,0.11,-0.99,3.42,-0.61,2.81
11.4140,0.09,0.11,-0.99,3.23,-0.31,2.93
11.4300,0.08,0.11,-0.99,3.48,-0.37,2.87
11.4460,0.08,0.11,-0.99,3.36,-0.61,2.75
11.4490,0.09,0.12,-0.99,3.36,-0.61,3.05
11.4780,0.08,0.12,-0.99,3.48,-0.43,3.72
11.4930,0.08,0.11,-0.99,3.36,-0.49,4.39
11.5010,0.09,0.11,-0.99,3.23,-0.79,4.21
11.5170,0.08,0.11,-0.99,3.17,-0.55,3.91
11.5390,0.08,0.10,-0.99,3.30,-0.31,3.42
11.5500,0.08,0.11,-0.99,3.30,-0.37,3.05
11.5680,0.09,0.11,-0.99,3.30,-0.37,3.60
11.5830,0.09,0.11,-0.99,3.48,-0.37,3.11
11.5990,0.09,0.11,-0.99,3.42,-0.06,2.99
11.6160,0.08,0.11,-0.99,3.42,-0.37,3.42
11.6320,0.09,0.11,-0.99,3.42,-0.73,3.60
11.6470,0.08,0.10,-0.99,3.30,-0.31,3.30
11.6630,0.09,0.11,-0.99,3.54,-0.55,2.87
11.6780,0.08,0.11,-0.99,3.42,-0.24,2.62
11.6830,0.08,0.11,-0.99,3.48,0.00,2.38
11.6980,0.09,0.11,-0.99,3.60,-0.55,2.50
11.7210,0.08,0.11,-0.99,3.36,-0.31,2.81
11.7380,0.09,0.11,-0.99,3.36,-0.61,2.81
11.7540,0.09,0.11,-0.99,3.30,-0.24,3.11
11.7690,0.09,0.12,-0.99,3.36,-0.67,3.36
11.7860,0.09,0.11,-0.99,3.36,-0.43,3.66
11.8020,0.08,0.11,-0.99,3.36,-0.43,3.72
11.8180,0.08,0.11,-0.99,3.17,-0.24,3.54
11.8340,0.09,0.11,-0.99,3.42,-0.37,2.69
11.8500,0.08,0.11,-0.99,3.30,-0.37,2.38
11.8550,0.09,0.11,-0.99,3.30,0.00,2.75
11.8700,0.08,0.11,-0.99,3.30,0.18,2.93
11.8950,0.09,0.11,-0.99,3.23,-0.31,3.42
11.9110,0.08,0.11,-0.99,3.42,-0.37,3.54
11.9260,0.08,0.11,-0.99,3.23,-0.37,3.48
11.9430,0.08,0.11,-0.99,3.48,-0.37,2.87
11.9600,0.09,0.11,-0.99,3.30,-0.43,2.56
11.9760,0.09,0.12,-0.99,3.36,-0.37,2.62
11.9910,0.09,0.12,-0.99,3.30,0.00,3.36
12.0060,0.09,0.11,-0.99,3.23,-0.79,4.03
12.0220,0.08,0.11,-0.99,3.54,-0.92,3.72
12.0370,0.09,0.11,-0.99,3.42,-0.85,3.72
12.0520,0.09,0.11,-0.99,3.36,-0.37,3.60
12.0670,0.09,0.11,-0.99,3.23,-0.12,3.66
12.0820,0.08,0.11,-0.99,3.30,-0.55,3.36
12.0940,0.09,0.11,-0.99,3.17,-0.61,3.11
12.1100,0.08,0.11,-0.99,3.36,-0.61,2.87
12.1270,0.09,0.11,-0.99,3.42,-0.06,3.05
12.1420,0.08,0.11,-0.99,3.36,-0.49,2.62
12.1580,0.08,0.11,-0.99,3.54,-0.37,2.81
12.1740,0.08,0.11,-0.99,3.36,-0.31,2.93
12.1890,0.09,0.11,-0.99,3.42,-0.55,2.62
12.2040,0.08,0.11,-0.99,3.42,-0.37,2.75
12.2200,0.09,0.11,-0.99,3.42,-0.67,2.62
12.2350,0.09,0.11,-0.99,3.36,-0.43,2.93
12.2440,0.09,0.11,-0.99,3.30,-0.43,2.87
12.2660,0.09,0.11,-0.99,3.48,-0.18,2.99
12.2780,0.09,0.11,-0.99,3.54,-0.18,2.93
12.2940,0.08,0.11,-0.99,3.30,-0.06,2.69
12.3110,0.09,0.11,-0.99,3.66,-0.31,2.32
12.3270,0.08,0.11,-0.99,3.60,-0.67,2.32
12.3430,0.08,0.11,-0.99,3.42,-0.18,2.14
12.3600,0.08,0.11,-0.99,3.30,-0.49,2.26
12.3760,0.08,0.11,-0.99,3.42,-0.43,2.50
12.3910,0.09,0.11,-0.99,3.42,-0.18,2.20
12.4060,0.08,0.11,-0.99,3.60,-0.12,2.20
12.4220,0.09,0.11,-0.99,3.54,-0.37,1.89
12.4280,0.08,0.11,-0.99,3.48,-0.12,1.83
12.4430,0.08,0.11,-0.99,3.23,-0.24,2.01
12.4670,0.09,0.11,-0.99,3.42,-0.31,2.50
12.4830,0.09,0.11,-0.99,3.36,-0.06,2.44
12.4850,0.09,0.11,-0.99,3.36,0.00,2.93
12.5150,0.09,0.11,-0.99,3.36,-0.37,2.99
12.5170,0.08,0.11,-0.99,3.42,-0.18,3.05
12.5480,0.08,0.11,-0.99,3.36,-0.12,3.17
12.5500,0.08,0.11,-0.99,3.36,-0.31,2.99
12.5660,0.09,0.11,-0.99,3.36,0.06,3.36
12.5940,0.08,0.11,-0.99,3.30,-0.18,3.30
12.6050,0.09,0.11,-0.99,3.23,0.00,3.42
12.6210,0.09,0.11,-0.99,3.36,-0.37,3.60
12.6380,0.08,0.11,-0.99,3.30,-0.12,3.23
12.6550,0.08,0.11,-0.99,3.36,-0.24,2.87
12.6700,0.08,0.11,-0.99,3.42,-0.31,3.05
12.6870,0.08,0.11,-0.99,3.36,-0.24,3.11
12.7020,0.09,0.11,-0.99,3.17,-0.49,3.42
12.7140,0.08,0.11,-0.99,3.36,-0.43,3.54
12.7200,0.08,0.11,-0.99,3.30,-0.43,3.85
12.7490,0.09,0.11,-0.99,3.30,-0.49,3.54
12.7640,0.09,0.11,-0.99,3.23,0.00,3.60
12.7770,0.09,0.11,-0.99,3.23,-0.49,4.21
12.7930,0.08,0.11,-0.99,3.17,-0.43,4.03
12.8090,0.09,0.10,-0.99,3.30,-0.43,3.91
12.8260,0.08,0.11,-0.99,3.11,-0.12,3.23
12.8430,0.08,0.11,-0.99,3.42,-0.49,3.60
12.8590,0.09,0.11,-0.99,3.36,0.18,3.60
12.8750,0.09,0.11,-0.99,3.30,-0.06,3.17
12.8910,0.09,0.10,-0.99,3.36,-0.49,2.50
12.9060,0.09,0.11,-0.99,3.48,0.00,2.01
12.9140,0.09,0.11,-0.99,3.60,-0.31,1.71
12.9240,0.08,0.11,-0.99,3.54,-0.31,1.71
12.9520,0.09,0.11,-0.99,3.66,-0.18,1.65
12.9670,0.09,0.11,-0.99,3.54,-0.06,1.83
12.9790,0.09,0.11,-0.99,3.36,-0.24,1.89
12.9950,0.09,0.11,-0.99,3.36,-0.43,1.95
13.0130,0.09,0.11,-0.99,3.23,-0.43,1.95
13.0140,0.09,0.11,-0.99,3.36,-0.49,2.14
13.0460,0.09,0.11,-0.99,3.42,-0.18,2.32
13.0620,0.09,0.11,-0.99,3.42,-0.31,2.26
13.0780,0.09,0.11,-0.99,3.48,-0.49,2.14
13.0940,0.09,0.11,-0.99,3.42,-0.31,2.32
13.1090,0.09,0.11,-0.99,3.48,-0.31,2.32
13.1140,0.09,0.11,-0.99,3.42,-0.61,2.38
13.1280,0.08,0.11,-0.99,3.36,-0.55,2.56
13.1520,0.08,0.11,-0.99,3.42,-0.31,2.69
13.1680,0.09,0.11,-0.99,3.23,-0.12,2.81
13.1860,0.09,0.11,-0.99,3.36,-0.12,3.11
13.2010,0.09,0.12,-0.99,3.30,-0.43,3.36
13.2150,0.09,0.11,-0.99,3.23,-0.67,3.66
13.2340,0.09,0.11,-0.99,3.60,-0.24,3.48
13.2500,0.08,0.10,-0.99,3.17,0.06,2.99
13.2650,0.08,0.11,-0.99,3.30,0.06,2.93
13.2690,0.09,0.11,-0.99,3.17,-0.31,3.23
13.2960,0.09,0.11,-0.99,3.17,-0.43,3.48
13.3120,0.09,0.11,-0.99,3.36,-0.43,3.23
13.3280,0.09,0.11,-0.99,3.42,-0.37,3.11
13.3430,0.09,0.11,-0.99,3.48,-0.06,2.69
13.3580,0.09,0.11,-0.99,3.42,0.00,3.05
13.3690,0.08,0.11,-0.99,3.30,-0.37,3.23
13.3850,0.09,0.12,-0.99,3.36,-0.55,3.42
13.4030,0.09,0.11,-0.99,3.30,-0.31,3.85
13.4200,0.09,0.12,-0.99,3.30,-0.61,3.97
13.4340,0.09,0.12,-0.99,3.17,-0.49,4.82
13.4510,0.09,0.11,-0.99,3.23,-0.55,4.88
13.4660,0.08,0.12,-0.99,3.30,-0.61,4.88
13.4820,0.12,0.14,-0.98,2.99,-1.04,8.97
13.4850,0.09,0.08,-0.99,2.93,-0.92,7.26
13.5010,0.09,0.08,-0.99,3.23,-0.31,5.31
13.5280,0.08,0.09,-0.99,3.42,-0.61,3.97
13.5390,0.08,0.10,-0.99,3.30,-0.06,2.62
13.5560,0.09,0.11,-0.99,3.60,-0.43,2.20
13.5720,0.08,0.11,-0.99,3.54,0.12,2.01
13.5890,0.09,0.11,-0.99,3.60,0.00,1.83
13.5950,0.09,0.11,-0.99,3.48,-0.37,1.71
13.6150,0.09,0.11,-0.99,3.66,0.00,1.83
13.6290,0.09,0.11,-0.99,3.48,-0.06,1.71
13.6440,0.09,0.11,-0.99,3.54,-0.37,1.95
13.6650,0.09,0.11,-0.99,3.66,-0.12,2.20
13.6820,0.09,0.11,-0.99,3.42,0.37,2.01
13.6980,0.09,0.11,-0.99,3.48,-0.06,2.08
13.7140,0.09,0.11,-0.99,3.17,0.24,2.26
13.7170,0.09,0.11,-0.99,3.42,0.00,2.20
13.7320,0.09,0.11,-0.99,3.60,-0.12,2.44
13.7560,0.09,0.12,-0.99,3.54,-0.18,2.38
13.7730,0.09,0.12,-0.99,3.42,-0.37,2.93
13.7890,0.09,0.12,-0.99,3.11,0.06,3.85
13.8050,0.09,0.11,-0.99,3.17,-0.43,4.03
13.8210,0.08,0.10,-0.99,3.23,-0.43,3.97
13.8360,0.08,0.10,-0.99,3.36,-0.43,3.30
13.8510,0.09,0.11,-0.99,3.42,0.06,2.62
13.8560,0.09,0.11,-0.99,3.42,0.24,2.32
13.8720,0.09,0.12,-0.99,3.30,-0.06,2.69
13.8940,0.09,0.11,-0.99,3.36,-0.18,3.17
13.9110,0.09,0.12,-0.98,3.30,-0.31,3.66
13.9270,0.09,0.11,-0.99,3.30,-0.67,4.52
13.9440,0.08,0.10,-0.99,3.42,-0.67,3.85
13.9600,0.08,0.10,-0.99,3.36,-0.12,2.99
13.9750,0.08,0.11,-0.99,3.48,-0.18,2.50
13.9900,0.08,0.12,-0.99,3.36,-0.18,3.11
14.0050,0.09,0.12,-0.99,3.17,-0.12,3.48
14.0210,0.09,0.12,-0.98,3.17,-0.55,4.15
14.0360,0.09,0.11,-0.99,3.17,-0.55,4.52
14.0440,0.09,0.11,-0.99,3.23,-0.12,3.85
14.0600,0.09,0.11,-0.99,3.36,-0.24,3.72
14.0820,0.09,0.11,-0.99,3.17,0.00,3.97
14.0980,0.09,0.12,-0.98,3.11,-0.37,4.52
14.1000,0.09,0.12,-0.99,2.93,-0.37,5.55
14.1170,0.08,0.10,-0.99,3.17,-0.79,5.86
14.1460,0.08,0.10,-0.99,3.11,-0.49,4.82
14.1490,0.08,0.10,-0.99,3.17,-0.12,3.97
14.1770,0.09,0.11,-0.99,3.42,-0.31,3.23
14.1920,0.08,0.11,-0.99,3.36,-0.12,3.42
14.2070,0.09,0.11,-0.99,3.30,-0.18,3.85
14.2170,0.08,0.11,-0.99,3.30,-0.18,3.60
14.2320,0.09,0.10,-0.99,3.42,0.00,3.78
14.2520,0.09,0.11,-0.99,3.48,0.06,2.44
14.2570,0.09,0.11,-0.99,3.54,-0.18,2.44
14.2820,0.09,0.11,-0.99,3.48,-0.24,2.20
14.2970,0.09,0.11,-0.99,3.23,0.12,2.26
14.3120,0.08,0.11,-0.99,3.48,-0.43,2.20
14.3240,0.09,0.11,-0.99,3.60,0.24,2.20
14.3410,0.09,0.11,-0.99,3.42,-0.06,1.89
14.3570,0.09,0.11,-0.99,3.48,0.18,2.01
14.3720,0.09,0.11,-0.99,3.42,-0.06,2.14
14.3880,0.09,0.11,-0.99,3.36,-0.18,2.32
14.4040,0.09,0.11,-0.99,3.30,-0.37,2.75
14.4200,0.09,0.11,-0.99,3.36,-0.12,2.87
14.4350,0.09,0.11,-0.99,3.36,-0.18,2.56
14.4510,0.09,0.11,-0.99,3.36,-0.12,2.44
14.4670,0.08,0.11,-0.99,3.36,0.06,2.38
14.4820,0.09,0.11,-0.99,3.36,-0.31,2.93
14.4910,0.08,0.11,-0.99,3.48,-0.24,2.69
14.5070,0.09,0.11,-0.99,3.54,-0.37,2.81
14.5280,0.09,0.11,-0.99,3.30,0.12,2.44
14.5440,0.09,0.11,-0.99,3.48,-0.31,2.44
14.5600,0.09,0.11,-0.99,3.36,-0.12,2.62
14.5750,0.08,0.11,-0.99,3.17,0.24,3.17
14.5910,0.09,0.11,-0.99,3.36,-0.06,3.23
14.6060,0.09,0.11,-0.99,3.36,-0.12,2.99
14.6220,0.08,0.11,-0.99,3.36,-0.24,3.30
14.6370,0.09,0.11,-0.99,3.23,-0.37,4.03
14.6460,0.09,0.11,-0.99,3.30,-0.43,3.78
14.6620,0.09,0.11,-0.99,3.36,-0.73,3.23
14.6840,0.09,0.11,-0.99,3.30,0.00,2.26
14.7000,0.09,0.11,-0.99,3.48,0.00,2.26
14.7160,0.08,0.11,-0.99,3.42,-0.37,2.32
14.7320,0.09,0.11,-0.99,3.48,-0.61,2.69
14.7490,0.09,0.11,-0.99,3.48,-0.55,2.56
14.7640,0.09,0.11,-0.99,3.30,0.00,2.44
14.7790,0.09,0.11,-0.99,3.42,-0.06,2.44
14.7940,0.09,0.11,-0.99,3.42,0.00,2.14
14.8090,0.09,0.11,-0.99,3.42,-0.06,2.32
14.8240,0.09,0.11,-0.99,3.48,-0.73,2.87
14.8350,0.09,0.11,-0.99,3.30,0.12,2.69
14.8520,0.09,0.11,-0.99,3.36,0.37,2.69
14.8680,0.09,0.11,-0.99,3.42,0.12,2.32
14.8850,0.09,0.11,-0.99,3.48,-0.12,2.20
14.9010,0.09,0.11,-0.99,3.36,0.37,2.20
14.9180,0.09,0.11,-0.99,3.42,0.06,2.38
14.9200,0.09,0.11,-0.99,3.42,-0.12,2.81
14.9500,0.09,0.12,-0.99,3.54,-0.55,2.99
14.9530,0.09,0.11,-0.99,3.42,-0.49,3.36
14.9820,0.09,0.11,-0.99,3.36,-0.37,3.11
14.9980,0.09,0.11,-0.99,3.42,-0.18,2.14
15.0140,0.08,0.11,-0.99,3.23,-0.06,1.89
15.0180,0.08,0.11,-0.99,3.42,-0.24,2.01
15.0350,0.09,0.11,-0.99,3.60,0.00,2.20
15.0580,0.09,0.11,-0.99,3.42,-0.06,2.01
15.0740,0.09,0.11,-0.99,3.48,-0.31,2.20
15.0910,0.09,0.11,-0.99,3.30,-0.43,2.32
15.1070,0.09,0.11,-0.99,3.48,-0.24,2.32
15.1220,0.09,0.11,-0.99,3.36,-0.61,2.56
15.1380,0.09,0.11,-0.99,3.36,-0.18,2.44
15.1400,0.09,0.11,-0.99,3.48,-0.43,2.26
15.1560,0.09,0.11,-0.99,3.36,-0.24,2.44
15.1770,0.09,0.11,-0.99,3.48,-0.37,2.50
15.1950,0.09,0.11,-0.99,3.30,-0.18,2.20
15.2120,0.09,0.11,-0.99,3.30,-0.12,2.20
15.2280,0.09,0.11,-0.99,3.42,-0.31,2.56
15.2450,0.09,0.11,-0.99,3.48,-0.12,2.93
15.2610,0.09,0.11,-0.99,3.54,-0.37,2.44
15.2770,0.09,0.11,-0.99,3.54,-0.49,2.44
15.2940,0.09,0.11,-0.99,3.60,-0.24,2.56
15.3100,0.09,0.11,-0.99,3.54,-0.43,2.56
15.3260,0.09,0.12,-0.99,3.42,-0.31,2.99
15.3280,0.09,0.11,-0.99,3.42,-0.55,3.60
15.3560,0.09,0.11,-0.99,3.30,-0.31,3.54
15.3710,0.09,0.11,-0.99,3.30,-0.37,3.72
15.3800,0.09,0.11,-0.99,3.23,-0.55,3.72
15.3970,0.09,0.11,-0.99,3.23,-0.43,3.54
15.4140,0.09,0.11,-0.99,3.36,-0.24,3.11
15.4310,0.09,0.11,-0.99,3.48,-0.06,2.75
15.4470,0.09,0.11,-0.99,3.54,-0.43,2.69
15.4640,0.09,0.11,-0.99,3.30,-0.18,2.93
15.4790,0.09,0.11,-0.99,3.36,-0.43,3.05
15.4950,0.08,0.11,-0.99,3.36,-0.67,2.93
15.5110,0.09,0.11,-0.99,3.42,-0.61,3.23
15.5180,0.09,0.11,-0.99,3.48,-0.37,3.42
15.5290,0.09,0.11,-0.98,3.42,-0.24,3.30
15.5580,0.09,0.11,-0.99,3.42,-0.18,3.23
15.5700,0.09,0.11,-0.99,3.23,0.06,2.87
15.5870,0.09,0.11,-0.99,3.36,-0.24,2.26
15.6020,0.09,0.11,-0.99,3.36,-0.12,1.83
15.6200,0.09,0.11,-0.99,3.48,-0.12,1.59
15.6350,0.09,0.11,-0.99,3.48,-0.12,1.71
15.6510,0.09,0.11,-0.99,3.42,-0.12,1.83
15.6680,0.09,0.11,-0.99,3.54,-0.06,1.59
15.6830,0.09,0.11,-0.99,3.54,-0.37,1.53
15.6980,0.09,0.11,-0.99,3.66,-0.18,1.53
15.7030,0.09,0.11,-0.99,3.66,-0.31,1.46
15.7190,0.09,0.11,-0.99,3.54,-0.06,1.46
15.7430,0.09,0.11,-0.99,3.36,0.18,1.46
15.7580,0.09,0.11,-0.99,3.60,-0.24,1.53
15.7750,0.09,0.11,-0.99,3.54,-0.12,1.53
15.7910,0.09,0.11,-0.99,3.66,0.43,1.71
15.8060,0.09,0.11,-0.99,3.78,-15.50,1.53
15.8210,0.09,0.11,-0.99,3.60,-0.06,1.46
15.8360,0.09,0.11,-0.99,3.54,-0.37,1.53
15.8510,0.09,0.11,-0.99,3.72,0.06,1.46
15.8680,0.09,0.11,-0.99,3.54,-0.49,1.53
15.8830,0.09,0.11,-0.99,3.48,-0.61,1.53
15.8980,0.09,0.11,-0.99,3.72,-0.67,1.53
15.9080,0.09,0.11,-0.99,3.48,0.06,1.59
15.9240,0.09,0.11,-0.99,3.60,-0.24,1.40
15.9440,0.09,0.11,-0.99,3.60,-0.43,1.40
15.9470,0.09,0.11,-0.99,3.60,-0.24,1.53
15.9630,0.09,0.11,-0.99,3.54,-0.31,1.40
15.9800,0.09,0.11,-0.99,3.60,-0.12,1.59
15.9970,0.09,0.11,-0.99,3.54,-0.31,1.53
16.0180,0.09,0.11,-0.99,3.60,-0.24,1.53
16.0310,0.09,0.11,-0.99,3.60,-0.24,1.59
16.0470,0.09,0.11,-0.99,3.60,-0.43,1.46
16.0650,0.09,0.11,-0.99,3.85,-0.31,1.53
16.0800,0.09,0.11,-0.99,3.66,-0.06,1.65
16.0970,0.09,0.11,-0.99,3.60,-0.31,1.59
16.1140,0.09,0.11,-0.99,3.60,-0.12,1.46
16.1300,0.09,0.11,-0.99,3.54,0.12,1.40
16.1300,0.09,0.11,-0.99,3.36,-0.49,1.40
16.1620,0.09,0.11,-0.99,3.36,-0.06,1.71
16.1780,0.09,0.11,-0.99,3.36,-0.12,1.40
16.1800,0.09,0.11,-0.99,3.23,-0.18,1.28
16.1960,0.09,0.11,-0.99,3.30,-0.18,1.28
16.2190,0.09,0.11,-0.99,3.30,0.31,1.40
16.2350,0.09,0.11,-0.99,3.30,0.18,1.40
16.2520,0.09,0.11,-0.99,3.17,0.00,1.34
16.2690,0.09,0.11,-0.99,3.42,0.31,1.46
16.2690,0.09,0.11,-0.99,3.30,0.12,1.46
16.3000,0.09,0.11,-0.99,3.66,-0.18,1.40
16.3170,0.09,0.11,-0.99,3.54,-0.06,1.46
16.3330,0.09,0.11,-0.99,3.42,0.00,1.34
16.3350,0.09,0.11,-0.99,3.48,0.12,1.40
16.3510,0.09,0.11,-0.99,3.48,0.06,1.53
16.3730,0.09,0.11,-0.99,3.36,0.06,1.34
16.3910,0.09,0.11,-0.99,3.54,-0.43,1.34
16.4070,0.09,0.11,-0.99,3.48,-0.18,1.53
16.4250,0.09,0.11,-0.99,3.36,-0.37,1.40
16.4400,0.09,0.11,-0.99,3.36,-0.37,1.34
16.4560,0.09,0.11,-0.99,3.48,-0.06,1.53
16.4710,0.09,0.11,-0.99,3.36,0.24,1.59
16.4860,0.09,0.11,-0.99,3.66,-0.37,1.46
16.4900,0.09,0.11,-0.99,3.54,-0.18,1.34
16.5060,0.09,0.11,-0.99,3.30,-0.12,1.46
16.5300,0.09,0.11,-0.99,3.48,-0.49,1.53
16.5460,0.09,0.11,-0.99,3.54,-0.43,1.40
16.5620,0.09,0.11,-0.99,3.60,-0.24,1.53
16.5800,0.09,0.11,-0.99,3.48,15.44,1.59
16.5960,0.09,0.11,-0.99,3.23,-0.49,1.53
16.6120,0.09,0.11,-0.99,3.54,-0.37,1.46
16.6280,0.09,0.11,-0.99,3.48,-0.18,1.53
16.6440,0.09,0.11,-0.99,3.48,-0.06,1.53
16.6600,0.09,0.11,-0.99,3.42,0.00,1.53
16.6760,0.09,0.11,-0.99,3.54,-0.12,1.71
16.6790,0.09,0.11,-0.99,3.66,-0.37,1.40
16.6950,0.09,0.11,-0.99,3.42,0.00,1.59
16.7220,0.09,0.11,-0.99,3.54,-0.31,1.59
16.7330,0.09,0.11,-0.99,3.60,0.18,1.46
16.7490,0.09,0.11,-0.99,3.48,-0.18,1.28
16.7670,0.09,0.11,-0.99,3.48,-0.12,1.28
16.7840,0.09,0.11,-0.99,3.60,-0.61,1.40
16.8000,0.09,0.11,-0.99,3.54,-0.55,1.22
16.8160,0.10,0.11,-0.99,3.66,-0.24,1.10
16.8330,0.09,0.11,-0.99,3.66,0.18,1.22
16.8500,0.09,0.11,-0.99,3.54,-0.06,1.34
16.8670,0.09,0.11,-0.99,3.48,-0.06,1.59
16.8680,0.09,0.11,-0.99,3.48,-0.24,1.53
16.8990,0.08,0.11,-0.99,3.48,-0.24,1.34
16.9150,0.08,0.11,-0.99,3.48,-0.06,1.40
16.9300,0.09,0.11,-0.99,3.54,-0.18,1.16
16.9470,0.08,0.11,-0.99,3.42,-0.24,1.16
16.9500,0.09,0.11,-0.99,3.48,-0.06,1.22
16.9660,0.08,0.11,-0.99,3.60,-0.61,1.22
16.9930,0.09,0.11,-0.99,3.48,-0.43,1.28
17.0040,0.08,0.11,-0.99,3.42,-0.12,1.28
17.0210,0.08,0.11,-0.99,3.54,-0.12,1.34
17.0380,0.09,0.11,-0.99,3.60,-0.24,1.22
17.0530,0.09,0.11,-0.99,3.42,-0.06,1.22
17.0680,0.09,0.11,-0.99,3.42,-0.31,1.34
17.0840,0.09,0.11,-0.99,3.60,-0.12,1.22
17.1000,0.08,0.11,-0.99,3.78,0.06,1.22
17.1150,0.09,0.11,-0.99,3.60,0.06,1.40
17.1320,0.09,0.11,-0.99,3.54,-0.37,1.40
17.1470,0.08,0.11,-0.99,3.54,0.06,1.34
17.1550,0.09,0.11,-0.99,3.48,-0.12,1.28
17.1800,0.09,0.11,-0.99,3.54,0.00,1.28
17.1950,0.09,0.11,-0.99,3.30,-0.31,1.04
17.2100,0.09,0.11,-0.99,3.54,-0.43,0.73
17.2210,0.09,0.12,-0.99,3.48,-0.12,0.67
17.2390,0.08,0.11,-0.99,3.72,0.06,0.49
17.2550,0.08,0.11,-0.99,3.48,0.18,0.73
17.2720,0.09,0.11,-0.99,3.48,0.00,0.92
17.2870,0.08,0.11,-0.99,3.48,-0.37,1.04
17.3030,0.08,0.11,-0.99,3.54,-0.31,1.10
17.3180,0.09,0.11,-0.99,3.48,0.00,1.16
17.3330,0.09,0.11,-0.99,3.36,-0.12,1.04
17.3480,0.09,0.11,-0.99,3.54,-0.06,1.22
17.3600,0.08,0.11,-0.99,3.66,-0.49,1.22
17.3760,0.08,0.11,-0.99,3.48,0.18,1.16
17.3930,0.09,0.11,-0.99,3.54,-0.06,1.34
17.4090,0.09,0.11,-0.99,3.60,-0.24,1.22
17.4260,0.09,0.11,-0.99,3.54,-0.12,1.10
17.4430,0.09,0.11,-0.99,3.78,-0.49,1.10
17.4590,0.09,0.11,-0.99,3.60,-0.24,1.04
17.4740,0.09,0.11,-0.99,3.42,0.00,1.16
17.4890,0.09,0.11,-0.99,3.48,-0.06,1.28
17.4930,0.09,0.11,-0.99,3.48,0.06,1.53
17.5190,0.09,0.11,-0.99,3.48,-0.18,1.34
17.5310,0.09,0.11,-0.99,3.66,-0.37,1.22
17.5480,0.08,0.11,-0.99,3.54,-0.18,1.22
17.5660,0.09,0.11,-0.99,3.54,0.12,1.16
17.5810,0.09,0.11,-0.99,3.42,15.50,1.10
17.5970,0.09,0.11,-0.99,3.54,-0.12,1.16
17.5990,0.09,0.11,-0.99,3.66,0.24,1.28
17.6190,0.09,0.11,-0.99,3.54,-0.31,1.16
17.6310,0.09,0.11,-0.99,3.60,0.12,1.22
17.6470,0.09,0.11,-0.99,3.66,-0.37,1.16
17.6640,0.08,0.11,-0.99,3.48,0.00,1.28
17.6930,0.09,0.11,-0.99,3.36,0.00,1.22
17.6980,0.09,0.11,-0.99,3.48,0.00,1.28
17.7190,0.09,0.11,-0.99,3.42,-15.32,1.10
17.7320,0.08,0.11,-0.99,3.48,0.00,1.16
17.7480,0.09,0.11,-0.99,3.54,-0.37,1.16
17.7640,0.09,0.11,-0.99,3.48,-0.12,1.22
17.7850,0.08,0.11,-0.99,3.48,-0.12,1.34
17.8010,0.08,0.11,-0.99,3.48,0.06,1.46
17.8170,0.09,0.11,-0.99,3.72,-0.43,1.40
17.8340,0.09,0.11,-0.99,3.48,-0.49,1.34
17.8500,0.09,0.11,-0.99,3.42,-0.24,1.34
17.8660,0.09,0.11,-0.99,3.48,-0.06,1.34
17.8690,0.08,0.11,-0.99,3.48,-0.18,1.34
17.8980,0.09,0.11,-0.99,3.48,-0.18,1.28
17.9130,0.09,0.11,-0.99,3.72,0.06,1.46
17.9280,0.09,0.11,-0.99,3.54,0.12,1.28
17.9400,0.09,0.11,-0.99,3.48,-0.12,0.98
17.9570,0.09,0.11,-0.99,3.72,0.12,0.92
17.9730,0.09,0.11,-0.99,3.48,-0.18,0.85
17.9880,0.09,0.11,-0.99,3.48,-0.37,0.92
18.0030,0.08,0.11,-0.99,3.72,-0.67,0.79
18.0200,0.09,0.11,-0.99,3.36,0.24,1.04
18.0350,0.09,0.11,-0.99,3.42,0.12,1.10
18.0400,0.08,0.11,-0.99,3.48,-0.24,1.22
18.0560,0.09,0.11,-0.99,3.54,0.06,1.28
18.0770,0.09,0.11,-0.99,3.48,0.00,1.22
18.0940,0.09,0.11,-0.99,3.72,0.06,1.40
18.1100,0.09,0.11,-0.99,3.60,-0.24,1.34
18.1270,0.09,0.11,-0.99,3.60,-0.49,1.16
18.1440,0.09,0.11,-0.99,3.23,0.06,1.28
18.1450,0.09,0.11,-0.99,3.54,-0.18,1.34
18.1760,0.09,0.11,-0.99,3.42,-0.12,1.28
18.1910,0.09,0.11,-0.99,3.60,-0.18,1.22
18.2070,0.09,0.11,-0.99,3.54,-0.06,1.34
18.2220,0.08,0.11,-0.99,3.60,-0.18,1.22
18.2380,0.09,0.11,-0.99,3.60,0.00,1.28
18.2430,0.09,0.11,-0.99,3.54,-0.18,1.10
18.2590,0.09,0.11,-0.99,3.48,-0.12,1.28
18.2830,0.09,0.11,-0.99,3.78,-0.18,1.16
18.2990,0.08,0.11,-0.99,3.48,-0.06,1.04
18.3160,0.09,0.11,-0.99,3.60,-0.31,1.10
18.3310,0.09,0.11,-0.99,3.48,0.06,1.16
18.3480,0.09,0.11,-0.99,3.30,-0.18,1.34
18.3640,0.08,0.11,-0.99,3.60,-0.49,1.22
18.3790,0.09,0.11,-0.99,3.60,-0.12,1.28
18.3950,0.09,0.11,-0.99,3.54,0.18,1.28
18.4120,0.09,0.11,-0.99,3.54,-0.12,1.16
18.4200,0.09,0.11,-0.99,3.42,0.06,1.16
18.4330,0.08,0.11,-0.99,3.42,-0.31,0.98
18.4550,0.09,0.11,-0.99,3.23,0.00,1.04
18.4720,0.09,0.11,-0.99,3.48,0.06,1.22
18.4890,0.09,0.11,-0.99,3.54,0.00,1.28
18.5040,0.08,0.11,-0.99,3.54,0.24,1.34
18.5200,0.09,0.11,-0.99,3.54,-0.18,0.92
18.5360,0.09,0.11,-0.99,3.42,-0.06,0.92
18.5510,0.08,0.11,-0.99,3.54,0.12,0.98
18.5670,0.09,0.11,-0.99,3.54,-0.31,0.85
18.5830,0.09,0.11,-0.99,3.48,-0.24,1.16
18.5990,0.09,0.11,-0.99,3.42,-0.24,1.10
18.6060,0.09,0.11,-0.99,3.54,-0.43,1.16
18.6220,0.09,0.11,-0.99,3.54,-0.12,1.28
18.6440,0.09,0.11,-0.99,3.54,-0.06,1.28
18.6610,0.08,0.11,-0.99,3.48,0.06,0.92
18.6770,0.08,0.11,-0.99,3.54,0.18,1.22
18.6930,0.08,0.11,-0.99,3.36,-0.12,1.40
18.7080,0.08,0.11,-0.99,3.54,0.12,1.34
18.7230,0.09,0.11,-0.99,3.36,-0.12,1.46
18.7390,0.08,0.11,-0.99,3.48,0.24,1.28
18.7540,0.09,0.11,-0.99,3.48,-0.06,1.16
18.7700,0.09,0.11,-0.99,3.60,-0.43,1.22
18.7850,0.08,0.11,-0.99,3.54,-0.18,1.40
18.7960,0.09,0.11,-0.99,3.48,-0.31,1.46
18.8120,0.09,0.11,-0.99,3.54,0.00,1.34
18.8280,0.09,0.11,-0.99,3.54,0.24,1.59
18.8450,0.09,0.11,-0.99,3.54,-0.31,1.34
18.8620,0.09,0.11,-0.99,3.42,0.00,1.28
18.8790,0.09,0.11,-0.99,3.48,0.06,1.34
18.8800,0.08,0.11,-0.99,3.66,-0.67,1.22
18.9100,0.09,0.11,-0.99,3.66,-0.43,1.53
18.9270,0.08,0.11,-0.99,3.72,-0.24,1.40
18.9430,0.09,0.11,-0.99,3.54,-0.31,1.34
18.9580,0.08,0.11,-0.99,3.48,-0.12,1.34
18.9730,0.09,0.11,-0.99,3.36,0.12,1.16
18.9890,0.08,0.11,-0.99,3.48,-0.12,1.22
19.0040,0.09,0.11,-0.99,3.66,-0.24,1.34
19.0200,0.09,0.11,-0.99,3.60,-0.18,1.34
19.0350,0.09,0.11,-0.99,3.42,0.12,1.46
19.0450,0.09,0.11,-0.99,3.54,-0.12,1.28
19.0620,0.08,0.11,-0.99,3.42,-0.12,1.28
19.0780,0.09,0.11,-0.99,3.72,-0.24,1.34
19.0960,0.09,0.11,-0.99,3.54,-0.06,1.40
19.1120,0.08,0.11,-0.99,3.48,0.31,1.34
19.1300,0.09,0.11,-0.99,3.54,0.06,0.92
19.1450,0.08,0.11,-0.99,3.42,0.12,0.98
19.1460,0.09,0.11,-0.99,3.60,-0.61,1.04
19.1770,0.08,0.11,-0.99,3.48,-0.12,1.22
19.1940,0.09,0.11,-0.99,3.36,-0.24,1.28
19.2100,0.09,0.11,-0.99,3.54,-0.06,1.28
19.2260,0.08,0.11,-0.99,3.60,-0.18,1.28
19.2280,0.09,0.11,-0.99,3.66,-0.37,1.04
19.2440,0.09,0.11,-0.99,3.48,-0.18,0.98
19.2720,0.09,0.11,-0.99,3.60,-0.18,0.79
19.2820,0.09,0.11,-0.99,3.66,0.12,0.98
19.3000,0.09,0.11,-0.99,3.60,-0.43,0.85
19.3160,0.09,0.11,-0.99,3.48,-0.31,0.85
19.3330,0.09,0.11,-0.99,3.72,0.31,0.92
19.3490,0.09,0.11,-0.99,3.42,0.18,0.98
19.3660,0.08,0.11,-0.99,3.42,0.18,1.04
19.3810,0.09,0.11,-0.99,3.60,0.12,0.98
19.3970,0.09,0.11,-0.99,3.48,-0.06,1.10
19.4130,0.09,0.11,-0.99,3.60,-0.49,1.10
19.4280,0.09,0.11,-0.99,3.54,-0.12,1.22
19.4430,0.08,0.11,-0.99,3.48,-0.37,0.98
19.4600,0.08,0.11,-0.99,3.66,-0.55,1.10
19.4750,0.08,0.11,-0.99,3.60,-0.43,1.40
19.4910,0.09,0.11,-0.99,3.60,-0.18,1.46
19.5060,0.09,0.11,-0.99,3.54,-0.43,1.40
19.5210,0.09,0.11,-0.99,3.36,0.00,1.46
19.5310,0.09,0.11,-0.99,3.48,-0.24,1.16
19.5510,0.09,0.11,-0.99,3.42,0.00,1.04
19.5670,0.09,0.11,-0.99,3.54,-0.06,1.16
19.5820,0.09,0.11,-0.99,3.48,0.18,1.04
19.5910,0.09,0.11,-0.99,3.60,-0.49,0.92
19.6060,0.09,0.11,-0.99,3.66,-0.37,1.04
19.6220,0.09,0.11,-0.99,3.54,-0.24,1.16
19.6430,0.08,0.11,-0.99,3.60,-0.55,1.10
19.6600,0.08,0.11,-0.99,3.66,-0.61,0.98
19.6760,0.09,0.11,-0.99,3.60,-0.37,1.22
19.6920,0.09,0.11,-0.99,3.60,-0.18,1.22
19.7070,0.09,0.11,-0.99,3.54,0.00,0.98
19.7220,0.09,0.11,-0.99,3.60,-0.06,0.98
19.7370,0.08,0.11,-0.99,3.42,0.00,0.98
19.7530,0.09,0.11,-0.99,3.60,-0.43,1.10
19.7680,0.09,0.11,-0.99,3.48,0.18,1.16
19.7760,0.09,0.11,-0.99,3.60,-0.24,1.16
19.7920,0.09,0.11,-0.99,3.72,-0.55,1.04
19.8080,0.08,0.11,-0.99,3.54,0.18,1.22
19.8210,0.09,0.11,-0.99,3.66,-0.37,0.98
19.8440,0.09,0.11,-0.99,3.54,-0.18,0.98
19.8590,0.08,0.11,-0.99,3.54,-0.18,0.98
19.8670,0.09,0.11,-0.99,3.42,0.12,1.04
19.8830,0.09,0.11,-0.99,3.60,-0.06,1.10
19.9010,0.08,0.11,-0.99,3.54,-0.12,0.92
19.9160,0.09,0.11,-0.99,3.42,-0.24,0.92
19.9330,0.09,0.11,-0.99,3.66,0.00,0.92
19.9500,0.09,0.11,-0.99,3.72,-0.24,0.92
19.9510,0.09,0.11,-0.99,3.66,0.06,0.73
19.9820,0.08,0.11,-0.99,3.54,-0.06,1.04
19.9840,0.09,0.11,-0.99,3.60,-0.18,1.16
20.0140,0.08,0.11,-0.99,3.66,-0.24,1.22
20.0300,0.08,0.11,-0.99,3.60,-0.31,1.28
20.0450,0.09,0.11,-0.99,3.54,0.00,1.28
20.0610,0.09,0.11,-0.99,3.30,0.06,1.22
20.0760,0.09,0.11,-0.99,3.85,0.06,1.16
20.0830,0.08,0.11,-0.99,3.48,0.24,1.04
20.0990,0.09,0.11,-0.99,3.48,0.31,0.92
20.1220,0.08,0.11,-0.99,3.54,-0.31,0.92
20.1370,0.08,0.11,-0.99,3.48,0.55,0.98
20.1530,0.09,0.11,-0.99,3.60,0.00,1.04
20.1680,0.08,0.11,-0.99,3.54,-0.24,0.85
20.1840,0.09,0.11,-0.99,3.48,-0.18,1.28
20.1890,0.09,0.11,-0.99,3.66,-0.06,1.16
20.2050,0.09,0.11,-0.99,3.72,-0.49,1.16
20.2210,0.09,0.11,-0.99,3.72,0.06,1.04
20.2430,0.09,0.11,-0.99,3.36,0.49,1.28
20.2600,0.09,0.11,-0.99,3.54,-0.31,1.16
20.2770,0.09,0.11,-0.99,3.48,-0.37,1.10
20.2930,0.09,0.11,-0.99,3.48,-0.31,0.85
20.3110,0.09,0.11,-0.99,3.48,0.00,1.04
20.3260,0.09,0.11,-0.99,3.48,-0.24,0.73
20.3420,0.08,0.11,-0.99,3.54,-0.24,0.85
20.3580,0.08,0.11,-0.99,3.48,0.00,0.67
20.3600,0.09,0.11,-0.99,3.66,-0.67,0.85
20.3760,0.09,0.11,-0.99,3.85,-0.43,0.73
20.4030,0.08,0.11,-0.99,3.48,-0.24,0.67
20.4140,0.08,0.11,-0.99,3.66,0.00,0.92
20.4310,0.08,0.11,-0.99,3.60,-0.55,0.92
20.4480,0.09,0.11,-0.99,3.54,-0.12,1.04
20.4640,0.09,0.11,-0.99,3.48,-0.31,1.04
20.4800,0.09,0.11,-0.99,3.72,-0.06,0.98
20.4970,0.09,0.11,-0.99,3.42,0.06,0.79
20.5130,0.09,0.11,-0.99,3.36,0.12,1.16
20.5280,0.08,0.11,-0.99,3.85,-0.06,0.98
20.5440,0.08,0.11,-0.99,3.48,-0.37,1.22
20.5480,0.09,0.11,-0.99,3.42,0.00,1.10
20.5760,0.09,0.11,-0.99,3.54,-0.31,1.34
20.5920,0.08,0.11,-0.99,3.60,0.18,1.10
20.6080,0.09,0.11,-0.99,3.54,0.18,1.22
20.6230,0.08,0.11,-0.99,3.60,0.00,1.16
20.6400,0.09,0.11,-0.99,3.48,0.06,1.40
20.6470,0.09,0.11,-0.99,3.72,0.06,1.22
20.6630,0.09,0.11,-0.99,3.60,-0.12,0.98
20.6860,0.08,0.12,-0.99,3.72,0.00,0.85
20.7020,0.08,0.11,-0.99,3.60,-0.37,0.79
20.7170,0.09,0.11,-0.99,3.60,-0.61,1.10
20.7330,0.08,0.11,-0.99,3.60,0.00,1.22
20.7490,0.09,0.11,-0.99,3.60,0.12,1.28
20.7640,0.08,0.11,-0.99,3.48,-0.49,0.98
20.7810,0.08,0.11,-0.99,3.36,0.18,1.28
20.7840,0.08,0.11,-0.99,3.60,-0.12,1.46
20.8000,0.09,0.11,-0.99,3.36,0.24,1.53
20.8230,0.09,0.11,-0.99,3.72,0.06,1.46
20.8400,0.09,0.11,-0.99,3.60,-0.31,1.34
20.8560,0.09,0.11,-0.99,3.48,-0.12,1.22
20.8730,0.09,0.11,-0.99,3.48,-0.18,1.22
20.8890,0.09,0.11,-0.99,3.60,0.18,1.28
20.9060,0.09,0.11,-0.99,3.60,-0.24,1.34
20.9220,0.09,0.11,-0.99,3.72,-0.06,0.98
20.9390,0.08,0.11,-0.99,3.72,-0.18,0.92
20.9550,0.08,0.11,-0.99,3.54,-0.12,0.98
20.9700,0.08,0.11,-0.99,3.66,-0.12,0.67
20.9850,0.08,0.11,-0.99,3.54,-0.37,0.85
20.9890,0.09,0.11,-0.99,3.54,0.00,1.04
21.0050,0.09,0.11,-0.99,3.66,-0.18,0.98
21.0260,0.09,0.11,-0.99,3.60,0.24,1.04
21.0430,0.09,0.11,-0.99,3.36,0.18,0.92
21.0590,0.09,0.11,-0.99,3.54,-0.06,0.79
21.0770,0.09,0.11,-0.99,3.48,0.18,0.67
21.0920,0.09,0.11,-0.99,3.60,0.12,0.37
21.1090,0.09,0.11,-0.99,3.48,-0.12,0.31
21.1240,0.08,0.11,-0.99,3.60,0.37,0.12
21.1390,0.08,0.11,-0.99,3.60,-0.06,0.55
21.1550,0.09,0.11,-0.99,3.48,0.00,0.73
21.1590,0.08,0.11,-0.99,3.60,-0.06,0.37
21.1740,0.09,0.11,-0.99,3.66,-0.12,0.43
21.2000,0.08,0.11,-0.99,3.72,-0.06,0.43
21.2010,0.08,0.11,-0.99,3.66,0.24,0.55
21.2310,0.08,0.11,-0.99,3.48,0.00,1.04
21.2470,0.09,0.11,-0.99,3.42,0.37,0.98
21.2630,0.08,0.11,-0.99,3.48,0.18,0.79
21.2790,0.09,0.11,-0.99,3.60,-0.24,1.22
21.2950,0.09,0.11,-0.99,3.54,-0.18,1.16
21.3110,0.09,0.11,-0.99,3.60,15.50,0.85
21.3270,0.09,0.11,-0.99,3.54,0.24,0.92
21.3420,0.09,0.11,-0.99,3.66,0.12,0.37
21.3490,0.08,0.11,-0.99,3.60,0.12,0.55
21.3720,0.08,0.11,-0.99,3.48,0.00,0.61
21.3820,0.09,0.11,-0.99,3.54,0.12,0.73
21.4000,0.08,0.11,-0.99,3.54,0.12,0.61
21.4170,0.08,0.11,-0.99,3.48,-0.24,0.61
21.4310,0.09,0.11,-0.99,3.60,0.24,0.73
21.4470,0.08,0.11,-0.99,3.66,0.12,0.67
21.4630,0.09,0.11,-0.99,3.72,-0.31,0.85
21.4780,0.09,0.11,-0.99,3.54,0.00,0.79
21.4890,0.09,0.11,-0.99,3.72,0.00,0.79
21.5040,0.09,0.11,-0.99,3.48,0.49,0.61
21.5230,0.08,0.11,-0.99,3.48,0.43,0.67
21.5390,0.09,0.11,-0.99,3.48,0.18,0.98
21.5540,0.08,0.11,-0.99,3.54,0.00,1.34
21.5700,0.08,0.11,-0.99,3.42,0.00,1.46
21.5850,0.09,0.11,-0.99,3.48,0.00,1.46
21.5970,0.09,0.11,-0.99,3.23,0.06,1.10
21.6130,0.08,0.11,-0.99,3.66,0.43,0.98
21.6300,0.09,0.11,-0.99,3.60,-0.31,1.10
21.6460,0.08,0.11,-0.99,3.54,0.12,1.16
21.6620,0.08,0.11,-0.99,3.60,-0.37,1.16
21.6780,0.09,0.11,-0.99,3.60,-0.12,1.16
21.6840,0.09,0.11,-0.99,3.36,0.00,1.16
21.7000,0.09,0.11,-0.99,3.42,0.00,0.98
21.7220,0.09,0.11,-0.99,3.60,-0.18,0.85
21.7380,0.09,0.11,-0.99,3.60,-0.31,0.98
21.7560,0.09,0.11,-0.99,3.66,0.06,0.92
21.7720,0.09,0.11,-0.99,3.60,-0.18,0.98
21.7880,0.09,0.11,-0.99,3.66,0.00,0.92
21.8040,0.08,0.11,-0.99,3.54,0.24,0.73
21.8200,0.09,0.11,-0.99,3.54,0.24,1.04
21.8220,0.09,0.11,-0.99,3.36,-0.18,0.98
21.8370,0.08,0.11,-0.99,3.36,-0.12,0.85
21.8660,0.09,0.11,-0.99,3.42,-0.24,1.10
21.8760,0.09,0.11,-0.99,3.36,0.06,1.16
21.8930,0.08,0.11,-0.99,3.54,-0.37,0.98
21.9090,0.09,0.11,-0.99,3.48,0.18,0.73
21.9260,0.09,0.11,-0.99,3.48,0.49,0.61
21.9430,0.08,0.11,-0.99,3.60,0.00,0.49
21.9590,0.08,0.11,-0.99,3.54,0.00,0.61
21.9750,0.09,0.11,-0.99,3.54,0.12,0.79
21.9910,0.08,0.11,-0.99,3.66,-0.24,0.79
22.0070,0.09,0.11,-0.99,3.72,-0.24,0.67
22.0230,0.08,0.11,-0.99,3.78,-0.12,0.73
22.0260,0.09,0.11,-0.99,3.66,-0.18,0.67
22.0420,0.08,0.11,-0.99,3.54,-0.31,0.79
22.0640,0.08,0.11,-0.99,3.60,0.18,0.79
22.0810,0.09,0.11,-0.99,3.48,-0.24,0.79
22.0990,0.09,0.11,-0.99,3.48,-0.18,0.92
22.1140,0.08,0.11,-0.99,3.60,-0.24,0.92
22.1290,0.10,0.11,-0.99,3.66,0.18,1.04
22.1310,0.08,0.11,-0.99,3.66,-0.12,0.61
22.1470,0.08,0.11,-0.99,3.60,0.12,0.55
22.1760,0.09,0.11,-0.99,3.54,-0.12,0.92
22.1860,0.09,0.11,-0.99,3.54,0.06,0.92
22.2020,0.08,0.11,-0.99,3.60,-0.12,0.73
22.2190,0.09,0.11,-0.99,3.48,-0.12,0.73
22.2360,0.09,0.11,-0.99,3.48,0.18,0.85
22.2520,0.08,0.11,-0.99,3.85,0.18,0.92
22.2680,0.09,0.11,-0.99,3.72,-0.18,0.92
22.2850,0.09,0.11,-0.99,3.72,-0.24,0.67
22.3010,0.09,0.11,-0.99,3.72,-0.37,0.49
22.3170,0.09,0.11,-0.99,3.72,0.06,0.49
22.3330,0.08,0.11,-0.99,3.72,0.06,0.43
22.3480,0.09,0.11,-0.99,3.66,-0.18,0.61
22.3640,0.09,0.11,-0.99,3.60,-0.12,0.85
22.3790,0.09,0.11,-0.99,3.85,0.06,0.24
22.3940,0.08,0.11,-0.99,3.85,-0.18,-0.06
22.4100,0.09,0.11,-0.99,3.60,-0.12,0.12
22.4250,0.08,0.11,-0.99,3.60,-0.24,0.12
22.4350,0.08,0.11,-0.99,3.48,0.31,0.18
22.4510,0.09,0.11,-0.99,3.66,0.12,0.49
22.4730,0.08,0.11,-0.99,3.48,-0.24,0.55
22.4740,0.09,0.11,-0.99,3.54,-0.06,0.73
22.5040,0.09,0.11,-0.99,3.60,-0.06,0.73
22.5150,0.08,0.11,-0.99,3.60,-0.18,0.85
22.5360,0.08,0.11,-0.99,3.60,0.00,0.79
22.5520,0.08,0.11,-0.99,3.48,-15.38,0.92
22.5680,0.08,0.11,-0.99,3.48,-0.18,1.16
22.5830,0.08,0.11,-0.99,3.48,0.06,1.34
22.5990,0.09,0.11,-0.99,3.54,-0.18,1.28
22.6140,0.09,0.11,-0.99,3.66,0.43,1.46
22.6290,0.09,0.11,-0.99,3.42,0.06,1.22
22.6400,0.09,0.11,-0.99,3.48,0.06,0.98
22.6570,0.08,0.11,-0.99,3.48,0.18,0.85
22.6740,0.09,0.11,-0.99,3.48,-0.06,0.98
22.6890,0.09,0.11,-0.99,3.48,0.31,0.85
22.7070,0.08,0.11,-0.99,3.60,-0.06,0.79
22.7230,0.08,0.11,-0.99,3.42,0.06,0.92
22.7390,0.09,0.11,-0.99,3.48,0.12,1.04
22.7550,0.09,0.11,-0.99,3.48,-0.31,0.98
22.7580,0.09,0.11,-0.99,3.48,0.00,0.79
22.7730,0.09,0.11,-0.99,3.48,0.18,0.67
22.7890,0.09,0.11,-0.99,3.48,0.18,0.73
22.8140,0.09,0.11,-0.99,3.54,0.31,0.67
22.8300,0.08,0.11,-0.99,3.60,0.18,0.55
22.8460,0.08,0.11,-0.99,3.60,0.12,0.31
22.8630,0.09,0.11,-0.99,3.23,0.37,0.31
22.8800,0.09,0.11,-0.99,3.72,-0.31,0.12
22.8960,0.08,0.11,-0.99,3.54,0.31,0.12
22.9110,0.09,0.11,-0.99,3.66,0.06,0.24
22.9260,0.08,0.11,-0.99,3.48,0.31,0.24
22.9420,0.09,0.11,-0.99,3.60,-0.06,0.31
22.9580,0.09,0.11,-0.99,3.54,0.49,0.37
22.9740,0.08,0.11,-0.99,3.36,0.00,0.06
22.9900,0.08,0.11,-0.99,3.42,0.24,0.31
23.0060,0.09,0.11,-0.99,3.60,0.49,0.31
23.0220,0.08,0.11,-0.99,3.60,0.79,0.24
23.0380,0.09,0.11,-0.99,3.72,0.61,0.31
23.0470,0.08,0.11,-0.99,3.48,0.55,0.37
23.0680,0.09,0.11,-0.99,3.54,0.37,0.61
23.0800,0.09,0.11,-0.99,3.72,0.37,0.55
23.0960,0.09,0.11,-0.99,3.48,0.00,0.49
23.1140,0.09,0.11,-0.99,3.66,0.00,0.49
23.1300,0.08,0.11,-0.99,3.66,0.24,0.55
23.1300,0.09,0.11,-0.99,3.72,0.37,0.61
23.1600,0.08,0.11,-0.99,3.60,0.06,0.43
23.1750,0.09,0.11,-0.99,3.48,0.00,0.73
23.1920,0.09,0.11,-0.99,3.60,-0.18,0.37
23.1950,0.08,0.11,-0.99,3.48,0.18,0.43
23.2230,0.09,0.11,-0.99,3.66,0.43,0.55
23.2350,0.08,0.11,-0.99,3.72,0.00,0.49
23.2500,0.08,0.11,-0.99,3.66,0.24,0.61
23.2690,0.09,0.11,-0.99,3.60,0.43,0.98
23.2840,0.08,0.11,-0.99,3.60,0.18,0.98
23.3010,0.08,0.11,-0.99,3.60,0.43,0.73
23.3160,0.08,0.11,-0.99,3.48,0.06,0.98
23.3320,0.08,0.11,-0.99,3.54,-0.18,1.28
23.3470,0.09,0.11,-0.99,3.72,0.00,1.04
23.3510,0.09,0.11,-0.99,3.36,0.43,0.98
23.3680,0.08,0.11,-0.99,3.60,0.00,0.98
23.3840,0.08,0.11,-0.99,3.60,-0.24,1.16
23.4060,0.09,0.11,-0.99,3.42,0.24,1.16
23.4230,0.08,0.11,-0.99,3.36,0.43,1.10
23.4390,0.09,0.11,-0.99,3.54,0.06,1.04
23.4550,0.09,0.11,-0.99,3.54,0.00,0.92
23.4710,0.09,0.11,-0.99,3.42,0.06,0.79
23.4870,0.09,0.11,-0.99,3.36,0.06,0.85
23.4900,0.08,0.11,-0.99,3.42,-0.12,1.04
23.5180,0.09,0.11,-0.99,3.78,-0.12,1.04
23.5340,0.09,0.11,-0.99,3.54,0.12,1.10
23.5500,0.08,0.11,-0.99,3.36,0.12,1.10
23.5560,0.09,0.11,-0.99,3.72,-0.18,1.10
23.5810,0.08,0.11,-0.99,3.42,0.18,0.92
23.5970,0.09,0.11,-0.99,3.60,-0.37,0.73
23.6120,0.09,0.11,-0.99,3.42,0.31,0.67
23.6210,0.09,0.11,-0.99,3.66,0.24,0.43
23.6380,0.09,0.11,-0.99,3.66,0.06,0.43
23.6550,0.09,0.11,-0.99,3.42,0.37,0.31
23.6720,0.09,0.11,-0.99,3.66,0.18,0.43
23.6870,0.09,0.11,-0.99,3.48,-0.06,0.49
23.7040,0.09,0.11,-0.99,3.85,-0.12,0.61
23.7130,0.10,0.11,-0.99,3.36,0.06,0.79
23.7360,0.07,0.11,-0.99,3.54,0.06,0.61
23.7510,0.07,0.11,-0.99,3.48,0.37,0.73
23.7670,0.11,0.10,-0.99,3.54,0.24,0.55
23.7830,0.07,0.11,-0.99,3.66,0.00,0.37
23.7880,0.07,0.12,-0.99,3.54,0.12,0.73
23.8130,0.08,0.11,-0.99,3.42,0.37,0.85
23.8270,0.08,0.11,-0.99,3.30,-0.12,0.85
23.8440,0.08,0.11,-0.99,3.42,-0.18,1.04
23.8600,0.08,0.11,-0.99,3.66,-0.24,1.16
23.8770,0.08,0.11,-0.99,3.60,-0.31,1.34
23.8950,0.08,0.11,-0.99,3.48,0.12,1.34
23.9100,0.09,0.11,-0.99,3.48,-0.18,1.22
23.9250,0.09,0.11,-0.99,3.60,-0.37,1.34
23.9420,0.09,0.11,-0.99,3.54,0.12,1.16
23.9570,0.09,0.11,-0.99,3.54,-0.12,1.04
23.9750,0.09,0.11,-0.99,3.48,0.18,0.92
23.9910,0.08,0.11,-0.99,3.48,0.24,1.04
24.0060,0.08,0.11,-0.99,3.54,0.12,0.73
24.0120,0.09,0.11,-0.99,3.60,-0.06,0.92
24.0250,0.09,0.11,-0.99,3.54,0.12,0.67
24.0480,0.08,0.11,-0.99,3.42,-0.18,0.79
24.0640,0.08,0.11,-0.99,3.54,-0.06,1.10
24.0810,0.08,0.11,-0.99,3.66,-0.43,1.22
24.0980,0.09,0.11,-0.99,3.60,-0.18,1.40
24.1140,0.08,0.11,-0.99,3.60,0.12,1.28
24.1300,0.09,0.11,-0.99,3.48,0.00,1.40
24.1460,0.11,0.11,-0.99,3.48,0.12,1.40
24.1620,0.14,0.12,-0.99,3.66,0.00,0.55
24.1780,0.06,0.12,-0.99,3.54,-15.44,0.79
24.1940,0.13,0.10,-0.99,3.42,-0.31,0.98
24.2100,0.05,0.11,-0.99,3.66,0.31,0.43
24.2270,0.10,0.11,-0.99,3.48,-0.06,1.10
24.2430,0.07,0.11,-0.99,3.48,0.18,0.79
24.2460,0.09,0.11,-0.99,3.48,-0.24,1.28
24.2620,0.07,0.11,-0.99,3.54,0.12,1.16
24.2860,0.08,0.11,-0.99,3.54,-0.24,1.10
24.3030,0.08,0.11,-0.99,3.54,0.49,1.40
24.3190,0.09,0.11,-0.99,3.60,0.12,1.53
24.3360,0.09,0.11,-0.99,3.42,0.06,1.46
24.3520,0.09,0.11,-0.99,3.42,-0.18,1.22
24.3680,0.08,0.11,-0.99,3.36,-0.06,1.34
24.3840,0.09,0.11,-0.99,3.36,-0.06,1.34
24.3860,0.09,0.11,-0.99,3.48,-0.12,1.22
24.4160,0.08,0.11,-0.99,3.48,-0.18,1.22
24.4330,0.09,0.11,-0.99,3.60,-0.12,1.10
24.4360,0.09,0.11,-0.99,3.60,-0.18,1.04
24.4520,0.08,0.11,-0.99,3.72,-0.18,0.73
24.4680,0.09,0.11,-0.99,3.54,0.18,0.61
24.4910,0.09,0.11,-0.99,3.66,0.31,0.55
24.5080,0.09,0.11,-0.99,3.78,-0.06,0.49
24.5240,0.08,0.11,-0.99,3.60,0.55,0.55
24.5400,0.08,0.11,-0.99,3.48,-0.06,0.37
24.5560,0.09,0.11,-0.99,3.42,-0.06,0.73
24.5710,0.09,0.11,-0.99,3.54,-0.18,0.73
24.5870,0.08,0.11,-0.99,3.66,0.00,0.31
24.5900,0.09,0.11,-0.99,3.66,0.18,0.06
24.6120,0.08,0.11,-0.99,3.54,0.12,-0.24
24.6330,0.09,0.11,-0.99,3.54,0.43,0.12
24.6450,0.08,0.11,-0.99,3.66,0.00,0.18
24.6610,0.10,0.11,-0.99,3.72,0.00,0.12
24.6780,0.09,0.11,-0.99,3.78,-0.06,0.12
24.6950,0.08,0.11,-0.99,3.54,0.06,0.98
24.7110,0.08,0.11,-0.99,3.48,0.18,1.10
24.7270,0.08,0.11,-0.99,3.48,-0.24,1.16
24.7290,0.08,0.11,-0.99,3.48,0.12,1.22
24.7590,0.08,0.11,-0.99,3.60,-0.06,1.22
24.7760,0.09,0.11,-0.99,3.48,0.12,1.28
24.7910,0.13,0.10,-0.98,3.54,-0.06,1.40
24.8060,0.12,0.11,-0.99,3.72,-0.24,0.73
24.8120,0.08,0.11,-0.99,3.66,0.06,0.92
24.8250,0.12,0.11,-0.99,3.60,-0.43,1.16
24.8470,0.06,0.11,-0.99,3.66,0.00,0.85
24.8630,0.08,0.11,-0.98,3.48,0.00,1.10
24.8810,0.11,0.10,-0.99,3.54,-0.31,1.16
24.8970,0.07,0.11,-0.99,3.54,-0.37,1.22
24.9130,0.08,0.11,-0.99,3.54,-0.18,1.34
24.9290,0.08,0.11,-0.99,3.54,-0.12,1.34
24.9460,0.10,0.11,-0.99,3.42,-0.24,1.34
24.9610,0.08,0.11,-0.99,3.66,0.06,1.46
24.9640,0.08,0.11,-0.99,3.48,0.06,1.34
24.9800,0.08,0.11,-0.99,3.42,0.18,1.40
24.9960,0.08,0.11,-0.99,3.72,0.00,1.46
25.0240,0.09,0.11,-0.99,3.54,-0.06,1.40
25.0350,0.08,0.11,-0.99,3.48,-0.06,1.34
25.0510,0.08,0.11,-0.99,3.54,-0.06,1.40
25.0690,0.08,0.11,-0.99,3.48,-0.18,1.34
25.0850,0.08,0.11,-0.99,3.60,0.00,1.40
25.1010,0.09,0.11,-0.99,3.60,0.12,1.46
25.1160,0.09,0.11,-0.99,3.54,-0.12,1.28
25.1320,0.08,0.11,-0.99,3.60,-0.06,1.34
25.1480,0.09,0.11,-0.99,3.54,-0.06,1.34
25.1640,0.08,0.11,-0.99,3.54,-0.12,1.34
25.1810,0.09,0.11,-0.99,3.60,-0.06,1.34
25.1960,0.08,0.11,-0.99,3.48,0.00,1.34
25.2120,0.08,0.11,-0.99,3.54,0.18,1.46
25.2280,0.08,0.11,-0.99,3.36,0.43,1.46
25.2440,0.08,0.11,-0.99,3.60,0.18,1.46
25.2590,0.09,0.11,-0.99,3.72,0.06,1.53
25.2750,0.08,0.11,-0.99,3.42,0.00,1.59
25.2900,0.09,0.11,-0.99,3.66,-0.12,1.53
25.3000,0.09,0.11,-0.99,3.60,-0.31,1.28
25.3160,0.08,0.11,-0.99,3.60,-0.37,1.34
25.3320,0.08,0.11,-0.99,3.60,-0.18,1.40
25.3510,0.09,0.11,-0.99,3.66,-0.31,1.34
25.3550,0.09,0.11,-0.99,3.60,0.31,1.34
25.3710,0.08,0.11,-0.99,3.54,0.31,1.40
25.3910,0.08,0.11,-0.99,3.54,-0.06,1.46
25.4110,0.08,0.11,-0.99,3.30,0.12,1.46
25.4240,0.09,0.11,-0.99,3.54,-0.43,1.34
25.4410,0.09,0.11,-0.99,3.48,-0.18,1.28
25.4570,0.09,0.11,-0.99,3.72,-0.06,1.10
25.4730,0.09,0.11,-0.99,3.54,0.06,0.98
25.4880,0.08,0.11,-0.99,3.54,-0.55,0.98
25.5030,0.08,0.11,-0.99,3.72,-0.12,1.16
25.5110,0.08,0.11,-0.99,3.72,-0.37,1.16
25.5230,0.09,0.11,-0.99,3.48,-0.12,1.10
25.5470,0.09,0.11,-0.99,3.60,0.00,0.98
25.5650,0.08,0.11,-0.99,3.48,0.12,0.98
25.5800,0.08,0.11,-0.99,3.54,0.00,0.79
25.5970,0.11,0.11,-0.99,3.48,-0.18,0.92
25.6130,0.08,0.12,-0.99,3.66,0.49,-0.37
25.6290,0.07,0.12,-0.99,3.54,0.06,0.24
25.6450,0.11,0.11,-0.99,3.42,0.24,-0.06
25.6600,0.07,0.11,-0.99,3.48,-0.24,-0.18
25.6750,0.11,0.11,-0.98,3.36,0.12,0.49
25.6800,0.06,0.11,-0.99,3.60,0.06,0.18
25.6950,0.08,0.11,-0.99,3.66,-0.18,0.79
25.7190,0.08,0.11,-0.99,3.60,0.12,0.98
25.7350,0.09,0.11,-0.99,3.54,-0.06,0.85
25.7500,0.08,0.11,-0.99,3.85,-0.43,0.85
25.7660,0.08,0.11,-0.99,3.42,-0.31,0.85
25.7810,0.08,0.11,-0.99,3.48,0.06,1.10
25.7840,0.08,0.11,-0.99,3.66,-0.12,1.16
25.8100,0.08,0.11,-0.99,3.66,-0.24,1.28
25.8230,0.08,0.11,-0.99,3.54,-0.06,1.28
25.8400,0.09,0.11,-0.99,3.66,-0.18,1.16
25.8570,0.08,0.11,-0.99,3.48,0.24,1.16
25.8720,0.09,0.11,-0.99,3.60,-0.06,1.22
25.8720,0.08,0.11,-0.99,3.42,-0.18,1.22
25.8940,0.09,0.11,-0.99,3.48,-0.24,1.10
25.9110,0.09,0.11,-0.99,3.54,-0.06,1.16
25.9270,0.09,0.11,-0.99,3.42,-0.06,1.16
25.9470,0.09,0.11,-0.99,3.66,-0.31,0.98
25.9640,0.09,0.11,-0.99,3.72,-0.12,0.67
25.9800,0.09,0.11,-0.99,3.48,0.37,0.49
25.9970,0.08,0.11,-0.99,3.60,0.43,0.49
26.0120,0.09,0.11,-0.99,3.66,0.24,0.55
26.0140,0.09,0.11,-0.99,3.66,0.37,0.31
26.0440,0.08,0.11,-0.99,3.54,0.12,0.31
26.0470,0.08,0.11,-0.99,3.36,0.12,0.43
26.0750,0.08,0.11,-0.99,3.66,0.06,0.67
26.0910,0.09,0.11,-0.99,3.66,-0.18,0.85
26.1070,0.08,0.11,-0.99,3.66,-0.18,1.04
26.1130,0.08,0.11,-0.99,3.78,-0.18,1.10
26.1370,0.08,0.11,-0.99,3.36,-0.31,0.98
26.1460,0.08,0.11,-0.99,3.60,0.06,1.40
26.1620,0.08,0.11,-0.99,3.66,-0.37,1.34
26.1820,0.08,0.11,-0.99,3.42,0.24,1.46
26.1850,0.08,0.11,-0.99,3.54,-0.06,1.34
26.2100,0.09,0.11,-0.99,3.48,-0.12,1.40
26.2270,0.09,0.11,-0.99,3.48,-0.12,1.53
26.2420,0.09,0.11,-0.99,3.42,-0.18,1.34
26.2530,0.08,0.11,-0.99,3.48,-0.31,1.34
26.2700,0.09,0.11,-0.99,3.48,0.00,1.34
26.2880,0.09,0.11,-0.99,3.48,0.00,1.34
26.3030,0.09,0.11,-0.99,3.54,-0.12,1.22
26.3200,0.08,0.11,-0.99,3.48,-0.12,1.10
26.3360,0.08,0.11,-0.99,3.48,0.00,1.22
26.3520,0.08,0.11,-0.99,3.42,0.06,1.28
26.3670,0.10,0.11,-0.99,3.30,0.00,1.28
26.3820,0.13,0.10,-0.99,3.54,-0.12,1.04
26.3870,0.08,0.11,-0.99,3.48,0.43,0.12
26.4100,0.08,0.11,-0.99,3.48,0.31,0.55
26.4240,0.08,0.11,-0.99,3.66,0.06,0.31
26.4410,0.07,0.11,-0.99,3.66,0.00,0.18
26.4570,0.11,0.11,-0.99,3.48,-0.06,0.31
26.4740,0.07,0.11,-0.99,3.54,-0.24,0.06
26.4750,0.09,0.11,-0.99,3.48,-0.18,0.18
26.5060,0.09,0.11,-0.99,3.66,0.00,0.24
26.5210,0.07,0.11,-0.99,3.66,0.06,0.12
26.5370,0.08,0.11,-0.99,3.60,0.43,0.67
26.5530,0.07,0.11,-0.99,3.54,0.24,0.61
26.5680,0.08,0.11,-0.99,3.36,0.00,0.85
26.5840,0.08,0.11,-0.99,3.30,-0.12,0.98
26.5910,0.09,0.11,-0.99,3.42,-0.31,1.04
26.6090,0.08,0.11,-0.99,3.42,-0.18,0.85
26.6290,0.08,0.11,-0.99,3.42,0.31,1.04
26.6450,0.08,0.11,-0.99,3.54,0.37,1.04
26.6600,0.08,0.11,-0.99,3.60,0.00,1.10
26.6760,0.08,0.11,-0.99,3.48,0.12,1.10
26.6910,0.09,0.11,-0.99,3.42,0.37,0.98
26.7060,0.08,0.11,-0.99,3.72,-0.18,0.92
26.7140,0.08,0.11,-0.99,3.48,0.00,0.98
26.7300,0.08,0.11,-0.99,3.48,0.12,1.04
26.7520,0.08,0.11,-0.99,3.42,0.18,1.22
26.7680,0.08,0.11,-0.99,3.66,0.31,1.34
26.7840,0.09,0.11,-0.99,3.54,0.24,1.34
26.7860,0.08,0.11,-0.99,3.42,0.00,1.16
26.8150,0.09,0.11,-0.99,3.60,-0.12,1.22
26.8300,0.08,0.11,-0.99,3.36,0.06,1.16
26.8460,0.08,0.11,-0.99,3.48,0.12,1.34
26.8620,0.09,0.11,-0.99,3.54,0.24,1.46
26.8680,0.09,0.11,-0.99,3.66,-0.06,1.34
26.8830,0.09,0.11,-0.99,3.42,-0.24,1.28
26.9070,0.09,0.11,-0.99,3.42,-0.24,0.92
26.9230,0.08,0.11,-0.99,3.48,0.12,0.92
26.9380,0.08,0.11,-0.99,3.60,-0.12,0.98
26.9560,0.09,0.11,-0.99,3.60,-0.24,0.85
26.9720,0.09,0.11,-0.99,3.54,0.55,0.24
26.9880,0.08,0.11,-0.99,3.60,0.00,-0.18
27.0030,0.08,0.11,-0.99,3.48,0.31,-0.55
27.0180,0.08,0.11,-0.99,3.60,0.12,-0.37
27.0240,0.08,0.11,-0.99,3.54,0.49,0.24
27.0400,0.07,0.11,-0.99,3.42,0.24,0.24
27.0630,0.08,0.11,-0.99,3.54,0.24,0.73
27.0780,0.08,0.11,-0.99,3.42,0.24,0.73
27.0940,0.08,0.11,-0.99,3.36,0.37,0.55
27.1070,0.08,0.11,-0.99,3.48,-0.18,0.73
27.1120,0.08,0.11,-0.99,3.42,-0.12,0.85
27.1370,0.09,0.11,-0.99,3.78,0.06,0.85
27.1530,0.09,0.11,-0.99,3.60,0.06,0.92
27.1700,0.10,0.12,-0.99,3.66,0.31,-0.06
27.1860,0.09,0.11,-0.99,3.54,0.24,-0.06
27.2020,0.08,0.11,-0.99,3.60,0.31,-0.24
27.2180,0.07,0.11,-0.99,3.48,-0.12,0.43
27.2350,0.08,0.11,-0.99,3.48,0.31,1.34
27.2500,0.08,0.11,-0.99,3.42,0.12,1.53
27.2530,0.08,0.11,-0.99,3.54,0.00,1.40
27.2680,0.08,0.11,-0.99,3.48,-0.06,1.46
27.2910,0.09,0.11,-0.99,3.54,-0.06,1.59
27.3080,0.08,0.11,-0.99,3.42,0.12,1.34
27.3240,0.08,0.11,-0.99,3.66,-0.12,1.28
27.3430,0.08,0.11,-0.99,3.30,0.49,1.53
27.3570,0.08,0.11,-0.99,3.54,-0.31,1.59
27.3740,0.08,0.11,-0.99,3.42,0.00,1.40
27.3900,0.08,0.11,-0.99,3.48,-0.18,1.34
27.4060,0.08,0.11,-0.99,3.60,-0.18,1.46
27.4220,0.08,0.11,-0.99,3.48,-0.18,1.53
27.4370,0.08,0.11,-0.99,3.42,-0.06,1.53
27.4520,0.08,0.11,-0.99,3.36,0.00,1.53
27.4680,0.08,0.11,-0.99,3.54,0.00,1.53
27.4850,0.08,0.11,-0.99,3.54,-0.49,1.46
27.5000,0.08,0.11,-0.99,3.48,-0.06,1.53
27.5150,0.08,0.11,-0.99,3.60,-0.12,1.46
27.5260,0.08,0.11,-0.99,3.42,0.00,1.46
27.5420,0.08,0.11,-0.99,3.66,0.00,1.59
27.5610,0.08,0.11,-0.99,3.48,0.24,1.59
27.5650,0.08,0.11,-0.99,3.42,-0.43,1.46
27.5810,0.08,0.11,-0.99,3.42,0.12,1.53
27.6050,0.08,0.11,-0.99,3.54,0.31,1.53
27.6160,0.08,0.11,-0.99,3.48,-0.31,1.59
27.6330,0.08,0.11,-0.99,3.42,-0.43,1.46
27.6500,0.08,0.11,-0.99,3.54,-0.06,1.46
27.6670,0.09,0.11,-0.99,3.48,-0.12,1.65
27.6830,0.08,0.11,-0.99,3.36,-0.24,1.40
27.6990,0.08,0.11,-0.99,3.30,0.18,1.59
27.7150,0.08,0.11,-0.99,3.17,0.06,1.46
27.7310,0.09,0.11,-0.99,3.30,0.24,1.46
27.7330,0.08,0.11,-0.99,3.23,0.18,1.46
27.7490,0.08,0.11,-0.99,3.48,0.06,1.46
27.7690,0.08,0.11,-0.99,3.48,0.00,1.59
27.7870,0.08,0.11,-0.99,3.36,0.12,1.40
27.8030,0.08,0.11,-0.99,3.36,0.18,1.53
27.8190,0.08,0.11,-0.99,3.42,0.55,1.65
27.8370,0.08,0.11,-0.99,3.42,0.00,1.53
27.8520,0.08,0.11,-0.99,3.36,0.24,1.65
27.8680,0.08,0.11,-0.99,3.42,-0.12,1.53
27.8700,0.08,0.11,-0.99,3.42,-0.24,1.53
27.8850,0.09,0.11,-0.99,3.23,0.06,1.59
27.9060,0.08,0.11,-0.99,3.66,-0.37,1.59
27.9180,0.08,0.11,-0.99,3.48,-0.06,1.40
27.9350,0.08,0.11,-0.99,3.42,0.00,1.22
27.9520,0.09,0.11,-0.99,3.36,0.18,1.46
27.9670,0.08,0.11,-0.99,3.48,-0.31,1.65
27.9870,0.08,0.11,-0.99,3.60,0.06,1.46
28.0060,0.08,0.11,-0.99,3.54,-0.43,1.40
28.0200,0.08,0.11,-0.99,3.42,0.31,1.53
28.0380,0.08,0.11,-0.99,3.48,-0.24,1.34
28.0530,0.08,0.11,-0.99,3.42,-0.12,1.40
28.0700,0.08,0.11,-0.99,3.60,-0.37,1.59
28.0860,0.08,0.11,-0.99,3.66,-0.12,1.40
28.1020,0.08,0.11,-0.99,3.60,0.00,1.46
28.1180,0.08,0.11,-0.99,3.54,0.06,1.53
28.1340,0.08,0.11,-0.99,3.48,0.12,1.53
28.1500,0.08,0.11,-0.99,3.42,0.37,1.59
28.1660,0.08,0.11,-0.99,3.60,-0.24,1.46
28.1820,0.08,0.11,-0.99,3.54,0.00,1.28
28.1870,0.08,0.11,-0.99,3.48,0.18,0.67
28.2060,0.08,0.11,-0.99,3.66,-0.18,1.16
28.2260,0.09,0.11,-0.99,3.48,0.18,1.10
28.2410,0.09,0.11,-0.99,3.66,0.06,0.92
28.2430,0.09,0.11,-0.99,3.66,0.43,0.61
28.2730,0.08,0.12,-0.99,3.66,0.55,-2.20
28.2880,0.08,0.11,-0.99,3.72,0.92,-1.04
28.3050,0.09,0.10,-0.99,3.54,0.31,2.08
28.3210,0.08,0.12,-0.98,3.23,-0.18,2.32
28.3360,0.09,0.11,-0.99,3.36,-0.31,1.10
28.3510,0.08,0.11,-0.99,3.42,-0.12,0.92
28.3670,0.08,0.11,-0.99,3.48,0.18,1.16
28.3820,0.08,0.11,-0.99,3.42,-0.06,1.46
28.3960,0.08,0.11,-0.99,3.36,0.06,1.46
28.4080,0.08,0.11,-0.99,3.54,0.43,1.53
28.4250,0.08,0.11,-0.99,3.48,0.49,1.40
28.4410,0.08,0.11,-0.99,3.54,0.06,1.22
28.4560,0.08,0.11,-0.99,3.42,0.79,1.28
28.4720,0.08,0.11,-0.99,3.54,0.43,0.92
28.4880,0.09,0.11,-0.99,3.66,0.24,0.37
28.5040,0.09,0.11,-0.99,3.66,0.18,-0.18
28.5080,0.09,0.11,-0.99,3.60,0.00,-0.06
28.5230,0.08,0.11,-0.99,3.60,0.18,0.12
28.5490,0.08,0.11,-0.99,3.85,0.06,0.18
28.5640,0.08,0.11,-0.99,3.54,0.18,0.18
28.5810,0.08,0.11,-0.99,3.54,0.12,-0.18
28.5980,0.08,0.11,-0.99,3.78,0.31,-0.18
28.6140,0.08,0.11,-0.99,3.54,0.06,0.37
28.6290,0.08,0.11,-0.99,3.54,0.12,-0.12
28.6440,0.08,0.11,-0.99,3.48,-0.12,-0.18
28.6480,0.08,0.11,-0.99,3.48,0.49,-0.24
28.6640,0.08,0.11,-0.99,3.54,0.31,-0.43
28.6880,0.09,0.11,-0.99,3.42,0.31,-0.06
28.7050,0.08,0.11,-0.99,3.72,0.00,-0.24
28.7210,0.09,0.11,-0.99,3.60,0.18,-0.06
28.7370,0.08,0.11,-0.99,3.60,0.31,0.18
28.7520,0.09,0.11,-0.99,3.54,0.06,0.31
28.7680,0.08,0.11,-0.99,3.60,-0.24,0.18
28.7840,0.09,0.11,-0.99,3.48,0.00,-0.18
28.8000,0.08,0.11,-0.99,3.66,0.00,-0.18
28.8150,0.08,0.11,-0.99,3.48,0.37,0.06
28.8310,0.08,0.11,-0.99,3.72,0.49,0.92
28.8460,0.08,0.11,-0.99,3.60,0.00,0.85
28.8540,0.08,0.11,-0.99,3.60,0.24,1.10
28.8700,0.08,0.11,-0.99,3.54,-0.06,0.73
28.8930,0.08,0.11,-0.99,3.54,-0.37,0.49
28.9100,0.08,0.11,-0.99,3.60,-0.43,1.16
28.9260,0.08,0.12,-0.99,3.72,0.00,0.98
28.9410,0.08,0.11,-0.99,3.36,-0.24,1.28
28.9560,0.08,0.11,-0.99,3.42,-0.37,1.40
28.9720,0.08,0.11,-0.99,3.42,-0.24,1.40
28.9870,0.08,0.11,-0.99,3.36,-0.49,1.16
29.0010,0.08,0.11,-0.99,3.48,0.31,1.10
29.0110,0.08,0.11,-0.99,3.54,0.18,0.98
29.0260,0.08,0.11,-0.99,3.66,-0.31,0.98
29.0480,0.08,0.11,-0.99,3.66,0.12,1.10
29.0620,0.08,0.11,-0.99,3.54,-0.18,0.98
29.0670,0.08,0.11,-0.99,3.48,-0.24,0.85
29.0820,0.08,0.11,-0.99,3.60,-0.06,0.49
29.1030,0.08,0.11,-0.99,3.60,-0.12,0.92
29.1200,0.08,0.11,-0.99,3.60,-0.37,1.04
29.1370,0.08,0.11,-0.99,3.66,-0.12,1.34
29.1530,0.08,0.11,-0.99,3.48,-0.37,1.22
29.1690,0.08,0.11,-0.99,3.48,-0.18,0.85
29.1860,0.08,0.11,-0.99,3.60,-0.06,1.34
29.2010,0.08,0.11,-0.99,3.36,-0.31,1.40
29.2170,0.08,0.11,-0.99,3.42,-0.06,1.34
29.2330,0.08,0.11,-0.99,3.60,-0.12,1.16
29.2510,0.08,0.11,-0.99,3.60,-0.24,1.28
29.2540,0.08,0.11,-0.99,3.48,-0.12,1.22
29.2700,0.08,0.11,-0.99,3.60,0.18,1.16
29.2960,0.08,0.11,-0.99,3.66,-0.24,0.85
29.3080,0.08,0.11,-0.99,3.66,-0.12,0.67
29.3250,0.08,0.11,-0.99,3.66,0.31,0.92
29.3420,0.08,0.11,-0.99,3.54,0.24,0.73
29.3580,0.08,0.11,-0.99,3.60,-0.06,0.67
29.3730,0.07,0.08,-0.99,3.36,0.24,0.24
29.3900,0.09,0.12,-0.99,3.72,0.12,-1.89
29.4050,0.09,0.11,-0.99,3.72,0.12,-1.22
29.4200,0.09,0.12,-0.99,3.66,0.85,-0.61
29.4240,0.09,0.12,-0.99,3.60,0.12,-0.43
29.4400,0.09,0.12,-0.99,3.48,-0.18,0.85
29.4630,0.09,0.11,-0.99,3.30,-15.44,0.98
29.4810,0.08,0.11,-0.99,3.48,0.18,0.98
29.4950,0.08,0.11,-0.99,3.48,0.00,1.16
29.5110,0.08,0.11,-0.99,3.60,-0.31,0.98
29.5270,0.08,0.11,-0.99,3.42,0.12,0.85
29.5450,0.08,0.11,-0.99,3.42,0.18,1.10
29.5600,0.08,0.11,-0.99,3.36,0.31,1.22
29.5740,0.08,0.11,-0.99,3.54,0.12,1.28
29.5830,0.08,0.11,-0.99,3.48,-0.06,1.28
29.6020,0.08,0.11,-0.99,3.36,0.55,1.16
29.6190,0.08,0.11,-0.99,3.60,0.00,0.73
29.6230,0.08,0.11,-0.99,3.60,0.31,0.98
29.6490,0.08,0.11,-0.99,3.54,0.37,0.73
29.6560,0.08,0.11,-0.99,3.78,-0.31,0.24
29.6790,0.08,0.11,-0.99,3.66,0.18,0.00
29.6890,0.08,0.11,-0.99,3.72,0.24,-0.24
29.7060,0.08,0.11,-0.99,3.48,0.55,-0.12
29.7230,0.08,0.11,-0.99,3.36,0.73,-0.12
29.7390,0.09,0.11,-0.99,3.72,0.06,-0.37
29.7560,0.08,0.12,-0.99,3.60,0.18,-0.73
29.7720,0.08,0.11,-0.99,3.48,0.49,-0.06
29.7880,0.09,0.12,-0.99,3.60,0.24,-0.37
29.8030,0.08,0.11,-0.99,3.48,0.06,0.18
29.8190,0.08,0.11,-0.99,3.48,0.37,0.49
29.8340,0.08,0.11,-0.99,3.72,0.00,0.67
29.8500,0.08,0.11,-0.99,3.66,0.55,0.79
29.8660,0.08,0.11,-0.99,3.54,0.24,0.85
29.8820,0.08,0.11,-0.99,3.54,-0.06,0.79
29.8970,0.08,0.11,-0.99,3.54,0.06,0.43
29.9120,0.09,0.11,-0.99,3.60,0.18,0.61
29.9270,0.08,0.11,-0.99,3.54,0.18,0.49
29.9390,0.08,0.11,-0.99,3.66,0.18,0.61
29.9550,0.08,0.11,-0.99,3.60,0.37,0.12
29.9720,0.08,0.11,-0.99,3.54,0.24,-0.12
29.9880,0.08,0.11,-0.99,3.54,0.43,-0.55
30.0040,0.08,0.10,-0.99,3.78,0.79,-1.34
30.0190,0.09,0.11,-0.99,3.85,0.43,-1.53
30.0340,0.09,0.11,-0.99,3.66,0.31,-0.43
30.0380,0.08,0.11,-0.99,3.66,0.31,-0.49
30.0540,0.08,0.11,-0.99,3.66,0.37,-0.43
30.0770,0.08,0.10,-0.99,3.72,0.49,-0.67
30.0940,0.08,0.10,-0.99,3.85,0.49,-0.98
30.1110,0.08,0.11,-0.99,3.78,0.49,-1.89
30.1120,0.09,0.12,-0.99,3.85,0.31,-1.83
30.1270,0.08,0.11,-0.99,3.72,0.98,-1.04
30.1440,0.08,0.11,-0.99,3.60,0.92,-0.79
30.1610,0.08,0.12,-0.99,3.60,0.43,-0.43
30.1770,0.08,0.11,-0.99,3.60,0.00,0.12
30.1990,0.08,0.11,-0.99,3.54,0.18,0.31
30.2100,0.08,0.11,-0.99,3.42,0.31,0.24
30.2270,0.08,0.11,-0.99,3.72,0.37,0.49
30.2440,0.08,0.11,-0.99,3.54,-0.12,0.61
30.2600,0.08,0.11,-0.99,3.42,0.61,0.67
30.2800,0.08,0.11,-0.99,3.60,0.49,0.73
30.2810,0.09,0.11,-0.99,3.60,0.37,0.55
30.3120,0.08,0.11,-0.99,3.42,0.24,0.18
30.3140,0.08,0.11,-0.99,3.66,0.49,0.37
30.3440,0.08,0.11,-0.99,3.60,0.24,0.18
30.3460,0.08,0.11,-0.99,3.54,0.24,0.37
30.3760,0.09,0.11,-0.99,3.42,0.55,0.49
30.3920,0.08,0.11,-0.99,3.48,0.12,0.98
30.3990,0.08,0.11,-0.99,3.54,0.12,0.92
30.4120,0.08,0.11,-0.99,3.60,-0.06,0.85
30.4340,0.08,0.11,-0.99,3.60,0.06,0.61
30.4510,0.08,0.11,-0.99,3.60,0.00,0.37
30.4670,0.08,0.11,-0.99,3.72,-0.06,0.49
30.4840,0.08,0.11,-0.99,3.54,0.43,0.37
30.4990,0.08,0.11,-0.99,3.78,0.37,0.37
30.5160,0.08,0.11,-0.99,3.60,0.18,0.43
30.5320,0.08,0.11,-0.99,3.54,0.31,0.55
30.5480,0.08,0.11,-0.99,3.78,-0.18,0.73
30.5640,0.08,0.11,-0.99,3.60,0.18,0.85
30.5670,0.08,0.11,-0.99,3.60,-0.06,0.73
30.5950,0.08,0.11,-0.99,3.66,-0.31,0.37
30.6050,0.08,0.11,-0.99,3.66,0.18,-0.24
30.6220,0.08,0.11,-0.99,3.78,0.43,-0.24
30.6380,0.08,0.11,-0.99,3.66,0.18,-0.18
30.6560,0.08,0.11,-0.99,3.72,-0.06,0.12
30.6710,0.08,0.11,-0.99,3.48,0.43,0.12
30.6870,0.08,0.11,-0.99,3.66,0.24,0.18
30.7040,0.08,0.11,-0.99,3.60,0.31,0.06
30.7200,0.08,0.11,-0.99,3.48,0.31,0.31
30.7360,0.08,0.11,-0.99,3.54,0.12,0.18
30.7530,0.08,0.11,-0.99,3.78,-0.06,0.00
30.7690,0.08,0.11,-0.99,3.60,0.61,0.31
30.7840,0.08,0.11,-0.99,3.60,0.31,-0.24
30.7980,0.08,0.11,-0.99,3.54,0.31,0.06
30.8050,0.08,0.12,-0.99,3.66,0.31,0.31
30.8280,0.08,0.12,-0.99,3.60,0.31,0.67
30.8430,0.08,0.11,-0.99,3.60,-0.06,1.28
30.8540,0.08,0.11,-0.99,3.54,0.06,1.53
30.8700,0.08,0.11,-0.99,3.48,0.00,1.71
30.8870,0.08,0.11,-0.99,3.48,0.24,1.59
30.9050,0.08,0.11,-0.99,3.48,-0.06,1.53
30.9200,0.08,0.11,-0.99,3.54,-0.06,1.34
30.9360,0.08,0.11,-0.99,3.48,0.12,1.22
30.9520,0.08,0.11,-0.99,3.54,-0.06,0.79
30.9680,0.08,0.11,-0.99,3.66,0.18,0.49
30.9840,0.08,0.11,-0.99,3.42,0.06,0.49
30.9990,0.08,0.11,-0.99,3.60,0.12,0.55
31.0140,0.08,0.11,-0.99,3.72,0.06,0.06
31.0190,0.08,0.11,-0.99,3.60,0.31,-0.49
31.0360,0.08,0.11,-0.99,3.72,0.24,-0.85
31.0570,0.08,0.11,-0.99,3.72,0.00,-1.34
31.0740,0.08,0.11,-0.99,3.78,0.49,-1.04
31.0900,0.08,0.11,-0.99,3.72,0.43,-0.67
31.1060,0.08,0.11,-0.99,3.48,0.43,-0.18
31.1230,0.08,0.10,-0.99,3.66,0.24,0.00
31.1390,0.08,0.11,-0.99,3.78,0.24,-1.04
31.1410,0.08,0.10,-0.99,3.72,0.55,-1.71
31.1570,0.08,0.11,-0.99,3.85,0.49,-2.14
31.1730,0.08,0.12,-0.99,3.78,0.67,-1.77
31.1970,0.09,0.11,-0.99,3.66,0.31,-0.98
31.2060,0.08,0.12,-0.99,3.78,0.43,-0.61
31.2230,0.08,0.12,-0.99,3.60,0.24,0.18
31.2400,0.08,0.11,-0.99,3.54,0.18,0.49
31.2560,0.08,0.11,-0.99,3.42,0.06,0.61
31.2720,0.08,0.11,-0.99,3.30,0.24,0.73
31.2930,0.08,0.11,-0.99,3.42,0.31,0.73
31.3090,0.08,0.11,-0.99,3.66,-0.12,0.49
31.3240,0.08,0.11,-0.99,3.78,0.12,0.67
31.3410,0.08,0.11,-0.99,3.60,0.06,0.43
31.3560,0.08,0.11,-0.99,3.72,0.06,0.49
31.3710,0.08,0.11,-0.99,3.66,0.00,0.43
31.3870,0.08,0.11,-0.99,3.66,0.12,0.61
31.4030,0.08,0.11,-0.99,3.36,0.18,0.98
31.4180,0.08,0.11,-0.99,3.60,0.12,1.22
31.4340,0.08,0.11,-0.99,3.48,-0.31,1.46
31.4420,0.08,0.11,-0.99,3.54,-0.37,1.46
31.4640,0.08,0.11,-0.99,3.48,-0.31,1.16
31.4750,0.08,0.11,-0.99,3.36,-0.18,1.22
31.4920,0.08,0.11,-0.99,3.42,0.43,0.61
31.5080,0.08,0.10,-0.99,3.85,0.43,0.31
31.5260,0.08,0.10,-0.99,3.66,0.18,-0.18
31.5260,0.09,0.11,-0.99,3.60,0.49,-0.37
31.5550,0.08,0.11,-0.99,3.72,0.55,-0.73
31.5600,0.08,0.12,-0.99,3.66,0.12,-0.43
31.5750,0.08,0.12,-0.99,3.66,0.18,0.37
31.5960,0.08,0.11,-0.99,3.72,-0.06,1.10
31.6150,0.08,0.11,-0.99,3.42,-0.06,1.46
31.6300,0.08,0.11,-0.99,3.54,0.00,1.28
31.6410,0.08,0.11,-0.99,3.48,-0.06,1.22
31.6570,0.08,0.10,-0.99,3.60,0.37,0.31
31.6760,0.08,0.11,-0.99,3.66,0.55,0.12
31.6910,0.08,0.11,-0.99,3.91,0.06,0.24
31.7070,0.08,0.11,-0.99,3.60,0.24,0.55
31.7140,0.08,0.11,-0.99,3.66,-0.43,0.43
31.7300,0.08,0.11,-0.99,3.66,-0.24,0.61
31.7500,0.08,0.10,-0.99,3.60,0.12,0.61
31.7680,0.08,0.11,-0.99,3.66,-0.18,0.18
31.7840,0.08,0.11,-0.99,3.85,0.00,-0.43
31.8000,0.08,0.11,-0.99,3.66,0.79,0.31
31.8170,0.08,0.11,-0.99,3.66,0.06,0.24
31.8330,0.08,0.11,-0.99,3.66,0.37,0.37
31.8480,0.08,0.11,-0.99,3.72,-0.06,0.18
31.8630,0.08,0.11,-0.99,3.48,-0.37,-0.12
31.8770,0.08,0.11,-0.99,3.85,-0.06,-0.06
31.8920,0.08,0.11,-0.99,3.66,0.12,-0.12
31.9070,0.08,0.11,-0.99,3.48,0.18,-0.12
31.9170,0.08,0.12,-0.99,3.60,0.00,0.00
31.9340,0.08,0.11,-0.99,3.30,0.18,0.49
31.9500,0.08,0.11,-0.99,3.54,0.24,0.79
31.9670,0.08,0.11,-0.99,3.60,0.24,0.98
31.9830,0.08,0.11,-0.99,3.66,0.31,0.73
31.9990,0.08,0.11,-0.99,3.72,-0.06,0.18
32.0160,0.08,0.11,-0.99,3.66,0.06,0.43
32.0330,0.08,0.11,-0.99,3.72,0.12,0.85
32.0490,0.08,0.11,-0.99,3.60,0.24,0.61
32.0660,0.08,0.11,-0.99,3.48,0.18,0.55
32.0670,0.08,0.11,-0.99,3.60,0.18,0.73
32.0990,0.08,0.11,-0.99,3.66,-0.31,0.67
32.1140,0.08,0.11,-0.99,3.72,-0.49,0.18
32.1300,0.08,0.11,-0.99,3.78,-0.06,0.31
32.1460,0.08,0.11,-0.99,3.54,0.24,0.37
32.1600,0.08,0.11,-0.99,3.66,0.06,0.24
32.1760,0.08,0.11,-0.99,3.78,-0.24,0.18
32.1920,0.08,0.11,-0.99,3.54,15.56,0.55
32.2070,0.08,0.11,-0.99,3.42,0.18,1.10
32.2160,0.08,0.10,-0.99,3.36,0.12,0.73
32.2310,0.08,0.11,-0.99,3.60,0.06,0.67
32.2520,0.08,0.10,-0.99,3.42,0.00,0.18
32.2570,0.08,0.11,-0.99,3.78,0.18,0.24
32.2720,0.08,0.10,-0.99,3.72,0.18,0.06
32.2950,0.08,0.11,-0.99,3.72,0.43,-0.49
32.3090,0.08,0.11,-0.99,3.66,0.18,-0.61
32.3250,0.08,0.11,-0.99,3.60,0.61,-0.61
32.3420,0.08,0.11,-0.99,3.60,0.61,-0.61
32.3570,0.08,0.12,-0.99,3.54,0.18,0.06
32.3730,0.08,0.11,-0.99,3.66,0.24,0.31
32.3880,0.08,0.11,-0.99,3.60,0.24,0.85
32.4030,0.08,0.11,-0.99,3.60,0.18,0.67
32.4190,0.08,0.11,-0.99,3.60,0.24,0.55
32.4340,0.08,0.11,-0.99,3.66,0.37,0.37
32.4480,0.08,0.11,-0.99,3.66,0.24,0.18
32.4580,0.08,0.11,-0.99,3.54,0.18,0.79
32.4750,0.08,0.11,-0.99,3.48,0.06,1.10
32.4910,0.08,0.11,-0.99,3.48,-0.06,1.40
32.5070,0.08,0.11,-0.99,3.48,0.00,1.28
32.5230,0.08,0.11,-0.99,3.54,-0.18,1.16
32.5320,0.08,0.11,-0.99,3.48,0.18,1.53
32.5490,0.08,0.11,-0.99,3.54,0.37,1.71
32.5650,0.08,0.11,-0.99,3.54,0.06,1.46
32.5840,0.08,0.11,-0.99,3.60,-0.18,1.53
32.5950,0.08,0.11,-0.99,3.54,0.06,1.46
32.6150,0.08,0.11,-0.99,3.42,-0.06,1.46
32.6200,0.08,0.11,-0.99,3.54,-0.24,1.53
32.6360,0.08,0.10,-0.99,3.66,0.00,0.85
32.6590,0.08,0.10,-0.99,3.66,0.31,0.12
32.6760,0.08,0.11,-0.99,3.54,0.49,0.37
32.6930,0.08,0.11,-0.99,3.60,0.31,-0.12
32.7070,0.08,0.11,-0.99,3.60,0.31,-0.18
32.7230,0.08,0.11,-0.99,3.78,0.06,0.06
32.7270,0.08,0.11,-0.99,3.48,0.12,-0.37
32.7430,0.08,0.11,-0.99,3.48,0.49,-0.67
32.7670,0.08,0.11,-0.99,3.60,0.37,-0.18
32.7840,0.08,0.11,-0.99,3.54,0.49,-0.18
32.8010,0.08,0.11,-0.99,3.60,0.12,-0.55
32.8180,0.08,0.11,-0.99,3.48,0.55,0.18
32.8330,0.08,0.11,-0.99,3.48,0.24,0.61
32.8340,0.08,0.11,-0.99,3.54,0.18,1.04
32.8510,0.08,0.11,-0.99,3.54,0.12,0.98
32.8670,0.08,0.11,-0.99,3.54,-0.12,0.79
32.8950,0.08,0.10,-0.99,3.42,0.61,0.92
32.9000,0.08,0.10,-0.99,3.60,0.31,0.37
32.9170,0.08,0.11,-0.99,3.36,0.24,0.18
32.9330,0.08,0.11,-0.99,3.66,0.43,-0.06
32.9510,0.08,0.11,-0.99,3.48,0.12,0.06
32.9660,0.08,0.11,-0.99,3.42,-0.31,0.55
32.9820,0.08,0.11,-0.99,3.60,0.00,0.31
33.0020,0.08,0.11,-0.99,3.60,0.18,-0.18
33.0180,0.08,0.10,-0.99,3.66,0.49,-0.31
33.0350,0.08,0.11,-0.99,3.66,0.31,-0.92
33.0520,0.08,0.11,-0.99,3.66,0.37,-1.10
33.0680,0.08,0.11,-0.99,3.85,0.61,-0.67
33.0840,0.08,0.12,-0.99,3.78,0.12,-0.31
33.0940,0.08,0.12,-0.99,3.66,-0.06,0.00
33.1160,0.08,0.11,-0.99,3.54,0.06,0.24
33.1330,0.08,0.11,-0.99,3.78,0.24,0.18
33.1490,0.08,0.11,-0.99,3.66,0.24,0.12
33.1520,0.08,0.11,-0.99,3.78,0.00,-0.06
33.1670,0.08,0.11,-0.99,3.66,-0.12,0.12
33.1950,0.08,0.11,-0.99,3.85,-0.06,-0.06
33.2080,0.08,0.11,-0.99,3.60,-0.06,-0.49
33.2230,0.08,0.11,-0.99,3.60,0.31,-0.85
33.2400,0.08,0.11,-0.99,3.42,0.31,-0.18
33.2550,0.08,0.11,-0.99,3.60,0.18,0.00
33.2710,0.08,0.11,-0.99,3.66,-0.31,0.31
33.2870,0.08,0.10,-0.99,3.72,0.31,0.24
33.2940,0.08,0.10,-0.99,3.60,0.61,-1.04
33.3050,0.08,0.11,-0.99,3.91,0.43,-1.28
33.3270,0.08,0.11,-0.99,3.54,0.49,-0.79
33.3440,0.08,0.12,-0.99,3.48,0.24,-0.55
33.3610,0.08,0.11,-0.99,3.72,0.18,0.55
33.3780,0.08,0.11,-0.99,3.60,0.00,0.61
33.3940,0.08,0.10,-0.99,3.54,0.31,0.24
33.4100,0.08,0.10,-0.99,3.66,0.06,-0.18
33.4120,0.08,0.10,-0.99,3.78,0.92,-1.16
33.4400,0.08,0.10,-0.99,3.78,0.79,-1.46
33.4450,0.08,0.11,-0.99,3.72,0.55,-1.46
33.4610,0.08,0.12,-0.99,3.66,0.49,-0.55
33.4850,0.08,0.12,-0.99,3.60,-0.06,-0.12
33.5010,0.08,0.11,-0.99,3.72,0.00,0.67
33.5030,0.08,0.11,-0.99,3.42,0.12,0.92
33.5330,0.08,0.11,-0.99,3.36,-15.63,0.61
33.5490,0.08,0.11,-0.99,3.54,0.18,0.98
33.5520,0.08,0.11,-0.99,3.30,0.06,1.16
33.5680,0.08,0.11,-0.99,3.54,0.24,0.73
33.5960,0.08,0.11,-0.99,3.48,0.24,1.16
33.6110,0.08,0.11,-0.99,3.54,-0.06,1.40
33.6240,0.08,0.11,-0.99,3.54,0.06,1.40
33.6400,0.08,0.11,-0.99,3.48,0.18,1.46
33.6560,0.08,0.11,-0.99,3.42,0.12,1.16
33.6740,0.08,0.11,-0.99,3.48,-0.18,1.16
33.6900,0.08,0.11,-0.99,3.42,0.43,1.28
33.6940,0.08,0.10,-0.99,3.48,0.18,1.22
33.7200,0.08,0.11,-0.99,3.60,-0.24,0.67
33.7360,0.08,0.11,-0.99,3.66,0.24,0.85
33.7520,0.08,0.11,-0.99,3.66,-0.18,0.67
33.7680,0.08,0.11,-0.99,3.72,-0.12,0.73
33.7740,0.08,0.11,-0.99,3.66,0.06,0.73
33.7990,0.08,0.10,-0.99,3.85,0.24,0.43
33.8150,0.08,0.10,-0.99,3.72,0.12,-0.31
33.8310,0.08,0.11,-0.99,3.60,0.24,-0.85
33.8460,0.08,0.11,-0.99,3.54,0.31,-0.49
33.8610,0.08,0.12,-0.99,3.66,0.18,0.06
33.8720,0.08,0.12,-0.99,3.72,-0.18,0.67
33.8890,0.08,0.11,-0.99,3.60,0.12,0.73
33.9060,0.08,0.11,-0.99,3.66,-0.18,0.85
33.9210,0.08,0.11,-0.99,3.42,-0.06,0.55
33.9370,0.08,0.11,-0.99,3.72,-0.18,0.49
33.9520,0.08,0.11,-0.99,3.60,0.18,0.73
33.9670,0.08,0.11,-0.99,3.36,0.43,0.98
33.9840,0.08,0.11,-0.99,3.60,0.18,0.85
33.9930,0.08,0.11,-0.99,3.54,0.37,0.85
34.0040,0.08,0.11,-0.99,3.60,0.31,0.92
34.0280,0.08,0.11,-0.99,3.66,-0.06,1.53
34.0460,0.08,0.11,-0.99,3.54,-0.06,1.53
34.0620,0.08,0.11,-0.99,3.48,-0.31,1.40
34.0780,0.08,0.11,-0.99,3.60,-0.18,1.46
34.0940,0.08,0.11,-0.99,3.36,0.18,1.59
34.1100,0.08,0.11,-0.99,3.60,-0.12,1.46
34.1260,0.08,0.11,-0.99,3.54,0.31,1.34
34.1420,0.08,0.11,-0.99,3.36,0.31,1.28
34.1440,0.08,0.11,-0.99,3.42,0.06,0.85
34.1600,0.08,0.11,-0.99,3.60,0.12,1.16
34.1880,0.08,0.11,-0.99,3.72,0.31,1.16
34.2000,0.08,0.11,-0.99,3.60,-0.12,1.04
34.2150,0.08,0.11,-0.99,3.72,0.00,0.55
34.2330,0.08,0.11,-0.99,3.60,-0.18,0.79
34.2490,0.08,0.11,-0.99,3.36,0.49,0.85
34.2500,0.08,0.11,-0.99,3.78,-0.18,0.98
34.2670,0.08,0.11,-0.99,3.78,0.18,0.92
34.2920,0.08,0.11,-0.99,3.66,0.43,0.73
34.2990,0.08,0.11,-0.99,3.60,0.06,0.85
34.3250,0.08,0.11,-0.99,3.54,0.49,1.22
34.3320,0.08,0.11,-0.99,3.54,0.12,1.46
34.3490,0.08,0.11,-0.99,3.48,0.06,1.77
34.3640,0.08,0.11,-0.99,3.60,0.00,1.71
34.3840,0.08,0.11,-0.99,3.66,0.00,1.53
34.4000,0.08,0.11,-0.99,3.42,-0.12,1.53
34.4150,0.08,0.11,-0.99,3.72,-0.18,1.65
34.4300,0.08,0.11,-0.99,3.66,-0.24,1.59
34.4460,0.08,0.11,-0.99,3.48,0.06,1.59
34.4620,0.08,0.11,-0.99,3.60,-0.12,1.53
34.4770,0.08,0.10,-0.99,3.23,0.55,0.67
34.4920,0.09,0.09,-0.98,3.78,0.18,0.12
34.5080,0.08,0.10,-0.99,3.78,0.18,-0.55
34.5190,0.08,0.11,-0.99,3.78,0.24,-0.79
34.5350,0.08,0.11,-0.99,3.60,0.79,-0.61
34.5530,0.08,0.12,-0.99,3.72,0.43,-0.85
34.5680,0.08,0.12,-0.99,3.78,0.67,0.00
34.5830,0.08,0.11,-0.99,3.66,0.31,0.55
34.5920,0.08,0.11,-0.99,3.42,0.06,1.04
34.6050,0.08,0.11,-0.99,3.54,0.18,1.10
34.6290,0.08,0.11,-0.99,3.60,0.00,0.98
34.6440,0.08,0.11,-0.99,3.66,0.00,0.73
34.6590,0.08,0.11,-0.99,3.66,0.49,0.79
34.6750,0.08,0.11,-0.99,3.72,-0.12,0.67
34.6790,0.08,0.11,-0.99,3.66,-0.06,0.73
34.7060,0.08,0.11,-0.99,3.60,0.24,0.85
34.7120,0.08,0.11,-0.99,3.78,0.55,0.79
34.7280,0.08,0.11,-0.99,3.42,0.12,0.55
34.7440,0.08,0.11,-0.99,3.54,0.06,0.49
34.7660,0.08,0.11,-0.99,3.54,0.06,0.18
34.7820,0.08,0.11,-0.99,3.48,0.12,0.12
34.7970,0.08,0.11,-0.99,3.48,0.00,0.12
34.8000,0.08,0.11,-0.99,3.66,0.31,0.12
34.8150,0.08,0.11,-0.99,3.54,0.06,0.18
34.8360,0.08,0.10,-0.99,3.54,-0.12,0.24
34.8540,0.08,0.10,-0.99,3.54,0.12,-0.24
34.8700,0.08,0.10,-0.99,3.60,0.18,-0.43
34.8860,0.08,0.11,-0.99,3.54,0.79,-0.79
34.9030,0.08,0.12,-0.99,3.60,0.31,-0.61
34.9190,0.08,0.12,-0.99,3.72,0.73,0.06
34.9340,0.08,0.11,-0.99,3.72,0.06,0.73
34.9500,0.08,0.11,-0.99,3.54,-0.31,1.10
34.9640,0.08,0.11,-0.99,3.60,-0.12,1.16
34.9810,0.08,0.11,-0.99,3.60,-0.31,1.22
34.9960,0.08,0.11,-0.99,3.54,0.06,1.53
35.0030,0.08,0.11,-0.99,3.54,0.49,1.71
35.0190,0.08,0.11,-0.99,3.42,0.18,1.46
35.0430,0.08,0.11,-0.99,3.36,0.43,1.40
35.0580,0.08,0.11,-0.99,3.54,0.06,1.40
35.0750,0.08,0.10,-0.99,3.30,0.37,1.16
35.0900,0.08,0.10,-0.99,3.60,-0.12,1.04
35.1060,0.08,0.10,-0.99,3.66,-0.06,0.18
35.1220,0.08,0.09,-0.99,3.72,0.55,-0.92
35.1250,0.08,0.11,-0.99,3.60,0.43,-1.65
35.1410,0.08,0.11,-0.99,3.60,0.67,-1.40
35.1630,0.08,0.11,-0.99,3.66,0.49,-1.28
35.1790,0.08,0.11,-0.99,3.54,0.43,-1.16
35.1970,0.08,0.12,-0.99,3.72,0.24,-0.43
35.2120,0.08,0.11,-0.99,3.66,0.31,0.12
35.2290,0.09,0.11,-0.99,3.60,0.18,0.24
35.2300,0.08,0.11,-0.99,3.66,0.00,-0.43
35.2610,0.08,0.11,-0.99,3.72,0.24,0.12
35.2630,0.08,0.11,-0.99,3.66,0.18,0.67
35.2920,0.08,0.11,-0.99,3.66,-0.18,1.28
35.3080,0.08,0.11,-0.99,3.54,-0.12,1.28
35.3240,0.08,0.11,-0.99,3.42,-0.06,1.28
35.3390,0.08,0.11,-0.99,3.42,0.43,1.16
35.3550,0.08,0.11,-0.99,3.48,-0.18,0.98
35.3630,0.08,0.11,-0.99,3.66,0.00,0.85
35.3850,0.08,0.11,-0.99,3.54,0.18,0.92
35.3950,0.08,0.10,-0.99,3.60,0.06,0.79
35.4140,0.08,0.10,-0.99,3.48,0.55,0.49
35.4300,0.08,0.10,-0.99,3.60,0.06,0.12
35.4460,0.08,0.10,-0.99,3.54,0.37,-0.79
35.4620,0.08,0.11,-0.99,3.78,0.06,-1.22
35.4760,0.08,0.12,-0.99,3.72,0.37,-0.92
35.4890,0.08,0.12,-0.99,3.66,0.18,0.24
35.5030,0.08,0.11,-0.99,3.42,0.24,0.92
35.5200,0.08,0.11,-0.99,3.54,0.00,0.92
35.5360,0.08,0.11,-0.99,3.48,0.61,0.67
35.5520,0.08,0.10,-0.99,3.48,0.24,0.37
35.5690,0.08,0.11,-0.99,3.54,0.49,0.37
35.5850,0.08,0.11,-0.99,3.60,0.24,0.24
35.6000,0.08,0.11,-0.99,3.54,0.55,0.61
35.6040,0.08,0.11,-0.99,3.72,0.18,0.85
35.6300,0.08,0.11,-0.99,3.85,0.18,1.04
35.6460,0.08,0.11,-0.99,3.66,-0.12,1.04
35.6610,0.08,0.11,-0.99,3.48,0.12,1.16
35.6760,0.08,0.11,-0.99,3.36,0.00,1.16
35.6910,0.08,0.11,-0.99,3.54,0.12,1.34
35.7020,0.08,0.11,-0.99,3.30,-0.18,1.10
35.7190,0.08,0.11,-0.99,3.60,-0.31,0.98
35.7360,0.08,0.10,-0.99,3.66,0.12,0.92
35.7520,0.08,0.11,-0.99,3.66,0.18,0.49
35.7690,0.08,0.11,-0.99,3.54,0.18,0.79
35.7850,0.08,0.11,-0.99,3.54,0.24,0.31
35.8000,0.08,0.10,-0.99,3.48,0.55,0.31
35.8150,0.08,0.11,-0.99,3.72,0.37,-0.73
35.8310,0.08,0.11,-0.99,3.72,0.61,-0.67
35.8460,0.08,0.11,-0.99,3.66,0.85,-0.92
35.8620,0.08,0.11,-0.99,3.78,0.06,-0.92
35.8770,0.08,0.11,-0.99,3.48,0.18,-0.67
35.8920,0.08,0.11,-0.99,3.78,0.43,-0.49
35.9010,0.08,0.11,-0.99,3.60,0.79,-0.24
35.9180,0.08,0.11,-0.99,3.72,0.61,-0.06
35.9340,0.08,0.11,-0.99,3.54,0.49,-0.06
35.9510,0.08,0.11,-0.99,3.66,0.12,0.43
35.9670,0.08,0.11,-0.99,3.42,0.49,0.31
35.9820,0.08,0.11,-0.99,3.42,0.79,0.12
35.9970,0.08,0.11,-0.99,3.54,0.55,0.06
36.0120,0.08,0.10,-0.99,3.66,0.55,-0.24
36.0280,0.08,0.11,-0.99,3.85,0.18,-0.98
36.0430,0.08,0.11,-0.99,3.66,0.92,-1.04
36.0570,0.08,0.11,-0.99,3.72,0.31,-0.31
36.0730,0.08,0.11,-0.99,3.60,0.18,0.00
36.0850,0.08,0.11,-0.99,3.60,0.31,0.24
36.1020,0.08,0.11,-0.99,3.42,0.43,0.73
36.1180,0.08,0.11,-0.99,3.36,0.24,0.67
36.1340,0.08,0.10,-0.99,3.36,0.31,0.67
36.1510,0.08,0.10,-0.99,3.78,-0.06,-0.67
36.1660,0.08,0.10,-0.99,3.66,0.43,-0.31
36.1820,0.08,0.11,-0.99,3.66,0.24,-0.12
36.1970,0.08,0.11,-0.99,3.60,0.12,-0.24
36.2120,0.08,0.12,-0.99,3.66,0.18,0.00
36.2170,0.08,0.12,-0.99,3.72,0.18,0.67
36.2330,0.08,0.11,-0.99,3.54,0.18,0.98
36.2570,0.08,0.11,-0.99,3.54,0.24,0.98
36.2730,0.08,0.11,-0.99,3.54,0.00,0.61
36.2890,0.08,0.10,-0.99,3.54,0.49,-0.12
36.2900,0.08,0.10,-0.99,3.60,0.67,-1.04
36.3220,0.08,0.11,-0.99,3.91,0.43,-1.04
36.3370,0.07,0.11,-0.99,3.78,0.24,-1.71
36.3520,0.08,0.11,-0.99,3.72,0.31,-0.92
36.3570,0.08,0.11,-0.99,3.48,-0.12,-0.37
36.3840,0.08,0.11,-0.99,3.72,-0.18,0.12
36.3990,0.08,0.11,-0.99,3.54,-0.12,0.12
36.4150,0.08,0.11,-0.99,3.54,0.18,0.98
36.4220,0.08,0.11,-0.99,3.36,0.12,0.85
36.4380,0.08,0.10,-0.99,3.66,-0.37,0.61
36.4620,0.08,0.10,-0.99,3.54,0.43,-0.06
36.4770,0.08,0.10,-0.99,3.78,0.18,-0.79
36.4920,0.08,0.11,-0.99,3.91,0.00,-0.73
36.5080,0.08,0.11,-0.99,3.66,-0.06,-0.49
36.5240,0.08,0.11,-0.99,3.48,-0.18,0.00
36.5390,0.08,0.11,-0.99,3.60,0.06,0.55
36.5560,0.08,0.11,-0.99,3.72,0.06,0.67
36.5720,0.08,0.11,-0.99,3.66,-0.06,0.73
36.5870,0.08,0.10,-0.99,3.72,-0.12,0.06
36.5960,0.08,0.10,-0.99,3.85,0.00,-0.55
36.6180,0.08,0.10,-0.99,3.85,0.24,-0.79
36.6280,0.08,0.12,-0.99,3.72,0.12,-0.73
36.6450,0.08,0.12,-0.99,3.54,0.06,-0.18
36.6610,0.08,0.11,-0.99,3.72,0.24,0.49
36.6780,0.08,0.11,-0.99,3.66,0.24,0.92
36.6930,0.08,0.11,-0.99,3.66,0.43,0.73
36.7090,0.08,0.11,-0.99,3.78,-0.18,0.12
36.7250,0.08,0.11,-0.99,3.60,0.37,0.00
36.7410,0.08,0.11,-0.99,3.66,-0.06,-0.31
36.7440,0.08,0.11,-0.99,3.72,0.12,-0.43
36.7610,0.08,0.11,-0.99,3.72,0.37,-0.24
36.7890,0.08,0.11,-0.99,3.72,0.24,0.06
36.8000,0.08,0.10,-0.99,3.66,0.24,-0.49
36.8170,0.08,0.10,-0.99,3.91,0.18,-1.04
36.8330,0.08,0.10,-0.99,3.78,0.37,-1.22
36.8490,0.08,0.11,-0.99,3.66,0.18,-1.53
36.8660,0.08,0.11,-0.99,3.72,0.43,-1.10
36.8820,0.08,0.12,-0.99,3.66,0.43,-0.43
36.8850,0.08,0.12,-0.99,3.54,0.00,0.24
36.9130,0.08,0.11,-0.99,3.72,0.00,0.37
36.9290,0.08,0.11,-0.99,3.72,-0.06,-0.12
36.9440,0.08,0.10,-0.99,3.54,0.31,-0.31
36.9600,0.08,0.10,-0.99,3.85,0.31,-1.10
36.9750,0.08,0.11,-0.99,3.72,0.12,-1.71
36.9910,0.08,0.12,-0.99,3.60,0.67,-1.04
37.0060,0.08,0.11,-0.99,3.66,0.12,-0.31
37.0160,0.08,0.11,-0.99,3.42,0.18,-0.31
37.0320,0.08,0.11,-0.99,3.78,0.43,-0.43
37.0540,0.08,0.11,-0.99,3.72,-0.06,-0.79
37.0710,0.08,0.11,-0.99,3.72,0.00,-0.49
37.0850,0.08,0.10,-0.99,3.48,0.12,-0.85
37.1030,0.08,0.10,-0.99,3.48,0.24,-1.10
37.1180,0.08,0.10,-0.99,3.72,0.12,-1.22
37.1330,0.08,0.12,-0.99,3.60,0.98,-0.73
37.1480,0.08,0.12,-0.99,3.42,0.31,0.37
37.1550,0.08,0.11,-0.99,3.48,-0.31,1.28
37.1700,0.08,0.11,-0.99,3.60,-0.31,1.53
37.1970,0.08,0.11,-0.99,3.60,-0.06,0.98
37.2040,0.08,0.10,-0.99,3.66,-0.18,0.31
37.2200,0.08,0.11,-0.99,3.60,-0.06,0.43
37.2410,0.08,0.10,-0.98,3.48,0.12,0.43
37.2570,0.08,0.10,-0.99,3.72,0.43,-0.18
37.2730,0.08,0.10,-0.99,3.72,0.12,-0.31
37.2880,0.08,0.11,-0.99,3.54,0.24,-0.37
37.3030,0.08,0.10,-0.99,3.54,0.12,-0.61
37.3190,0.08,0.11,-0.99,3.72,0.24,-0.98
37.3350,0.08,0.11,-0.99,3.66,0.73,-0.67
37.3400,0.08,0.11,-0.99,3.72,0.24,-0.92
37.3560,0.08,0.11,-0.99,3.66,0.37,-0.79
37.3800,0.08,0.11,-0.99,3.72,0.24,-0.06
37.3960,0.08,0.11,-0.99,3.54,-0.12,0.24
37.4120,0.08,0.11,-0.99,3.54,0.55,0.24
37.4270,0.09,0.11,-0.99,3.42,0.31,-0.37
37.4300,0.08,0.11,-0.99,3.72,0.00,-1.16
37.4460,0.08,0.11,-0.99,3.72,-0.06,-0.37
37.4700,0.08,0.11,-0.99,3.60,0.37,0.06
37.4890,0.09,0.10,-0.99,3.60,0.24,-0.06
37.5030,0.08,0.11,-0.99,3.66,0.31,0.12
37.5200,0.08,0.10,-0.99,3.54,0.12,0.37
37.5370,0.08,0.10,-0.99,3.72,0.31,-0.43
37.5370,0.08,0.11,-0.99,3.54,0.06,-0.43
37.5540,0.08,0.11,-0.99,3.72,-0.06,-0.18
37.5830,0.08,0.11,-0.99,3.54,-0.06,0.18
37.5860,0.08,0.11,-0.99,3.42,-0.12,0.79
37.6150,0.08,0.11,-0.99,3.30,-0.12,0.79
37.6300,0.08,0.10,-0.99,3.54,0.12,0.73
37.6450,0.08,0.10,-0.99,3.85,0.37,-0.12
37.6550,0.08,0.10,-0.99,3.72,0.31,0.06
37.6720,0.09,0.10,-0.99,3.72,0.37,-0.12
37.6890,0.08,0.10,-0.99,3.85,0.43,-0.43
37.7050,0.08,0.12,-0.99,3.54,0.06,-0.37
37.7210,0.08,0.12,-0.99,3.66,0.31,-0.73
37.7370,0.08,0.12,-0.99,3.60,0.55,0.24
37.7530,0.08,0.11,-0.99,3.30,0.24,0.73
37.7690,0.08,0.11,-0.99,3.48,0.12,0.92
37.7830,0.08,0.10,-0.99,3.72,-0.06,0.24
37.7880,0.08,0.10,-0.99,3.72,0.24,-0.43
37.8120,0.08,0.11,-0.99,3.60,0.49,-0.37
37.8280,0.08,0.10,-0.99,3.42,0.43,-0.49
37.8460,0.08,0.11,-0.99,3.54,0.43,-0.61
37.8620,0.08,0.12,-0.99,3.60,0.31,-0.12
37.8790,0.08,0.11,-0.99,3.48,0.12,0.06
37.8950,0.08,0.10,-0.99,3.48,0.24,-0.18
37.9110,0.08,0.10,-0.99,3.48,0.06,-0.31
37.9270,0.08,0.11,-0.99,3.66,0.00,-0.73
37.9420,0.08,0.11,-0.99,3.42,0.18,-0.73
37.9570,0.08,0.11,-0.99,3.66,0.12,-0.73
37.9720,0.08,0.11,-0.99,3.48,0.31,-0.37
37.9870,0.08,0.11,-0.99,3.48,-0.06,0.12
38.0020,0.08,0.11,-0.99,3.48,0.12,0.24
38.0120,0.08,0.11,-0.99,3.54,0.00,0.24
38.0290,0.08,0.11,-0.99,3.48,0.06,0.00
38.0450,0.08,0.11,-0.99,3.60,0.37,-0.67
38.0610,0.08,0.11,-0.99,3.54,0.31,-0.37
38.0780,0.08,0.11,-0.99,3.66,0.18,-0.37
38.0940,0.08,0.11,-0.99,3.72,0.12,0.37
38.1100,0.08,0.10,-0.99,3.72,0.43,0.31
38.1250,0.08,0.11,-0.99,3.60,0.31,0.12
38.1280,0.08,0.11,-0.99,3.42,0.37,0.06
38.1440,0.08,0.11,-0.99,3.66,0.12,0.92
38.1650,0.08,0.11,-0.99,3.36,0.55,0.92
38.1830,0.08,0.11,-0.99,3.54,-0.31,1.04
38.2000,0.08,0.11,-0.99,3.30,0.00,0.98
38.2160,0.08,0.10,-0.99,3.54,0.06,0.43
38.2320,0.07,0.09,-0.99,4.27,0.24,-0.98
38.2480,0.08,0.11,-0.99,3.78,0.73,-2.14
38.2640,0.08,0.12,-0.98,3.66,0.73,-1.04
38.2800,0.08,0.12,-0.99,3.78,-0.06,-0.85
38.2960,0.08,0.11,-0.99,3.60,0.12,-0.49
38.3120,0.08,0.11,-0.99,3.60,0.24,-0.06
38.3270,0.08,0.11,-0.99,3.60,0.43,0.06
38.3320,0.08,0.11,-0.99,3.60,0.24,0.06
38.3470,0.08,0.11,-0.99,3.54,0.31,-0.06
38.3710,0.08,0.11,-0.99,3.60,0.43,0.24
38.3880,0.08,0.10,-0.99,3.60,0.06,-0.18
38.4030,0.08,0.10,-0.99,3.54,0.31,-0.49
38.4050,0.08,0.10,-0.99,3.66,0.61,-0.92
38.4210,0.08,0.10,-0.99,3.97,0.49,-2.26
38.4490,0.08,0.11,-0.99,3.72,1.04,-2.93
38.4600,0.08,0.12,-0.98,3.66,0.37,-2.01
38.4810,0.08,0.12,-0.99,3.66,-0.06,-0.49
38.4930,0.08,0.12,-0.99,3.54,-0.12,0.61
38.5100,0.08,0.11,-0.99,3.60,0.12,1.10
38.5270,0.08,0.10,-0.99,3.42,0.43,0.85
38.5430,0.08,0.10,-0.99,3.48,0.37,0.00
38.5590,0.08,0.09,-1.00,3.91,0.31,-2.01
38.5750,0.08,0.11,-0.99,3.66,0.43,-2.32
38.5910,0.08,0.13,-0.98,3.97,0.43,-1.77
38.6070,0.08,0.12,-0.98,3.60,0.43,-1.16
38.6210,0.08,0.12,-0.99,3.60,-0.18,0.24
38.6360,0.08,0.11,-0.99,3.60,-0.06,0.67
38.6440,0.08,0.10,-0.99,3.72,0.06,1.04
38.6600,0.08,0.10,-0.99,3.42,0.24,0.18
38.6800,0.07,0.09,-0.99,3.97,0.61,-1.53
38.6930,0.08,0.09,-0.99,3.78,0.61,-2.99
38.7100,0.08,0.10,-0.99,3.78,0.85,-3.17
38.7260,0.08,0.13,-0.99,3.85,0.06,-2.44
38.7420,0.09,0.13,-0.98,3.54,-0.18,-0.12
38.7580,0.08,0.11,-0.99,3.54,0.00,1.16
38.7740,0.08,0.11,-0.99,3.60,0.12,1.53
38.7890,0.08,0.10,-0.99,3.54,-0.12,1.22
38.8040,0.08,0.11,-0.99,3.30,0.31,1.04
38.8190,0.08,0.11,-0.99,3.48,0.73,0.43
38.8260,0.08,0.11,-0.99,3.54,-0.06,0.55
38.8420,0.08,0.11,-0.99,3.72,0.06,0.24
38.8650,0.08,0.11,-0.99,3.54,0.18,1.04
38.8800,0.08,0.11,-0.99,3.42,0.00,1.10
38.8820,0.08,0.10,-0.99,3.60,0.12,0.18
38.9110,0.08,0.11,-0.99,3.54,0.18,0.06
38.9260,0.08,0.12,-0.99,3.60,0.31,0.31
38.9410,0.08,0.11,-0.99,3.54,0.12,0.92
38.9480,0.08,0.11,-0.99,3.48,0.24,0.79
38.9640,0.08,0.11,-0.99,3.54,0.43,0.73
38.9800,0.08,0.09,-0.99,3.85,-0.06,-0.18
38.9960,0.08,0.10,-0.99,3.97,-0.31,-1.04
39.0180,0.08,0.11,-0.99,3.48,0.61,-0.67
39.0340,0.08,0.11,-0.99,3.72,0.24,-0.61
39.0500,0.08,0.12,-0.99,3.60,0.00,-0.18
39.0650,0.08,0.10,-0.99,3.54,0.12,-0.79
39.0800,0.08,0.10,-0.99,3.66,0.31,-1.40
39.0970,0.08,0.11,-0.99,3.48,0.43,-1.77
39.1040,0.08,0.11,-0.99,3.66,0.49,-2.14
39.1200,0.08,0.11,-0.99,3.42,0.43,-1.89
39.1370,0.08,0.11,-0.99,3.48,0.24,-1.04
39.1550,0.08,0.12,-0.99,3.78,0.12,-1.22
39.1710,0.08,0.10,-0.99,3.85,0.18,-0.92
39.1870,0.08,0.10,-1.00,4.15,0.49,-2.08
39.1880,0.08,0.10,-0.99,4.03,0.73,-3.42
39.2170,0.08,0.11,-0.99,3.72,0.43,-2.56
39.2320,0.08,0.12,-0.99,3.54,0.37,-1.77
39.2470,0.08,0.12,-0.98,3.36,0.24,-0.06
39.2640,0.08,0.11,-0.99,3.17,0.24,0.61
39.2800,0.08,0.10,-0.99,3.54,0.06,-0.12
39.2950,0.08,0.10,-0.99,3.85,0.00,-0.49
39.3120,0.08,0.11,-0.99,3.60,0.12,-0.43
39.3270,0.08,0.11,-0.99,3.42,-0.06,-0.18
39.3360,0.08,0.11,-0.99,3.54,-0.12,-0.49
39.3520,0.08,0.11,-0.99,3.48,0.61,-0.73
39.3740,0.08,0.09,-0.99,3.66,0.73,-1.28
39.3900,0.08,0.11,-0.99,3.85,0.49,-2.08
39.4050,0.08,0.11,-0.99,3.78,0.24,-1.83
39.4210,0.08,0.12,-0.99,3.66,0.18,-0.31
39.4260,0.08,0.11,-0.99,3.54,0.18,0.24
39.4410,0.08,0.11,-0.99,3.54,-0.12,0.49
39.4660,0.08,0.10,-0.99,3.60,-0.18,0.37
39.4810,0.08,0.10,-0.99,3.85,0.31,0.00
39.4970,0.08,0.11,-0.98,3.85,0.00,-0.06
39.5130,0.08,0.10,-0.98,3.42,0.49,-0.31
39.5280,0.08,0.11,-0.99,3.91,0.24,-0.18
39.5440,0.08,0.11,-0.99,3.85,0.00,0.61
39.5590,0.08,0.10,-0.99,3.72,0.18,0.31
39.5660,0.08,0.11,-0.99,3.85,0.24,-0.12
39.5810,0.07,0.10,-0.99,3.42,0.24,-0.55
39.6050,0.08,0.10,-0.98,3.66,0.37,-0.24
39.6200,0.08,0.11,-0.99,3.78,0.37,-0.49
39.6380,0.08,0.11,-0.99,3.66,0.61,-0.61
39.6540,0.08,0.11,-0.99,3.48,0.06,-0.12
39.6690,0.08,0.12,-0.99,3.54,0.00,0.43
39.6840,0.08,0.11,-0.99,3.54,-0.31,0.73
39.6990,0.08,0.10,-0.99,3.60,0.37,0.61
39.7150,0.08,0.10,-0.99,3.72,0.43,-0.98
39.7310,0.07,0.11,-0.99,3.78,-0.06,-1.71
39.7460,0.08,0.12,-0.98,3.60,-0.06,-1.04
39.7620,0.08,0.13,-0.99,3.42,0.06,0.85
39.7760,0.08,0.11,-0.99,3.54,-0.12,1.40
39.7880,0.08,0.11,-0.99,3.54,0.00,1.59
39.8040,0.08,0.10,-0.99,3.48,0.12,1.22
39.8200,0.08,0.11,-0.99,3.42,0.24,0.73
39.8370,0.08,0.11,-0.99,3.30,0.12,0.37
39.8530,0.08,0.08,-0.97,3.60,0.31,0.00
39.8700,0.08,0.10,-0.99,3.60,0.18,-0.06
39.8860,0.08,0.09,-0.99,3.85,0.18,-1.10
39.9010,0.08,0.11,-0.99,3.54,0.73,-2.01
39.9160,0.08,0.12,-0.99,3.48,0.18,-1.16
39.9320,0.08,0.12,-0.98,3.54,-0.24,0.31
39.9470,0.08,0.11,-0.99,3.36,0.18,0.92
39.9530,0.08,0.11,-0.99,3.54,-0.18,1.10
39.9760,0.08,0.10,-0.99,3.05,0.43,0.73
39.9930,0.08,0.07,-0.96,3.30,0.37,-0.37
40.0090,0.08,0.11,-0.98,3.42,0.37,-0.49
40.0260,0.08,0.12,-0.98,3.36,0.55,0.55
40.0270,0.08,0.11,-0.99,3.66,-0.06,1.16
40.0570,0.08,0.11,-0.99,3.54,0.12,1.04
40.0590,0.08,0.11,-0.99,3.48,-0.06,1.10
40.0760,0.08,0.11,-0.99,3.60,-0.31,1.04
40.0990,0.08,0.11,-0.99,3.42,-0.12,0.85
40.1150,0.08,0.11,-0.99,3.66,0.18,1.22
40.1320,0.08,0.11,-0.99,3.60,-0.43,1.46
40.1470,0.08,0.10,-0.99,3.42,-0.12,1.34
40.1630,0.08,0.10,-0.99,3.05,0.06,0.79
40.1780,0.08,0.08,-0.98,3.36,0.43,-0.24
40.1930,0.08,0.11,-0.98,3.91,0.43,-1.10
40.1980,0.08,0.12,-0.99,3.78,-0.31,0.55
40.2130,0.08,0.11,-0.99,3.23,-0.06,1.22
40.2380,0.08,0.11,-0.99,3.23,0.12,1.34
40.2550,0.08,0.10,-0.99,3.36,-0.06,1.10
40.2700,0.08,0.10,-0.99,3.11,-0.24,0.43
40.2860,0.08,0.11,-0.98,2.99,-0.06,0.31
40.2880,0.08,0.11,-0.99,4.03,-0.12,0.85
40.3040,0.08,0.11,-0.99,3.30,0.06,1.28
40.3280,0.08,0.11,-0.99,3.36,-0.31,1.40
40.3450,0.08,0.10,-0.98,3.42,-0.24,1.53
40.3610,0.08,0.11,-0.99,3.85,-0.06,1.34
40.3770,0.08,0.11,-0.99,3.54,-0.12,0.79
40.3930,0.08,0.11,-0.99,3.85,-0.24,1.16
40.4100,0.08,0.11,-0.99,3.48,-0.24,1.46
40.4120,0.08,0.11,-0.99,3.23,-0.18,1.34
40.4430,0.08,0.11,-0.99,3.11,-0.06,1.46
40.4590,0.08,0.11,-0.99,3.11,-0.06,1.46
40.4610,0.08,0.11,-0.99,2.99,0.12,1.46
40.4780,0.08,0.10,-0.99,3.05,-0.49,1.40
40.4940,0.08,0.09,-0.97,2.38,-0.06,1.40
40.5090,0.08,0.11,-0.99,3.66,-0.12,1.59
40.5340,0.08,0.11,-0.99,3.54,-0.67,1.65
40.5500,0.08,0.11,-0.99,3.36,0.37,1.53
40.5670,0.08,0.11,-0.99,3.66,-0.55,1.59
40.5830,0.08,0.11,-0.99,3.48,-0.24,1.40
40.6000,0.08,0.11,-0.99,3.60,-0.31,1.59
40.6160,0.08,0.11,-0.99,3.60,-0.24,1.53
40.6320,0.08,0.11,-0.99,3.66,0.12,1.65
40.6470,0.08,0.11,-0.99,3.42,0.24,1.59
40.6620,0.08,0.11,-0.99,3.78,-0.31,1.46
40.6780,0.08,0.11,-0.99,3.78,-0.12,1.53
40.6940,0.08,0.11,-0.99,3.85,-0.06,1.46
40.7100,0.08,0.11,-0.99,3.72,-0.55,1.46
40.7250,0.08,0.11,-0.99,3.78,-0.12,1.53
40.7400,0.08,0.11,-0.99,3.85,-0.06,1.46
40.7550,0.08,0.10,-0.99,4.27,0.00,1.65
40.7660,0.08,0.11,-0.99,4.64,-0.37,1.65
40.7820,0.08,0.11,-0.99,3.72,0.12,1.65
40.8000,0.08,0.11,-0.99,3.42,0.06,1.59
40.8160,0.08,0.11,-0.99,3.66,-0.31,1.53
40.8330,0.08,0.11,-0.99,3.85,-0.37,1.59
40.8340,0.08,0.11,-0.99,3.78,-0.18,1.65
40.8640,0.08,0.11,-0.99,3.72,-0.43,1.53
40.8790,0.08,0.11,-0.99,3.66,-0.31,1.34
40.8940,0.08,0.11,-0.99,3.72,-0.37,1.40
40.9100,0.08,0.11,-0.99,3.78,0.06,1.53
40.9250,0.08,0.11,-0.99,3.66,0.00,1.34
40.9400,0.08,0.11,-0.99,3.54,-0.12,1.53
40.9550,0.08,0.11,-0.99,3.23,-0.49,1.46
40.9660,0.08,0.11,-0.99,3.17,-0.31,1.53
40.9820,0.08,0.11,-0.99,3.36,-0.24,1.65
40.9990,0.08,0.11,-0.99,3.23,0.24,2.01
41.0150,0.08,0.11,-0.99,3.05,0.06,1.71
41.0320,0.08,0.11,-0.99,3.11,-0.24,1.59
41.0480,0.08,0.11,-0.99,2.99,0.00,1.53
41.0640,0.08,0.11,-0.99,2.99,0.00,1.46
41.0790,0.08,0.11,-0.99,3.36,0.00,1.65
41.0820,0.08,0.11,-0.99,3.30,0.12,1.40
41.1090,0.08,0.11,-0.99,3.05,0.06,1.46
41.1240,0.08,0.11,-0.99,3.17,-0.06,1.40
41.1310,0.08,0.11,-0.99,3.30,0.18,1.59
41.1480,0.08,0.11,-0.99,3.30,-0.31,1.65
41.1700,0.08,0.11,-0.99,3.54,0.12,1.65
41.1860,0.08,0.10,-0.99,3.54,0.18,1.53
41.2000,0.08,0.11,-0.99,3.97,-0.31,1.71
41.2170,0.08,0.11,-0.99,4.39,-0.12,2.62
41.2330,0.08,0.10,-0.99,4.52,-0.55,2.50
41.2350,0.07,0.10,-0.99,3.48,-0.31,2.56
41.2510,0.05,0.10,-0.99,3.17,-0.37,4.33
41.2740,0.07,0.10,-0.99,3.23,-0.61,7.02
41.2910,0.10,0.12,-0.99,3.17,-0.67,5.86
41.3080,0.08,0.11,-0.99,3.30,-0.31,4.09
41.3240,0.08,0.10,-0.99,3.30,-0.24,3.23
41.3400,0.08,0.11,-0.99,3.30,-0.24,3.17
41.3560,0.09,0.11,-0.99,3.36,0.18,2.93
41.3730,0.08,0.11,-0.99,3.36,-0.06,2.44
41.3890,0.08,0.11,-0.99,3.42,-0.18,2.08
41.4050,0.08,0.11,-0.99,3.42,-0.12,1.95
41.4080,0.08,0.11,-0.99,3.42,-0.18,1.89
41.4350,0.08,0.11,-0.99,3.30,0.12,2.01
41.4410,0.07,0.10,-0.99,3.42,-0.61,2.14
41.4560,0.08,0.11,-0.99,3.36,0.12,2.62
41.4790,0.08,0.11,-0.99,3.42,-0.37,2.26
41.4960,0.08,0.11,-0.99,3.48,-0.49,1.95
41.5120,0.08,0.11,-0.99,3.17,-0.18,1.89
41.5270,0.08,0.11,-0.99,3.36,0.24,1.89
41.5430,0.08,0.11,-0.99,3.60,-0.37,1.95
41.5580,0.08,0.11,-0.99,3.54,0.24,1.95
41.5740,0.07,0.11,-0.99,3.30,-0.06,1.95
41.5790,0.08,0.11,-0.99,3.42,-0.31,2.56
41.5950,0.08,0.11,-0.99,3.36,-0.06,2.38
41.6190,0.08,0.11,-0.99,3.30,0.31,2.38
41.6360,0.08,0.11,-0.99,3.30,0.00,2.32
41.6520,0.07,0.11,-0.99,3.23,0.43,2.38
41.6530,0.08,0.11,-0.99,3.30,-0.37,2.50
41.6710,0.09,0.11,-0.99,3.42,-0.12,2.75
41.6990,0.08,0.11,-0.99,3.42,-0.24,2.62
41.7150,0.08,0.11,-0.99,3.36,-0.37,2.69
41.7310,0.08,0.11,-0.99,3.17,-0.31,2.38
41.7360,0.08,0.11,-0.99,3.36,-0.37,2.26
41.7640,0.08,0.11,-0.99,3.60,-0.49,1.95
41.7710,0.08,0.11,-0.99,3.60,-0.06,2.08
41.7860,0.08,0.11,-0.99,3.36,-0.06,2.08
41.8020,0.08,0.11,-0.99,3.66,-0.18,2.08
41.8190,0.07,0.11,-0.99,3.54,-0.18,2.44
41.8360,0.08,0.11,-0.99,3.48,-0.24,2.26
41.8530,0.08,0.11,-0.99,3.36,-0.67,2.20
41.8690,0.08,0.11,-0.99,3.42,-0.06,2.20
41.8850,0.08,0.11,-0.99,3.36,-0.06,2.32
41.8860,0.08,0.11,-0.99,3.23,0.06,2.32
41.9170,0.08,0.11,-0.99,3.05,0.12,2.26
41.9200,0.08,0.11,-0.99,3.23,-0.18,2.32
41.9480,0.08,0.11,-0.99,3.36,0.18,2.32
41.9640,0.08,0.11,-0.99,3.54,-0.06,1.77
41.9790,0.08,0.11,-0.99,3.23,-0.06,1.83
41.9940,0.07,0.11,-0.99,3.36,-0.12,1.89
42.0020,0.07,0.11,-0.99,3.17,-0.12,2.20
42.0180,0.06,0.11,-0.99,3.23,-0.06,2.38
42.0330,0.10,0.11,-0.99,3.48,-0.12,3.05
42.0570,0.08,0.11,-0.99,3.42,-0.18,2.38
42.0720,0.08,0.10,-0.99,3.48,-0.12,2.50
42.0770,0.07,0.11,-0.99,3.30,-0.12,2.56
42.0920,0.08,0.11,-0.99,3.36,0.18,2.81
42.1080,0.08,0.11,-0.99,3.36,0.00,2.50
42.1290,0.09,0.11,-0.99,3.48,-0.24,2.87
42.1450,0.08,0.11,-0.99,3.42,-0.37,2.69
42.1610,0.09,0.11,-0.99,3.30,-0.24,2.50
42.1780,0.08,0.11,-0.99,3.54,-0.43,2.14
42.1940,0.08,0.11,-0.99,3.42,0.12,2.32
42.2110,0.08,0.11,-0.99,3.48,-0.43,2.20
42.2270,0.08,0.11,-0.99,3.30,-0.06,2.08
42.2430,0.08,0.11,-0.99,3.48,-0.18,1.77
42.2580,0.08,0.11,-0.99,3.42,0.00,1.83
42.2730,0.08,0.11,-0.99,3.54,-0.49,1.89
42.2880,0.08,0.11,-0.99,3.48,-0.12,2.26
42.2940,0.07,0.11,-0.99,3.48,-0.24,1.89
42.3100,0.07,0.11,-0.99,3.60,-0.24,2.44
42.3330,0.08,0.11,-0.99,3.48,-0.06,2.81
42.3490,0.09,0.11,-0.99,3.36,-0.24,2.75
42.3510,0.08,0.11,-0.99,3.48,-0.18,2.38
42.3700,0.08,0.11,-0.99,3.42,0.06,2.32
42.3950,0.08,0.11,-0.99,3.48,-0.12,2.26
42.4070,0.09,0.11,-0.99,3.36,-0.18,2.08
42.4240,0.07,0.11,-0.99,3.54,-0.49,2.01
42.4390,0.08,0.11,-0.99,3.36,-0.06,2.26
42.4550,0.08,0.11,-0.99,3.42,0.12,2.32
42.4720,0.08,0.11,-0.99,3.48,-0.31,2.38
42.4880,0.09,0.11,-0.99,3.54,-0.18,2.56
42.5040,0.08,0.11,-0.99,3.17,-0.24,2.20
42.5190,0.09,0.11,-0.99,3.36,-0.06,2.08
42.5340,0.08,0.11,-0.99,3.36,-0.37,1.95
42.5440,0.07,0.11,-0.99,3.66,0.12,1.89
42.5610,0.08,0.11,-0.99,3.48,0.00,1.59
42.5770,0.08,0.11,-0.99,3.30,-0.12,1.65
42.5940,0.08,0.11,-0.99,3.54,-0.43,1.77
42.6100,0.08,0.11,-0.99,3.60,-0.37,1.53
42.6260,0.08,0.11,-0.99,3.54,-0.06,1.46
42.6420,0.08,0.11,-0.99,3.48,0.24,1.46
42.6570,0.08,0.11,-0.99,3.66,-0.49,1.59
42.6720,0.08,0.11,-0.99,3.91,-0.61,1.65
42.6860,0.08,0.11,-0.99,3.72,-0.37,1.40
42.7010,0.08,0.11,-0.99,3.85,-0.12,1.53
42.7160,0.08,0.11,-0.99,3.54,-0.18,1.46
42.7270,0.08,0.11,-0.99,3.48,-0.18,1.59
42.7430,0.08,0.11,-0.99,3.48,-0.43,1.53
42.7610,0.08,0.11,-0.99,3.36,-0.12,1.46
42.7770,0.07,0.11,-0.99,3.54,-0.61,1.40
42.7930,0.06,0.10,-0.99,3.48,-0.55,1.59
42.8090,0.08,0.11,-0.99,3.48,-0.37,1.89
42.8250,0.08,0.11,-0.99,3.36,-0.18,1.89
42.8410,0.08,0.11,-0.99,3.36,0.31,2.14
42.8560,0.08,0.11,-0.99,3.48,0.06,1.95
42.8710,0.08,0.11,-0.99,3.42,0.12,2.14
42.8760,0.08,0.11,-0.99,3.48,-0.43,1.95
42.8920,0.09,0.11,-0.99,3.30,-0.37,1.83
42.9150,0.08,0.11,-0.99,3.48,-0.24,1.83
42.9320,0.08,0.11,-0.99,3.36,0.37,1.77
42.9480,0.07,0.11,-0.99,3.54,-0.06,1.77
42.9650,0.08,0.11,-0.99,3.42,0.12,1.95
42.9800,0.08,0.11,-0.99,3.30,-0.24,2.01
42.9960,0.08,0.11,-0.99,3.11,-0.37,2.08
43.0110,0.08,0.11,-0.99,3.36,0.12,2.32
43.0150,0.08,0.11,-0.99,3.42,-0.06,2.56
43.0410,0.09,0.11,-0.99,3.36,-0.61,2.62
43.0480,0.09,0.11,-0.99,3.42,-0.43,2.75
43.0680,0.08,0.11,-0.99,3.23,-0.73,2.44
43.0810,0.08,0.11,-0.99,3.30,-0.61,2.26
43.0980,0.08,0.11,-0.99,3.30,-0.24,2.20
43.1140,0.08,0.11,-0.99,3.36,-0.24,2.14
43.1310,0.08,0.11,-0.99,3.36,-0.31,1.95
43.1480,0.08,0.11,-0.99,3.30,-0.31,1.89
43.1640,0.08,0.11,-0.99,3.36,-0.37,2.01
43.1800,0.07,0.11,-0.99,3.48,0.06,2.20
43.1960,0.08,0.11,-0.99,3.48,-0.18,2.38
43.2120,0.07,0.11,-0.99,3.60,0.06,2.38
43.2280,0.07,0.11,-0.99,3.36,-0.06,2.62
43.2440,0.08,0.11,-0.99,3.36,-0.37,2.75
43.2590,0.09,0.11,-0.99,3.54,-0.37,2.62
43.2680,0.09,0.11,-0.99,3.60,-0.43,2.08
43.2790,0.08,0.11,-0.99,3.48,-0.06,2.14
43.3040,0.08,0.11,-0.99,3.48,-0.06,2.08
43.3200,0.08,0.11,-0.99,3.30,-0.37,2.01
43.3360,0.08,0.11,-0.99,3.36,-0.43,2.14
43.3530,0.07,0.11,-0.99,3.42,-0.12,2.38
43.3690,0.08,0.11,-0.99,3.36,-0.06,2.81
43.3850,0.08,0.11,-0.99,3.60,-0.24,2.93
43.4010,0.10,0.11,-0.99,3.42,-0.24,2.81
43.4160,0.08,0.11,-0.99,3.17,-0.37,2.14
43.4320,0.08,0.11,-0.99,3.36,-0.37,2.26
43.4480,0.08,0.11,-0.99,3.17,0.00,2.32
43.4620,0.08,0.11,-0.99,3.42,-0.06,2.44
43.4700,0.08,0.11,-0.99,3.54,-0.31,2.56
43.4860,0.08,0.11,-0.99,3.48,-0.37,2.38
43.5080,0.08,0.11,-0.99,3.42,0.24,2.50
43.5230,0.08,0.11,-0.99,3.23,-0.31,2.44
43.5390,0.09,0.11,-0.99,3.42,-0.61,2.75
43.5540,0.09,0.11,-0.99,3.48,-0.31,2.44
43.5690,0.08,0.11,-0.99,3.36,-0.37,2.08
43.5850,0.09,0.11,-0.99,3.36,-0.31,2.01
43.6010,0.07,0.11,-0.99,3.42,-0.24,2.01
43.6160,0.07,0.11,-0.99,3.48,0.06,2.01
43.6330,0.08,0.11,-0.99,3.42,-0.24,2.26
43.6410,0.07,0.11,-0.99,3.48,-0.12,2.32
43.6570,0.08,0.11,-0.99,3.54,-0.06,2.20
43.6790,0.08,0.11,-0.99,3.54,0.06,2.01
43.6940,0.09,0.11,-0.99,3.42,-0.12,1.89
43.7110,0.08,0.11,-0.99,3.36,-0.24,1.77
43.7130,0.08,0.11,-0.99,3.48,0.31,1.89
43.7290,0.08,0.11,-0.99,3.42,0.37,1.89
43.7540,0.08,0.11,-0.99,3.48,-0.06,1.83
43.7710,0.08,0.11,-0.99,3.42,0.24,1.83
43.7870,0.08,0.11,-0.99,3.48,0.00,1.95
43.8020,0.08,0.11,-0.99,3.42,0.06,1.89
43.8170,0.07,0.11,-0.99,3.48,-0.06,2.08
43.8200,0.08,0.11,-0.99,3.60,-0.12,2.08
43.8360,0.08,0.11,-0.99,3.54,0.00,2.14
43.8580,0.08,0.11,-0.99,3.30,-0.12,2.08
43.8750,0.09,0.11,-0.99,3.30,-0.12,2.08
43.8920,0.08,0.11,-0.99,3.23,0.06,2.01
43.9070,0.08,0.11,-0.99,3.30,0.24,2.01
43.9220,0.08,0.11,-0.99,3.54,-0.37,1.89
43.9380,0.08,0.11,-0.99,3.48,-0.31,1.83
43.9530,0.08,0.11,-0.99,3.30,0.18,1.89
43.9680,0.08,0.11,-0.99,3.30,-0.18,1.71
43.9830,0.08,0.11,-0.99,3.48,0.24,1.53
43.9910,0.08,0.11,-0.99,3.42,-0.18,1.40
44.0070,0.07,0.11,-0.99,3.48,-0.06,1.77
44.0290,0.07,0.11,-0.99,3.54,0.00,1.83
44.0440,0.08,0.11,-0.99,3.42,-0.18,1.77
44.0610,0.08,0.11,-0.99,3.48,-0.06,1.89
44.0770,0.08,0.11,-0.99,3.48,0.00,1.89
44.0810,0.07,0.11,-0.99,3.30,0.24,1.89
44.0960,0.08,0.11,-0.99,3.54,-0.12,2.01
44.1130,0.07,0.11,-0.99,3.30,-0.06,2.08
44.1290,0.07,0.11,-0.99,3.42,0.00,1.83
44.1520,0.08,0.11,-0.99,3.17,0.06,2.08
44.1690,0.08,0.11,-0.99,3.36,-0.31,2.01
44.1840,0.08,0.11,-0.99,3.36,0.06,1.89
44.1990,0.07,0.11,-0.99,3.48,-0.06,2.26
44.2020,0.08,0.11,-0.99,3.48,-0.55,2.08
44.2170,0.09,0.11,-0.99,3.42,-0.18,2.14
44.2420,0.08,0.11,-0.99,3.36,-0.12,2.14
44.2590,0.08,0.11,-0.99,3.36,-0.49,1.95
44.2750,0.08,0.11,-0.99,3.42,-0.49,1.89
44.2900,0.08,0.11,-0.99,3.36,-0.31,2.08
44.3060,0.08,0.11,-0.99,3.42,-0.24,2.08
44.3240,0.08,0.11,-0.99,3.48,0.18,2.20
44.3400,0.08,0.11,-0.99,3.36,-0.24,2.14
44.3450,0.08,0.11,-0.99,3.36,-0.24,2.01
44.3710,0.07,0.11,-0.99,3.60,-0.37,1.89
44.3870,0.09,0.11,-0.99,3.54,-0.37,2.14
44.4010,0.08,0.11,-0.99,3.36,0.18,2.20
44.4120,0.07,0.11,-0.99,3.42,0.06,2.32
44.4290,0.08,0.11,-0.99,3.60,-0.61,2.20
44.4440,0.07,0.11,-0.99,3.48,-0.43,2.14
44.4610,0.09,0.11,-0.99,3.48,-0.06,2.44
44.4770,0.08,0.11,-0.99,3.36,0.12,2.20
44.4930,0.08,0.10,-0.99,3.48,-0.31,2.32
44.5080,0.09,0.11,-0.99,3.66,-0.61,2.01
44.5110,0.08,0.11,-0.99,3.66,0.06,2.14
44.5270,0.07,0.11,-0.99,3.36,0.00,2.08
44.5520,0.08,0.11,-0.99,3.30,0.00,2.08
44.5680,0.08,0.11,-0.99,3.54,-0.43,1.83
44.5840,0.08,0.11,-0.99,3.30,0.00,2.01
44.6030,0.08,0.11,-0.99,3.48,-0.06,2.08
44.6180,0.07,0.11,-0.99,3.36,-0.24,2.14
44.6340,0.08,0.11,-0.99,3.42,-0.06,2.50
44.6510,0.08,0.11,-0.99,3.36,0.00,2.20
44.6660,0.07,0.11,-0.99,3.48,-0.06,2.44
44.6810,0.08,0.11,-0.99,3.48,0.18,2.32
44.6960,0.07,0.11,-0.99,3.48,-0.31,2.14
44.7130,0.09,0.11,-0.99,3.36,-0.12,2.32
44.7180,0.08,0.11,-0.99,3.54,0.00,2.14
44.7340,0.08,0.11,-0.99,3.60,-0.49,2.01
44.7590,0.08,0.11,-0.99,3.48,-0.24,2.08
44.7740,0.08,0.11,-0.99,3.36,-0.12,1.95
44.7910,0.08,0.11,-0.99,3.23,-0.12,1.95
44.8080,0.08,0.11,-0.99,3.17,-0.31,1.89
44.8090,0.08,0.11,-0.99,3.36,0.06,1.89
44.8390,0.08,0.11,-0.99,3.48,-0.37,1.89
44.8420,0.08,0.11,-0.99,3.54,-0.31,1.77
44.8700,0.08,0.11,-0.99,3.42,-0.24,2.01
44.8750,0.08,0.11,-0.99,3.48,-0.31,1.83
44.8910,0.08,0.11,-0.99,3.36,-0.37,1.89
44.9180,0.08,0.11,-0.99,3.72,-0.73,1.83
44.9250,0.08,0.11,-0.99,3.54,-0.24,1.95
44.9490,0.08,0.11,-0.99,3.54,-0.24,1.89
44.9570,0.08,0.11,-0.99,3.42,-0.43,2.08
44.9730,0.08,0.11,-0.99,3.54,-0.24,2.01
44.9900,0.08,0.11,-0.99,3.30,0.00,2.08
45.0060,0.08,0.11,-0.99,3.23,0.00,2.08
45.0260,0.07,0.11,-0.99,3.48,0.49,2.01
45.0410,0.09,0.11,-0.99,3.42,0.06,2.20
45.0580,0.06,0.11,-0.99,3.48,-0.06,2.20
45.0740,0.09,0.11,-0.99,3.60,-0.31,2.38
45.0760,0.08,0.11,-0.99,3.42,-0.31,2.20
45.1050,0.09,0.11,-0.99,3.66,-0.31,2.44
45.1200,0.08,0.11,-0.99,3.23,-0.18,2.20
45.1370,0.08,0.11,-0.99,3.42,-0.31,2.08
45.1420,0.08,0.11,-0.99,3.54,-0.37,2.26
45.1650,0.08,0.11,-0.99,3.54,-0.18,2.26
45.1820,0.06,0.11,-0.99,3.48,-0.24,2.26
45.1980,0.07,0.11,-0.99,3.42,-0.37,3.05
45.2140,0.08,0.11,-0.99,3.30,-0.24,2.81
45.2290,0.07,0.11,-0.99,3.42,-0.73,2.93
45.2310,0.09,0.11,-0.99,3.48,-0.12,3.36
45.2480,0.08,0.11,-0.99,3.30,-0.55,2.87
45.2760,0.08,0.11,-0.99,3.17,-0.55,2.99
45.2870,0.09,0.11,-0.99,3.48,-0.18,2.99
45.3030,0.08,0.11,-0.99,3.36,-0.31,2.93
45.3210,0.08,0.10,-0.98,3.36,-0.79,2.75
45.3360,0.09,0.11,-0.99,3.54,0.00,2.62
45.3530,0.08,0.11,-0.99,3.42,-0.06,2.20
45.3680,0.08,0.11,-0.99,3.66,0.06,2.01
45.3850,0.08,0.11,-0.99,3.60,-0.37,2.14
45.4000,0.08,0.11,-0.99,3.66,-0.43,1.89
45.4160,0.08,0.11,-0.99,3.54,-0.31,1.83
45.4190,0.08,0.11,-0.99,3.54,0.00,1.83
45.4350,0.08,0.11,-0.99,3.66,-0.18,1.71
45.4580,0.08,0.11,-0.99,3.54,-0.31,1.53
45.4760,0.08,0.11,-0.99,3.36,0.12,1.65
45.4910,0.08,0.11,-0.99,3.72,-0.06,1.71
45.5090,0.08,0.11,-0.99,3.60,-0.67,1.59
45.5240,0.08,0.11,-0.99,3.78,-0.31,1.46
45.5410,0.08,0.11,-0.99,3.48,-0.06,1.65
45.5570,0.08,0.11,-0.99,3.42,-0.18,1.59
45.5720,0.07,0.11,-0.99,3.54,-0.06,1.77
45.5740,0.07,0.10,-0.99,3.48,0.00,1.77
45.6040,0.07,0.10,-0.99,3.42,-0.24,1.83
45.6200,0.08,0.11,-0.99,3.48,-0.12,1.95
45.6240,0.08,0.11,-0.99,3.54,0.00,1.83
45.6510,0.08,0.11,-0.99,3.30,0.00,2.14
45.6680,0.08,0.11,-0.99,3.30,0.12,2.01
45.6830,0.07,0.10,-0.99,3.48,-0.12,2.01
45.6910,0.08,0.11,-0.99,3.48,-0.31,2.08
45.7060,0.08,0.11,-0.99,3.36,-0.18,2.01
45.7280,0.08,0.11,-0.99,3.54,-0.31,2.01
45.7320,0.08,0.11,-0.99,3.60,-0.49,1.95
45.7580,0.08,0.11,-0.99,3.42,-0.06,2.14
45.7660,0.08,0.11,-0.99,3.42,-0.43,2.14
45.7810,0.08,0.11,-0.99,3.48,-0.24,2.01
45.7980,0.08,0.11,-0.99,3.54,-0.06,2.14
45.8140,0.07,0.11,-0.99,3.30,-0.24,2.01
45.8320,0.09,0.11,-0.99,3.54,-0.24,2.44
45.8480,0.08,0.11,-0.98,3.48,-0.49,2.14
45.8630,0.09,0.11,-0.99,3.30,-0.49,2.01
45.8780,0.08,0.11,-0.99,3.48,-0.12,1.95
45.8940,0.08,0.11,-0.99,3.60,-0.12,1.89
45.9090,0.08,0.11,-0.99,3.36,-0.24,1.89
45.9150,0.08,0.11,-0.99,3.60,-0.06,1.89
45.9310,0.07,0.11,-0.99,3.48,0.06,1.95
45.9530,0.08,0.11,-0.99,3.66,-0.31,2.01
45.9690,0.09,0.11,-0.99,3.60,-0.12,2.01
45.9860,0.08,0.11,-0.99,3.42,-0.12,1.77
46.0030,0.08,0.11,-0.99,3.30,0.43,1.95
46.0180,0.08,0.11,-0.99,3.48,-0.12,1.95
46.0350,0.08,0.11,-0.99,3.54,-0.18,1.95
46.0510,0.08,0.11,-0.99,3.30,0.06,2.01
46.0660,0.08,0.11,-0.99,3.48,0.31,2.08
46.0820,0.08,0.11,-0.99,3.48,-0.24,1.95
46.0980,0.08,0.11,-0.99,3.48,-0.06,1.89
46.1140,0.08,0.11,-0.99,3.30,-0.43,2.14
46.1190,0.08,0.11,-0.99,3.30,0.31,2.14
46.1340,0.08,0.11,-0.99,3.48,-0.12,2.14
46.1590,0.08,0.11,-0.99,3.42,-0.49,1.89
46.1750,0.07,0.11,-0.99,3.54,-0.31,2.01
46.1910,0.09,0.11,-0.99,3.36,0.00,2.32
46.1930,0.08,0.11,-0.99,3.30,-0.18,2.01
46.2230,0.08,0.11,-0.99,3.60,-0.12,2.20
46.2390,0.08,0.11,-0.99,3.72,-0.61,2.32
46.2550,0.07,0.11,-0.99,3.48,-0.12,2.62
46.2710,0.08,0.11,-0.99,3.48,-0.61,2.75
46.2870,0.08,0.11,-0.99,3.42,-0.55,2.56
46.3030,0.08,0.11,-0.99,3.36,-0.06,2.38
46.3180,0.08,0.11,-0.99,3.54,-0.31,2.38
46.3340,0.08,0.11,-0.99,3.42,-0.18,2.69
46.3410,0.09,0.11,-0.99,3.60,-0.37,2.69
46.3650,0.07,0.11,-0.99,3.42,-0.06,2.08
46.3740,0.08,0.11,-0.99,3.54,-0.31,2.50
46.3910,0.07,0.11,-0.99,3.36,-0.37,2.62
46.4080,0.08,0.11,-0.99,3.23,-0.37,3.11
46.4240,0.08,0.11,-0.99,3.36,-0.61,3.05
46.4400,0.08,0.11,-0.99,3.48,-0.12,2.87
46.4560,0.08,0.11,-0.99,3.30,-0.43,2.56
46.4730,0.08,0.11,-0.99,3.30,-0.06,2.56
46.4880,0.08,0.11,-0.99,3.17,-0.12,2.62
46.5050,0.08,0.11,-0.99,3.23,-0.12,2.62
46.5210,0.08,0.11,-0.99,3.36,-0.24,2.81
46.5370,0.08,0.11,-0.99,3.36,-0.18,2.56
46.5520,0.08,0.11,-0.99,3.36,0.12,2.50
46.5670,0.08,0.11,-0.99,3.30,0.06,2.32
46.5740,0.08,0.11,-0.99,3.42,0.00,2.32
46.5900,0.08,0.11,-0.99,3.42,-0.24,2.20
46.6130,0.08,0.11,-0.99,3.60,-0.43,2.14
46.6300,0.08,0.11,-0.99,3.60,0.06,2.08
46.6450,0.08,0.11,-0.99,3.54,-0.31,1.83
46.6610,0.08,0.11,-0.99,3.30,-0.43,1.95
46.6780,0.08,0.11,-0.99,3.48,-0.37,2.14
46.6940,0.07,0.11,-0.99,3.42,-0.49,2.38
46.7090,0.08,0.11,-0.99,3.36,-0.06,2.62
46.7240,0.08,0.11,-0.99,3.30,-0.67,2.69
46.7300,0.08,0.11,-0.99,3.30,-0.49,2.87
46.7460,0.08,0.11,-0.99,3.42,-0.49,2.87
46.7620,0.07,0.11,-0.99,3.36,0.06,2.93
46.7790,0.08,0.11,-0.99,3.42,-0.43,2.93
46.7960,0.08,0.11,-0.99,3.54,-0.31,3.05
46.8120,0.08,0.11,-0.99,3.60,-0.06,2.93
46.8290,0.08,0.11,-0.99,3.30,-0.24,2.38
46.8300,0.09,0.11,-0.99,3.60,-0.55,2.26
46.8610,0.08,0.11,-0.99,3.54,-0.24,2.08
46.8770,0.08,0.11,-0.99,3.60,0.00,2.14
46.8930,0.08,0.11,-0.99,3.36,0.06,2.20
46.9080,0.08,0.11,-0.99,3.42,0.24,2.20
46.9240,0.08,0.11,-0.99,3.54,-0.24,2.20
46.9290,0.08,0.11,-0.99,3.54,0.00,2.20
46.9450,0.07,0.11,-0.99,3.54,-0.24,2.32
46.9610,0.08,0.11,-0.99,3.48,-0.12,2.32
46.9850,0.08,0.11,-0.99,3.42,-0.12,2.20
47.0010,0.07,0.11,-0.99,3.48,-0.43,2.32
47.0170,0.09,0.11,-0.99,3.48,-0.55,2.62
47.0180,0.08,0.11,-0.99,3.48,-0.24,2.26
47.0500,0.09,0.11,-0.99,3.42,-0.12,2.32
47.0660,0.08,0.11,-0.99,3.60,-0.18,2.26
47.0680,0.08,0.11,-0.99,3.60,-0.24,2.20
47.0830,0.08,0.11,-0.99,3.48,-0.37,2.14
47.1070,0.08,0.11,-0.99,3.48,-0.18,2.32
47.1240,0.08,0.11,-0.99,3.42,-0.18,2.14
