Timestamp, AccX, AccY, AccZ, GyroX, GyroY, GyroZ
0.0120,0.07,0.12,-0.99,0.85,4.52,1.83
0.0210,0.07,0.12,-0.99,1.89,3.66,1.83
0.0360,0.08,0.12,-0.99,2.50,4.15,2.01
0.0520,0.07,0.12,-1.00,3.23,3.11,1.95
0.0680,0.07,0.12,-0.99,2.50,3.17,1.83
0.0840,0.07,0.12,-0.99,3.60,3.23,1.89
0.1020,0.07,0.12,-0.99,3.17,3.36,1.83
0.1180,0.07,0.12,-0.99,3.97,3.11,1.89
0.1180,0.07,0.12,-0.99,3.60,3.17,2.14
0.1480,0.07,0.12,-0.99,2.99,3.17,1.89
0.1620,0.07,0.12,-0.99,2.75,3.05,1.83
0.1770,0.07,0.12,-0.99,3.11,2.99,1.83
0.1920,0.07,0.12,-0.99,3.66,2.81,1.89
0.2010,0.07,0.12,-0.99,3.72,3.30,1.95
0.2180,0.07,0.12,-0.99,3.85,2.93,1.95
0.2350,0.07,0.12,-0.99,3.48,3.36,1.95
0.2510,0.07,0.12,-0.99,3.54,2.75,1.89
0.2670,0.07,0.12,-0.99,3.85,2.62,1.89
0.2830,0.07,0.12,-0.99,3.60,3.23,2.01
0.2970,0.07,0.12,-0.99,2.99,3.23,1.89
0.3130,0.07,0.12,-0.99,2.81,3.05,1.89
0.3280,0.07,0.12,-0.99,3.30,2.93,1.89
0.3430,0.07,0.12,-0.99,3.72,2.93,2.01
0.3580,0.07,0.12,-0.99,3.60,3.23,1.89
0.3670,0.07,0.12,-0.99,3.11,3.23,2.01
0.3840,0.07,0.12,-0.99,2.69,2.81,1.83
0.4010,0.07,0.12,-0.99,2.99,2.99,1.89
0.4160,0.07,0.12,-0.99,3.17,2.99,1.83
0.4320,0.07,0.12,-0.99,3.30,3.05,2.01
0.4410,0.07,0.12,-0.99,3.05,3.17,1.89
0.4630,0.07,0.12,-0.99,3.23,3.11,1.95
0.4790,0.07,0.12,-0.99,3.17,3.30,2.01
0.4910,0.07,0.12,-0.99,2.87,3.11,2.01
0.5070,0.07,0.12,-0.99,2.75,2.99,1.89
0.5230,0.07,0.12,-0.99,2.56,3.11,1.89
0.5390,0.08,0.12,-0.99,2.20,3.17,1.89
0.5530,0.07,0.12,-0.99,2.26,3.30,1.83
0.5690,0.07,0.12,-0.99,2.93,2.99,2.01
0.5840,0.07,0.12,-0.99,3.30,3.05,1.89
0.5980,0.12,0.19,-0.95,3.05,2.87,1.46
0.6130,0.06,0.13,-1.01,6.10,2.75,0.67
0.6290,0.07,0.11,-1.00,3.17,3.05,2.20
0.6410,0.07,0.12,-0.99,2.08,2.87,2.01
0.6570,0.07,0.11,-0.99,3.54,2.38,2.26
0.6740,0.07,0.11,-0.99,3.23,3.05,2.26
0.6890,0.07,0.12,-0.99,2.87,2.99,1.89
0.7030,0.07,0.12,-0.99,3.42,2.93,1.95
0.7180,0.07,0.12,-0.99,3.66,2.87,2.01
0.7340,0.07,0.12,-0.99,3.54,2.87,1.83
0.7480,0.07,0.12,-0.99,2.93,2.81,1.95
0.7630,0.07,0.12,-0.99,2.93,2.87,1.83
0.7740,0.07,0.12,-0.99,3.17,3.05,1.89
0.7900,0.07,0.12,-0.99,3.36,3.17,1.89
0.8080,0.07,0.12,-0.99,3.11,2.81,1.89
0.8230,0.07,0.12,-0.99,3.17,2.69,1.83
0.8400,0.07,0.12,-0.99,3.23,2.93,1.89
0.8540,0.07,0.12,-0.99,3.30,2.93,1.89
0.8710,0.07,0.12,-0.99,3.66,2.87,1.95
0.8770,0.07,0.13,-0.99,3.05,2.93,1.83
0.9020,0.07,0.12,-0.99,2.69,2.99,1.89
0.9170,0.07,0.12,-0.99,3.30,2.99,1.89
0.9270,0.07,0.12,-0.99,3.23,2.87,1.83
0.9440,0.07,0.12,-0.99,3.23,3.42,1.95
0.9610,0.07,0.12,-0.99,3.11,3.23,1.89
0.9760,0.07,0.12,-0.99,2.99,3.05,1.83
0.9940,0.07,0.12,-0.99,3.30,2.69,1.83
1.0100,0.07,0.12,-0.99,3.30,2.99,1.89
1.0100,0.07,0.12,-0.99,2.99,3.36,1.77
1.0410,0.07,0.12,-0.99,3.60,3.42,1.77
1.0560,0.07,0.12,-0.99,2.99,3.05,1.95
1.0630,0.07,0.12,-0.99,2.75,3.23,1.95
1.0800,0.07,0.12,-0.99,3.23,2.81,1.83
1.0970,0.07,0.12,-0.99,3.48,2.93,1.95
1.1140,0.07,0.12,-0.99,3.17,2.93,1.95
1.1300,0.07,0.12,-0.99,3.05,3.05,1.83
1.1460,0.07,0.12,-0.99,2.99,2.93,1.83
1.1630,0.07,0.12,-0.99,3.11,3.11,2.01
1.1800,0.07,0.12,-0.99,3.05,2.87,1.89
1.1970,0.07,0.12,-0.99,2.93,3.23,1.95
1.2130,0.07,0.12,-0.99,2.81,3.23,1.83
1.2280,0.07,0.12,-0.99,2.69,2.75,1.83
1.2420,0.07,0.12,-0.99,3.23,2.99,1.77
1.2580,0.07,0.12,-0.99,3.05,3.30,1.95
1.2740,0.07,0.12,-0.99,3.48,3.17,1.95
1.2840,0.07,0.12,-0.99,3.36,2.69,1.83
1.3000,0.07,0.12,-0.99,3.05,3.17,1.83
1.3170,0.07,0.12,-0.99,2.81,3.11,1.83
1.3340,0.07,0.12,-0.99,2.81,2.81,1.71
1.3510,0.07,0.12,-0.99,3.48,3.11,2.08
1.3660,0.07,0.12,-0.99,3.60,2.93,1.89
1.3810,0.07,0.12,-0.99,3.42,2.75,1.89
1.3910,0.07,0.12,-0.99,2.99,3.42,1.89
1.4120,0.07,0.12,-0.99,2.75,2.99,1.83
1.4210,0.07,0.12,-0.99,2.93,2.87,1.83
1.4370,0.07,0.12,-0.99,3.05,3.05,1.95
1.4570,0.07,0.12,-0.99,3.42,3.05,2.08
1.4730,0.07,0.12,-0.99,3.36,2.87,1.89
1.4880,0.07,0.12,-0.99,3.30,3.05,1.83
1.5040,0.07,0.12,-0.99,3.11,2.87,1.89
1.5200,0.07,0.13,-0.99,3.23,2.62,1.89
1.5350,0.07,0.13,-0.99,2.99,2.81,1.89
1.5500,0.07,0.12,-0.99,2.50,2.99,1.83
1.5650,0.07,0.12,-0.99,2.69,2.87,1.89
1.5740,0.07,0.12,-0.99,2.81,3.17,2.01
1.5910,0.07,0.12,-0.99,3.48,2.99,1.89
1.6060,0.08,0.12,-0.99,3.60,2.93,2.01
1.6240,0.07,0.12,-0.99,3.11,3.11,2.01
1.6410,0.07,0.12,-0.99,3.05,2.99,2.01
1.6570,0.07,0.12,-0.99,3.11,2.38,1.95
1.6710,0.07,0.12,-0.99,3.05,3.30,1.95
1.6870,0.07,0.12,-0.99,3.30,3.17,1.95
1.6950,0.07,0.12,-0.99,3.36,2.99,1.89
1.7100,0.07,0.12,-0.99,2.93,3.36,2.01
1.7320,0.07,0.12,-0.99,2.93,3.05,1.83
1.7480,0.07,0.12,-0.99,3.05,3.23,1.95
1.7490,0.07,0.12,-0.99,3.42,3.17,2.08
1.7660,0.07,0.12,-0.99,3.17,2.93,1.95
1.7910,0.07,0.12,-0.99,3.23,2.69,1.83
1.7990,0.07,0.12,-0.99,3.17,3.05,1.89
1.8160,0.07,0.12,-0.99,3.36,3.11,2.01
1.8320,0.07,0.12,-0.99,3.17,3.42,2.01
1.8490,0.07,0.12,-0.99,3.11,3.05,1.89
1.8660,0.07,0.12,-0.99,2.87,3.17,2.08
1.8830,0.07,0.12,-0.99,3.30,3.17,2.08
1.8990,0.07,0.12,-0.99,3.42,3.42,2.01
1.9150,0.07,0.12,-0.99,3.72,2.81,1.95
1.9320,0.07,0.12,-0.99,3.23,3.30,2.08
1.9490,0.07,0.12,-0.99,3.23,2.99,1.83
1.9650,0.07,0.12,-0.99,2.56,3.11,1.77
1.9660,0.07,0.12,-0.99,2.93,2.81,1.89
1.9970,0.07,0.12,-0.99,3.23,3.17,1.95
2.0130,0.07,0.12,-0.99,3.23,2.81,1.83
2.0290,0.07,0.12,-0.99,3.30,2.93,1.95
2.0450,0.07,0.12,-0.99,3.42,2.69,1.89
2.0610,0.07,0.12,-0.99,2.99,3.17,1.89
2.0770,0.07,0.12,-0.99,3.05,2.87,1.83
2.0910,0.07,0.12,-0.99,2.87,2.99,1.83
2.0990,0.07,0.12,-0.99,3.30,3.11,1.89
2.1220,0.07,0.13,-0.99,3.54,2.99,1.89
2.1380,0.07,0.13,-0.99,3.30,2.75,1.89
2.1540,0.07,0.12,-0.99,2.62,2.99,1.83
2.1700,0.07,0.12,-0.99,2.75,2.99,1.89
2.1850,0.07,0.12,-0.99,3.05,3.42,1.89
2.1940,0.07,0.12,-0.99,3.72,2.87,2.01
2.2110,0.07,0.12,-0.99,3.48,3.05,1.95
2.2260,0.07,0.12,-0.99,3.17,2.93,1.95
2.2450,0.07,0.12,-0.99,2.93,2.50,1.77
2.2600,0.07,0.12,-0.99,3.05,2.93,1.89
2.2760,0.07,0.12,-0.99,3.36,2.93,1.77
2.2920,0.07,0.12,-0.99,3.66,2.93,1.95
2.2980,0.07,0.12,-0.99,3.23,2.99,1.89
2.3210,0.07,0.13,-0.99,2.99,2.93,1.89
2.3320,0.08,0.12,-0.99,2.62,2.75,1.89
2.3500,0.08,0.12,-0.99,2.99,3.05,1.83
2.3660,0.08,0.12,-0.99,3.48,3.23,2.14
2.3810,0.08,0.12,-0.99,2.93,3.17,1.83
2.3960,0.07,0.12,-0.99,2.69,3.42,1.83
2.3990,0.08,0.12,-0.99,2.99,3.05,1.95
2.4160,0.07,0.12,-0.99,3.17,2.62,1.89
2.4330,0.08,0.12,-0.99,3.11,3.23,1.95
2.4560,0.08,0.12,-0.99,3.72,3.48,2.26
2.4720,0.07,0.12,-0.99,3.66,3.48,2.32
2.4820,0.07,0.12,-0.99,3.97,3.42,2.32
2.4990,0.07,0.13,-0.99,3.48,3.48,2.14
2.5150,0.07,0.13,-0.99,2.75,3.05,1.95
2.5320,0.07,0.12,-0.99,1.53,3.42,1.83
2.5480,0.07,0.12,-0.99,1.53,2.56,1.83
2.5640,0.08,0.12,-0.99,3.23,2.93,2.20
2.5800,0.08,0.12,-0.99,4.09,3.05,1.95
2.5970,0.07,0.12,-0.99,3.30,3.17,1.83
2.5990,0.07,0.12,-0.99,2.26,3.42,1.71
2.6280,0.07,0.12,-0.99,1.89,3.11,1.77
2.6430,0.07,0.12,-0.99,3.05,2.62,1.89
2.6490,0.07,0.12,-0.99,3.97,2.56,1.77
2.6660,0.08,0.12,-0.99,4.15,2.56,1.89
2.6820,0.08,0.13,-0.99,3.30,3.17,2.01
2.6990,0.08,0.12,-0.99,2.44,3.17,1.83
2.7180,0.07,0.12,-0.99,2.75,3.42,1.95
2.7340,0.07,0.12,-0.99,3.36,3.48,1.95
2.7510,0.07,0.12,-0.99,3.85,3.30,1.95
2.7670,0.07,0.12,-0.99,3.85,3.17,1.83
2.7830,0.07,0.12,-0.99,3.72,3.17,1.89
2.7990,0.07,0.13,-0.99,3.17,2.93,1.89
2.8150,0.07,0.12,-0.99,2.62,2.99,2.75
2.8230,0.07,0.13,-0.99,3.48,2.44,3.72
2.8410,0.07,0.12,-0.99,3.97,2.38,4.33
2.8560,0.08,0.12,-1.00,3.54,2.38,3.05
2.8740,0.07,0.12,-0.99,2.87,2.69,2.56
2.8890,0.07,0.13,-0.99,3.17,2.99,2.69
2.9050,0.08,0.12,-0.99,3.42,2.56,3.05
2.9200,0.08,0.12,-0.99,2.99,2.99,2.56
2.9360,0.07,0.12,-0.99,2.87,2.50,2.32
2.9520,0.07,0.13,-0.99,2.93,2.81,2.44
2.9560,0.07,0.13,-0.99,3.36,2.50,2.93
2.9720,0.07,0.13,-0.99,3.36,2.62,3.23
2.9930,0.07,0.12,-0.99,3.23,2.75,3.23
3.0090,0.07,0.12,-0.99,3.05,3.36,3.36
3.0250,0.08,0.12,-0.99,3.05,2.99,3.23
3.0420,0.08,0.15,-0.99,2.87,2.69,3.11
3.0580,0.08,0.13,-0.99,4.46,2.56,4.27
3.0730,0.08,0.12,-0.99,2.56,2.44,4.15
3.0880,0.07,0.12,-0.99,2.69,3.17,3.72
3.1030,0.07,0.11,-0.99,2.87,2.62,3.30
3.1190,0.07,0.11,-0.99,2.87,3.30,2.26
3.1270,0.07,0.12,-0.99,3.11,3.05,1.89
3.1500,0.07,0.13,-0.99,3.11,3.60,2.01
3.1610,0.08,0.13,-0.99,3.11,2.81,1.95
3.1770,0.07,0.13,-0.99,3.05,3.30,1.89
3.1940,0.08,0.14,-0.99,2.99,3.42,2.08
3.2110,0.08,0.13,-0.99,3.42,3.05,2.08
3.2280,0.08,0.13,-0.99,2.87,2.81,2.50
3.2430,0.07,0.12,-0.99,2.44,3.05,2.69
3.2590,0.07,0.12,-0.99,2.99,2.87,2.93
3.2740,0.07,0.11,-0.99,2.87,2.93,2.75
3.2890,0.07,0.11,-0.99,2.93,2.87,2.26
3.3050,0.07,0.12,-0.99,2.99,3.05,2.01
3.3210,0.07,0.12,-0.99,2.87,3.23,1.89
3.3370,0.07,0.12,-0.99,2.62,3.11,1.83
3.3530,0.08,0.13,-0.99,2.75,3.36,1.83
3.3670,0.07,0.13,-0.99,3.66,2.75,1.77
3.3820,0.07,0.13,-0.99,3.48,2.99,2.44
3.3930,0.08,0.15,-0.99,3.05,2.93,2.81
3.4100,0.08,0.13,-0.99,3.42,3.17,4.27
3.4270,0.07,0.13,-0.99,2.69,2.99,4.39
3.4430,0.07,0.12,-0.99,2.50,2.81,4.09
3.4580,0.07,0.12,-0.99,2.99,2.75,4.09
3.4720,0.07,0.11,-0.99,3.23,2.69,3.97
3.4870,0.07,0.11,-1.00,2.69,2.50,3.48
3.5020,0.07,0.11,-0.99,2.38,3.54,2.32
3.5100,0.08,0.13,-0.99,3.05,2.87,1.83
3.5330,0.07,0.13,-0.99,2.99,3.17,2.20
3.5440,0.07,0.12,-0.99,3.42,3.30,2.56
3.5610,0.08,0.13,-0.99,2.99,3.17,2.69
3.5770,0.08,0.13,-0.99,3.11,3.23,2.75
3.5940,0.07,0.13,-0.99,2.81,3.05,3.17
3.6090,0.08,0.13,-0.99,2.81,2.99,3.30
3.6250,0.07,0.13,-0.99,2.81,3.05,3.05
3.6400,0.07,0.12,-0.99,2.99,3.11,2.62
3.6550,0.07,0.11,-0.99,2.38,2.93,2.44
3.6710,0.08,0.11,-0.99,2.87,2.93,2.69
3.6870,0.07,0.12,-0.99,3.30,2.99,2.50
3.7030,0.08,0.13,-0.99,3.42,3.36,2.62
3.7190,0.08,0.13,-0.99,3.17,2.87,2.69
3.7340,0.08,0.13,-0.99,2.75,3.17,2.69
3.7440,0.07,0.13,-0.99,2.56,3.05,3.36
3.7600,0.07,0.12,-0.99,2.75,3.17,3.85
3.7770,0.07,0.11,-0.99,2.93,3.54,3.60
3.7940,0.07,0.11,-0.99,3.05,2.81,2.81
3.8090,0.07,0.12,-0.99,2.99,2.99,2.62
3.8240,0.07,0.12,-0.99,2.81,3.11,2.20
3.8390,0.07,0.12,-0.99,3.23,2.87,2.20
3.8550,0.07,0.12,-0.99,3.17,2.62,2.08
3.8690,0.07,0.13,-0.99,2.75,3.17,2.20
3.8770,0.07,0.13,-0.99,2.99,2.81,2.26
3.9000,0.07,0.12,-0.99,2.69,2.93,2.62
3.9110,0.07,0.12,-0.99,2.62,3.11,2.38
3.9270,0.07,0.13,-0.99,2.87,3.30,2.62
3.9430,0.08,0.13,-0.99,3.72,3.05,3.17
3.9610,0.07,0.12,-0.99,3.36,2.87,3.17
3.9770,0.08,0.12,-0.99,2.99,3.11,3.05
3.9920,0.07,0.12,-0.99,2.75,3.17,2.87
4.0080,0.07,0.12,-0.99,2.75,2.81,2.75
4.0230,0.07,0.11,-0.99,2.69,3.11,2.69
4.0380,0.08,0.11,-0.99,2.75,2.99,2.26
4.0530,0.07,0.12,-0.99,2.93,3.11,1.95
4.0690,0.07,0.12,-0.99,2.69,2.87,1.95
4.0840,0.07,0.13,-0.99,2.87,3.05,2.50
4.0950,0.07,0.13,-0.99,3.48,2.99,2.81
4.1110,0.07,0.12,-0.99,3.30,2.87,2.87
4.1270,0.08,0.12,-0.99,2.93,2.99,2.62
4.1430,0.07,0.12,-0.99,2.50,2.93,1.95
4.1580,0.07,0.12,-0.99,2.62,2.99,1.89
4.1730,0.07,0.12,-0.99,3.17,3.30,1.83
4.1890,0.07,0.12,-0.99,3.36,3.17,1.89
4.2050,0.07,0.13,-0.99,3.11,3.17,2.26
4.2200,0.07,0.13,-0.99,3.30,2.87,2.56
4.2360,0.07,0.12,-0.99,3.30,2.87,3.36
4.2510,0.07,0.12,-0.99,2.99,3.36,3.23
4.2670,0.07,0.12,-0.99,2.87,3.42,3.30
4.2820,0.08,0.12,-0.99,3.17,2.87,3.17
4.2960,0.07,0.13,-0.99,3.05,3.17,3.23
4.3070,0.07,0.13,-0.99,2.93,2.93,3.78
4.3240,0.07,0.11,-0.99,3.17,2.87,4.64
4.3410,0.07,0.11,-0.99,2.69,2.50,3.42
4.3580,0.07,0.12,-0.99,2.50,2.75,2.69
4.3730,0.08,0.12,-0.99,2.44,3.05,2.26
4.3750,0.07,0.12,-0.99,2.99,2.87,2.50
4.4050,0.08,0.13,-0.99,2.99,3.23,2.93
4.4210,0.07,0.12,-0.99,3.48,3.11,3.42
4.4360,0.08,0.12,-1.00,3.17,2.81,3.72
4.4530,0.07,0.12,-0.99,2.44,3.23,3.30
4.4680,0.07,0.14,-0.97,2.01,2.99,3.05
4.4840,0.07,0.12,-0.99,3.36,2.75,3.48
4.4990,0.07,0.11,-0.99,2.50,2.87,3.54
4.5140,0.08,0.11,-0.99,2.69,3.23,2.81
4.5250,0.07,0.11,-0.99,3.17,2.93,2.20
4.5420,0.08,0.12,-0.99,3.66,3.05,1.95
4.5590,0.08,0.12,-0.99,3.42,3.11,2.08
4.5740,0.07,0.12,-0.99,3.17,3.23,1.95
4.5910,0.07,0.12,-0.99,2.69,3.30,1.89
4.6050,0.07,0.13,-0.99,3.05,3.42,2.56
4.6210,0.07,0.12,-0.99,3.42,2.87,2.87
4.6290,0.07,0.12,-0.99,2.50,3.17,2.81
4.6520,0.08,0.13,-0.99,2.69,3.17,2.75
4.6640,0.07,0.13,-0.99,3.11,3.11,2.69
4.6800,0.08,0.11,-0.99,3.48,2.99,2.99
4.6960,0.08,0.11,-0.99,2.75,3.36,2.56
4.7130,0.07,0.12,-0.99,2.69,3.48,2.26
4.7300,0.07,0.13,-0.99,3.11,3.11,2.08
4.7450,0.07,0.12,-0.99,3.30,2.99,2.69
4.7610,0.07,0.12,-0.99,2.99,2.87,2.62
4.7770,0.07,0.12,-0.99,2.99,3.05,2.69
4.7930,0.07,0.12,-0.99,2.50,3.23,2.56
4.7960,0.08,0.12,-0.99,2.99,3.05,2.87
4.8120,0.08,0.12,-0.99,2.93,3.30,2.38
4.8330,0.07,0.12,-0.99,2.93,2.87,2.14
4.8500,0.07,0.12,-0.99,2.99,3.05,2.50
4.8660,0.07,0.12,-0.99,3.30,2.81,2.56
4.8840,0.08,0.12,-0.99,3.05,2.75,2.50
4.8950,0.08,0.12,-0.99,3.23,2.93,2.56
4.9160,0.08,0.12,-0.99,3.17,3.36,2.44
4.9160,0.07,0.13,-0.99,2.99,2.87,2.20
4.9330,0.07,0.13,-0.99,3.05,3.05,2.38
4.9600,0.07,0.12,-0.99,3.17,3.05,2.99
4.9760,0.07,0.12,-0.99,3.05,3.11,3.11
4.9840,0.08,0.12,-0.99,2.50,2.93,2.50
5.0000,0.07,0.13,-0.99,2.93,3.23,2.38
5.0160,0.07,0.12,-0.99,3.11,3.05,2.50
5.0320,0.07,0.11,-0.99,2.87,2.99,2.75
5.0500,0.07,0.12,-0.99,2.56,2.87,2.32
5.0660,0.07,0.12,-0.99,2.99,3.05,2.44
5.0820,0.07,0.12,-0.99,2.99,3.05,2.87
5.0980,0.07,0.12,-0.99,3.23,2.81,2.75
5.1140,0.08,0.12,-0.99,2.99,3.11,2.87
5.1230,0.07,0.13,-0.99,2.99,3.36,2.99
5.1440,0.08,0.13,-0.99,3.23,3.23,4.09
5.1550,0.08,0.12,-0.99,2.87,2.93,3.23
5.1720,0.07,0.12,-0.99,2.81,3.05,3.17
5.1890,0.08,0.12,-0.99,3.05,2.44,3.60
5.2050,0.07,0.12,-0.99,3.11,2.62,3.78
5.2210,0.07,0.11,-0.99,3.05,2.81,3.42
5.2380,0.07,0.12,-0.99,3.11,2.99,2.93
5.2420,0.07,0.12,-0.99,3.54,2.87,2.93
5.2670,0.07,0.12,-0.99,2.99,2.56,2.56
5.2830,0.07,0.13,-0.99,2.87,2.69,2.93
5.2980,0.07,0.12,-0.99,3.23,3.05,3.36
5.3090,0.07,0.12,-0.99,2.99,2.81,3.54
5.3260,0.08,0.12,-0.99,3.11,2.50,3.66
5.3430,0.08,0.12,-0.99,3.17,2.99,3.17
5.3580,0.07,0.12,-0.99,2.99,2.93,2.38
5.3730,0.07,0.12,-0.99,2.81,2.93,2.69
5.3800,0.07,0.12,-0.99,3.05,2.87,2.81
5.3970,0.07,0.12,-0.99,3.36,2.75,2.93
5.4130,0.07,0.12,-0.99,3.30,2.81,2.62
5.4330,0.07,0.12,-0.99,3.23,2.81,3.23
5.4490,0.07,0.12,-0.99,3.17,2.38,2.93
5.4640,0.08,0.12,-0.99,2.69,2.99,2.87
5.4800,0.07,0.12,-0.99,2.87,2.99,2.87
5.4940,0.07,0.12,-0.99,2.87,3.11,2.93
5.5100,0.08,0.13,-0.99,2.75,3.36,2.99
5.5180,0.07,0.12,-0.99,2.99,2.99,3.11
5.5400,0.07,0.12,-0.99,2.93,3.05,3.60
5.5500,0.08,0.12,-0.99,2.81,2.75,3.05
5.5660,0.07,0.12,-0.99,2.87,2.69,2.99
5.5810,0.07,0.12,-0.99,2.93,3.11,3.11
5.6010,0.07,0.12,-0.99,3.17,2.87,3.11
5.6160,0.08,0.12,-0.99,3.17,2.99,2.93
5.6310,0.08,0.12,-0.99,2.87,2.93,2.93
5.6470,0.07,0.12,-0.99,3.36,3.11,3.05
5.6620,0.07,0.12,-0.99,3.30,2.99,3.48
5.6780,0.07,0.12,-0.99,3.11,2.81,3.23
5.6870,0.07,0.12,-0.99,2.81,3.05,2.81
5.7090,0.07,0.12,-0.99,2.69,2.81,2.81
5.7200,0.07,0.12,-0.99,2.93,3.05,2.93
5.7360,0.07,0.12,-0.99,2.93,2.87,2.81
5.7530,0.07,0.12,-0.99,3.11,2.81,2.44
5.7690,0.07,0.13,-0.99,2.99,3.05,2.26
5.7700,0.07,0.13,-0.99,3.11,2.87,2.87
5.7990,0.08,0.13,-0.99,3.36,3.17,4.03
5.8030,0.07,0.12,-0.99,3.17,3.11,4.27
5.8300,0.07,0.12,-0.99,2.93,2.99,4.09
5.8450,0.07,0.12,-0.99,2.56,3.11,3.85
5.8600,0.07,0.12,-0.99,2.56,2.87,3.54
5.8750,0.07,0.12,-0.99,2.56,3.17,3.30
5.8860,0.07,0.11,-0.99,2.50,3.17,3.11
5.9020,0.07,0.12,-0.99,2.62,3.05,2.99
5.9190,0.07,0.12,-0.99,3.23,3.11,3.60
5.9350,0.07,0.12,-0.99,3.36,2.69,4.15
5.9410,0.08,0.12,-0.99,2.81,2.99,3.72
5.9660,0.08,0.12,-0.99,2.81,3.17,3.11
5.9810,0.07,0.13,-0.99,3.17,3.11,3.11
5.9910,0.07,0.12,-0.99,3.30,2.87,3.23
6.0070,0.07,0.12,-0.99,2.99,2.81,3.17
6.0250,0.07,0.12,-0.99,2.69,2.75,2.93
6.0410,0.07,0.12,-0.99,2.69,3.11,2.99
6.0570,0.08,0.12,-0.99,2.93,2.87,3.42
6.0730,0.08,0.12,-0.99,2.93,3.23,3.42
6.0740,0.08,0.13,-0.99,3.05,3.23,3.30
6.0980,0.08,0.13,-1.00,3.54,2.75,3.66
6.1180,0.08,0.12,-0.99,2.81,2.75,3.91
6.1290,0.08,0.13,-0.99,2.56,3.11,3.78
6.1450,0.07,0.13,-0.99,3.36,2.44,4.03
6.1620,0.08,0.12,-0.99,3.48,2.44,4.76
6.1790,0.07,0.12,-0.99,3.17,2.62,4.39
6.1960,0.07,0.12,-0.99,3.11,2.75,4.46
6.2120,0.07,0.12,-0.99,2.44,2.38,4.27
6.2270,0.07,0.12,-0.99,2.81,2.87,4.46
6.2430,0.07,0.12,-0.99,3.36,2.81,4.58
6.2600,0.08,0.12,-0.99,3.17,2.62,4.70
6.2750,0.08,0.12,-0.99,2.93,2.69,4.39
6.2910,0.07,0.12,-0.99,2.99,3.11,4.09
6.3060,0.08,0.12,-0.99,2.87,2.81,4.15
6.3120,0.07,0.12,-0.99,2.75,3.05,3.42
6.3360,0.07,0.12,-0.99,3.11,2.93,3.54
6.3460,0.07,0.13,-0.99,3.30,2.62,3.36
6.3620,0.07,0.12,-0.99,3.17,2.32,3.91
6.3800,0.07,0.11,-0.99,2.56,2.81,3.91
6.3960,0.08,0.12,-0.99,2.81,3.11,2.87
6.3980,0.08,0.13,-0.99,3.11,2.81,2.87
6.4250,0.07,0.12,-1.00,2.87,2.81,3.23
6.4350,0.07,0.12,-0.99,2.32,2.75,3.48
6.4520,0.08,0.12,-0.99,2.75,2.75,3.48
6.4690,0.07,0.13,-0.99,2.69,2.93,3.48
6.4850,0.08,0.12,-0.99,2.69,3.05,3.72
6.5010,0.08,0.12,-0.99,2.87,2.75,3.54
6.5160,0.07,0.12,-0.99,2.62,2.87,3.42
6.5320,0.07,0.12,-0.99,3.05,2.99,3.30
6.5360,0.07,0.13,-0.99,3.30,2.56,3.60
6.5620,0.07,0.13,-0.99,3.23,2.75,4.33
6.5770,0.08,0.13,-0.99,2.87,2.69,4.70
6.5920,0.08,0.13,-0.99,2.93,2.87,4.70
6.6020,0.07,0.12,-0.99,2.93,2.75,5.07
6.6190,0.07,0.11,-0.99,2.50,2.81,5.19
6.6360,0.07,0.11,-0.99,2.08,2.99,4.58
6.6510,0.08,0.11,-0.99,2.20,2.93,3.60
6.6690,0.07,0.13,-0.99,3.11,2.75,3.30
6.6840,0.07,0.12,-0.99,3.60,2.93,3.85
6.7000,0.07,0.12,-1.00,3.78,2.32,4.52
6.7150,0.07,0.13,-0.99,2.93,2.62,3.97
6.7290,0.07,0.13,-0.99,2.32,2.62,4.27
6.7440,0.07,0.12,-0.99,2.62,2.56,4.33
6.7540,0.08,0.12,-0.99,2.75,2.99,4.03
6.7710,0.08,0.12,-0.99,2.93,2.62,4.03
6.7870,0.07,0.11,-0.99,2.69,3.17,3.91
6.8030,0.07,0.11,-0.99,2.93,2.81,3.36
6.8180,0.08,0.12,-0.99,2.75,2.93,3.17
6.8360,0.07,0.12,-0.99,3.05,3.23,2.93
6.8440,0.08,0.12,-0.99,3.23,3.23,2.75
6.8660,0.07,0.13,-0.99,2.75,3.17,2.32
6.8820,0.08,0.14,-0.99,2.99,2.81,3.17
6.8940,0.07,0.13,-0.99,3.48,2.62,4.03
6.9100,0.08,0.13,-0.99,3.42,2.75,5.13
6.9270,0.08,0.12,-0.99,2.75,2.81,4.52
6.9430,0.07,0.12,-0.99,2.99,2.99,4.33
6.9580,0.07,0.12,-0.99,2.99,2.81,4.64
6.9730,0.07,0.12,-0.99,3.05,2.69,5.00
6.9880,0.07,0.12,-0.99,3.05,2.50,4.82
7.0040,0.07,0.13,-0.99,2.56,2.93,4.21
7.0180,0.07,0.12,-0.99,3.42,2.56,5.74
7.0270,0.07,0.11,-0.99,3.30,2.44,5.55
7.0440,0.08,0.12,-0.99,2.81,2.50,5.19
7.0600,0.07,0.11,-0.99,2.62,2.87,4.03
7.0770,0.07,0.12,-0.99,2.56,2.69,2.99
7.0930,0.07,0.12,-0.99,2.62,2.81,3.17
7.1100,0.07,0.14,-0.99,3.23,2.87,4.09
7.1260,0.07,0.14,-0.99,3.66,2.38,6.59
7.1420,0.08,0.13,-0.99,3.54,2.26,6.96
7.1560,0.08,0.13,-0.99,2.26,2.81,6.65
7.1720,0.07,0.12,-0.99,2.01,2.50,6.23
7.1870,0.07,0.12,-0.99,2.08,2.44,5.92
7.1990,0.07,0.11,-0.99,2.62,2.38,5.74
7.2100,0.07,0.11,-1.00,2.99,2.38,5.00
7.2320,0.07,0.11,-0.99,2.69,2.56,4.39
7.2480,0.07,0.13,-0.99,2.75,2.69,4.03
7.2640,0.08,0.11,-0.99,3.54,2.62,5.00
7.2810,0.08,0.12,-0.99,2.93,2.87,4.33
7.2860,0.07,0.13,-0.99,2.69,3.05,3.78
7.3110,0.07,0.13,-0.99,3.30,2.62,4.82
7.3150,0.07,0.12,-0.99,2.93,2.56,4.76
7.3330,0.08,0.12,-0.99,2.26,2.26,4.15
7.3560,0.08,0.11,-0.99,2.56,2.81,3.72
7.3650,0.07,0.11,-0.99,3.36,2.69,3.05
7.3820,0.07,0.11,-0.99,3.05,2.81,2.87
7.4000,0.07,0.13,-0.99,3.17,3.05,2.75
7.4150,0.07,0.14,-0.99,3.23,2.81,3.42
7.4330,0.08,0.13,-0.99,3.23,2.87,4.21
7.4480,0.08,0.12,-0.99,2.56,2.62,3.60
7.4630,0.07,0.13,-0.99,2.81,3.23,2.93
7.4780,0.07,0.13,-0.99,3.05,2.99,3.42
7.4930,0.07,0.13,-0.99,3.66,2.75,4.76
7.5030,0.07,0.13,-0.99,3.30,2.38,5.07
7.5240,0.08,0.13,-0.99,2.69,2.44,5.55
7.5360,0.08,0.11,-0.99,2.81,2.32,5.80
7.5530,0.08,0.10,-1.00,3.17,2.20,4.88
7.5680,0.08,0.10,-0.99,2.32,2.93,2.93
7.5840,0.07,0.12,-0.99,2.50,3.30,1.95
7.6000,0.08,0.13,-0.99,3.30,2.93,1.95
7.6160,0.07,0.12,-0.99,3.42,2.87,2.14
7.6310,0.07,0.14,-0.99,2.87,2.81,2.44
7.6470,0.07,0.14,-0.99,3.17,2.62,4.09
7.6630,0.08,0.13,-0.99,3.36,2.56,4.64
7.6790,0.08,0.13,-0.99,2.87,2.87,4.64
7.6930,0.08,0.14,-0.99,2.69,2.81,4.82
7.7030,0.08,0.12,-0.99,3.78,2.69,6.23
7.7190,0.08,0.11,-1.00,3.48,2.62,5.86
7.7390,0.07,0.11,-0.99,2.62,2.56,5.31
7.7530,0.08,0.12,-0.99,2.38,2.26,4.21
7.7680,0.07,0.12,-0.99,3.36,2.75,4.09
7.7830,0.07,0.11,-0.99,2.87,2.81,3.72
7.7980,0.07,0.12,-0.99,2.93,2.81,3.17
7.8080,0.07,0.14,-0.99,2.81,2.87,3.36
7.8250,0.07,0.13,-0.99,3.91,2.44,4.58
7.8420,0.08,0.13,-0.99,3.17,2.87,5.07
7.8580,0.08,0.12,-0.99,2.93,2.44,5.13
7.8750,0.08,0.11,-0.99,2.56,2.69,4.21
7.8900,0.07,0.11,-0.99,2.38,2.93,3.17
7.9060,0.07,0.11,-0.99,2.26,2.87,2.81
7.9220,0.07,0.12,-0.99,2.87,2.75,2.32
7.9360,0.07,0.14,-0.99,3.97,2.81,2.99
7.9410,0.08,0.13,-0.99,4.52,2.56,4.76
7.9690,0.08,0.14,-0.99,2.93,2.87,4.76
7.9830,0.08,0.14,-0.99,2.38,2.75,5.19
7.9980,0.07,0.12,-0.99,2.75,2.75,5.13
8.0130,0.08,0.11,-0.99,2.87,2.62,5.19
8.0250,0.07,0.10,-1.00,2.69,2.81,3.48
8.0410,0.07,0.12,-0.99,2.62,2.99,2.44
8.0580,0.07,0.13,-0.99,2.75,3.36,2.50
8.0580,0.07,0.14,-0.99,3.30,2.56,3.78
8.0740,0.08,0.14,-0.99,3.78,2.50,5.74
8.0990,0.08,0.13,-0.99,3.42,2.50,5.80
8.1140,0.08,0.12,-0.99,2.44,2.62,5.31
8.1350,0.07,0.11,-0.99,1.71,2.87,3.97
8.1510,0.07,0.11,-0.99,1.77,2.99,3.66
8.1650,0.08,0.11,-0.99,2.44,2.56,3.36
8.1810,0.07,0.12,-0.99,3.23,2.99,2.81
8.1870,0.08,0.13,-0.99,3.66,2.93,3.17
8.2030,0.08,0.13,-0.99,3.11,2.75,3.66
8.2260,0.08,0.13,-0.99,3.11,2.62,4.09
8.2370,0.08,0.12,-0.99,2.32,2.75,4.15
8.2520,0.08,0.11,-0.99,2.01,2.93,2.87
8.2700,0.08,0.12,-0.98,2.62,3.17,2.81
8.2860,0.07,0.12,-0.99,3.36,2.81,2.93
8.3020,0.07,0.11,-1.00,3.23,2.99,2.50
8.3030,0.08,0.12,-0.99,2.62,3.30,1.95
8.3320,0.08,0.12,-0.99,3.30,3.11,2.14
8.3360,0.08,0.14,-0.99,3.11,2.81,2.44
8.3630,0.08,0.14,-0.99,3.05,3.11,3.42
8.3770,0.08,0.14,-0.99,3.17,2.93,3.78
8.3870,0.08,0.13,-0.99,2.38,2.75,4.33
8.4030,0.08,0.12,-0.99,2.99,2.38,4.46
8.4200,0.07,0.12,-0.99,2.93,2.81,4.09
8.4360,0.08,0.12,-0.99,2.87,2.81,4.21
8.4530,0.07,0.12,-0.99,2.87,3.11,3.30
8.4680,0.07,0.13,-0.99,2.50,3.05,3.66
8.4820,0.07,0.13,-0.99,2.75,2.44,4.76
8.4970,0.07,0.12,-0.99,2.75,2.75,5.13
8.5030,0.08,0.11,-1.00,2.87,3.05,5.07
8.5200,0.08,0.11,-0.99,2.32,2.93,3.48
8.5420,0.08,0.13,-0.99,2.20,2.93,2.75
8.5540,0.07,0.12,-0.99,3.48,3.23,4.27
8.5700,0.07,0.12,-0.99,2.81,2.75,4.09
8.5870,0.08,0.13,-0.99,2.56,2.93,3.72
8.6030,0.07,0.13,-0.99,2.93,2.69,4.58
8.6200,0.08,0.12,-0.99,3.36,2.38,4.70
8.6210,0.08,0.13,-0.99,2.75,2.81,3.78
8.6500,0.08,0.13,-0.99,3.17,2.81,4.46
8.6650,0.07,0.14,-0.99,3.48,2.50,5.25
8.6800,0.07,0.14,-0.99,2.99,2.56,5.98
8.6910,0.08,0.13,-0.99,2.81,2.32,6.90
8.7070,0.08,0.12,-0.99,2.56,2.26,6.41
8.7250,0.08,0.11,-0.99,2.44,2.93,5.62
8.7410,0.07,0.11,-0.99,2.75,2.56,5.31
8.7560,0.07,0.12,-0.99,3.36,2.50,4.94
8.7700,0.07,0.13,-1.00,4.15,2.44,4.82
8.7740,0.08,0.13,-0.99,3.05,2.69,5.49
8.8030,0.08,0.13,-0.99,3.05,2.93,5.80
8.8170,0.08,0.12,-0.99,3.11,2.56,5.74
8.8240,0.08,0.11,-0.99,2.62,2.75,5.13
8.8400,0.08,0.11,-0.99,2.08,3.17,3.91
8.8620,0.07,0.13,-0.98,2.14,2.81,3.30
8.8740,0.07,0.14,-0.99,3.17,2.93,4.39
8.8900,0.08,0.13,-0.99,3.23,2.62,5.49
8.9070,0.08,0.12,-0.99,3.05,2.75,5.31
8.9230,0.07,0.12,-0.99,2.56,2.99,4.46
8.9370,0.08,0.11,-0.99,2.62,3.05,4.52
8.9530,0.07,0.12,-0.99,2.50,2.75,3.23
8.9610,0.08,0.13,-0.99,2.62,2.93,3.23
8.9780,0.07,0.13,-0.99,3.17,3.11,3.60
8.9940,0.07,0.13,-0.99,3.36,2.69,4.33
9.0120,0.08,0.12,-0.99,2.69,2.62,4.09
9.0280,0.07,0.14,-0.98,2.69,2.26,4.27
9.0420,0.07,0.14,-0.99,3.05,2.38,5.25
9.0570,0.07,0.13,-0.99,3.60,2.14,6.29
9.0730,0.08,0.12,-0.99,2.81,2.56,6.35
9.0880,0.08,0.11,-0.99,2.69,2.93,5.80
9.1050,0.07,0.11,-0.99,2.69,2.62,4.64
9.1190,0.07,0.11,-0.99,2.75,2.87,3.97
9.1350,0.07,0.11,-0.99,2.93,2.93,3.23
9.1450,0.07,0.12,-0.99,2.62,3.30,2.75
9.1620,0.07,0.13,-0.99,3.36,3.36,3.23
9.1780,0.08,0.13,-0.99,4.09,2.50,4.64
9.1960,0.08,0.12,-0.99,2.93,2.62,4.15
9.2110,0.07,0.13,-0.99,2.62,2.50,3.66
9.2260,0.08,0.13,-0.99,2.81,2.93,4.64
9.2340,0.07,0.12,-1.00,2.99,2.69,4.15
9.2570,0.07,0.12,-0.99,2.44,2.87,3.48
9.2680,0.08,0.12,-0.99,2.93,2.69,3.30
9.2840,0.08,0.13,-0.99,3.42,3.05,3.23
9.3010,0.07,0.13,-0.99,3.42,2.69,4.76
9.3170,0.08,0.14,-0.99,3.54,2.01,5.74
9.3360,0.07,0.12,-0.99,2.69,2.50,4.52
9.3510,0.08,0.13,-0.99,1.71,2.62,4.46
9.3510,0.07,0.11,-0.99,2.62,2.44,3.72
9.3800,0.07,0.12,-0.99,2.62,2.38,3.48
9.3970,0.08,0.13,-0.99,2.62,2.56,3.54
9.4110,0.07,0.13,-0.99,2.99,3.05,3.91
9.4190,0.08,0.13,-0.99,3.11,2.81,4.46
9.4350,0.07,0.11,-0.99,2.87,2.75,3.05
9.4570,0.07,0.13,-0.99,2.75,2.87,2.75
9.4680,0.08,0.13,-0.99,3.05,2.87,2.93
9.4850,0.08,0.14,-0.99,2.75,3.30,2.87
9.5010,0.07,0.14,-0.99,3.42,2.81,4.52
9.5180,0.08,0.12,-1.00,3.42,2.56,5.49
9.5320,0.07,0.12,-0.99,1.59,3.05,4.03
9.5470,0.07,0.12,-0.99,1.65,3.05,4.03
9.5620,0.07,0.12,-0.99,3.30,2.14,4.21
9.5770,0.07,0.11,-0.99,2.99,2.87,4.15
9.5890,0.08,0.13,-0.99,2.56,3.23,3.78
9.6050,0.08,0.13,-0.99,3.60,2.32,4.58
9.6230,0.08,0.13,-0.99,3.60,2.62,5.19
9.6380,0.07,0.13,-0.99,2.62,2.62,4.94
9.6540,0.07,0.12,-0.99,2.14,2.62,4.64
9.6690,0.08,0.12,-0.99,2.69,2.75,5.07
9.6850,0.07,0.12,-0.99,3.05,2.87,4.82
9.7000,0.08,0.12,-0.99,2.87,2.75,5.19
9.7060,0.07,0.12,-0.99,3.05,2.38,4.76
9.7320,0.08,0.12,-0.99,3.05,2.81,4.33
9.7480,0.08,0.12,-0.99,2.99,2.62,3.54
9.7620,0.07,0.11,-0.99,3.30,3.30,2.69
9.7770,0.07,0.13,-0.99,3.54,3.05,2.32
9.7890,0.08,0.14,-0.99,3.30,2.81,3.17
9.8050,0.07,0.12,-0.99,3.11,2.99,3.17
9.8220,0.07,0.12,-0.99,2.44,2.44,3.42
9.8380,0.08,0.11,-0.99,2.69,3.11,3.05
9.8530,0.08,0.12,-0.99,3.23,3.05,1.95
9.8690,0.07,0.12,-0.99,4.15,3.36,1.89
9.8720,0.07,0.13,-0.99,4.21,3.11,1.89
9.9010,0.08,0.13,-0.99,3.78,3.05,1.65
9.9160,0.07,0.13,-0.99,3.30,3.11,0.61
9.9310,0.07,0.13,-0.99,3.23,2.99,1.53
9.9460,0.07,0.12,-0.99,3.17,3.36,1.89
9.9610,0.08,0.13,-0.99,2.93,2.99,1.95
9.9730,0.07,0.12,-0.99,2.56,3.36,1.89
9.9890,0.07,0.13,-0.99,3.23,2.69,1.77
10.0070,0.08,0.13,-0.99,3.42,3.17,1.71
10.0220,0.08,0.13,-0.99,3.36,2.87,1.77
10.0250,0.08,0.12,-0.99,2.69,3.11,1.83
10.0410,0.07,0.12,-0.99,2.56,2.93,1.83
10.0630,0.08,0.12,-0.99,3.23,2.87,1.83
10.0800,0.08,0.13,-0.99,3.48,3.17,1.65
10.0960,0.07,0.13,-0.99,3.54,2.93,1.77
10.1120,0.08,0.13,-0.99,3.36,2.99,1.77
10.1280,0.07,0.12,-0.99,3.11,2.81,1.77
10.1420,0.08,0.13,-0.99,3.54,2.75,1.95
10.1570,0.08,0.13,-0.99,3.42,2.75,1.77
10.1670,0.07,0.12,-0.99,2.69,2.99,1.83
10.1830,0.08,0.13,-0.99,3.11,3.17,1.95
10.2010,0.08,0.12,-0.99,2.81,3.05,1.77
10.2160,0.08,0.13,-0.99,3.11,3.60,1.83
10.2320,0.08,0.13,-0.99,2.69,3.17,1.71
10.2470,0.08,0.12,-0.99,2.81,2.99,1.83
10.2620,0.08,0.13,-0.99,2.87,3.05,1.89
10.2770,0.08,0.13,-0.99,2.93,3.36,1.83
10.2830,0.08,0.13,-0.99,2.69,3.36,1.71
10.3070,0.08,0.13,-0.99,2.26,3.23,1.77
10.3220,0.08,0.12,-0.99,2.50,3.11,1.71
10.3330,0.08,0.12,-0.99,2.62,3.36,1.71
10.3490,0.08,0.12,-0.99,3.17,2.87,1.71
10.3680,0.08,0.13,-0.99,3.42,2.99,1.77
10.3830,0.08,0.13,-0.99,3.11,2.99,1.77
10.4000,0.08,0.13,-0.99,2.81,3.42,1.83
10.4140,0.07,0.13,-0.99,2.75,2.99,1.89
10.4290,0.08,0.13,-0.99,2.93,3.30,1.95
10.4370,0.08,0.13,-0.99,2.99,2.87,1.95
10.4530,0.08,0.12,-0.99,2.69,2.87,1.77
10.4750,0.08,0.13,-0.99,2.81,2.93,1.65
10.4910,0.08,0.12,-0.99,2.62,3.23,1.71
10.5050,0.08,0.12,-0.99,2.87,2.81,1.77
10.5100,0.07,0.13,-0.99,3.60,2.93,1.89
10.5380,0.08,0.13,-0.99,3.66,2.93,1.83
10.5540,0.08,0.13,-0.99,2.50,3.48,1.77
10.5700,0.08,0.12,-0.99,2.20,3.48,1.77
10.5860,0.07,0.12,-0.99,2.38,3.17,1.89
10.6020,0.08,0.12,-0.99,3.17,2.93,1.89
10.6170,0.08,0.12,-0.99,3.30,2.69,1.83
10.6320,0.08,0.13,-0.99,3.17,2.93,1.83
10.6430,0.08,0.13,-0.99,2.87,3.30,1.95
10.6600,0.08,0.13,-0.99,2.75,3.54,1.95
10.6770,0.08,0.12,-0.99,2.87,3.36,1.95
10.6940,0.08,0.13,-0.99,2.75,3.54,1.83
10.7100,0.08,0.12,-0.99,2.26,3.17,1.89
10.7270,0.08,0.12,-0.99,2.44,3.05,1.89
10.7420,0.08,0.12,-0.99,3.11,3.17,1.89
10.7570,0.08,0.13,-0.99,3.36,3.17,2.01
10.7710,0.08,0.13,-0.99,3.17,2.99,1.83
10.7870,0.08,0.13,-0.99,2.93,2.99,1.83
10.8020,0.08,0.13,-0.99,2.75,2.93,1.83
10.8140,0.08,0.12,-0.99,2.81,2.87,1.89
10.8300,0.08,0.12,-0.99,3.30,2.93,2.01
10.8460,0.08,0.13,-0.99,3.91,3.30,1.83
10.8640,0.08,0.13,-0.99,3.36,3.17,1.95
10.8660,0.08,0.13,-0.99,2.99,3.17,1.83
10.8960,0.08,0.12,-0.99,2.87,2.93,1.83
10.9020,0.08,0.12,-0.99,3.66,3.05,1.89
10.9290,0.08,0.12,-0.99,4.15,3.23,2.08
10.9450,0.08,0.13,-0.99,4.64,2.75,2.01
10.9610,0.08,0.13,-0.99,3.11,2.99,2.01
10.9770,0.08,0.12,-0.99,1.77,3.17,1.83
10.9930,0.08,0.12,-0.99,2.32,3.17,1.71
11.0080,0.08,0.12,-0.99,3.30,3.48,2.08
11.0150,0.08,0.13,-0.99,3.97,3.30,1.95
11.0320,0.08,0.13,-0.99,3.36,2.93,1.89
11.0480,0.08,0.13,-0.99,2.50,2.62,1.71
11.0640,0.08,0.13,-0.99,1.77,3.30,1.77
11.0840,0.08,0.12,-0.99,2.32,3.36,1.65
11.0980,0.08,0.12,-0.99,3.30,3.42,2.01
11.1020,0.08,0.12,-0.99,4.03,2.87,1.89
11.1170,0.08,0.13,-0.99,3.72,3.36,1.95
11.1400,0.08,0.13,-0.99,3.05,2.87,1.77
11.1570,0.08,0.12,-0.99,2.56,3.30,1.83
11.1730,0.08,0.12,-0.99,2.75,3.23,1.89
11.1900,0.08,0.12,-0.99,3.17,2.99,1.95
11.2060,0.08,0.12,-0.99,3.30,3.30,1.77
11.2210,0.08,0.13,-0.99,3.17,3.11,1.95
11.2370,0.08,0.13,-0.99,3.11,3.05,2.01
11.2510,0.08,0.13,-0.99,2.87,3.23,1.89
11.2670,0.08,0.12,-0.99,2.50,3.36,1.77
11.2820,0.08,0.12,-0.99,3.17,3.30,1.89
11.2960,0.08,0.12,-0.99,3.54,3.42,1.95
11.3070,0.08,0.12,-0.99,3.48,2.93,1.95
11.3230,0.08,0.13,-0.99,3.42,3.11,1.83
11.3390,0.08,0.13,-0.99,2.87,2.99,1.83
11.3560,0.08,0.13,-0.99,2.62,3.05,1.71
11.3710,0.08,0.12,-0.99,2.87,3.11,1.77
11.3780,0.08,0.12,-0.99,2.99,3.42,1.77
11.3950,0.08,0.12,-0.99,3.42,3.42,1.71
11.4100,0.08,0.13,-0.99,3.23,3.11,1.89
11.4300,0.08,0.13,-0.99,3.17,3.48,1.95
11.4470,0.08,0.13,-0.99,2.87,3.17,1.95
11.4640,0.08,0.12,-0.99,2.81,3.48,1.83
11.4800,0.08,0.12,-0.99,3.11,3.17,1.95
11.4960,0.07,0.12,-0.99,2.99,3.17,1.95
11.5020,0.08,0.12,-0.99,2.93,3.54,1.95
11.5270,0.08,0.13,-0.99,2.75,3.42,1.83
11.5430,0.08,0.13,-0.99,2.69,3.17,1.83
11.5500,0.08,0.12,-0.99,2.56,2.99,1.77
11.5660,0.08,0.12,-0.99,2.56,3.23,1.95
11.5870,0.08,0.12,-0.99,3.23,3.05,1.83
11.6040,0.08,0.12,-0.99,3.60,3.05,1.77
11.6200,0.08,0.13,-0.99,3.54,3.11,1.83
11.6360,0.08,0.13,-0.99,2.87,3.17,1.95
11.6380,0.08,0.12,-0.99,2.32,3.30,1.89
11.6680,0.08,0.12,-0.99,2.62,3.17,1.89
11.6840,0.08,0.12,-0.99,3.05,2.99,1.77
11.6990,0.08,0.12,-0.99,3.54,2.93,1.77
11.7150,0.08,0.13,-0.99,3.48,2.93,1.89
11.7210,0.08,0.13,-0.99,2.99,3.23,2.01
11.7460,0.08,0.12,-0.99,2.44,3.05,1.71
11.7610,0.08,0.12,-0.99,2.99,3.36,1.83
11.7770,0.08,0.12,-0.99,3.17,3.05,1.89
11.7880,0.08,0.13,-0.99,3.42,2.69,1.83
11.8060,0.08,0.12,-0.99,3.17,2.81,1.77
11.8210,0.08,0.12,-0.99,2.93,3.30,1.77
11.8370,0.08,0.12,-0.99,3.17,3.11,1.77
11.8550,0.08,0.13,-0.99,3.42,2.81,1.95
11.8700,0.08,0.13,-0.99,3.23,3.11,1.89
11.8860,0.08,0.12,-0.99,2.75,3.17,1.83
11.9020,0.08,0.12,-0.99,2.81,3.48,1.89
11.9180,0.08,0.12,-0.99,3.30,3.30,1.95
11.9340,0.07,0.13,-0.99,3.23,3.23,1.89
11.9480,0.08,0.12,-0.99,3.11,3.11,1.95
11.9630,0.08,0.12,-0.99,2.93,2.75,1.77
11.9780,0.08,0.12,-0.99,3.05,2.75,1.77
11.9890,0.08,0.12,-0.99,3.23,3.23,1.83
12.0060,0.08,0.13,-0.99,2.81,2.75,1.89
12.0230,0.08,0.12,-0.99,2.69,3.05,1.89
12.0390,0.08,0.12,-0.99,3.23,2.75,1.95
12.0540,0.08,0.12,-0.99,3.23,3.11,1.95
12.0700,0.08,0.12,-0.99,3.54,2.56,1.95
12.0860,0.08,0.12,-0.99,3.30,2.81,1.83
12.1010,0.08,0.12,-0.99,2.93,2.87,1.83
12.1180,0.08,0.12,-0.99,2.81,2.87,1.71
12.1330,0.08,0.12,-0.99,3.23,2.56,1.77
12.1410,0.08,0.13,-0.99,3.85,3.30,1.89
12.1660,0.08,0.13,-0.99,3.30,3.23,1.95
12.1760,0.08,0.12,-0.99,2.93,2.99,1.83
12.1920,0.08,0.12,-0.99,2.62,3.05,1.71
12.2070,0.08,0.12,-0.99,2.62,2.99,1.65
12.2280,0.08,0.12,-0.99,3.23,3.11,1.89
12.2430,0.07,0.14,-1.01,4.39,2.32,1.83
12.2470,0.08,0.13,-0.99,3.48,3.05,1.95
12.2620,0.08,0.13,-0.99,2.50,2.69,1.77
12.2820,0.08,0.12,-0.99,2.56,2.56,1.83
12.3050,0.08,0.12,-0.99,2.99,2.75,1.77
12.3210,0.08,0.12,-0.99,3.36,2.93,1.89
12.3370,0.08,0.13,-0.99,3.85,3.05,1.89
12.3390,0.08,0.13,-0.99,3.30,3.42,1.89
12.3690,0.08,0.13,-0.99,2.56,3.97,1.77
12.3850,0.08,0.13,-0.99,2.26,4.09,1.95
12.4010,0.08,0.12,-0.99,1.83,4.33,2.08
12.4160,0.09,0.15,-1.02,2.87,3.72,1.95
12.4330,0.08,0.13,-1.00,2.08,4.09,1.95
12.4490,0.08,0.12,-0.99,1.53,3.78,1.83
12.4640,0.08,0.12,-0.99,1.89,3.85,1.89
12.4790,0.08,0.12,-0.99,2.81,4.15,1.95
12.4940,0.08,0.12,-0.99,3.30,3.30,1.83
12.5050,0.08,0.12,-0.99,3.60,3.42,2.14
12.5220,0.08,0.12,-0.99,3.42,3.42,1.95
12.5390,0.08,0.13,-0.99,3.17,2.99,1.77
12.5550,0.08,0.12,-0.99,2.44,3.30,1.89
12.5710,0.08,0.12,-0.99,2.93,3.30,1.89
12.5860,0.08,0.12,-0.99,3.05,3.05,1.89
12.5940,0.08,0.12,-0.99,3.23,3.11,1.77
12.6110,0.08,0.12,-0.99,2.87,2.75,1.89
12.6270,0.08,0.12,-0.99,2.87,3.17,1.95
12.6470,0.08,0.12,-0.99,2.99,3.30,1.89
12.6480,0.08,0.12,-0.99,3.11,2.99,1.83
12.6760,0.08,0.12,-0.99,2.93,3.11,1.83
12.6910,0.08,0.12,-0.99,3.11,3.36,1.89
12.7030,0.08,0.12,-0.99,3.17,2.93,1.89
12.7150,0.08,0.13,-0.99,2.87,3.48,1.89
12.7310,0.07,0.12,-0.99,2.50,3.42,1.83
12.7470,0.07,0.12,-0.99,2.81,3.23,1.89
12.7670,0.08,0.12,-0.99,3.36,3.17,1.95
12.7840,0.08,0.12,-0.99,3.17,2.87,1.89
12.7850,0.08,0.12,-0.99,3.05,2.99,1.83
12.8160,0.08,0.12,-0.99,2.99,3.30,1.89
12.8330,0.08,0.12,-0.99,2.87,3.60,1.83
12.8340,0.08,0.12,-0.99,3.11,3.36,1.95
12.8640,0.07,0.12,-0.99,3.36,3.48,2.08
12.8800,0.08,0.12,-0.99,3.72,3.66,2.01
12.8950,0.08,0.13,-0.99,3.66,3.72,2.14
12.9030,0.13,0.14,-0.98,3.78,3.54,2.99
12.9190,0.09,0.12,-0.99,3.42,2.87,3.05
12.9350,0.07,0.11,-0.99,3.42,2.75,2.99
12.9520,0.08,0.11,-0.99,3.66,3.30,2.81
12.9690,0.09,0.13,-1.00,4.03,3.05,1.89
12.9840,0.07,0.12,-0.99,3.66,3.36,2.44
13.0010,0.06,0.13,-0.99,2.87,3.05,2.01
13.0170,0.06,0.13,-0.99,3.11,3.11,2.20
13.0340,0.08,0.12,-0.99,2.93,3.42,2.26
13.0500,0.06,0.12,-0.99,3.05,2.99,1.83
13.0650,0.07,0.12,-0.99,3.17,3.17,1.95
13.0800,0.07,0.12,-0.99,2.93,2.99,1.83
13.0860,0.08,0.12,-0.99,2.87,3.17,1.95
13.1040,0.08,0.12,-0.99,3.11,2.93,1.95
13.1180,0.08,0.12,-0.99,3.30,3.36,1.95
13.1390,0.08,0.13,-1.00,3.85,3.17,1.89
13.1560,0.10,0.12,-0.99,2.44,2.87,1.65
13.1730,0.08,0.12,-0.99,2.62,2.99,1.77
13.1870,0.07,0.12,-0.99,2.56,3.17,1.77
13.1890,0.07,0.12,-0.99,3.05,3.17,1.71
13.2180,0.07,0.12,-0.99,3.23,2.75,1.71
13.2330,0.08,0.12,-0.99,2.62,3.30,1.65
13.2490,0.08,0.12,-0.99,2.62,2.69,1.77
13.2590,0.08,0.12,-0.99,2.56,3.30,1.65
13.2760,0.08,0.12,-0.99,2.81,3.30,1.89
13.2930,0.08,0.12,-0.99,3.05,3.17,1.95
13.3090,0.08,0.12,-0.99,2.93,3.42,1.65
13.3240,0.09,0.12,-0.99,2.62,3.48,1.77
13.3310,0.08,0.12,-0.98,2.14,3.36,1.95
13.3480,0.08,0.12,-0.99,2.32,3.17,1.95
13.3650,0.08,0.12,-0.99,2.87,3.05,1.89
13.3820,0.08,0.12,-0.99,3.23,3.30,1.65
13.3980,0.07,0.13,-0.99,3.11,3.30,1.46
13.4170,0.07,0.13,-0.99,2.75,3.11,1.46
13.4320,0.08,0.12,-0.99,2.93,2.75,1.34
13.4480,0.08,0.12,-0.99,2.87,3.05,1.34
13.4530,0.07,0.12,-0.99,2.56,3.05,1.53
13.4770,0.07,0.12,-0.99,2.75,3.36,2.08
13.4860,0.07,0.12,-0.99,2.87,3.36,2.14
13.5040,0.07,0.12,-0.99,3.54,2.99,2.08
13.5190,0.07,0.12,-0.99,3.60,3.05,1.83
13.5360,0.07,0.12,-0.99,3.17,3.11,1.89
13.5520,0.08,0.12,-0.99,3.05,3.42,1.89
13.5690,0.08,0.13,-0.99,3.48,2.93,1.71
13.5840,0.07,0.12,-0.99,2.99,3.05,1.89
13.5990,0.07,0.12,-0.99,2.99,3.23,1.95
13.6160,0.07,0.12,-0.99,2.56,2.75,1.95
13.6330,0.07,0.12,-0.99,2.87,3.30,2.08
13.6380,0.08,0.12,-0.99,3.91,3.17,1.95
13.6650,0.08,0.13,-0.99,3.85,2.99,1.77
13.6800,0.07,0.12,-0.99,2.99,3.48,1.89
13.6950,0.07,0.12,-0.99,2.75,3.42,2.01
13.7070,0.07,0.12,-0.99,2.81,3.11,2.01
13.7230,0.08,0.12,-0.99,3.23,3.05,2.01
13.7400,0.08,0.12,-0.99,3.42,3.05,2.01
13.7570,0.08,0.12,-0.99,3.30,2.87,1.89
13.7720,0.07,0.12,-0.99,3.05,3.30,2.14
13.7880,0.07,0.12,-0.99,3.36,3.23,1.95
13.8030,0.08,0.12,-0.99,3.30,2.81,1.59
13.8190,0.08,0.12,-0.99,2.81,3.23,1.34
13.8340,0.07,0.12,-0.99,3.05,3.48,1.59
13.8500,0.07,0.12,-0.99,3.30,2.93,1.77
13.8580,0.08,0.12,-0.99,3.05,3.17,1.77
13.8790,0.08,0.12,-0.99,2.99,3.11,1.83
13.8910,0.08,0.12,-0.99,2.93,3.23,1.71
13.9060,0.08,0.12,-0.99,3.11,2.87,1.71
13.9270,0.07,0.12,-0.99,3.11,3.17,1.71
13.9430,0.08,0.12,-0.99,3.36,2.93,1.71
13.9580,0.08,0.12,-0.99,3.54,2.69,1.59
13.9610,0.08,0.12,-0.99,2.99,3.11,1.46
13.9900,0.08,0.12,-0.99,2.81,3.05,1.40
14.0040,0.08,0.12,-0.99,2.50,2.93,1.77
14.0110,0.07,0.12,-0.99,2.99,3.30,1.77
14.0350,0.08,0.12,-0.99,3.66,2.87,1.77
14.0450,0.08,0.12,-0.99,3.78,3.11,1.89
14.0610,0.08,0.13,-0.99,3.60,3.11,1.71
14.0770,0.07,0.12,-0.99,2.81,3.05,1.71
14.0940,0.08,0.12,-0.99,2.75,3.48,1.77
14.1100,0.08,0.12,-0.99,3.48,3.11,1.71
14.1260,0.08,0.12,-0.99,3.60,2.81,1.83
14.1320,0.08,0.12,-0.99,3.66,2.87,1.71
14.1490,0.08,0.12,-0.99,3.11,3.17,1.65
14.1660,0.07,0.12,-0.99,2.93,2.93,1.53
14.1880,0.07,0.12,-0.99,2.99,3.17,1.71
14.1990,0.08,0.12,-0.99,3.30,2.75,1.83
14.2150,0.08,0.12,-0.99,3.36,3.48,1.95
14.2330,0.07,0.12,-0.99,3.11,3.42,1.71
14.2490,0.07,0.12,-0.99,3.05,3.30,1.83
14.2640,0.07,0.12,-0.99,3.23,3.30,1.89
14.2780,0.08,0.12,-0.99,3.05,2.99,1.89
14.2950,0.08,0.12,-0.99,3.23,3.17,1.95
14.3100,0.07,0.12,-0.99,3.48,2.87,2.01
14.3260,0.08,0.12,-0.99,3.66,3.17,1.77
14.3420,0.08,0.13,-0.99,3.72,3.17,1.77
14.3490,0.08,0.12,-0.99,2.62,3.36,1.59
14.3650,0.08,0.12,-0.99,2.93,3.30,1.65
14.3870,0.07,0.12,-0.99,3.23,3.05,1.65
14.3880,0.08,0.12,-0.99,3.60,3.05,1.65
14.4040,0.08,0.12,-0.99,3.54,2.81,1.59
14.4200,0.08,0.12,-0.99,3.36,2.81,1.53
14.4500,0.08,0.12,-0.99,3.23,3.30,1.65
14.4640,0.07,0.13,-0.99,2.87,3.42,1.83
14.4750,0.08,0.12,-0.99,2.87,3.05,1.83
14.4910,0.08,0.12,-1.00,3.23,2.87,1.71
14.5060,0.08,0.12,-0.99,2.56,3.23,1.65
14.5250,0.07,0.12,-0.99,2.93,3.05,1.46
14.5290,0.08,0.12,-0.99,3.23,3.05,1.71
14.5560,0.08,0.12,-0.99,3.30,2.87,1.71
14.5700,0.08,0.12,-0.99,3.23,3.36,1.95
14.5800,0.07,0.12,-0.99,2.62,3.36,2.01
14.5960,0.07,0.12,-0.99,3.48,2.69,2.32
14.6130,0.07,0.12,-0.99,3.17,3.05,1.89
14.6290,0.07,0.12,-0.99,3.11,2.87,1.71
14.6450,0.07,0.12,-0.99,2.93,3.17,1.65
14.6620,0.07,0.12,-0.99,2.93,3.11,1.71
14.6780,0.07,0.12,-0.99,2.93,3.36,1.65
14.6920,0.08,0.12,-0.99,3.11,3.42,1.46
14.7070,0.07,0.12,-0.99,2.69,3.23,1.59
14.7230,0.07,0.12,-0.99,3.11,3.05,1.77
14.7390,0.07,0.12,-0.99,2.87,3.54,1.95
14.7460,0.07,0.12,-0.99,3.17,2.93,1.95
14.7620,0.07,0.12,-0.99,3.11,3.17,1.95
14.7830,0.08,0.12,-0.99,3.11,3.11,1.89
14.7990,0.09,0.12,-0.99,3.11,3.36,1.77
14.8140,0.08,0.12,-0.99,2.87,2.87,1.65
14.8290,0.08,0.12,-0.99,3.05,2.87,1.89
14.8330,0.08,0.12,-0.99,2.93,2.87,1.83
14.8580,0.08,0.12,-0.99,2.93,3.30,2.08
14.8660,0.08,0.12,-0.99,3.17,3.17,2.20
14.8890,0.08,0.12,-0.99,2.93,3.17,1.95
14.8990,0.07,0.12,-0.99,3.05,2.93,1.83
14.9150,0.08,0.12,-0.99,3.30,3.11,1.71
14.9320,0.08,0.12,-0.99,3.11,2.87,1.65
14.9490,0.07,0.12,-0.99,3.72,2.99,1.77
14.9650,0.07,0.12,-0.99,3.48,2.69,1.46
14.9830,0.07,0.12,-0.99,3.11,3.11,1.59
14.9990,0.07,0.12,-0.99,3.23,3.23,1.53
15.0050,0.08,0.12,-0.99,3.54,3.42,1.77
15.0170,0.07,0.12,-0.99,3.60,3.30,1.95
15.0390,0.08,0.13,-0.99,2.99,3.36,1.77
15.0570,0.08,0.12,-0.99,2.01,3.60,1.95
15.0730,0.08,0.12,-0.99,2.14,3.42,1.95
15.0880,0.08,0.12,-0.99,3.23,2.87,1.83
15.1050,0.08,0.12,-0.99,3.48,2.99,2.01
15.1200,0.07,0.12,-0.99,3.30,3.11,2.01
15.1350,0.08,0.12,-0.98,2.75,3.42,1.95
15.1500,0.09,0.12,-1.00,2.87,3.17,1.83
15.1650,0.07,0.12,-0.99,2.38,2.99,1.89
15.1770,0.07,0.12,-0.99,2.87,2.93,1.83
15.1940,0.07,0.12,-0.99,2.81,2.93,1.95
15.2110,0.08,0.11,-0.99,2.81,3.23,2.08
15.2260,0.07,0.12,-0.99,3.05,2.99,2.08
15.2420,0.08,0.12,-0.99,3.48,3.17,2.01
15.2580,0.08,0.13,-0.99,3.48,3.05,2.01
15.2740,0.07,0.12,-0.99,2.93,2.93,2.01
15.2770,0.08,0.12,-0.99,2.69,3.05,2.08
15.2930,0.07,0.11,-0.99,2.69,3.42,2.14
15.3150,0.08,0.12,-0.99,3.42,3.05,1.95
15.3330,0.07,0.12,-0.99,3.42,2.93,2.01
15.3480,0.08,0.12,-0.99,3.66,2.93,1.95
15.3650,0.08,0.12,-0.99,3.36,3.23,2.01
15.3830,0.10,0.12,-0.99,2.75,3.42,1.83
15.3990,0.08,0.12,-0.99,2.50,3.23,1.65
15.4140,0.07,0.12,-0.99,2.99,3.05,1.95
15.4290,0.07,0.13,-0.99,3.30,2.99,2.14
15.4440,0.07,0.12,-0.99,3.11,3.17,2.01
15.4590,0.07,0.12,-0.99,2.81,2.81,2.14
15.4710,0.07,0.12,-0.99,3.17,3.11,1.71
15.4870,0.07,0.12,-0.99,3.36,3.17,1.59
15.5040,0.08,0.12,-0.99,3.48,3.11,1.28
15.5200,0.08,0.12,-0.99,3.72,2.87,1.16
15.5360,0.07,0.13,-0.99,3.66,3.11,1.46
15.5500,0.08,0.12,-0.99,2.87,2.93,1.77
15.5650,0.07,0.12,-0.99,2.75,3.11,2.08
15.5800,0.08,0.12,-0.99,2.93,2.93,2.08
15.5920,0.08,0.12,-0.99,3.11,3.11,2.20
15.6070,0.08,0.12,-0.99,3.23,3.05,2.08
15.6250,0.08,0.12,-0.99,2.93,3.23,2.14
15.6400,0.08,0.12,-0.99,3.05,3.30,1.77
15.6460,0.08,0.13,-0.99,2.81,3.23,1.89
15.6630,0.08,0.12,-1.00,2.93,2.93,1.95
15.6800,0.08,0.12,-0.99,2.75,3.42,2.01
15.7000,0.07,0.12,-0.99,2.87,3.05,2.01
15.7160,0.07,0.12,-0.99,3.60,2.81,1.77
15.7320,0.07,0.12,-0.99,3.36,3.05,1.71
15.7490,0.07,0.12,-0.99,3.42,3.23,1.65
15.7510,0.08,0.12,-0.99,3.17,3.30,1.65
15.7790,0.07,0.12,-0.99,3.72,2.87,1.65
15.7940,0.08,0.12,-0.99,3.48,3.23,1.65
15.8090,0.08,0.12,-0.99,3.36,3.36,1.83
15.8240,0.08,0.12,-0.99,3.48,2.93,1.83
15.8340,0.08,0.12,-0.99,3.11,3.05,1.71
15.8500,0.07,0.12,-0.99,3.23,3.05,1.83
15.8670,0.07,0.12,-0.99,2.87,3.23,1.65
15.8840,0.07,0.12,-0.99,3.23,3.23,1.77
15.9000,0.08,0.12,-0.99,3.72,3.36,1.59
15.9170,0.07,0.12,-0.99,4.39,2.99,1.59
15.9330,0.08,0.13,-0.99,4.03,3.36,1.40
15.9380,0.08,0.13,-0.99,2.69,3.60,1.46
15.9550,0.08,0.13,-0.99,2.32,3.23,1.53
15.9780,0.08,0.12,-0.99,2.50,3.54,1.77
15.9930,0.07,0.12,-0.99,3.30,2.62,1.59
16.0060,0.08,0.12,-0.99,3.23,2.69,1.65
16.0220,0.08,0.13,-0.99,3.36,2.81,1.53
16.0380,0.08,0.13,-1.00,3.36,3.17,1.59
16.0530,0.07,0.12,-0.99,2.62,3.42,1.53
16.0680,0.08,0.13,-0.99,2.81,3.48,2.14
16.0720,0.08,0.12,-0.99,2.87,3.11,2.26
16.0990,0.07,0.12,-0.99,3.48,3.05,1.89
16.1140,0.07,0.12,-0.99,3.42,2.99,1.89
16.1290,0.07,0.12,-0.99,2.99,3.42,1.77
16.1430,0.08,0.13,-0.99,2.87,3.23,1.71
16.1540,0.07,0.12,-0.99,2.62,3.60,1.89
16.1710,0.07,0.12,-0.99,2.99,3.05,1.83
16.1880,0.07,0.12,-0.99,3.30,3.23,1.89
16.2040,0.08,0.12,-0.99,3.54,2.99,1.77
16.2200,0.07,0.12,-0.99,3.36,3.11,1.71
16.2340,0.08,0.12,-0.99,3.23,2.69,1.77
16.2490,0.08,0.12,-0.99,3.05,3.54,1.83
16.2640,0.08,0.12,-0.99,3.36,3.36,1.83
16.2780,0.08,0.12,-1.00,3.78,2.56,1.95
16.2940,0.07,0.12,-0.99,3.30,2.69,1.89
16.3060,0.07,0.13,-0.99,2.69,3.17,1.71
16.3210,0.07,0.13,-0.99,2.99,3.30,1.77
16.3380,0.07,0.12,-0.99,2.87,3.36,1.65
16.3550,0.07,0.12,-0.99,3.23,3.11,1.83
16.3720,0.07,0.12,-0.99,3.23,3.42,1.83
16.3870,0.07,0.12,-0.99,3.36,3.23,1.71
16.4020,0.08,0.12,-0.99,3.36,3.30,1.89
16.4170,0.08,0.13,-0.99,3.48,3.05,1.59
16.4320,0.08,0.12,-0.99,2.87,3.05,1.65
16.4470,0.08,0.12,-0.99,2.32,3.17,1.83
16.4610,0.08,0.12,-1.00,2.62,3.36,2.01
16.4720,0.07,0.12,-0.99,3.11,3.17,2.01
16.4890,0.07,0.12,-0.99,3.85,3.23,1.83
16.5070,0.08,0.13,-0.99,3.78,3.05,1.89
16.5220,0.08,0.13,-0.99,3.17,3.05,2.01
16.5370,0.07,0.12,-0.99,2.26,3.36,1.95
16.5520,0.07,0.12,-0.99,2.20,3.17,1.95
16.5670,0.08,0.12,-0.99,3.05,3.17,1.95
16.5740,0.07,0.13,-0.99,4.03,2.99,1.89
16.5970,0.08,0.13,-0.99,3.78,2.69,1.65
16.6070,0.08,0.13,-0.99,3.30,2.99,1.65
16.6230,0.08,0.12,-1.00,2.56,3.17,1.77
16.6400,0.07,0.11,-0.99,2.32,3.11,1.83
16.6570,0.07,0.12,-0.99,3.54,2.87,2.08
16.6730,0.07,0.12,-0.99,3.72,3.17,2.01
16.6880,0.08,0.13,-0.99,3.72,2.87,1.95
16.7030,0.08,0.13,-0.99,2.56,3.48,1.95
16.7190,0.08,0.12,-0.99,2.26,3.23,1.77
16.7240,0.08,0.12,-0.99,2.69,3.23,1.83
16.7500,0.07,0.12,-0.99,3.11,2.69,1.95
16.7640,0.08,0.12,-0.99,3.78,3.05,2.14
16.7790,0.08,0.13,-1.00,3.85,2.93,1.89
16.7900,0.08,0.12,-0.99,2.56,2.81,1.77
16.8070,0.07,0.12,-0.99,2.08,3.30,1.95
16.8230,0.08,0.12,-0.99,2.20,3.42,1.89
16.8390,0.08,0.12,-0.99,2.81,3.36,2.14
16.8540,0.07,0.12,-0.99,3.30,3.30,2.08
16.8690,0.07,0.13,-0.99,3.23,2.81,1.89
16.8840,0.07,0.12,-0.99,2.99,3.05,1.83
16.8990,0.08,0.12,-0.99,2.69,3.54,1.89
16.9140,0.08,0.12,-0.99,2.75,3.30,1.59
16.9250,0.07,0.12,-0.99,3.23,2.99,1.71
16.9420,0.07,0.12,-0.99,3.36,3.36,1.77
16.9580,0.07,0.13,-0.99,3.42,2.99,1.65
16.9740,0.07,0.12,-0.99,2.81,2.99,1.95
16.9900,0.07,0.12,-0.99,2.75,2.87,1.65
17.0050,0.08,0.12,-0.99,3.17,3.17,1.71
17.0200,0.07,0.12,-0.99,2.93,3.17,1.95
17.0360,0.08,0.12,-0.99,3.17,2.99,1.65
17.0520,0.07,0.12,-0.99,2.75,3.17,1.77
17.0670,0.07,0.12,-0.99,2.62,3.05,1.77
17.0830,0.07,0.12,-0.99,3.05,3.05,1.83
17.0980,0.08,0.12,-0.99,2.93,2.69,1.59
17.1090,0.08,0.12,-0.99,2.50,3.11,1.83
17.1250,0.09,0.12,-0.99,3.05,3.17,1.95
17.1420,0.08,0.12,-0.99,2.62,3.05,1.89
17.1580,0.07,0.12,-0.99,2.81,3.11,1.95
17.1730,0.07,0.12,-0.99,3.11,3.36,1.83
17.1890,0.08,0.12,-0.99,2.93,3.54,1.83
17.2040,0.08,0.12,-0.99,2.69,3.36,1.83
17.2190,0.07,0.12,-0.99,2.87,2.87,1.89
17.2340,0.07,0.12,-0.99,3.48,3.05,2.01
17.2420,0.08,0.12,-0.99,3.91,2.87,2.14
17.2640,0.08,0.12,-0.99,3.11,3.48,1.95
17.2760,0.07,0.12,-0.99,2.93,3.54,1.83
17.2920,0.08,0.12,-0.99,2.81,3.42,1.71
17.3080,0.07,0.12,-0.99,3.11,3.30,1.95
17.3250,0.09,0.12,-0.98,3.72,3.23,1.71
17.3400,0.07,0.13,-1.00,3.48,3.11,1.89
17.3550,0.08,0.12,-0.99,2.38,2.93,1.77
17.3700,0.07,0.12,-0.99,2.20,3.05,1.89
17.3840,0.07,0.12,-0.99,3.17,3.36,1.77
17.3960,0.08,0.12,-0.99,3.11,3.11,1.71
17.4130,0.08,0.12,-1.00,3.48,3.11,1.71
17.4280,0.07,0.12,-0.99,2.56,3.36,1.95
17.4450,0.07,0.12,-0.99,2.69,3.42,1.95
17.4620,0.07,0.12,-0.99,2.99,3.36,1.89
17.4770,0.08,0.12,-0.99,3.85,2.81,1.65
17.4930,0.07,0.12,-0.99,3.78,2.99,1.71
17.5080,0.08,0.12,-0.99,3.36,3.05,1.59
17.5230,0.08,0.12,-0.99,3.60,2.81,1.77
17.5380,0.08,0.12,-0.99,3.05,2.99,1.77
17.5530,0.09,0.12,-1.00,3.17,2.87,1.77
17.5680,0.07,0.12,-0.99,2.69,3.17,1.65
17.5780,0.07,0.12,-0.99,2.56,3.23,1.59
17.5950,0.07,0.12,-0.99,2.56,2.99,1.65
17.6130,0.07,0.12,-0.99,3.48,3.17,1.65
17.6280,0.07,0.11,-0.98,3.42,3.05,1.40
17.6430,0.09,0.13,-1.00,3.78,3.17,1.53
17.6580,0.09,0.13,-0.99,2.32,2.93,1.34
17.6740,0.07,0.12,-0.99,2.01,3.48,1.22
17.6880,0.07,0.12,-0.99,2.69,3.30,1.46
17.7040,0.05,0.12,-1.00,1.83,3.30,1.77
17.7130,0.07,0.12,-0.99,2.75,3.42,1.77
17.7290,0.07,0.12,-0.99,3.30,3.42,1.71
17.7450,0.07,0.12,-1.00,3.42,3.05,1.65
17.7620,0.07,0.12,-0.99,2.75,2.87,1.65
17.7780,0.08,0.11,-0.98,3.11,2.99,1.59
17.7960,0.07,0.12,-1.00,3.72,3.05,1.71
17.8080,0.07,0.12,-0.99,2.99,3.05,1.40
17.8150,0.07,0.12,-0.99,2.93,3.30,1.71
17.8300,0.08,0.12,-0.99,3.05,3.36,1.65
17.8470,0.08,0.12,-0.99,2.99,2.75,1.83
17.8710,0.07,0.12,-0.99,3.54,2.50,1.71
17.8800,0.07,0.12,-0.99,4.09,2.99,1.89
17.8960,0.07,0.12,-0.99,4.03,2.69,1.89
17.9150,0.07,0.12,-0.99,3.42,2.50,1.71
17.9310,0.07,0.12,-0.99,3.17,2.44,1.77
17.9470,0.08,0.12,-0.99,3.60,2.69,1.71
17.9520,0.08,0.12,-0.99,4.27,2.26,2.01
17.9780,0.08,0.12,-0.99,4.46,2.50,1.89
17.9930,0.08,0.12,-0.99,3.54,2.99,1.83
18.0080,0.08,0.12,-0.99,2.93,2.87,1.89
18.0230,0.08,0.12,-0.99,3.48,2.75,1.77
18.0360,0.08,0.11,-0.98,4.58,2.01,1.83
18.0510,0.10,0.13,-1.00,5.31,1.10,1.46
18.0670,0.07,0.13,-1.01,6.29,1.40,1.59
18.0850,0.08,0.13,-0.99,4.27,2.75,1.77
18.1010,0.08,0.12,-0.99,3.42,2.75,1.77
18.1180,0.08,0.12,-0.99,3.42,3.30,1.89
18.1340,0.08,0.12,-0.99,3.30,3.54,1.95
18.1490,0.08,0.13,-1.00,2.99,3.72,1.83
18.1640,0.08,0.12,-0.98,2.14,4.09,2.01
18.1790,0.11,0.15,-1.02,1.89,3.78,2.01
18.1890,0.07,0.13,-1.00,2.01,4.27,2.01
18.2050,0.07,0.12,-0.99,2.08,4.09,1.89
18.2220,0.08,0.12,-0.99,2.26,3.97,1.89
18.2380,0.08,0.12,-0.99,3.05,3.48,1.77
18.2540,0.08,0.12,-0.99,3.48,3.11,1.83
18.2690,0.08,0.12,-0.99,3.78,3.23,2.01
18.2840,0.08,0.12,-0.99,3.97,3.36,2.01
18.2890,0.08,0.12,-0.99,3.78,3.36,1.95
18.3170,0.08,0.13,-0.99,3.78,3.17,1.83
18.3330,0.08,0.12,-0.99,3.36,3.48,1.34
18.3490,0.08,0.12,-1.00,2.38,3.17,1.16
18.3640,0.07,0.13,-0.99,2.01,2.87,1.46
18.3790,0.08,0.12,-0.99,2.81,3.11,1.89
18.3940,0.08,0.12,-0.99,2.93,3.72,2.01
18.4040,0.08,0.12,-0.99,3.05,3.36,1.71
18.4220,0.08,0.12,-0.99,2.99,2.99,1.46
18.4370,0.08,0.12,-0.99,2.81,3.23,0.61
18.4550,0.07,0.13,-0.99,2.75,3.05,0.49
18.4700,0.07,0.12,-0.99,2.87,3.17,0.98
18.4860,0.07,0.13,-0.99,2.93,2.93,1.46
18.5020,0.08,0.12,-0.99,3.17,2.99,1.83
18.5100,0.09,0.11,-1.00,3.42,3.78,1.59
18.5330,0.08,0.11,-0.99,2.75,3.66,-0.61
18.5480,0.08,0.11,-0.99,2.81,3.60,-0.55
18.5590,0.07,0.11,-0.99,3.48,3.54,-0.24
18.5760,0.07,0.13,-0.99,3.23,3.85,-0.73
18.5930,0.07,0.14,-0.99,3.23,3.42,0.24
18.6090,0.08,0.13,-0.99,2.81,3.23,1.04
18.6250,0.08,0.12,-0.99,2.62,3.60,0.85
18.6410,0.08,0.12,-0.99,2.44,3.66,0.79
18.6560,0.07,0.13,-0.99,2.99,3.36,0.85
18.6660,0.08,0.13,-0.99,3.42,3.11,1.46
18.6820,0.08,0.12,-0.99,2.87,3.17,1.77
18.7030,0.07,0.12,-0.99,2.99,3.23,1.95
18.7190,0.08,0.12,-0.99,3.17,2.69,1.34
18.7210,0.08,0.12,-0.99,2.99,2.69,0.79
18.7370,0.08,0.12,-0.99,3.23,3.30,0.06
18.7590,0.07,0.13,-0.99,3.23,3.42,0.31
18.7800,0.08,0.13,-0.99,3.23,3.60,1.10
18.7920,0.07,0.13,-0.99,2.75,3.60,1.46
18.8100,0.08,0.12,-0.99,2.87,3.17,1.22
18.8260,0.08,0.12,-0.99,2.99,3.60,0.92
18.8420,0.08,0.11,-0.99,3.48,3.17,0.18
18.8580,0.07,0.13,-0.99,3.60,3.48,-0.12
18.8740,0.07,0.13,-0.99,3.30,3.60,0.55
18.8890,0.07,0.13,-0.99,2.99,2.93,1.16
18.9040,0.08,0.12,-0.99,2.87,3.23,1.65
18.9190,0.08,0.12,-0.99,2.69,3.23,1.46
18.9340,0.08,0.12,-0.99,2.87,3.66,0.85
18.9490,0.07,0.12,-0.99,3.11,3.42,0.49
18.9640,0.07,0.12,-0.99,3.60,3.42,0.85
18.9750,0.07,0.12,-0.99,3.30,3.23,0.37
18.9910,0.08,0.12,-0.99,3.42,2.93,0.12
19.0110,0.07,0.13,-0.99,3.36,3.48,0.55
19.0140,0.07,0.13,-0.99,3.17,3.05,1.34
19.0410,0.07,0.12,-0.99,2.99,2.99,1.46
19.0560,0.07,0.12,-0.99,3.30,2.87,1.71
19.0630,0.08,0.12,-0.99,3.78,3.17,1.65
19.0810,0.07,0.11,-0.99,3.30,3.23,1.16
19.0960,0.07,0.13,-0.99,2.87,3.30,0.55
19.1120,0.07,0.12,-0.99,3.42,3.36,0.61
19.1320,0.07,0.13,-0.99,3.23,3.05,0.67
19.1480,0.08,0.13,-0.99,2.99,2.99,1.46
19.1630,0.08,0.12,-0.99,3.05,3.05,1.71
19.1780,0.08,0.12,-0.99,3.23,3.23,2.01
19.1930,0.08,0.12,-0.99,3.78,3.17,1.53
19.2000,0.07,0.12,-0.99,2.99,3.17,0.85
19.2160,0.07,0.12,-0.99,3.23,3.11,0.79
19.2370,0.07,0.12,-0.99,3.48,2.87,0.61
19.2530,0.08,0.14,-0.99,3.05,3.48,1.10
19.2550,0.08,0.13,-0.99,3.36,2.75,1.46
19.2850,0.08,0.12,-0.99,3.42,2.99,1.95
19.3010,0.07,0.12,-0.99,3.05,3.36,1.71
19.3110,0.08,0.12,-0.99,2.93,3.23,1.34
19.3320,0.08,0.13,-0.99,3.17,3.54,1.40
19.3470,0.07,0.12,-0.99,3.17,3.17,1.28
19.3620,0.08,0.12,-0.99,3.05,3.36,1.34
19.3710,0.07,0.12,-0.99,3.23,3.42,1.46
19.3870,0.08,0.12,-0.99,3.17,3.11,1.04
19.4040,0.08,0.13,-0.99,3.17,3.23,0.79
19.4200,0.08,0.13,-0.99,3.23,3.11,0.98
19.4370,0.08,0.13,-0.99,3.30,3.05,1.40
19.4530,0.08,0.12,-0.99,3.11,2.81,1.34
19.4680,0.07,0.12,-0.99,2.81,3.05,1.22
19.4840,0.08,0.12,-0.99,3.23,3.48,0.55
19.4990,0.07,0.12,-0.99,3.60,3.23,0.37
19.5140,0.08,0.12,-0.99,3.42,3.30,0.55
19.5290,0.08,0.12,-0.99,3.36,3.23,0.79
19.5440,0.07,0.12,-0.99,4.03,2.87,0.79
19.5540,0.08,0.12,-0.99,3.30,3.36,0.31
19.5710,0.08,0.13,-0.99,3.42,3.54,0.12
19.5870,0.08,0.13,-0.99,3.48,3.54,-0.06
19.6040,0.07,0.14,-0.99,3.48,3.30,0.31
19.6190,0.08,0.13,-0.99,3.23,2.99,1.40
19.6210,0.08,0.12,-0.99,3.11,2.62,1.40
19.6490,0.08,0.12,-0.99,2.81,3.23,1.28
19.6640,0.07,0.12,-0.99,3.60,3.11,0.98
19.6710,0.07,0.11,-1.00,3.54,3.66,0.43
19.6870,0.07,0.11,-1.00,3.30,3.23,0.00
19.7040,0.08,0.12,-0.99,3.11,3.23,-0.37
19.7200,0.08,0.14,-0.99,3.85,3.42,-0.79
19.7370,0.08,0.13,-0.99,4.33,3.23,0.61
19.7540,0.08,0.13,-0.99,3.54,3.05,0.67
19.7700,0.08,0.13,-0.99,3.17,3.48,0.49
19.7860,0.08,0.14,-0.99,3.48,2.99,0.92
19.8010,0.08,0.13,-0.99,3.30,2.93,1.34
19.8170,0.08,0.12,-0.99,3.05,2.75,1.40
19.8320,0.08,0.12,-0.99,2.81,3.42,0.79
19.8380,0.07,0.12,-0.99,3.54,3.42,-0.06
19.8620,0.07,0.12,-0.99,3.60,2.93,0.06
19.8770,0.07,0.12,-0.99,3.66,2.99,0.18
19.8870,0.07,0.12,-0.99,3.05,3.54,0.12
19.9040,0.08,0.12,-0.99,3.48,3.48,0.00
19.9200,0.07,0.12,-0.99,3.54,4.03,-0.31
19.9370,0.08,0.12,-0.99,3.30,3.85,-0.61
19.9380,0.07,0.13,-0.99,3.42,3.48,-0.98
19.9670,0.08,0.13,-0.99,3.54,3.48,-0.37
19.9830,0.07,0.13,-0.99,3.48,3.30,0.12
19.9880,0.08,0.13,-0.99,3.36,3.60,0.98
20.0130,0.08,0.12,-0.99,3.48,3.30,0.92
20.0280,0.08,0.13,-0.99,2.75,3.48,0.92
20.0430,0.08,0.13,-0.99,3.42,3.11,1.10
20.0530,0.07,0.11,-0.99,3.36,3.23,1.10
20.0720,0.07,0.11,-0.99,2.99,3.54,0.67
20.0870,0.08,0.11,-0.99,3.30,3.42,0.43
20.1030,0.07,0.12,-0.99,3.30,3.66,-0.18
20.1200,0.07,0.13,-0.99,3.30,3.23,0.12
20.1350,0.08,0.13,-0.99,4.21,2.93,0.55
20.1500,0.08,0.13,-0.99,3.30,3.30,0.37
20.1650,0.08,0.13,-0.99,3.30,3.11,0.55
20.1800,0.08,0.12,-0.99,3.23,2.99,0.79
20.1950,0.08,0.12,-0.99,3.17,3.17,0.43
20.2100,0.08,0.13,-0.99,3.30,3.23,0.12
20.2220,0.07,0.14,-0.99,3.23,2.99,0.85
20.2380,0.07,0.13,-0.99,2.99,3.05,1.40
20.2550,0.07,0.12,-0.99,3.23,3.05,1.83
20.2560,0.07,0.11,-0.99,3.17,2.87,1.34
20.2870,0.08,0.12,-0.99,3.17,3.11,0.92
20.3030,0.07,0.13,-0.99,2.99,3.30,0.43
20.3180,0.07,0.12,-0.99,3.42,3.36,0.37
20.3330,0.08,0.13,-0.99,3.60,3.30,0.43
20.3480,0.08,0.13,-0.99,3.17,3.23,0.55
20.3630,0.07,0.12,-0.99,3.78,3.05,1.34
20.3720,0.08,0.12,-0.99,3.30,3.17,1.28
20.3940,0.08,0.13,-0.99,3.23,3.48,0.49
20.4050,0.08,0.14,-0.99,3.78,3.17,1.10
20.4220,0.08,0.13,-0.99,3.66,3.17,1.16
20.4380,0.07,0.12,-0.99,2.93,3.36,0.98
20.4540,0.07,0.12,-0.99,3.48,2.87,0.85
20.4620,0.08,0.13,-0.99,3.48,2.81,0.79
20.4780,0.07,0.12,-0.99,3.66,2.87,0.73
20.4930,0.07,0.12,-0.99,3.30,3.48,0.55
20.5130,0.08,0.13,-0.99,2.50,3.66,0.31
20.5290,0.08,0.13,-0.99,3.05,3.11,0.37
20.5450,0.07,0.13,-0.99,3.23,3.54,0.79
20.5600,0.08,0.13,-0.99,3.17,3.60,0.98
20.5750,0.08,0.13,-1.00,2.87,3.36,1.22
20.5890,0.08,0.13,-0.99,2.69,3.30,0.67
20.6050,0.08,0.13,-0.99,3.05,3.30,0.92
20.6130,0.07,0.12,-0.99,3.42,3.36,0.98
20.6300,0.07,0.13,-0.99,3.30,2.99,0.73
20.6460,0.07,0.12,-0.99,3.17,3.30,1.28
20.6670,0.07,0.12,-0.99,3.23,3.17,1.10
20.6680,0.08,0.13,-0.99,3.05,3.17,1.34
20.6990,0.08,0.12,-0.99,3.11,3.36,1.10
20.7130,0.07,0.12,-0.99,3.17,3.30,0.12
20.7180,0.08,0.13,-0.99,3.36,3.54,-0.12
20.7460,0.08,0.12,-0.99,4.03,3.72,-0.24
20.7520,0.08,0.12,-0.99,4.21,3.36,-1.28
20.7760,0.08,0.13,-0.99,3.17,3.48,-1.28
20.7850,0.07,0.14,-0.99,3.42,3.23,0.18
20.8020,0.08,0.13,-0.99,3.66,3.23,1.16
20.8180,0.08,0.14,-0.99,3.05,2.75,1.22
20.8350,0.08,0.13,-0.99,3.05,2.87,1.53
20.8510,0.08,0.12,-0.99,3.30,3.05,1.28
20.8690,0.08,0.12,-0.99,3.30,3.36,0.73
20.8840,0.07,0.12,-0.99,3.11,3.17,0.06
20.8850,0.07,0.12,-0.99,3.54,3.36,-0.12
20.9130,0.07,0.12,-0.99,3.42,3.54,-1.10
20.9320,0.07,0.12,-0.99,3.30,3.42,-1.34
20.9470,0.07,0.14,-0.99,3.48,3.54,0.12
20.9520,0.07,0.13,-0.99,3.78,3.17,0.49
20.9790,0.08,0.13,-0.99,3.11,3.23,0.79
20.9940,0.08,0.13,-0.99,3.66,3.23,1.04
21.0030,0.08,0.13,-0.99,3.42,3.23,0.61
21.0240,0.08,0.13,-0.99,3.11,3.23,0.61
21.0360,0.07,0.13,-0.99,3.05,2.81,0.79
21.0510,0.07,0.12,-0.99,3.42,3.05,0.67
21.0680,0.07,0.12,-0.99,3.78,2.87,1.04
21.0840,0.07,0.13,-0.99,3.72,3.42,0.85
21.1000,0.08,0.13,-0.99,3.36,3.17,0.92
21.1160,0.08,0.13,-0.99,3.05,3.48,0.55
21.1240,0.08,0.13,-0.99,2.99,3.23,0.37
21.1470,0.08,0.12,-0.99,3.48,3.30,0.55
21.1570,0.07,0.13,-0.99,3.48,3.30,0.06
21.1740,0.08,0.14,-0.99,3.23,3.48,0.55
21.1910,0.08,0.13,-0.99,3.48,3.11,1.34
21.2070,0.07,0.13,-0.99,3.23,2.93,1.34
21.2220,0.07,0.13,-0.99,3.23,2.75,1.59
21.2370,0.08,0.12,-0.99,3.17,3.23,1.04
21.2520,0.07,0.13,-0.99,3.17,3.48,0.67
21.2670,0.07,0.13,-0.99,3.17,3.36,1.10
21.2830,0.08,0.12,-0.99,3.48,3.11,1.40
21.3010,0.08,0.13,-0.99,3.36,3.05,1.22
21.3150,0.07,0.13,-0.99,2.99,2.93,1.34
21.3240,0.08,0.12,-0.99,3.23,3.17,0.85
21.3400,0.08,0.13,-0.99,2.62,3.42,0.31
21.3570,0.08,0.14,-0.99,3.78,3.17,0.92
21.3730,0.07,0.13,-0.99,3.91,2.93,1.28
21.3910,0.07,0.13,-0.99,3.54,3.36,1.46
21.4060,0.08,0.12,-0.99,3.54,2.81,1.22
21.4140,0.08,0.12,-0.99,3.36,3.23,0.79
21.4370,0.07,0.12,-0.99,3.42,3.23,0.12
21.4520,0.07,0.12,-0.99,3.23,3.42,-0.49
21.4670,0.07,0.13,-0.99,3.05,3.48,-0.49
21.4770,0.07,0.13,-0.99,3.42,2.99,0.06
21.4940,0.07,0.13,-0.99,3.85,3.17,0.55
21.5100,0.07,0.13,-0.99,3.30,2.93,0.31
21.5280,0.07,0.13,-0.99,3.23,3.11,0.24
21.5280,0.07,0.13,-0.99,3.42,3.48,0.49
21.5580,0.08,0.13,-0.99,3.72,3.23,0.85
21.5730,0.07,0.13,-0.99,3.60,3.17,0.43
21.5890,0.07,0.13,-0.99,3.17,3.17,0.61
21.6040,0.08,0.12,-0.99,3.54,3.42,0.31
21.6200,0.08,0.12,-0.99,3.60,3.66,0.06
21.6350,0.07,0.13,-0.99,3.66,3.54,-0.37
21.6500,0.07,0.14,-0.99,3.48,3.17,0.49
21.6660,0.07,0.13,-0.99,3.72,3.11,0.98
21.6760,0.08,0.13,-0.99,3.30,2.87,0.79
21.6930,0.08,0.13,-0.99,3.54,2.87,1.22
21.7110,0.07,0.12,-0.99,3.97,2.81,0.79
21.7140,0.08,0.13,-0.99,3.36,3.48,0.12
21.7410,0.07,0.12,-0.99,3.36,3.23,-0.43
21.7570,0.07,0.13,-0.99,3.42,3.23,-0.43
21.7730,0.07,0.13,-0.99,3.66,3.42,0.37
21.7880,0.07,0.13,-0.99,3.85,3.17,0.37
21.8030,0.07,0.14,-0.99,3.30,2.62,1.16
21.8180,0.08,0.12,-0.99,3.97,3.05,1.22
21.8260,0.07,0.12,-0.99,3.66,3.05,0.73
21.8430,0.08,0.12,-0.99,3.23,3.23,0.18
21.8600,0.07,0.13,-0.99,3.30,3.23,-0.12
21.8770,0.07,0.13,-0.99,3.66,2.87,-0.06
21.8930,0.07,0.13,-0.99,3.91,2.93,0.61
21.9080,0.07,0.13,-0.99,3.78,3.17,0.73
21.9240,0.07,0.13,-0.99,3.78,3.11,0.49
21.9390,0.08,0.13,-0.99,3.23,3.23,0.31
21.9540,0.08,0.14,-0.99,3.11,2.99,0.37
21.9680,0.07,0.13,-0.99,3.11,3.23,0.85
21.9770,0.07,0.12,-0.99,3.48,3.05,0.79
22.0000,0.07,0.12,-0.99,3.36,3.17,0.18
22.0140,0.07,0.12,-0.99,3.48,3.30,0.00
22.0260,0.07,0.13,-0.99,3.60,3.36,0.00
22.0430,0.07,0.14,-0.99,3.48,3.05,0.43
22.0610,0.08,0.14,-0.99,3.54,3.05,0.73
22.0770,0.07,0.13,-0.99,3.42,2.75,0.79
22.0930,0.07,0.13,-0.99,2.93,2.75,1.22
22.1080,0.07,0.13,-0.99,2.93,3.05,1.16
22.1230,0.08,0.12,-0.99,3.30,3.05,0.79
22.1380,0.08,0.12,-0.99,3.66,3.54,-0.61
22.1540,0.08,0.14,-0.99,3.30,3.23,-0.61
22.1690,0.07,0.15,-0.99,3.42,3.42,0.92
22.1780,0.08,0.14,-0.99,3.54,2.69,2.14
22.1930,0.07,0.13,-0.99,3.48,2.75,2.20
22.2150,0.07,0.13,-0.99,3.48,3.05,1.89
22.2300,0.08,0.13,-0.99,3.36,3.17,1.46
22.2460,0.07,0.13,-0.99,3.17,2.99,1.34
22.2610,0.08,0.13,-0.99,3.11,3.30,0.92
22.2670,0.07,0.13,-0.99,3.72,3.11,0.61
22.2820,0.07,0.13,-0.99,3.85,3.05,0.73
22.3040,0.07,0.13,-0.99,3.23,3.36,0.85
22.3200,0.08,0.14,-0.99,3.11,3.23,0.67
22.3360,0.08,0.14,-0.99,3.11,2.75,1.16
22.3510,0.08,0.13,-0.99,3.30,2.50,1.83
22.3670,0.07,0.12,-0.99,4.03,3.42,0.92
22.3710,0.08,0.12,-0.99,4.15,3.54,-0.06
22.3860,0.08,0.14,-0.99,3.60,3.66,-0.12
22.4090,0.08,0.14,-0.99,4.21,3.30,0.49
22.4260,0.08,0.14,-0.99,3.60,3.54,1.10
22.4420,0.07,0.13,-0.99,3.54,3.66,0.79
22.4570,0.08,0.12,-0.99,2.81,3.11,0.37
22.4740,0.08,0.12,-0.99,2.69,3.72,-0.37
22.4890,0.07,0.13,-0.99,2.81,3.30,-1.04
22.5040,0.07,0.13,-0.99,3.72,3.48,-0.49
22.5130,0.07,0.12,-0.99,4.21,3.23,-0.55
22.5270,0.07,0.13,-0.99,3.60,2.99,-1.40
22.5490,0.08,0.15,-0.99,2.56,3.17,-1.65
22.5500,0.08,0.15,-0.99,3.23,2.99,-0.67
22.5800,0.08,0.15,-0.99,4.09,2.93,1.04
22.5950,0.08,0.14,-0.99,4.03,2.87,1.46
22.5990,0.08,0.13,-0.99,3.05,2.81,1.83
22.6170,0.08,0.13,-0.99,2.81,3.05,1.40
22.6430,0.07,0.13,-0.99,2.81,3.17,0.79
22.6490,0.07,0.13,-0.99,2.99,3.23,0.49
22.6740,0.07,0.14,-0.99,3.48,2.75,0.24
22.6830,0.07,0.14,-0.99,3.05,2.81,1.28
22.6990,0.08,0.14,-0.99,3.48,2.32,1.77
22.7160,0.07,0.12,-0.99,3.54,2.69,1.53
22.7320,0.07,0.13,-0.99,2.69,3.11,0.92
22.7510,0.07,0.13,-0.99,3.30,2.87,1.04
22.7670,0.07,0.13,-0.99,3.54,3.11,1.04
22.7830,0.07,0.12,-0.99,3.30,3.30,0.98
22.7990,0.08,0.13,-0.99,3.54,3.36,0.55
22.8140,0.08,0.14,-0.99,3.36,3.48,0.73
22.8170,0.08,0.14,-0.99,3.30,3.11,0.98
22.8450,0.07,0.14,-0.99,3.05,2.99,1.34
22.8600,0.07,0.12,-0.99,2.75,3.36,1.16
22.8750,0.08,0.12,-0.99,3.30,3.05,0.55
22.8840,0.07,0.12,-0.99,3.36,3.23,0.55
22.9010,0.07,0.13,-0.99,3.85,3.30,0.24
22.9180,0.08,0.13,-0.99,3.78,2.75,-0.24
22.9330,0.07,0.14,-0.99,2.87,3.30,0.18
22.9500,0.07,0.14,-0.99,3.30,2.93,0.73
22.9670,0.07,0.14,-0.99,3.91,2.93,1.34
22.9670,0.07,0.13,-0.99,3.30,2.87,0.85
22.9970,0.07,0.13,-0.99,2.93,3.36,-0.12
23.0040,0.08,0.14,-0.99,2.99,3.66,0.31
23.0270,0.07,0.13,-0.99,3.85,3.48,0.06
23.0380,0.08,0.13,-0.99,3.60,3.23,-0.31
23.0540,0.07,0.14,-0.99,3.23,3.23,-0.06
23.0720,0.07,0.13,-0.99,3.66,2.99,0.85
23.0870,0.08,0.13,-0.99,3.42,3.11,0.92
23.1030,0.08,0.13,-0.99,3.23,3.60,0.12
23.1190,0.07,0.13,-0.99,3.30,2.87,0.61
23.1340,0.08,0.12,-0.99,2.99,2.93,0.43
23.1380,0.08,0.12,-0.99,3.36,3.66,-0.67
23.1540,0.07,0.13,-0.99,3.66,3.36,-1.59
23.1800,0.07,0.14,-0.99,3.48,3.36,-0.92
23.1910,0.07,0.14,-0.99,3.60,3.17,0.06
23.2070,0.07,0.13,-0.99,3.42,2.69,0.73
23.2250,0.08,0.13,-0.99,2.81,2.69,0.55
23.2400,0.07,0.13,-0.99,4.09,2.93,0.00
23.2420,0.08,0.13,-0.99,3.66,3.23,0.06
23.2700,0.08,0.14,-0.99,3.11,3.11,-0.24
23.2850,0.07,0.14,-0.99,3.23,3.30,-0.06
23.3000,0.08,0.15,-0.99,3.17,3.05,1.10
23.3140,0.08,0.13,-0.99,3.42,3.11,1.71
23.3250,0.08,0.12,-0.99,3.36,2.99,1.28
23.3400,0.07,0.12,-0.99,1.95,2.93,0.24
23.3610,0.07,0.13,-0.99,2.38,3.11,-0.37
23.3760,0.07,0.12,-0.99,3.85,2.87,0.24
23.3910,0.07,0.13,-0.99,3.36,2.99,-0.61
23.4060,0.07,0.15,-0.99,2.93,3.54,-0.37
23.4210,0.08,0.15,-0.99,3.36,2.99,0.55
23.4360,0.08,0.14,-0.99,3.05,3.05,0.85
23.4460,0.08,0.13,-0.99,2.69,3.11,1.34
23.4620,0.08,0.12,-0.99,3.54,2.81,1.53
23.4790,0.08,0.13,-0.99,3.23,3.23,0.00
23.4960,0.07,0.13,-0.99,3.30,3.23,0.00
23.5120,0.07,0.14,-0.99,3.23,2.99,0.06
23.5270,0.07,0.13,-0.99,3.54,3.17,0.49
23.5420,0.07,0.13,-0.99,2.93,3.30,0.31
23.5570,0.07,0.14,-0.99,3.05,3.23,0.31
23.5720,0.07,0.13,-0.99,3.36,3.11,0.24
23.5870,0.07,0.13,-0.99,3.36,2.87,0.18
23.5960,0.08,0.12,-0.99,3.42,3.30,0.18
23.6140,0.08,0.12,-0.99,3.05,3.48,-0.18
23.6300,0.07,0.13,-0.99,2.93,3.30,-1.16
23.6460,0.07,0.14,-0.99,3.97,3.30,-0.61
23.6620,0.08,0.14,-0.99,3.97,3.30,0.06
23.6710,0.08,0.14,-0.99,3.23,2.81,0.55
23.6880,0.07,0.14,-0.99,3.42,3.05,0.49
23.7040,0.08,0.13,-0.99,2.87,2.62,1.10
23.7200,0.07,0.13,-0.99,2.93,2.93,0.85
23.7360,0.08,0.13,-0.99,3.78,3.54,-0.37
23.7520,0.07,0.14,-0.99,2.87,3.30,-0.37
23.7710,0.07,0.14,-0.99,3.36,3.36,0.85
23.7860,0.07,0.14,-0.99,3.11,3.17,1.04
23.8020,0.07,0.13,-0.99,2.87,2.93,0.98
23.8180,0.08,0.12,-1.00,3.11,2.93,1.16
23.8340,0.08,0.13,-0.99,2.01,3.36,0.43
23.8500,0.07,0.14,-0.99,3.85,2.87,0.55
23.8650,0.07,0.14,-0.99,3.97,2.93,0.92
23.8810,0.08,0.14,-0.99,3.60,2.81,1.34
23.8960,0.08,0.13,-0.99,3.23,2.81,1.40
23.9070,0.08,0.13,-0.99,2.99,2.75,0.85
23.9220,0.07,0.13,-0.99,2.81,2.99,1.10
23.9410,0.07,0.13,-0.99,3.11,2.87,1.22
23.9560,0.07,0.13,-0.99,3.17,2.75,1.22
23.9710,0.07,0.13,-0.99,2.93,2.93,1.22
23.9770,0.07,0.13,-0.99,3.17,2.93,1.40
23.9930,0.07,0.11,-1.00,3.11,2.75,1.34
24.0150,0.07,0.12,-0.99,2.38,2.75,1.34
24.0320,0.07,0.13,-0.99,3.23,3.48,0.06
24.0470,0.08,0.13,-0.99,3.23,3.17,0.73
24.0640,0.08,0.14,-0.99,3.05,3.30,0.37
24.0800,0.08,0.15,-0.99,3.11,3.17,0.92
24.0950,0.07,0.13,-0.99,3.54,2.75,1.71
24.1020,0.08,0.13,-0.99,2.44,2.62,1.59
24.1250,0.08,0.14,-0.99,3.05,3.17,1.28
24.1360,0.07,0.14,-0.99,3.30,2.75,1.65
24.1520,0.08,0.13,-0.99,2.93,2.99,1.83
24.1690,0.07,0.13,-0.99,3.30,2.69,1.59
24.1850,0.07,0.13,-0.99,3.05,2.75,1.10
24.2020,0.08,0.13,-0.99,3.23,2.87,1.16
24.2150,0.08,0.13,-0.99,3.11,2.62,1.77
24.2180,0.08,0.13,-0.99,3.17,2.69,1.89
24.2400,0.07,0.12,-0.99,3.91,3.11,1.89
24.2630,0.07,0.13,-0.99,3.17,3.36,1.46
24.2740,0.08,0.13,-0.99,3.17,3.30,1.04
24.2910,0.08,0.13,-0.99,2.87,3.30,0.73
24.3080,0.08,0.14,-0.99,2.69,2.87,1.10
24.3240,0.07,0.14,-0.99,3.30,2.75,1.40
24.3390,0.07,0.13,-0.99,3.54,2.69,1.53
24.3480,0.07,0.13,-0.99,2.93,2.93,1.77
24.3650,0.07,0.13,-0.99,3.05,3.17,1.59
24.3800,0.08,0.13,-0.99,2.93,3.30,2.01
24.4010,0.08,0.14,-0.99,3.05,3.36,1.46
24.4160,0.07,0.13,-1.00,3.97,2.93,1.34
24.4330,0.07,0.13,-0.99,3.17,3.66,0.85
24.4370,0.08,0.14,-0.99,2.44,3.05,1.16
24.4530,0.08,0.13,-0.99,3.48,2.75,1.40
24.4760,0.07,0.13,-0.99,3.54,2.81,1.40
24.4920,0.07,0.12,-0.98,2.87,3.05,1.71
24.5090,0.08,0.14,-0.99,2.75,3.05,1.71
24.5150,0.08,0.13,-0.99,2.93,2.75,1.83
24.5310,0.08,0.13,-0.99,3.11,2.56,1.83
24.5460,0.07,0.13,-0.99,3.23,2.69,1.89
24.5630,0.07,0.13,-0.99,3.05,2.56,1.71
24.5800,0.08,0.14,-0.99,2.62,2.87,1.89
24.5960,0.07,0.13,-0.99,3.11,2.44,1.95
24.6180,0.07,0.13,-0.99,3.60,2.69,2.01
24.6330,0.07,0.13,-0.99,2.56,2.62,1.89
24.6480,0.08,0.13,-0.99,2.69,3.05,1.89
24.6630,0.08,0.13,-0.99,3.17,2.93,1.77
24.6790,0.08,0.13,-0.99,3.72,3.17,1.04
24.6940,0.07,0.13,-0.99,3.60,2.81,1.71
24.7090,0.08,0.13,-0.99,2.69,2.93,1.71
24.7240,0.08,0.13,-0.99,2.50,2.87,1.65
24.7360,0.07,0.13,-0.99,3.30,2.50,1.71
24.7520,0.07,0.11,-0.99,3.60,2.93,1.46
24.7670,0.07,0.12,-0.99,2.81,3.23,0.12
24.7830,0.07,0.14,-0.99,2.69,3.23,0.06
24.7900,0.07,0.14,-0.99,3.11,3.11,0.18
24.8060,0.07,0.12,-0.99,3.66,3.05,-0.24
24.8300,0.07,0.13,-0.99,3.30,3.54,-1.22
24.8410,0.08,0.14,-0.99,3.36,3.30,0.06
24.8570,0.08,0.15,-0.99,3.66,3.11,0.79
24.8730,0.08,0.15,-0.99,2.99,2.75,1.65
24.8900,0.08,0.13,-0.99,2.87,2.93,1.95
24.9070,0.07,0.13,-0.99,3.42,2.75,1.77
24.9230,0.08,0.13,-0.99,3.30,2.99,1.89
24.9250,0.07,0.12,-0.99,3.30,3.36,1.40
24.9540,0.07,0.13,-0.99,2.93,3.42,1.40
24.9690,0.07,0.13,-0.99,3.85,2.62,1.71
24.9850,0.07,0.13,-0.99,3.78,2.87,1.59
25.0010,0.07,0.13,-0.99,3.05,3.17,0.92
25.0170,0.08,0.13,-0.99,3.11,2.99,1.40
25.0330,0.08,0.13,-0.99,3.48,3.23,1.59
25.0490,0.08,0.13,-0.99,2.75,3.60,0.92
25.0650,0.07,0.13,-0.99,3.36,3.36,0.98
25.0800,0.07,0.13,-0.99,3.17,3.23,0.24
25.0900,0.07,0.13,-0.99,3.05,2.93,0.31
25.1070,0.08,0.13,-0.99,3.23,3.23,0.18
25.1240,0.07,0.14,-0.99,3.42,3.30,0.85
25.1400,0.07,0.13,-0.99,3.66,2.99,1.59
25.1410,0.08,0.13,-0.99,3.11,3.30,1.16
25.1710,0.08,0.13,-0.99,2.87,3.42,0.79
25.1860,0.07,0.13,-0.99,3.17,3.05,0.85
25.2010,0.07,0.13,-0.99,3.11,3.30,0.18
25.2160,0.07,0.13,-0.99,2.81,2.99,0.31
25.2270,0.08,0.13,-0.99,3.30,3.17,0.55
25.2430,0.08,0.12,-0.99,3.85,2.99,0.18
25.2600,0.07,0.13,-0.99,3.11,3.36,0.18
25.2610,0.08,0.14,-0.99,3.42,3.36,0.98
25.2900,0.08,0.13,-0.99,3.78,2.99,1.16
25.3050,0.08,0.13,-0.99,2.81,3.36,1.22
25.3210,0.08,0.14,-0.98,2.38,3.30,1.77
25.3360,0.07,0.12,-0.99,3.66,3.36,1.10
25.3510,0.08,0.12,-0.99,2.50,2.87,0.12
25.3610,0.07,0.13,-0.99,3.30,3.48,-0.79
25.3770,0.07,0.14,-0.99,2.81,3.17,-0.24
25.3930,0.07,0.14,-0.99,3.30,3.23,0.55
25.4130,0.07,0.14,-0.99,3.72,2.75,1.22
25.4180,0.08,0.13,-0.99,3.54,3.05,1.34
25.4340,0.07,0.13,-0.99,2.62,3.11,0.55
25.4580,0.07,0.13,-0.99,3.11,2.75,0.73
25.4670,0.07,0.13,-0.99,3.30,2.99,0.67
25.4830,0.08,0.13,-0.99,3.17,3.11,0.37
25.5010,0.07,0.14,-0.99,3.05,3.05,0.49
25.5170,0.07,0.14,-0.99,3.36,3.17,1.22
25.5330,0.08,0.12,-0.99,2.81,2.99,1.89
25.5480,0.08,0.13,-0.99,2.56,3.48,1.53
25.5640,0.07,0.12,-0.99,3.42,3.48,0.79
25.5800,0.08,0.13,-0.99,2.62,3.17,0.43
25.5950,0.07,0.13,-0.99,2.93,3.36,0.92
25.6020,0.07,0.14,-0.99,3.17,3.17,0.55
25.6250,0.08,0.14,-0.99,3.42,3.05,1.10
25.6360,0.08,0.13,-0.99,3.54,3.42,1.28
25.6520,0.08,0.12,-0.99,3.30,3.23,1.10
25.6710,0.08,0.12,-0.99,2.56,3.72,0.24
25.6830,0.08,0.13,-0.99,3.05,3.42,0.18
25.7010,0.08,0.13,-0.99,3.60,3.17,-0.31
25.7160,0.07,0.13,-0.99,3.30,3.23,0.18
25.7240,0.07,0.14,-0.99,3.30,3.42,0.24
25.7470,0.08,0.13,-0.99,2.81,2.99,1.28
25.7570,0.08,0.13,-0.99,3.11,3.11,0.98
25.7730,0.08,0.13,-0.99,3.66,3.60,0.67
25.7910,0.07,0.14,-0.99,3.17,3.42,0.73
25.8060,0.07,0.14,-0.99,3.30,2.93,1.28
25.8230,0.08,0.13,-0.99,3.97,3.05,1.95
25.8400,0.08,0.12,-0.99,3.11,3.23,1.65
25.8570,0.08,0.13,-0.99,2.75,3.05,1.16
25.8730,0.08,0.13,-0.99,3.30,3.42,1.04
25.8740,0.07,0.12,-0.99,3.30,2.87,0.55
25.9030,0.07,0.13,-0.99,3.23,3.23,0.06
25.9160,0.07,0.13,-0.99,3.60,3.42,-0.43
25.9240,0.07,0.13,-0.99,4.03,3.17,0.37
25.9490,0.07,0.12,-0.99,2.99,3.42,0.73
25.9650,0.07,0.13,-0.99,2.87,3.48,0.00
25.9800,0.08,0.13,-0.99,3.36,3.30,-0.43
25.9900,0.07,0.13,-0.99,2.93,3.54,-0.43
26.0070,0.07,0.14,-0.99,3.17,3.42,-0.31
26.0230,0.07,0.14,-0.99,3.72,3.30,0.79
26.0400,0.07,0.13,-0.99,3.36,3.17,1.10
26.0560,0.08,0.12,-0.99,3.17,3.11,1.16
26.0720,0.07,0.12,-0.99,3.05,3.17,1.10
26.0870,0.08,0.12,-0.99,3.85,2.93,0.92
26.0940,0.08,0.12,-0.99,3.17,3.60,0.31
26.1170,0.07,0.12,-0.99,2.56,3.48,-0.67
26.1330,0.07,0.13,-0.99,3.36,3.11,-1.04
26.1430,0.07,0.14,-0.99,3.17,2.93,-0.73
26.1600,0.07,0.13,-0.99,3.23,3.17,-0.18
26.1760,0.08,0.14,-0.99,3.30,3.48,-0.43
26.1930,0.08,0.14,-0.99,2.62,2.99,0.55
26.1990,0.07,0.13,-0.99,3.60,3.05,1.34
26.2170,0.08,0.12,-0.99,3.60,3.11,1.16
26.2310,0.08,0.12,-0.99,2.69,3.36,0.61
26.2520,0.07,0.13,-0.99,2.38,3.54,-0.67
26.2680,0.07,0.14,-0.99,2.87,3.54,-0.37
26.2840,0.07,0.14,-0.99,2.93,3.42,0.00
26.2990,0.08,0.14,-0.99,3.17,3.42,1.34
26.3140,0.08,0.13,-0.99,3.60,2.75,1.77
26.3180,0.08,0.12,-0.99,3.36,3.05,1.46
26.3340,0.08,0.12,-0.99,2.44,3.60,0.55
26.3550,0.07,0.12,-0.99,3.05,3.42,0.37
26.3720,0.07,0.13,-0.99,3.60,3.11,0.12
26.3890,0.07,0.13,-0.99,3.54,3.05,0.31
26.4060,0.08,0.13,-0.99,3.30,2.93,0.31
26.4220,0.08,0.14,-0.99,3.30,3.11,0.73
26.4360,0.07,0.14,-0.99,3.05,3.23,1.10
26.4510,0.07,0.13,-0.99,3.11,3.11,1.53
26.4670,0.07,0.12,-0.99,2.69,3.11,1.28
26.4740,0.07,0.12,-0.99,2.69,3.17,1.16
26.4890,0.07,0.12,-0.99,2.99,3.11,0.55
26.5120,0.07,0.13,-0.99,3.11,3.30,-0.06
26.5230,0.08,0.13,-0.99,3.30,3.42,-0.43
26.5410,0.08,0.13,-0.99,3.60,3.42,-0.67
26.5560,0.07,0.13,-0.99,3.60,3.30,-0.43
26.5720,0.08,0.13,-0.99,3.30,3.48,0.18
26.5880,0.07,0.14,-0.99,3.17,3.36,0.18
26.5900,0.07,0.13,-0.99,3.60,3.36,0.73
26.6200,0.07,0.13,-0.99,3.42,3.17,0.67
26.6220,0.07,0.13,-0.99,2.99,3.23,0.73
26.6500,0.07,0.13,-0.99,3.23,3.30,0.43
26.6660,0.07,0.12,-0.99,3.11,3.23,0.06
26.6810,0.08,0.13,-0.99,2.99,3.42,-0.18
26.6910,0.07,0.13,-0.99,3.48,3.11,0.06
26.7070,0.07,0.13,-0.99,3.17,2.99,0.67
26.7250,0.08,0.14,-0.99,3.85,3.11,0.98
26.7410,0.08,0.13,-0.99,3.42,3.23,0.79
26.7410,0.08,0.13,-0.99,2.99,3.11,1.16
26.7710,0.08,0.13,-0.99,3.05,3.23,0.98
26.7800,0.08,0.13,-0.99,2.93,3.23,0.98
26.7970,0.07,0.13,-0.99,3.23,3.48,0.92
26.8170,0.07,0.13,-0.99,3.60,3.17,0.92
26.8300,0.07,0.13,-0.99,3.30,2.50,0.79
26.8480,0.08,0.14,-0.99,2.81,2.99,1.71
26.8650,0.08,0.13,-0.99,3.05,3.11,2.01
26.8670,0.07,0.12,-0.99,2.87,3.48,1.95
26.8830,0.07,0.12,-0.99,3.54,3.23,1.53
26.9050,0.07,0.12,-0.99,3.36,3.60,0.92
26.9220,0.08,0.14,-0.99,3.11,3.54,0.98
26.9390,0.08,0.13,-0.99,3.30,3.42,1.77
26.9550,0.06,0.12,-0.99,3.30,3.30,1.95
26.9710,0.08,0.12,-0.99,3.48,2.93,2.08
26.9880,0.07,0.12,-0.99,3.17,3.05,1.22
27.0020,0.08,0.14,-0.99,3.42,3.11,1.28
27.0180,0.07,0.13,-0.99,3.05,2.87,1.59
27.0330,0.08,0.13,-0.99,3.11,3.17,1.71
27.0410,0.08,0.13,-0.99,3.48,3.11,2.01
27.0640,0.07,0.12,-0.99,3.36,3.36,1.95
27.0750,0.07,0.13,-0.99,2.99,3.17,1.59
27.0910,0.08,0.13,-0.99,2.50,3.36,1.10
27.1090,0.07,0.13,-0.99,3.30,3.23,0.98
27.1250,0.08,0.13,-0.99,3.48,3.54,0.79
27.1410,0.08,0.13,-0.99,3.05,3.60,0.85
27.1570,0.08,0.14,-0.99,2.93,3.66,1.53
27.1730,0.08,0.13,-0.99,3.30,3.05,1.65
27.1890,0.07,0.13,-0.99,3.17,2.99,1.71
27.2030,0.08,0.13,-0.99,2.87,3.23,1.34
27.2190,0.07,0.13,-0.99,2.93,3.17,0.37
27.2350,0.07,0.12,-0.99,3.17,3.36,0.73
27.2510,0.07,0.13,-0.99,3.23,3.30,0.31
27.2680,0.08,0.14,-0.99,3.48,3.17,0.67
27.2830,0.08,0.13,-0.99,3.36,3.30,1.10
27.2920,0.08,0.13,-0.99,3.23,3.05,1.04
27.3080,0.08,0.13,-0.99,2.93,3.36,0.98
27.3250,0.07,0.12,-0.99,3.36,3.54,0.98
27.3410,0.07,0.12,-0.99,3.17,3.60,0.49
27.3580,0.07,0.13,-0.99,3.23,3.66,0.61
27.3750,0.07,0.13,-0.99,3.30,2.99,0.18
27.3910,0.07,0.14,-0.99,2.93,3.23,0.24
27.4080,0.08,0.14,-0.99,3.17,3.11,0.85
27.4230,0.07,0.13,-0.99,3.42,3.36,1.83
27.4260,0.07,0.13,-0.99,3.11,3.11,1.83
27.4550,0.07,0.13,-0.99,2.69,3.36,1.59
27.4700,0.07,0.13,-0.99,2.50,3.30,1.22
27.4850,0.08,0.12,-0.99,2.99,3.17,1.04
27.4990,0.07,0.12,-0.99,3.17,3.42,0.49
27.5100,0.07,0.13,-0.99,3.48,3.66,0.00
27.5270,0.07,0.14,-0.99,3.36,2.99,0.37
27.5430,0.08,0.14,-0.99,3.36,3.05,1.28
27.5590,0.08,0.14,-0.99,2.56,3.23,1.28
27.5750,0.08,0.13,-0.99,2.99,2.93,1.28
27.5840,0.07,0.12,-0.99,2.93,3.42,1.34
27.6010,0.07,0.14,-0.99,2.75,3.54,0.37
27.6180,0.07,0.14,-0.99,3.11,3.54,1.16
27.6350,0.07,0.14,-0.99,3.11,3.05,2.01
27.6510,0.08,0.13,-0.99,2.93,2.99,1.95
27.6670,0.07,0.13,-0.99,2.38,3.05,1.83
27.6810,0.07,0.13,-0.99,3.05,3.05,1.77
27.6880,0.08,0.13,-0.99,3.72,3.36,1.95
27.7120,0.07,0.13,-0.99,3.60,3.30,1.22
27.7220,0.08,0.13,-0.99,2.99,3.42,1.28
27.7380,0.07,0.13,-0.99,2.69,3.60,1.22
27.7550,0.07,0.13,-0.99,2.81,3.54,1.04
27.7730,0.07,0.13,-0.99,3.05,2.81,0.98
27.7880,0.07,0.13,-0.99,3.11,3.42,0.73
27.8040,0.08,0.12,-0.99,3.60,3.36,1.10
27.8200,0.08,0.12,-0.99,3.30,3.23,0.98
27.8360,0.08,0.13,-0.99,3.97,3.42,1.34
27.8510,0.08,0.12,-0.99,3.54,3.23,1.04
27.8670,0.07,0.14,-0.99,3.48,3.30,0.37
27.8830,0.07,0.14,-0.99,3.23,3.11,0.98
27.8990,0.07,0.14,-0.99,3.23,3.23,1.04
27.9150,0.07,0.14,-0.99,2.44,2.81,0.73
27.9300,0.07,0.13,-0.99,2.32,3.30,1.53
27.9400,0.07,0.13,-0.99,3.23,3.23,1.65
27.9570,0.08,0.12,-0.99,3.72,2.99,1.59
27.9730,0.08,0.12,-0.99,3.36,3.05,0.49
27.9910,0.07,0.13,-0.99,2.93,2.93,0.31
28.0070,0.07,0.12,-0.99,3.60,2.93,0.61
28.0230,0.07,0.13,-1.00,3.05,3.17,0.67
28.0380,0.07,0.13,-0.99,3.30,2.87,0.43
28.0520,0.07,0.13,-0.99,3.17,3.48,0.61
28.0680,0.08,0.12,-0.99,3.30,3.23,0.43
28.0830,0.07,0.13,-0.99,2.93,3.48,-0.24
28.0990,0.07,0.14,-0.99,2.99,3.30,0.31
28.1140,0.07,0.13,-0.99,3.48,3.11,0.85
28.1290,0.08,0.12,-0.99,3.05,3.23,0.98
28.1400,0.08,0.12,-0.99,2.93,3.48,0.00
28.1570,0.08,0.13,-0.99,2.75,3.78,-1.04
28.1750,0.07,0.14,-0.99,3.36,3.23,-0.61
28.1900,0.07,0.14,-0.99,3.23,3.30,-0.06
28.2050,0.07,0.14,-0.99,3.17,3.36,0.12
28.2200,0.07,0.15,-0.99,2.87,3.23,1.34
28.2350,0.07,0.13,-0.99,2.44,2.99,1.77
28.2430,0.08,0.13,-0.99,2.50,3.17,1.83
28.2590,0.07,0.13,-0.99,2.93,2.87,1.89
28.2800,0.07,0.13,-0.99,3.11,3.05,1.83
28.2970,0.08,0.13,-0.99,3.60,3.23,2.01
28.3120,0.08,0.13,-0.99,3.36,3.17,2.01
28.3270,0.07,0.13,-0.99,2.99,3.36,2.01
28.3430,0.07,0.13,-0.99,3.42,2.69,1.77
28.3600,0.07,0.13,-0.99,3.23,3.30,1.95
28.3750,0.07,0.13,-0.99,2.56,3.11,1.83
28.3900,0.07,0.13,-0.99,3.17,2.01,1.71
28.3970,0.07,0.13,-0.99,2.38,2.38,1.77
28.4200,0.07,0.13,-0.99,2.75,1.77,1.77
28.4350,0.08,0.13,-0.99,3.30,1.77,1.65
28.4520,0.08,0.12,-0.99,3.97,1.89,1.53
28.4520,0.05,0.11,-0.97,4.33,2.69,1.95
28.4820,0.08,0.13,-0.99,3.60,2.93,1.89
28.4990,0.08,0.14,-1.00,2.38,3.66,1.83
28.5140,0.10,0.14,-1.01,1.71,3.85,1.89
28.5290,0.07,0.13,-1.00,3.36,4.09,2.01
28.5360,0.07,0.13,-0.99,2.93,3.91,1.89
28.5530,0.08,0.13,-0.99,2.44,3.54,1.77
28.5690,0.07,0.14,-1.01,3.42,3.36,1.89
28.5860,0.07,0.13,-0.99,2.87,3.60,1.89
28.6030,0.08,0.13,-0.99,3.85,3.36,1.83
28.6190,0.08,0.13,-0.99,3.54,2.99,1.89
28.6360,0.08,0.13,-0.99,2.75,3.17,1.95
28.6360,0.08,0.13,-0.99,2.50,3.17,1.95
28.6660,0.07,0.13,-0.99,2.87,3.17,1.89
28.6810,0.07,0.13,-0.99,3.23,3.05,1.77
28.6880,0.08,0.13,-0.99,3.05,2.69,1.77
28.7040,0.08,0.13,-0.99,2.50,2.99,1.89
28.7260,0.08,0.13,-0.99,2.50,2.75,1.77
28.7420,0.08,0.13,-0.99,2.69,2.75,1.65
28.7580,0.04,0.13,-0.99,2.56,3.60,1.65
28.7730,0.08,0.13,-0.99,3.36,3.11,1.65
28.7880,0.08,0.12,-0.99,3.48,2.99,1.83
28.8050,0.08,0.13,-0.99,3.42,3.05,1.77
28.8200,0.08,0.12,-0.99,3.30,3.42,1.65
28.8350,0.08,0.13,-0.99,3.11,3.17,1.71
28.8440,0.08,0.13,-0.99,2.87,3.36,1.65
28.8610,0.07,0.12,-0.99,3.17,3.30,1.77
28.8760,0.07,0.13,-0.99,3.42,3.23,1.77
28.8930,0.08,0.13,-0.99,3.48,3.54,1.53
28.9100,0.08,0.12,-0.99,3.05,3.11,1.65
28.9250,0.08,0.12,-0.99,3.36,3.30,1.65
28.9270,0.07,0.12,-0.99,3.72,3.60,0.67
28.9440,0.07,0.12,-0.99,3.66,3.36,0.12
28.9600,0.07,0.12,-1.00,3.36,3.60,-0.06
28.9770,0.08,0.14,-0.99,2.32,3.36,-0.79
28.9940,0.08,0.14,-0.99,2.93,3.78,0.61
29.0110,0.08,0.13,-0.99,2.62,3.36,1.59
29.0270,0.08,0.13,-0.99,2.50,3.11,1.89
29.0440,0.08,0.13,-0.99,3.36,3.05,1.77
29.0590,0.07,0.12,-0.99,2.93,3.66,1.65
29.0760,0.08,0.13,-0.99,2.62,3.60,1.40
29.0770,0.08,0.13,-0.99,2.81,3.48,1.71
29.1080,0.08,0.13,-0.99,3.05,3.23,1.95
29.1230,0.07,0.12,-0.99,3.30,3.05,1.95
29.1390,0.08,0.13,-0.99,3.85,3.05,1.89
29.1540,0.06,0.13,-1.00,2.81,2.93,1.89
29.1690,0.07,0.13,-0.99,1.89,3.23,2.44
29.1840,0.06,0.13,-0.99,2.20,2.69,3.48
29.1930,0.07,0.13,-0.99,2.75,2.62,3.60
29.2100,0.07,0.12,-0.99,3.11,2.93,3.36
29.2260,0.07,0.13,-0.99,3.36,2.62,2.69
29.2440,0.08,0.13,-0.99,3.11,2.99,1.95
29.2600,0.07,0.12,-0.99,2.75,3.11,1.77
29.2760,0.07,0.13,-0.99,2.56,3.11,1.77
29.2920,0.08,0.13,-0.99,2.75,3.30,2.14
29.2990,0.08,0.12,-0.99,2.87,3.17,2.69
29.3210,0.08,0.12,-0.99,3.48,2.99,2.38
29.3330,0.07,0.13,-0.99,3.36,2.99,2.26
29.3500,0.08,0.12,-0.99,3.11,3.17,2.01
29.3660,0.07,0.12,-0.99,3.05,2.93,1.95
29.3840,0.08,0.12,-0.99,3.17,3.23,1.95
29.3990,0.08,0.12,-0.99,3.05,3.48,1.77
29.4150,0.08,0.13,-0.99,3.48,2.99,1.46
29.4310,0.08,0.13,-0.99,2.87,3.23,1.28
29.4470,0.07,0.13,-0.99,2.62,3.48,1.77
29.4620,0.07,0.12,-0.99,2.81,2.99,2.01
29.4710,0.06,0.12,-0.99,3.11,2.81,2.01
29.4870,0.08,0.13,-0.99,2.99,3.05,2.20
29.5060,0.08,0.13,-0.99,2.44,2.81,2.26
29.5210,0.08,0.12,-0.99,2.62,3.05,2.32
29.5370,0.08,0.13,-0.99,3.30,3.05,1.89
29.5530,0.08,0.13,-0.99,2.81,2.75,1.71
29.5680,0.08,0.13,-0.99,2.93,2.99,1.71
29.5850,0.08,0.13,-0.99,2.81,3.60,1.46
29.5990,0.08,0.13,-0.99,2.44,3.30,1.65
29.6160,0.08,0.13,-0.99,3.05,2.99,1.77
29.6310,0.07,0.13,-0.99,3.17,3.30,1.95
29.6470,0.07,0.13,-0.99,3.36,3.17,1.89
29.6620,0.07,0.13,-0.99,2.99,3.48,1.71
29.6770,0.08,0.13,-0.99,2.38,3.05,1.53
29.6880,0.08,0.12,-0.99,2.99,2.87,1.65
29.7040,0.08,0.13,-0.99,3.36,3.11,1.83
29.7210,0.08,0.13,-0.99,3.11,2.69,1.95
29.7380,0.08,0.12,-0.99,2.56,2.81,2.26
29.7540,0.08,0.12,-0.99,2.62,3.23,2.44
29.7710,0.08,0.12,-0.99,3.17,3.11,2.20
29.7720,0.08,0.13,-0.99,3.42,3.23,2.08
29.8010,0.08,0.13,-0.99,2.87,3.30,1.83
29.8040,0.07,0.13,-0.99,2.32,3.48,2.08
29.8220,0.07,0.12,-0.99,2.56,3.11,2.20
29.8490,0.08,0.12,-0.99,2.93,3.05,2.20
29.8560,0.07,0.12,-0.99,3.66,2.50,2.26
29.8790,0.07,0.13,-0.99,3.42,3.11,2.01
29.8880,0.07,0.13,-0.99,2.81,3.23,1.77
29.9050,0.08,0.12,-0.99,2.56,2.93,1.83
29.9220,0.08,0.12,-0.99,3.05,3.23,1.95
29.9380,0.08,0.12,-0.99,3.30,2.81,1.95
29.9550,0.08,0.12,-0.99,3.42,2.69,1.89
29.9720,0.07,0.13,-0.99,3.48,2.75,1.89
29.9880,0.07,0.13,-0.99,3.17,3.17,1.95
30.0030,0.08,0.13,-0.99,2.87,3.05,1.95
30.0190,0.07,0.12,-0.99,3.23,3.23,2.14
30.0340,0.08,0.12,-0.99,3.54,2.81,2.01
30.0490,0.07,0.13,-0.99,3.48,2.87,2.01
30.0640,0.07,0.13,-0.99,2.87,3.17,1.77
30.0800,0.08,0.13,-0.99,2.93,3.17,1.89
30.0940,0.08,0.13,-0.99,2.62,2.99,1.77
30.1040,0.07,0.13,-0.99,2.32,3.36,1.95
30.1220,0.08,0.12,-0.99,2.62,3.23,2.01
30.1370,0.07,0.12,-0.99,3.60,2.56,1.89
30.1550,0.08,0.12,-0.99,3.54,3.17,1.83
30.1720,0.07,0.13,-0.99,3.42,2.75,1.65
30.1870,0.08,0.13,-0.99,2.75,3.30,1.65
30.2040,0.09,0.12,-0.99,2.56,3.48,2.01
30.2180,0.08,0.12,-0.99,3.17,3.23,2.08
30.2340,0.08,0.12,-0.99,3.54,3.30,2.01
30.2490,0.08,0.13,-0.99,3.78,2.93,1.77
30.2640,0.08,0.13,-0.99,3.11,2.99,1.71
30.2810,0.07,0.13,-0.99,2.20,3.30,1.77
30.2960,0.08,0.12,-0.99,2.56,3.05,1.83
30.3110,0.08,0.12,-0.99,3.17,3.23,1.89
30.3210,0.07,0.12,-0.99,3.17,2.99,1.89
30.3380,0.07,0.13,-0.99,3.36,3.17,1.95
30.3560,0.08,0.13,-0.99,2.62,3.30,1.95
30.3560,0.08,0.12,-0.99,3.11,2.81,1.95
30.3870,0.07,0.12,-0.99,3.17,2.69,1.46
30.4020,0.07,0.13,-0.99,3.11,2.93,1.46
30.4170,0.08,0.13,-0.99,2.87,2.81,1.40
30.4220,0.07,0.13,-0.99,1.77,3.30,1.77
30.4490,0.07,0.12,-0.99,2.81,2.93,2.14
30.4550,0.07,0.12,-0.99,3.54,3.17,2.26
30.4700,0.07,0.12,-0.99,3.78,2.99,1.89
30.4930,0.07,0.13,-0.99,3.30,2.99,1.71
30.5090,0.07,0.13,-0.99,2.56,3.05,1.77
30.5250,0.08,0.12,-0.99,2.81,2.93,1.71
30.5400,0.08,0.12,-0.99,3.36,3.17,1.95
30.5550,0.07,0.12,-0.99,3.78,2.93,2.14
30.5700,0.08,0.13,-0.99,3.54,3.30,2.08
30.5840,0.08,0.13,-0.99,2.62,2.81,1.95
30.5990,0.08,0.12,-0.99,2.56,3.05,2.20
30.6100,0.08,0.12,-0.99,3.17,2.93,2.08
30.6270,0.08,0.12,-0.99,3.54,3.23,2.01
30.6420,0.07,0.13,-0.99,3.42,2.81,1.71
30.6590,0.08,0.13,-0.99,2.81,3.60,1.71
30.6750,0.08,0.13,-0.99,2.62,3.36,1.71
30.6770,0.07,0.12,-0.99,2.50,3.42,1.89
30.6920,0.08,0.12,-0.99,2.93,3.05,2.20
30.7210,0.08,0.12,-0.99,2.81,2.93,2.14
30.7310,0.08,0.12,-0.99,2.56,2.81,1.89
30.7470,0.08,0.12,-0.99,2.44,3.05,1.95
30.7640,0.07,0.12,-0.99,3.48,2.56,1.83
30.7800,0.07,0.13,-0.99,3.66,3.05,2.01
30.7990,0.07,0.12,-0.99,3.60,2.87,1.95
30.8140,0.07,0.12,-0.99,3.36,2.99,2.01
30.8290,0.08,0.12,-0.99,2.93,3.42,1.95
30.8350,0.07,0.12,-0.99,3.48,2.69,1.77
30.8600,0.07,0.12,-0.99,3.85,2.81,1.65
30.8760,0.07,0.12,-0.99,3.48,2.99,1.83
30.8850,0.07,0.12,-0.99,3.54,2.93,1.95
30.9020,0.08,0.12,-0.99,2.87,2.87,2.01
30.9180,0.07,0.13,-0.99,3.23,2.75,2.01
30.9360,0.07,0.12,-0.99,3.23,3.17,1.89
30.9510,0.08,0.12,-0.99,3.17,3.11,1.77
30.9670,0.08,0.12,-0.99,3.05,3.05,1.89
30.9840,0.08,0.12,-0.99,3.23,2.81,2.20
30.9990,0.08,0.12,-0.99,3.36,2.99,2.20
31.0160,0.07,0.13,-0.99,3.42,3.05,2.08
31.0310,0.08,0.12,-0.99,2.81,3.23,1.89
31.0470,0.07,0.12,-0.99,3.05,3.11,1.71
31.0620,0.08,0.12,-0.99,2.81,3.30,1.65
31.0770,0.08,0.12,-0.99,3.17,3.23,1.95
31.0880,0.08,0.12,-0.99,3.54,3.17,1.77
31.1040,0.07,0.13,-0.99,3.17,2.99,1.89
31.1220,0.07,0.12,-0.99,2.99,2.99,1.83
31.1370,0.07,0.12,-0.99,3.48,3.11,2.08
31.1540,0.08,0.12,-0.99,3.42,3.36,1.59
31.1580,0.08,0.12,-0.99,3.17,2.93,1.59
31.1840,0.07,0.12,-0.99,3.05,3.05,1.59
31.1980,0.08,0.13,-0.99,2.87,2.99,1.53
31.2090,0.07,0.12,-0.99,3.23,3.17,1.53
31.2260,0.06,0.12,-0.99,3.91,3.36,1.40
31.2420,0.08,0.12,-0.99,3.78,3.48,1.10
31.2580,0.06,0.12,-0.99,3.30,2.99,1.10
31.2740,0.09,0.13,-0.99,3.11,2.93,1.89
31.2820,0.07,0.12,-0.99,3.05,2.99,1.71
31.2980,0.08,0.12,-0.99,3.42,2.99,1.53
31.3150,0.08,0.12,-0.99,3.72,3.36,1.40
31.3320,0.08,0.13,-0.99,3.85,2.81,1.46
31.3470,0.09,0.13,-0.99,3.05,3.05,1.46
31.3650,0.08,0.13,-0.99,2.81,3.05,1.89
31.3810,0.08,0.13,-0.99,2.81,2.99,1.95
31.3820,0.08,0.13,-0.99,3.30,3.23,2.14
31.4130,0.08,0.13,-0.99,3.30,2.99,1.89
31.4270,0.08,0.13,-0.99,2.75,2.99,1.95
31.4330,0.08,0.13,-0.99,2.69,3.30,1.95
31.4490,0.07,0.12,-0.99,2.87,3.23,1.89
31.4670,0.07,0.13,-0.99,3.42,3.05,1.83
31.4820,0.08,0.13,-0.99,3.30,3.11,1.83
31.4990,0.07,0.13,-0.99,2.93,2.99,1.83
31.5160,0.07,0.13,-0.99,2.75,3.30,1.95
31.5330,0.07,0.13,-0.99,2.69,2.99,1.83
31.5470,0.07,0.12,-0.99,3.05,3.11,1.83
31.5620,0.08,0.12,-0.99,3.11,2.87,1.89
31.5770,0.08,0.12,-0.99,3.36,3.17,1.95
31.5930,0.07,0.13,-0.99,3.05,2.87,1.89
31.5980,0.07,0.13,-0.99,2.87,2.93,1.95
31.6220,0.08,0.13,-0.99,2.62,3.30,1.95
31.6320,0.08,0.12,-0.99,3.17,2.99,2.08
31.6490,0.07,0.13,-0.99,3.48,3.23,1.83
31.6650,0.08,0.13,-0.99,2.93,2.99,1.77
31.6820,0.08,0.13,-0.99,2.87,3.48,1.53
31.6980,0.07,0.12,-0.99,3.05,3.36,1.53
31.7140,0.08,0.12,-0.99,3.85,3.17,1.71
31.7290,0.08,0.12,-0.99,4.27,3.23,1.53
31.7440,0.08,0.13,-0.99,3.60,3.36,1.46
31.7580,0.08,0.13,-0.99,2.87,3.36,1.46
31.7740,0.08,0.13,-0.99,2.87,3.23,1.77
31.7840,0.07,0.13,-0.99,2.81,2.99,1.77
31.8010,0.07,0.12,-0.99,2.87,3.11,2.20
31.8170,0.07,0.13,-0.99,3.42,3.11,2.44
31.8330,0.08,0.13,-0.99,3.17,2.99,2.44
31.8410,0.08,0.13,-0.99,2.81,2.56,2.26
31.8650,0.08,0.13,-0.99,2.44,3.11,2.14
31.8740,0.07,0.12,-0.99,2.50,2.75,2.01
31.8910,0.08,0.12,-0.99,3.17,3.11,2.08
31.9070,0.08,0.12,-0.99,3.54,3.17,1.89
31.9260,0.08,0.13,-0.99,3.48,2.93,1.53
31.9410,0.07,0.13,-0.99,2.50,2.87,1.65
31.9570,0.07,0.13,-0.99,2.08,3.11,1.77
31.9720,0.08,0.12,-0.99,3.17,3.17,1.89
31.9810,0.08,0.12,-0.99,3.97,3.05,1.83
31.9970,0.08,0.13,-0.99,3.60,2.56,1.89
32.0140,0.08,0.13,-0.99,2.50,3.23,1.89
32.0310,0.08,0.12,-0.99,2.14,3.17,1.71
32.0490,0.08,0.12,-0.99,2.44,3.23,2.01
32.0640,0.08,0.12,-0.99,3.11,2.87,1.77
32.0800,0.07,0.12,-0.99,3.48,2.87,1.89
32.0980,0.07,0.13,-0.99,3.54,2.99,1.95
32.1130,0.07,0.13,-0.99,2.93,3.17,1.71
32.1280,0.07,0.12,-0.99,2.99,3.23,1.95
32.1370,0.07,0.12,-0.99,3.42,2.99,1.95
32.1530,0.08,0.12,-0.99,3.60,3.30,1.83
32.1740,0.07,0.13,-0.99,3.48,3.30,1.53
32.1890,0.07,0.13,-0.99,2.81,3.11,1.77
32.2040,0.08,0.12,-0.99,2.81,3.11,1.95
32.2190,0.08,0.12,-0.99,3.30,3.17,2.01
32.2330,0.07,0.12,-0.99,4.52,3.17,2.01
32.2480,0.08,0.13,-0.99,3.54,3.54,1.89
32.2580,0.08,0.13,-0.99,2.44,3.66,1.65
32.2750,0.08,0.13,-0.99,2.32,2.81,1.77
32.2920,0.07,0.12,-0.99,2.26,3.17,2.14
32.3080,0.08,0.12,-0.99,3.17,3.23,2.14
32.3260,0.08,0.12,-0.99,3.85,3.30,1.89
32.3410,0.07,0.13,-0.99,3.11,3.05,1.65
32.3590,0.08,0.13,-0.99,2.32,3.30,1.71
32.3740,0.08,0.12,-0.99,2.14,3.23,1.95
32.3910,0.07,0.12,-0.99,3.23,3.30,2.14
32.3930,0.08,0.12,-0.99,4.21,3.17,1.89
32.4230,0.08,0.13,-0.99,3.42,3.23,1.95
32.4250,0.08,0.13,-0.99,2.99,2.87,1.71
32.4410,0.08,0.13,-0.99,2.01,2.81,1.53
32.4650,0.07,0.12,-0.98,1.89,3.60,1.71
32.4820,0.08,0.12,-0.99,3.42,2.62,1.77
32.4980,0.08,0.13,-0.99,3.66,3.05,1.95
32.5130,0.08,0.12,-0.99,3.66,2.99,1.77
32.5290,0.08,0.13,-0.99,2.81,3.30,1.71
32.5450,0.07,0.13,-0.99,2.50,3.17,1.53
32.5610,0.07,0.12,-0.99,2.81,3.23,1.65
32.5760,0.07,0.12,-0.99,3.05,3.23,1.83
32.5870,0.07,0.12,-0.99,3.54,2.99,1.95
32.6020,0.08,0.12,-0.99,3.36,3.17,2.08
32.6220,0.08,0.12,-0.99,3.17,3.30,2.14
32.6370,0.08,0.12,-0.99,3.30,3.36,2.01
32.6520,0.08,0.13,-0.99,3.36,3.42,1.83
32.6580,0.08,0.13,-0.99,2.75,2.81,1.77
32.6730,0.08,0.12,-0.99,2.81,3.30,1.89
32.6970,0.07,0.12,-0.99,3.05,2.75,2.01
32.6970,0.08,0.12,-0.99,3.36,2.99,1.95
32.7230,0.08,0.13,-0.99,3.66,3.54,1.89
32.7300,0.08,0.13,-0.99,3.72,3.11,1.77
32.7570,0.08,0.13,-0.99,2.93,3.11,1.65
32.7730,0.07,0.12,-0.99,2.93,2.99,1.53
32.7800,0.08,0.12,-0.99,2.81,2.99,1.71
32.7960,0.07,0.12,-0.99,3.54,3.05,1.77
32.8140,0.07,0.12,-0.99,4.21,2.93,1.65
32.8300,0.08,0.12,-0.99,4.15,2.87,1.46
32.8470,0.08,0.12,-0.99,3.30,2.93,1.59
32.8630,0.08,0.13,-0.99,2.26,3.17,1.89
32.8790,0.08,0.12,-0.99,2.75,2.99,2.14
32.8820,0.07,0.12,-0.99,3.54,2.87,2.26
32.8990,0.07,0.13,-0.99,3.60,3.17,2.32
32.9230,0.07,0.13,-0.99,2.81,3.05,2.01
32.9320,0.07,0.13,-0.99,2.32,3.11,2.01
32.9490,0.08,0.13,-0.99,2.32,3.23,1.77
32.9720,0.08,0.12,-0.99,2.44,3.23,1.89
32.9830,0.08,0.12,-0.99,3.30,2.99,1.83
32.9990,0.08,0.12,-0.99,3.42,3.11,2.01
33.0160,0.07,0.12,-0.99,3.48,3.30,2.08
33.0320,0.07,0.13,-0.99,3.17,3.11,2.08
33.0480,0.09,0.13,-0.99,2.87,3.42,2.20
33.0640,0.08,0.12,-0.99,2.69,3.36,2.14
33.0780,0.08,0.12,-0.99,3.30,2.81,2.14
33.0940,0.08,0.13,-0.99,2.99,2.81,2.20
33.1110,0.08,0.12,-0.99,2.01,2.69,2.20
33.1240,0.08,0.12,-0.99,2.50,3.36,2.32
33.1310,0.07,0.12,-0.99,3.60,3.30,2.08
33.1490,0.08,0.13,-0.99,3.66,2.81,2.08
33.1660,0.07,0.13,-0.99,2.87,3.48,2.14
33.1820,0.07,0.12,-0.99,2.69,3.11,2.01
33.2020,0.07,0.12,-0.99,3.05,3.17,2.08
33.2180,0.07,0.12,-0.99,3.72,2.69,1.95
33.2340,0.07,0.13,-0.99,3.48,2.81,1.95
33.2350,0.08,0.12,-0.99,2.75,3.05,1.65
33.2650,0.07,0.12,-0.99,2.81,3.23,1.83
33.2810,0.08,0.12,-0.99,3.17,3.48,1.95
33.2970,0.07,0.12,-0.99,3.66,2.99,2.01
33.3020,0.07,0.13,-0.99,3.54,2.81,2.14
33.3290,0.07,0.13,-0.99,2.50,2.81,2.14
33.3440,0.07,0.12,-0.99,2.93,2.99,2.14
33.3590,0.08,0.12,-0.99,3.42,3.11,2.14
33.3740,0.08,0.12,-0.99,3.72,3.17,1.95
33.3850,0.08,0.13,-0.99,3.36,3.30,1.89
33.4020,0.07,0.13,-0.99,2.26,3.54,1.89
33.4170,0.08,0.12,-0.99,2.38,3.36,2.14
33.4340,0.08,0.12,-0.99,3.42,3.17,2.26
33.4490,0.08,0.12,-0.99,3.60,3.05,2.38
33.4650,0.07,0.12,-0.99,3.23,2.99,2.20
33.4730,0.08,0.13,-0.99,2.93,2.93,2.20
33.4960,0.08,0.12,-0.99,2.44,3.23,2.20
33.5070,0.08,0.12,-0.99,2.56,3.30,2.26
33.5250,0.08,0.12,-0.99,3.30,3.30,2.32
33.5400,0.07,0.12,-0.99,3.85,3.11,2.32
33.5560,0.07,0.12,-0.99,3.72,3.17,1.83
33.5720,0.08,0.12,-0.99,3.48,2.87,1.77
33.5880,0.08,0.12,-0.99,3.11,3.60,1.77
33.6020,0.08,0.12,-0.99,2.99,3.36,1.46
33.6180,0.08,0.12,-0.99,2.69,3.17,1.83
33.6340,0.08,0.12,-0.99,2.50,3.17,1.89
33.6510,0.08,0.12,-0.99,2.87,3.11,1.95
33.6650,0.07,0.12,-0.99,3.30,2.93,1.77
33.6730,0.08,0.12,-0.99,3.42,3.11,1.83
33.6890,0.08,0.12,-0.99,3.48,3.05,1.95
33.7100,0.07,0.12,-0.99,3.11,3.66,1.77
33.7250,0.08,0.12,-0.99,2.99,3.17,1.71
33.7400,0.07,0.12,-0.99,2.69,3.30,1.83
33.7560,0.07,0.12,-0.99,2.62,3.11,1.59
33.7720,0.07,0.13,-0.99,2.75,3.23,1.77
33.7790,0.07,0.13,-0.99,2.81,3.05,1.77
33.7950,0.08,0.12,-0.99,2.56,3.17,1.77
33.8120,0.08,0.12,-0.99,2.56,3.30,2.01
33.8290,0.07,0.12,-0.99,3.05,3.54,2.08
33.8460,0.07,0.12,-0.99,3.54,3.23,2.01
33.8630,0.08,0.12,-0.99,3.23,3.23,1.95
33.8800,0.07,0.12,-0.99,2.69,3.36,2.01
33.8960,0.07,0.12,-0.99,3.05,3.23,2.08
33.9120,0.07,0.12,-0.99,3.30,2.75,1.95
33.9250,0.07,0.12,-0.99,3.42,2.81,1.95
33.9320,0.07,0.12,-0.99,3.60,2.81,1.89
33.9480,0.08,0.12,-0.99,3.23,3.23,1.59
33.9740,0.08,0.13,-0.99,2.56,3.60,1.77
33.9890,0.07,0.12,-0.99,2.50,3.17,1.89
33.9980,0.07,0.12,-0.99,2.99,3.11,2.26
34.0180,0.07,0.12,-0.99,3.60,3.11,2.20
34.0310,0.07,0.12,-0.99,3.66,2.93,1.71
34.0470,0.07,0.13,-0.99,3.11,3.11,1.28
34.0660,0.08,0.13,-0.99,2.56,3.17,1.28
34.0830,0.08,0.12,-0.99,2.75,3.23,1.83
34.1000,0.07,0.12,-0.99,3.30,3.11,1.89
34.1160,0.08,0.12,-0.99,3.54,2.69,2.08
34.1320,0.08,0.12,-0.99,3.30,2.75,1.71
34.1480,0.08,0.12,-0.99,2.93,2.69,1.77
34.1630,0.08,0.12,-0.99,2.56,3.36,1.65
34.1780,0.08,0.12,-0.99,2.81,3.17,1.77
34.1940,0.08,0.12,-0.99,3.72,2.87,1.95
34.2080,0.08,0.12,-0.99,4.33,3.23,1.83
34.2190,0.07,0.13,-0.99,3.23,3.23,1.59
34.2360,0.07,0.13,-0.99,2.75,3.05,1.59
34.2530,0.07,0.12,-0.99,2.32,3.36,1.89
34.2680,0.08,0.12,-0.99,3.78,2.81,1.65
34.2690,0.08,0.13,-0.99,4.27,3.30,1.89
34.2990,0.08,0.13,-0.99,3.48,3.17,1.83
34.3150,0.07,0.13,-0.99,3.17,2.87,1.89
34.3290,0.08,0.12,-0.99,2.87,2.93,1.95
34.3470,0.08,0.12,-0.99,3.11,2.62,2.01
34.3620,0.08,0.12,-0.99,3.54,2.81,1.95
34.3700,0.07,0.12,-0.99,3.42,2.99,1.95
34.3850,0.08,0.12,-0.99,3.54,3.11,1.89
34.4010,0.08,0.12,-0.99,3.48,2.81,1.95
34.4210,0.08,0.12,-0.99,3.42,3.05,2.01
34.4370,0.08,0.13,-0.99,3.30,3.23,1.95
34.4530,0.07,0.12,-0.99,2.44,3.23,1.89
34.4680,0.07,0.12,-0.99,2.56,2.87,1.95
34.4840,0.07,0.12,-0.99,2.99,3.05,2.14
34.4870,0.08,0.12,-0.99,3.23,3.23,2.20
34.5160,0.08,0.12,-0.99,3.97,2.87,2.08
34.5320,0.08,0.13,-0.99,3.36,2.56,1.89
34.5480,0.07,0.12,-0.99,2.44,3.23,1.95
34.5630,0.07,0.12,-0.99,2.62,3.11,1.89
34.5800,0.07,0.12,-0.99,3.05,2.99,1.71
34.5940,0.08,0.12,-0.99,3.72,3.11,2.08
34.6040,0.08,0.12,-0.99,4.21,3.17,2.08
34.6200,0.07,0.13,-0.99,3.54,3.05,1.95
34.6400,0.08,0.13,-1.00,2.81,2.69,1.95
34.6560,0.08,0.12,-0.99,3.17,2.32,1.77
34.6720,0.07,0.12,-0.99,3.72,2.93,1.83
34.6740,0.07,0.13,-0.99,4.27,2.81,1.95
34.7040,0.08,0.13,-0.99,3.78,2.26,1.83
34.7180,0.08,0.13,-0.99,2.93,2.81,1.71
34.7260,0.08,0.12,-0.99,2.38,2.75,1.71
34.7410,0.08,0.12,-0.99,3.85,2.14,1.83
34.7650,0.08,0.12,-0.99,4.52,2.38,2.01
34.7740,0.07,0.13,-0.99,4.27,2.75,1.83
34.7900,0.08,0.13,-0.99,3.23,2.75,1.71
34.8080,0.08,0.12,-0.99,2.08,2.08,1.59
34.8260,0.08,0.12,-0.99,3.05,2.01,1.53
34.8410,0.08,0.13,-0.99,4.15,1.95,1.83
34.8570,0.08,0.13,-0.99,3.42,2.44,1.89
34.8720,0.08,0.13,-0.99,2.32,3.17,1.77
34.8870,0.08,0.13,-0.99,1.89,3.42,1.59
34.8970,0.08,0.12,-0.99,2.20,3.91,1.77
34.9130,0.08,0.13,-0.99,3.48,4.15,2.14
34.9330,0.07,0.13,-0.99,3.05,3.85,2.14
34.9360,0.08,0.11,-0.97,0.92,5.37,2.08
34.9530,0.07,0.12,-0.99,1.59,4.21,1.89
34.9690,0.08,0.12,-0.98,1.65,4.21,1.83
34.9850,0.07,0.12,-0.99,3.85,3.66,2.14
35.0010,0.08,0.13,-0.99,4.94,3.42,2.20
35.0190,0.08,0.13,-0.99,3.91,3.30,2.01
35.0360,0.08,0.13,-1.00,3.54,3.54,1.89
35.0520,0.07,0.12,-0.99,2.20,3.60,1.83
35.0680,0.07,0.12,-0.99,2.87,3.54,1.89
35.0830,0.08,0.12,-0.99,3.66,3.30,2.01
35.0980,0.08,0.13,-0.99,4.09,2.93,2.08
35.1130,0.07,0.13,-0.99,3.66,3.48,1.89
35.1280,0.08,0.12,-0.99,3.11,3.23,1.89
35.1360,0.07,0.12,-0.99,3.11,3.23,2.01
35.1520,0.08,0.13,-0.99,3.17,3.23,1.95
35.1700,0.08,0.13,-0.99,2.99,3.30,1.95
35.1860,0.07,0.12,-0.99,2.87,2.99,1.89
35.2020,0.07,0.12,-0.99,3.36,3.54,2.08
35.2180,0.08,0.13,-0.99,3.30,2.87,1.95
35.2330,0.08,0.12,-0.99,3.17,3.36,1.95
35.2480,0.07,0.13,-0.99,3.23,3.30,2.08
35.2630,0.07,0.13,-0.99,2.87,3.54,1.95
35.2780,0.08,0.13,-1.00,2.50,3.11,1.83
35.2850,0.07,0.12,-0.99,1.59,2.87,1.77
35.3030,0.07,0.12,-0.99,2.62,2.99,2.08
35.3190,0.08,0.12,-0.99,3.36,3.11,2.08
35.3350,0.08,0.13,-0.99,3.48,3.17,1.89
35.3520,0.07,0.12,-0.99,2.93,3.48,1.95
35.3680,0.07,0.12,-0.99,2.62,3.48,1.89
35.3850,0.07,0.12,-0.99,3.05,3.30,1.89
35.4010,0.07,0.12,-0.99,3.42,3.42,2.01
35.4020,0.08,0.13,-0.99,4.21,2.99,1.89
35.4310,0.07,0.13,-0.99,3.11,3.11,1.83
35.4480,0.07,0.12,-0.99,2.14,3.30,1.89
35.4520,0.08,0.12,-0.99,2.93,3.05,1.95
35.4770,0.08,0.12,-0.99,3.17,2.99,1.95
35.4920,0.07,0.12,-0.99,3.30,3.17,1.95
35.5030,0.08,0.12,-0.99,4.09,2.93,2.01
35.5190,0.07,0.13,-0.99,4.39,3.23,2.08
35.5390,0.07,0.13,-0.99,3.42,3.11,2.08
35.5540,0.08,0.12,-0.99,2.75,3.42,1.95
35.5570,0.07,0.12,-0.99,3.05,2.99,1.95
35.5840,0.07,0.12,-0.99,2.99,3.05,1.95
35.6010,0.08,0.12,-0.99,3.17,2.87,1.95
35.6070,0.07,0.13,-0.99,3.85,2.69,2.08
35.6270,0.08,0.13,-0.99,3.30,2.99,2.01
35.6450,0.08,0.12,-0.99,2.56,3.36,1.89
35.6620,0.07,0.12,-0.99,2.56,2.87,1.77
35.6780,0.07,0.12,-0.99,3.30,3.17,1.89
35.6790,0.08,0.12,-0.99,3.72,3.30,1.89
35.6960,0.07,0.13,-0.99,3.23,2.75,1.95
35.7120,0.07,0.12,-0.99,1.71,3.17,2.01
35.7410,0.07,0.12,-0.99,1.77,3.30,1.89
35.7460,0.08,0.12,-0.99,3.17,2.99,1.89
35.7720,0.08,0.12,-0.99,3.17,2.87,1.77
35.7790,0.08,0.12,-0.99,3.17,2.81,1.77
35.7960,0.07,0.12,-0.99,2.87,2.75,1.89
35.8130,0.08,0.12,-0.99,2.01,3.17,1.95
35.8300,0.08,0.12,-0.99,1.28,3.17,1.89
35.8470,0.07,0.12,-0.99,1.34,3.48,1.83
35.8630,0.08,0.11,-0.98,3.66,3.30,2.08
35.8780,0.08,0.13,-1.00,4.58,2.93,2.14
35.8860,0.07,0.11,-0.98,2.62,2.99,1.83
35.9080,0.08,0.13,-1.00,4.27,2.56,1.95
35.9180,0.08,0.11,-0.99,2.93,2.62,1.83
35.9350,0.08,0.12,-0.99,4.15,3.05,2.08
35.9510,0.07,0.12,-0.99,2.99,3.42,2.08
35.9660,0.08,0.12,-0.99,3.60,3.11,1.77
35.9760,0.08,0.13,-0.99,4.03,3.05,2.14
35.9990,0.08,0.12,-0.99,3.23,3.48,1.95
36.0090,0.08,0.12,-0.99,3.05,2.93,1.77
36.0280,0.08,0.13,-1.00,2.81,3.54,1.89
36.0420,0.07,0.12,-0.99,2.14,3.54,1.77
36.0600,0.08,0.13,-0.99,2.69,3.23,1.77
36.0740,0.07,0.12,-0.99,2.20,3.42,1.95
36.0900,0.07,0.13,-0.99,3.54,2.93,2.44
36.1060,0.09,0.18,-0.99,6.71,2.56,-0.18
36.1130,0.06,0.09,-1.00,4.09,3.11,0.61
36.1280,0.08,0.13,-0.99,3.17,3.05,1.28
36.1540,0.07,0.11,-0.99,3.78,3.17,1.34
36.1690,0.07,0.12,-0.99,3.97,3.17,1.83
36.1690,0.07,0.12,-0.99,3.42,3.23,1.95
36.1870,0.07,0.12,-0.99,3.11,3.23,2.32
36.2170,0.08,0.12,-0.99,3.48,3.11,2.75
36.2290,0.07,0.12,-0.99,4.03,3.05,2.20
36.2360,0.08,0.13,-0.99,4.64,2.87,1.95
36.2610,0.08,0.13,-0.99,3.78,3.42,1.95
36.2770,0.09,0.14,-0.98,3.23,2.87,2.38
36.2860,0.08,0.13,-0.99,3.66,2.44,2.69
36.3020,0.07,0.12,-0.99,3.78,2.44,2.69
36.3200,0.07,0.12,-0.99,3.91,3.11,2.20
36.3350,0.08,0.13,-0.99,4.58,3.17,1.95
36.3520,0.08,0.13,-0.99,3.42,3.17,1.71
36.3690,0.08,0.13,-0.99,3.05,3.17,1.89
36.3840,0.07,0.12,-0.99,2.87,2.93,1.89
36.3860,0.08,0.12,-0.99,4.09,3.05,2.01
36.4160,0.07,0.13,-0.99,4.15,3.23,1.83
36.4320,0.07,0.13,-0.99,3.48,3.17,1.83
36.4470,0.07,0.13,-0.99,2.62,2.87,1.77
36.4620,0.07,0.12,-0.99,2.38,3.17,1.83
36.4770,0.07,0.13,-0.99,2.99,3.05,1.77
36.4920,0.08,0.13,-0.99,2.93,2.69,1.71
36.5030,0.08,0.13,-0.99,2.75,3.54,1.83
36.5190,0.08,0.13,-0.99,3.05,3.23,1.83
36.5350,0.07,0.13,-0.99,2.99,3.05,1.65
36.5500,0.08,0.13,-0.99,2.93,3.23,1.65
36.5680,0.07,0.13,-0.99,2.87,3.11,1.71
36.5760,0.07,0.13,-0.99,2.99,3.30,1.71
36.5910,0.08,0.13,-0.99,2.81,2.87,1.89
36.6110,0.08,0.13,-0.99,3.05,3.17,1.95
36.6280,0.08,0.13,-0.99,2.87,2.75,2.08
36.6430,0.08,0.13,-0.99,2.93,2.38,2.26
36.6440,0.07,0.13,-0.99,2.75,2.87,2.62
36.6620,0.07,0.13,-0.99,2.44,2.87,2.81
36.6910,0.07,0.12,-0.99,2.50,3.17,3.17
36.6950,0.07,0.11,-0.99,2.87,2.93,2.50
36.7120,0.07,0.11,-0.99,3.11,3.23,1.89
36.7290,0.07,0.12,-0.99,3.23,3.11,1.71
36.7460,0.07,0.13,-0.99,2.87,2.75,1.65
36.7620,0.08,0.13,-0.99,2.38,2.75,1.59
36.7780,0.07,0.12,-0.99,2.93,2.87,2.32
36.7980,0.07,0.12,-0.99,3.05,3.11,2.32
36.8140,0.07,0.12,-0.99,2.69,2.99,2.20
36.8300,0.08,0.13,-0.99,3.11,3.17,2.20
36.8300,0.08,0.12,-0.99,3.05,3.36,2.32
36.8530,0.08,0.13,-0.99,3.42,2.99,2.01
36.8720,0.08,0.13,-0.99,3.36,3.23,2.14
36.8870,0.07,0.12,-0.99,2.62,2.99,2.62
36.9040,0.08,0.12,-0.99,2.32,3.11,2.87
36.9200,0.08,0.13,-0.99,2.14,3.42,2.69
36.9290,0.07,0.13,-0.99,2.75,2.93,2.87
36.9520,0.07,0.12,-0.99,2.87,3.05,3.11
36.9680,0.07,0.12,-0.99,2.69,2.69,3.23
36.9850,0.07,0.11,-0.99,2.50,3.05,2.69
37.0010,0.07,0.12,-0.99,2.56,3.54,2.08
37.0170,0.08,0.13,-0.99,3.11,2.75,2.14
37.0310,0.07,0.13,-0.99,3.11,2.81,2.38
37.0370,0.07,0.12,-0.99,2.75,2.81,2.50
37.0620,0.07,0.12,-0.99,2.81,2.81,2.14
37.0710,0.08,0.13,-0.99,2.87,2.69,2.26
37.0870,0.08,0.13,-0.99,2.93,2.56,2.87
37.1040,0.07,0.11,-0.99,2.99,2.87,2.87
37.1220,0.07,0.12,-0.99,2.87,2.99,2.14
37.1370,0.07,0.12,-0.99,3.05,2.93,1.95
37.1380,0.07,0.12,-0.99,3.05,2.69,1.95
37.1690,0.08,0.13,-0.99,2.56,2.99,1.89
37.1850,0.08,0.10,-0.99,3.42,2.75,2.38
37.2000,0.07,0.12,-0.99,3.60,3.05,2.62
37.2060,0.07,0.12,-0.99,3.23,2.69,2.62
37.2290,0.07,0.12,-0.99,2.87,3.30,2.26
37.2370,0.08,0.13,-0.99,2.62,3.11,1.95
37.2570,0.07,0.12,-0.99,3.36,2.81,2.62
37.2730,0.08,0.12,-0.99,3.11,2.93,2.93
37.2940,0.08,0.12,-0.99,3.05,2.69,2.56
37.2960,0.07,0.12,-0.99,2.81,2.87,2.50
37.3120,0.08,0.12,-0.99,2.87,2.93,2.08
37.3290,0.08,0.13,-0.99,3.11,3.36,2.26
37.3440,0.08,0.13,-0.99,3.36,3.42,2.81
37.3720,0.08,0.12,-0.99,3.05,2.56,2.93
37.3870,0.07,0.12,-0.99,2.99,2.75,2.93
37.3950,0.07,0.12,-0.99,2.93,3.23,2.08
37.4110,0.08,0.13,-0.99,2.62,3.17,2.01
37.4290,0.07,0.12,-0.99,3.23,2.81,2.38
37.4450,0.07,0.12,-0.99,3.17,3.11,2.38
37.4630,0.07,0.12,-0.99,3.05,3.11,2.38
37.4780,0.07,0.12,-0.99,2.81,3.17,2.38
37.4940,0.07,0.12,-0.99,2.75,3.36,2.44
37.5090,0.07,0.12,-0.99,2.99,2.56,2.32
37.5180,0.07,0.12,-0.99,3.42,3.05,2.50
37.5360,0.08,0.13,-0.99,3.30,3.11,2.01
37.5520,0.08,0.13,-0.99,2.99,2.99,1.95
37.5680,0.08,0.12,-0.99,3.11,2.87,2.20
37.5840,0.08,0.12,-0.99,3.17,2.81,2.38
37.6020,0.07,0.12,-0.99,3.30,3.11,2.38
37.6180,0.07,0.12,-0.99,2.93,3.11,2.32
37.6300,0.08,0.13,-0.99,3.11,2.93,2.38
37.6480,0.07,0.12,-0.99,3.11,3.11,2.87
37.6630,0.07,0.12,-0.99,3.54,2.99,2.75
37.6780,0.07,0.12,-0.99,3.42,3.11,2.87
37.6940,0.08,0.13,-0.99,3.05,2.50,2.75
37.7010,0.07,0.12,-0.99,3.05,2.44,3.11
37.7180,0.07,0.12,-0.99,3.11,2.99,3.17
37.7350,0.07,0.12,-0.99,3.05,2.75,2.99
37.7520,0.07,0.12,-0.99,3.23,2.93,2.62
37.7680,0.07,0.13,-0.99,3.17,2.81,2.50
37.7850,0.08,0.13,-0.99,2.69,3.11,2.87
37.8010,0.08,0.13,-0.99,3.05,2.38,3.17
37.8160,0.07,0.13,-0.99,2.81,2.62,3.60
37.8320,0.07,0.12,-0.99,2.69,2.62,4.09
37.8480,0.07,0.11,-0.99,2.56,2.75,3.11
37.8580,0.07,0.12,-0.99,2.50,2.87,2.56
37.8740,0.07,0.12,-0.99,2.81,2.75,2.44
37.8900,0.07,0.12,-0.99,2.75,3.17,2.62
37.9070,0.07,0.12,-0.99,3.36,2.75,2.56
37.9240,0.07,0.12,-0.99,3.36,3.17,2.26
37.9400,0.07,0.13,-0.99,2.99,3.05,2.38
37.9550,0.08,0.13,-0.99,2.87,2.99,3.17
37.9710,0.08,0.13,-0.99,2.56,3.23,3.17
37.9850,0.08,0.13,-0.99,2.62,2.93,4.03
38.0010,0.07,0.10,-0.99,3.05,2.32,4.70
38.0080,0.07,0.11,-0.99,3.23,2.87,3.30
38.0310,0.07,0.11,-0.99,2.81,2.81,2.56
38.0460,0.07,0.12,-0.99,2.93,3.23,2.08
38.0580,0.07,0.12,-0.99,3.85,2.81,1.95
38.0740,0.08,0.13,-0.98,3.23,2.87,1.95
38.0930,0.07,0.12,-1.00,3.48,2.81,1.89
38.0950,0.07,0.12,-0.99,2.99,2.87,2.08
38.1120,0.08,0.13,-0.99,3.30,3.05,1.89
38.1300,0.07,0.12,-0.99,3.11,3.17,2.14
38.1450,0.07,0.12,-0.99,2.93,3.11,2.08
38.1610,0.08,0.12,-0.99,2.99,3.42,2.26
38.1780,0.08,0.12,-0.99,3.60,2.75,2.14
38.1950,0.08,0.12,-0.99,3.42,2.81,2.26
38.2110,0.07,0.12,-0.99,2.99,2.75,2.26
38.2300,0.08,0.12,-0.99,2.69,3.36,2.08
38.2480,0.08,0.12,-0.99,3.30,2.87,2.01
38.2490,0.07,0.12,-0.99,3.85,3.23,2.08
38.2800,0.07,0.13,-0.99,3.30,3.23,1.95
38.2810,0.07,0.13,-0.99,2.38,2.81,2.14
38.2980,0.08,0.13,-0.99,2.44,2.75,2.38
38.3150,0.08,0.12,-0.99,2.62,2.93,2.56
38.3300,0.08,0.12,-0.99,3.36,2.69,2.75
38.3570,0.07,0.12,-0.99,3.60,2.69,2.93
38.3680,0.08,0.13,-0.99,2.93,2.69,3.11
38.3850,0.08,0.13,-0.99,3.11,2.62,3.66
38.4020,0.07,0.13,-0.99,3.17,2.69,3.66
38.4180,0.08,0.12,-0.99,3.05,2.50,3.85
38.4340,0.08,0.12,-0.99,3.54,2.56,3.42
38.4500,0.07,0.12,-0.99,3.17,2.81,3.42
38.4520,0.08,0.13,-0.99,2.99,2.93,3.23
38.4800,0.07,0.11,-0.99,2.62,2.69,3.17
38.4860,0.07,0.12,-0.99,2.38,2.75,2.87
38.5100,0.07,0.12,-0.99,2.81,2.81,2.93
38.5190,0.07,0.11,-0.99,3.23,2.93,3.17
38.5400,0.07,0.12,-0.99,2.93,2.99,2.87
38.5510,0.08,0.12,-0.99,3.17,2.62,2.75
38.5680,0.08,0.13,-0.99,3.23,2.81,2.81
38.5860,0.08,0.13,-0.99,2.99,2.62,3.48
38.6010,0.07,0.12,-0.99,3.42,2.20,3.91
38.6170,0.08,0.12,-0.99,3.05,2.50,3.23
38.6310,0.07,0.13,-0.99,2.69,2.81,3.11
38.6470,0.08,0.12,-0.99,2.44,2.75,2.69
38.6630,0.08,0.12,-0.99,2.75,2.99,2.75
38.6780,0.07,0.11,-0.99,3.23,2.87,2.50
38.6920,0.07,0.12,-0.99,3.60,2.75,2.50
38.7070,0.08,0.13,-0.99,3.30,2.99,2.62
38.7190,0.08,0.13,-0.99,3.17,2.99,2.81
38.7360,0.07,0.12,-0.99,2.93,2.75,3.05
38.7510,0.07,0.13,-0.99,2.62,2.87,3.17
38.7670,0.07,0.12,-0.99,3.17,2.62,3.42
38.7840,0.07,0.11,-0.99,3.60,2.69,2.93
38.8000,0.07,0.11,-0.99,3.11,3.11,2.08
38.8030,0.07,0.12,-0.99,2.87,2.99,1.71
38.8310,0.08,0.12,-0.99,2.44,2.93,1.59
38.8470,0.07,0.12,-0.99,3.17,3.11,1.77
38.8620,0.07,0.12,-0.99,3.66,2.69,1.83
38.8770,0.08,0.12,-0.99,3.48,3.17,1.77
38.8920,0.07,0.13,-0.99,3.23,2.93,1.71
38.9030,0.08,0.13,-0.99,2.99,2.75,1.83
38.9190,0.08,0.13,-0.99,2.50,2.56,2.01
38.9370,0.07,0.12,-0.99,3.11,2.81,2.32
38.9530,0.07,0.12,-0.99,3.36,2.75,2.32
38.9680,0.07,0.12,-0.99,3.42,2.93,2.14
38.9840,0.08,0.13,-0.99,3.23,2.93,2.44
38.9990,0.07,0.12,-0.99,2.87,2.75,2.01
39.0160,0.08,0.12,-0.99,3.17,2.93,2.44
39.0320,0.08,0.12,-0.99,3.11,3.11,2.32
39.0480,0.08,0.13,-0.99,3.42,3.11,2.81
39.0540,0.08,0.13,-0.99,2.93,2.75,3.11
39.0820,0.08,0.13,-0.99,2.62,2.75,4.09
39.0970,0.08,0.12,-0.99,2.93,3.05,3.78
39.1040,0.08,0.12,-0.99,2.93,2.62,3.05
39.1270,0.08,0.13,-0.98,3.78,2.93,2.75
39.1370,0.07,0.12,-1.00,3.30,3.11,3.05
39.1540,0.07,0.13,-0.99,2.01,2.87,2.99
39.1700,0.07,0.11,-0.99,2.75,2.69,3.05
39.1870,0.07,0.11,-0.99,3.11,2.99,3.11
39.2030,0.07,0.11,-0.99,3.42,3.05,2.87
39.2190,0.07,0.11,-1.00,3.60,3.17,2.62
39.2350,0.08,0.12,-0.99,3.42,3.05,1.77
39.2510,0.07,0.12,-0.99,3.36,2.75,1.46
39.2670,0.07,0.12,-0.99,3.30,2.93,1.59
39.2830,0.08,0.12,-0.99,2.99,2.93,1.71
39.2980,0.07,0.12,-0.99,3.48,2.87,1.95
39.3140,0.07,0.12,-0.99,3.54,3.42,2.01
39.3290,0.07,0.12,-0.99,2.81,2.99,1.89
39.3370,0.08,0.13,-0.99,2.38,3.11,1.83
39.3530,0.07,0.12,-0.99,2.93,3.05,2.14
39.3760,0.08,0.12,-0.99,3.11,3.17,2.14
39.3870,0.07,0.12,-0.99,3.48,2.87,1.83
39.4050,0.08,0.12,-0.99,3.42,3.30,1.95
39.4210,0.08,0.13,-0.99,3.23,2.81,1.77
39.4360,0.08,0.13,-0.99,2.87,3.05,2.01
39.4520,0.08,0.13,-0.99,2.87,3.11,2.01
39.4530,0.08,0.13,-0.99,2.93,2.87,2.20
39.4700,0.08,0.13,-0.99,3.72,2.99,2.75
39.4880,0.07,0.12,-0.99,3.48,3.05,2.93
39.5130,0.07,0.12,-0.99,3.36,3.30,2.50
39.5210,0.08,0.15,-0.99,3.17,3.05,1.77
39.5380,0.07,0.11,-0.99,2.26,2.87,3.23
39.5550,0.07,0.12,-0.99,2.38,3.48,3.05
39.5710,0.07,0.11,-0.99,3.17,3.23,2.87
39.5860,0.07,0.12,-0.99,3.30,3.30,2.99
39.6020,0.07,0.12,-0.99,3.11,3.48,2.69
39.6180,0.07,0.11,-1.00,2.44,2.93,1.95
39.6320,0.07,0.12,-0.99,2.44,3.17,1.89
39.6430,0.07,0.12,-0.99,3.54,2.93,2.01
39.6660,0.07,0.12,-0.99,3.60,3.23,2.26
39.6660,0.07,0.12,-0.99,3.48,3.30,2.26
39.6820,0.07,0.12,-0.99,3.60,3.36,2.26
39.6990,0.08,0.13,-0.99,2.99,3.42,2.08
39.7280,0.08,0.13,-0.99,3.17,2.81,2.32
39.7320,0.08,0.13,-0.99,3.36,2.93,3.05
39.7590,0.07,0.12,-0.99,3.60,2.56,3.17
39.7660,0.08,0.12,-0.99,3.23,2.75,2.87
39.7900,0.07,0.12,-0.99,3.23,2.93,2.44
39.7990,0.08,0.13,-0.99,2.99,2.81,2.93
39.8160,0.08,0.12,-1.00,4.33,2.69,3.05
39.8320,0.08,0.12,-0.99,2.62,3.36,3.23
39.8490,0.07,0.12,-0.99,3.17,2.93,2.99
39.8640,0.07,0.11,-0.99,2.93,2.99,2.87
39.8650,0.08,0.12,-0.99,2.81,2.87,2.32
39.8820,0.07,0.12,-0.99,3.30,3.11,2.69
39.8990,0.08,0.12,-0.99,3.42,2.93,2.44
39.9160,0.07,0.12,-0.99,2.99,3.11,2.20
39.9330,0.07,0.12,-0.99,2.93,3.17,2.14
39.9570,0.08,0.12,-0.99,2.87,3.42,2.14
39.9720,0.08,0.12,-0.99,2.99,3.11,2.38
39.9830,0.08,0.13,-0.99,2.93,3.11,2.62
39.9990,0.08,0.13,-0.99,2.69,2.87,3.11
40.0160,0.08,0.12,-0.99,2.87,2.93,3.11
40.0330,0.07,0.11,-0.99,3.17,3.05,2.50
40.0490,0.08,0.12,-0.99,3.11,2.87,1.89
40.0660,0.07,0.13,-0.99,3.17,3.11,2.14
40.0810,0.08,0.12,-0.99,3.30,2.93,2.99
40.0960,0.08,0.12,-0.99,3.11,3.05,2.75
40.1120,0.07,0.12,-0.99,3.23,3.48,2.75
40.1270,0.07,0.12,-0.99,3.30,2.99,2.93
40.1420,0.07,0.12,-0.99,3.11,3.17,2.87
40.1510,0.08,0.13,-0.99,3.11,3.05,2.08
40.1660,0.08,0.13,-0.99,3.23,2.81,2.32
40.1840,0.07,0.12,-0.99,3.11,2.93,2.62
40.2010,0.07,0.12,-0.99,3.05,3.11,2.38
40.2180,0.07,0.12,-0.99,2.87,3.17,2.69
40.2340,0.07,0.12,-0.99,3.36,3.23,2.38
40.2500,0.08,0.13,-0.99,3.36,3.17,1.77
40.2650,0.08,0.13,-0.99,3.23,2.75,2.08
40.2790,0.08,0.13,-0.99,3.17,2.81,2.75
40.2950,0.07,0.12,-0.99,3.30,2.56,2.93
40.3030,0.07,0.12,-0.99,3.11,3.11,2.93
40.3200,0.08,0.12,-0.99,3.30,3.11,2.62
40.3360,0.08,0.14,-0.99,3.66,3.11,2.32
40.3530,0.08,0.13,-1.00,3.42,3.11,2.93
40.3700,0.07,0.12,-0.99,2.56,3.05,2.93
40.3700,0.07,0.11,-0.99,3.11,3.05,2.81
40.4000,0.07,0.11,-0.99,3.23,2.99,2.38
40.4150,0.07,0.12,-0.99,3.60,3.17,2.20
40.4190,0.07,0.12,-1.00,3.54,3.05,2.14
40.4450,0.08,0.13,-0.99,2.99,2.99,2.26
40.4600,0.07,0.12,-1.00,3.05,2.81,2.62
40.4710,0.08,0.12,-0.99,2.87,3.05,2.69
40.4880,0.08,0.12,-0.99,3.30,3.11,2.38
40.5030,0.08,0.12,-0.99,3.23,2.99,2.50
40.5210,0.07,0.11,-1.00,3.42,2.56,2.50
40.5370,0.07,0.12,-0.99,2.75,3.17,1.89
40.5530,0.08,0.12,-0.99,3.17,2.75,1.83
40.5690,0.08,0.13,-0.99,3.17,3.23,2.01
40.5840,0.08,0.13,-0.99,3.42,2.99,2.14
40.6000,0.08,0.13,-0.99,3.30,3.23,2.38
40.6150,0.07,0.12,-0.99,3.05,2.99,2.20
40.6300,0.08,0.13,-0.99,2.81,2.87,2.01
40.6450,0.07,0.13,-0.99,2.81,3.05,2.50
40.6550,0.08,0.12,-0.99,3.66,3.11,2.81
40.6720,0.08,0.12,-0.99,3.36,2.69,2.75
40.6890,0.07,0.12,-0.99,3.05,2.87,2.99
40.7070,0.08,0.13,-0.98,2.44,3.30,2.87
40.7220,0.08,0.12,-1.00,3.72,2.93,2.50
40.7380,0.08,0.12,-0.99,2.56,3.05,2.62
40.7530,0.07,0.12,-0.99,2.93,2.75,2.56
40.7670,0.07,0.12,-0.99,3.17,2.93,2.81
40.7720,0.07,0.12,-0.99,3.23,2.62,2.50
40.7980,0.07,0.12,-0.99,3.23,3.05,2.32
40.8130,0.07,0.13,-0.99,2.75,3.17,2.08
40.8280,0.08,0.13,-1.00,3.36,2.87,2.32
40.8380,0.07,0.13,-0.99,2.56,2.87,2.81
40.8560,0.07,0.12,-0.99,2.87,3.05,3.11
40.8710,0.07,0.11,-0.99,3.72,2.81,2.93
40.8880,0.07,0.12,-0.99,3.23,3.60,2.20
40.9050,0.08,0.12,-0.99,3.11,3.36,1.77
40.9200,0.07,0.12,-0.99,3.11,3.30,1.71
40.9350,0.07,0.12,-0.99,2.99,2.99,1.65
40.9390,0.08,0.13,-0.99,3.11,2.75,2.14
40.9670,0.07,0.12,-0.99,3.05,2.62,2.69
40.9720,0.08,0.13,-0.99,3.05,2.93,2.32
40.9970,0.07,0.13,-0.99,3.60,2.87,2.20
41.0050,0.08,0.13,-0.99,2.69,2.56,2.81
41.0280,0.08,0.12,-0.99,2.99,2.81,2.56
41.0390,0.08,0.13,-0.99,2.99,2.99,2.62
41.0540,0.07,0.11,-0.99,3.23,2.50,2.87
41.0720,0.07,0.12,-0.99,2.87,2.87,2.69
41.0880,0.07,0.12,-0.99,2.87,3.17,2.26
41.1050,0.08,0.12,-0.99,3.54,3.11,2.08
41.1210,0.08,0.12,-0.99,3.48,3.23,1.89
41.1330,0.07,0.12,-0.99,3.42,2.81,1.89
41.1450,0.08,0.13,-0.99,2.81,3.11,1.95
41.1620,0.07,0.12,-0.99,2.99,3.05,2.08
41.1780,0.08,0.12,-0.99,3.30,2.87,2.32
41.1950,0.07,0.15,-0.99,3.30,2.93,2.26
41.2130,0.08,0.13,-0.99,3.05,3.05,2.20
41.2290,0.08,0.14,-0.98,2.62,2.93,2.56
41.2440,0.07,0.12,-0.99,2.99,2.81,3.60
41.2450,0.08,0.12,-0.99,2.56,3.11,3.05
41.2750,0.07,0.12,-0.99,3.05,3.05,2.56
41.2850,0.07,0.12,-0.99,3.23,2.81,2.44
41.3030,0.07,0.12,-0.99,2.93,2.75,2.62
41.3190,0.07,0.12,-0.99,3.17,2.75,2.56
41.3350,0.07,0.11,-0.99,3.42,2.81,2.81
41.3510,0.08,0.12,-0.99,3.30,2.81,2.50
41.3520,0.08,0.13,-0.99,3.54,2.87,2.01
41.3690,0.08,0.13,-0.99,3.17,2.81,1.95
41.3950,0.08,0.13,-0.99,2.99,2.93,2.32
41.4110,0.07,0.13,-0.99,2.75,3.17,2.93
41.4260,0.08,0.13,-0.99,2.99,2.75,3.42
41.4350,0.07,0.12,-0.99,2.81,2.50,3.42
41.4520,0.07,0.11,-0.99,2.99,2.75,3.30
41.4690,0.07,0.12,-0.99,3.05,2.99,2.87
41.4850,0.07,0.12,-0.99,2.81,3.17,2.44
41.5010,0.07,0.13,-0.99,3.05,2.93,3.11
41.5170,0.08,0.13,-0.99,3.23,2.75,3.30
41.5330,0.08,0.12,-1.00,3.72,2.75,3.48
41.5360,0.08,0.12,-0.99,2.38,3.17,3.60
41.5530,0.08,0.13,-0.99,2.99,2.69,2.99
41.5690,0.07,0.12,-0.99,2.75,2.93,3.60
41.5850,0.07,0.11,-0.99,2.50,3.36,3.91
41.6020,0.08,0.12,-0.99,2.69,3.05,3.05
41.6180,0.08,0.12,-0.99,3.05,2.81,2.87
41.6380,0.07,0.11,-0.99,3.23,2.87,2.81
41.6540,0.07,0.12,-0.99,2.87,3.48,2.08
41.6720,0.08,0.14,-0.98,2.75,3.42,2.14
41.6720,0.08,0.13,-1.00,3.54,2.56,2.93
41.7030,0.08,0.13,-0.99,2.69,2.81,3.17
41.7180,0.08,0.13,-0.99,2.87,2.87,2.87
41.7330,0.07,0.12,-0.99,3.05,2.56,2.93
41.7380,0.07,0.11,-1.00,2.93,2.75,3.30
41.7630,0.07,0.12,-0.99,2.56,2.81,2.87
41.7780,0.07,0.12,-0.99,3.11,2.81,3.11
41.7880,0.08,0.12,-0.99,3.30,2.99,3.05
41.8050,0.08,0.13,-0.99,3.78,2.75,2.87
41.8230,0.07,0.12,-0.99,2.99,3.05,3.05
41.8380,0.07,0.12,-0.99,2.99,2.69,3.05
41.8540,0.07,0.11,-0.99,2.81,3.05,2.87
41.8700,0.07,0.11,-0.99,2.56,3.23,2.08
41.8720,0.07,0.12,-0.99,2.99,3.42,2.08
41.9020,0.07,0.12,-0.99,3.36,2.81,2.08
41.9170,0.08,0.12,-0.99,2.93,3.36,2.81
41.9330,0.08,0.12,-0.99,3.36,3.17,2.93
41.9490,0.08,0.12,-0.99,3.17,3.30,2.50
41.9640,0.07,0.13,-1.00,3.17,3.05,2.20
41.9790,0.08,0.12,-0.99,2.50,3.30,2.38
41.9880,0.08,0.13,-0.99,2.87,3.23,2.69
42.0040,0.08,0.12,-0.99,3.30,3.17,3.23
42.0220,0.08,0.13,-0.99,3.23,2.87,2.81
42.0370,0.07,0.13,-0.99,2.62,3.11,2.99
42.0550,0.07,0.12,-0.99,2.50,3.11,3.17
42.0710,0.07,0.12,-0.99,2.32,3.05,2.62
42.0870,0.07,0.12,-0.99,2.56,3.11,2.93
42.0880,0.08,0.12,-0.99,3.42,2.87,2.87
42.1170,0.07,0.11,-1.00,3.60,3.30,2.99
42.1320,0.08,0.13,-0.99,2.32,3.17,2.81
42.1390,0.07,0.13,-0.99,2.87,3.05,3.66
42.1620,0.08,0.12,-0.99,2.99,2.81,3.91
42.1720,0.08,0.12,-0.99,3.48,3.11,3.72
42.1890,0.08,0.12,-0.99,3.17,3.11,4.15
42.2060,0.07,0.12,-1.00,3.05,2.75,3.91
42.2210,0.07,0.12,-0.99,2.50,3.17,3.54
42.2390,0.08,0.13,-0.99,2.69,3.11,3.48
42.2420,0.08,0.12,-0.99,3.30,3.05,3.60
42.2690,0.07,0.11,-0.99,3.23,3.11,3.23
42.2840,0.08,0.12,-0.99,3.05,3.54,2.20
42.2990,0.08,0.12,-0.98,3.30,3.05,1.95
42.3090,0.08,0.13,-1.00,3.97,2.75,1.89
42.3260,0.08,0.12,-0.99,2.20,3.23,2.08
42.3420,0.07,0.13,-0.99,2.87,3.11,2.62
42.3580,0.07,0.11,-0.99,3.36,2.81,3.11
42.3750,0.07,0.11,-1.00,2.99,3.30,2.93
42.3920,0.08,0.13,-0.99,2.99,3.23,2.50
42.4080,0.07,0.12,-0.99,3.17,2.99,2.93
42.4250,0.07,0.12,-0.99,3.11,2.87,3.42
42.4410,0.07,0.12,-0.99,3.36,2.75,3.36
42.4420,0.07,0.12,-0.99,3.23,2.69,2.75
42.4570,0.08,0.13,-0.99,3.54,3.54,2.26
42.4860,0.07,0.13,-1.00,4.21,2.62,2.08
42.4950,0.07,0.11,-0.99,2.38,3.05,2.69
42.5120,0.08,0.12,-0.99,2.62,3.05,2.75
42.5290,0.07,0.12,-0.99,3.42,2.32,2.93
42.5450,0.07,0.12,-1.00,3.42,2.38,3.17
42.5620,0.08,0.12,-0.99,2.69,3.11,2.99
42.5770,0.07,0.12,-0.99,3.11,2.93,3.17
42.5810,0.07,0.12,-0.99,3.17,3.23,3.17
42.6070,0.07,0.12,-0.99,2.87,2.87,3.05
42.6150,0.07,0.12,-0.99,3.23,3.42,2.93
42.6340,0.08,0.12,-0.99,2.87,3.36,2.81
42.6490,0.08,0.12,-0.99,3.23,3.17,2.75
42.6660,0.08,0.12,-0.99,3.17,3.17,2.50
42.6810,0.07,0.12,-0.99,3.05,3.48,2.32
42.6980,0.07,0.12,-0.99,2.99,3.42,2.20
42.7140,0.08,0.13,-0.99,2.99,2.75,2.50
42.7290,0.08,0.12,-0.99,3.17,2.87,2.87
42.7440,0.07,0.12,-0.99,3.05,2.93,2.62
42.7520,0.07,0.12,-0.99,3.11,2.93,2.81
42.7680,0.08,0.13,-0.98,2.81,2.81,2.56
42.7900,0.08,0.13,-1.00,3.97,2.75,2.38
42.8060,0.07,0.12,-0.99,2.99,3.42,2.62
42.8080,0.07,0.12,-0.99,3.17,3.11,2.20
42.8360,0.07,0.11,-0.99,3.36,2.99,2.32
42.8510,0.07,0.11,-1.00,3.85,3.23,2.56
42.8660,0.08,0.12,-0.99,3.05,3.23,2.14
42.8740,0.07,0.12,-0.99,3.36,2.93,2.50
42.8910,0.07,0.12,-0.99,3.48,3.23,2.08
42.9060,0.07,0.12,-0.99,3.60,3.23,2.01
42.9240,0.07,0.12,-0.99,3.30,3.23,1.95
42.9400,0.07,0.13,-0.99,3.11,3.23,1.89
42.9570,0.08,0.13,-0.99,2.93,3.05,2.08
42.9580,0.07,0.12,-0.99,3.30,2.87,2.38
42.9890,0.07,0.12,-0.99,3.30,2.87,2.26
43.0050,0.09,0.13,-0.99,3.78,2.81,1.89
43.0200,0.08,0.12,-0.99,2.99,3.42,2.01
43.0350,0.08,0.13,-0.99,3.05,3.17,1.89
43.0500,0.07,0.12,-0.99,3.17,2.99,2.38
43.0640,0.07,0.12,-0.99,3.17,3.23,2.38
43.0740,0.07,0.12,-0.99,2.87,3.11,2.20
43.0900,0.08,0.13,-0.98,2.87,2.93,1.89
43.1080,0.07,0.12,-1.00,3.66,2.99,2.32
43.1240,0.07,0.12,-0.99,3.11,3.05,3.05
43.1420,0.07,0.11,-0.99,3.60,2.56,3.11
43.1420,0.07,0.11,-0.99,3.30,3.23,2.62
43.1570,0.07,0.12,-0.99,3.30,3.36,2.26
43.1740,0.07,0.12,-0.99,2.93,2.81,2.08
43.1900,0.07,0.12,-0.99,2.99,3.23,2.01
43.2190,0.08,0.13,-0.99,2.99,3.05,1.77
43.2340,0.07,0.12,-0.99,2.81,3.05,2.14
43.2490,0.08,0.12,-0.99,2.81,2.81,2.14
43.2640,0.08,0.12,-0.99,2.81,3.05,2.08
43.2740,0.08,0.14,-0.98,3.36,3.36,2.01
43.2900,0.07,0.12,-1.00,3.42,3.11,2.87
43.3070,0.07,0.13,-0.99,2.50,3.23,2.75
43.3230,0.07,0.12,-0.99,2.69,2.81,2.62
43.3350,0.07,0.11,-0.99,3.05,3.23,2.69
43.3540,0.07,0.12,-0.99,3.30,3.23,2.44
43.3690,0.07,0.12,-0.99,4.09,3.05,2.20
43.3840,0.08,0.13,-0.99,3.78,3.30,2.26
43.3920,0.07,0.13,-1.00,2.93,3.42,2.50
43.4090,0.07,0.12,-0.99,2.14,3.30,2.56
43.4250,0.07,0.12,-0.99,2.75,3.23,2.81
43.4410,0.07,0.11,-1.00,3.23,2.99,2.69
43.4580,0.07,0.11,-0.99,2.99,3.54,2.44
43.4740,0.07,0.12,-0.99,3.17,3.05,2.50
43.4910,0.08,0.12,-0.99,3.17,3.30,2.44
43.5060,0.07,0.13,-0.99,3.30,3.30,2.69
43.5210,0.07,0.12,-0.99,2.99,3.05,2.99
43.5360,0.08,0.13,-0.99,2.99,2.87,2.50
43.5420,0.08,0.12,-1.00,3.48,2.99,2.75
43.5660,0.08,0.12,-0.99,2.26,3.60,2.38
43.5750,0.07,0.13,-0.99,2.75,3.23,2.56
43.5920,0.07,0.11,-0.99,2.87,2.93,3.17
43.6070,0.07,0.12,-0.99,2.26,2.75,2.93
43.6240,0.07,0.12,-0.99,2.62,3.05,3.36
43.6410,0.08,0.13,-0.99,3.17,3.11,3.05
43.6570,0.08,0.12,-1.00,3.66,2.75,3.48
43.6740,0.07,0.12,-0.99,2.69,2.87,3.54
43.6750,0.07,0.11,-0.99,2.69,2.99,2.75
43.7050,0.07,0.12,-0.99,2.81,3.48,2.44
43.7090,0.07,0.12,-0.99,3.17,3.05,2.01
43.7240,0.07,0.12,-0.99,3.42,3.05,1.89
43.7450,0.07,0.12,-0.99,2.87,2.87,2.08
43.7620,0.08,0.12,-0.99,2.50,3.05,2.38
43.7800,0.07,0.12,-1.00,3.54,3.30,2.44
43.7950,0.08,0.12,-0.99,2.93,3.30,2.32
43.8100,0.07,0.12,-0.99,3.30,3.36,1.95
43.8120,0.07,0.12,-0.99,2.81,3.36,2.01
43.8360,0.07,0.12,-0.99,3.23,2.75,2.20
43.8450,0.08,0.12,-0.99,3.30,3.05,2.08
43.8620,0.08,0.12,-0.99,3.60,3.48,2.08
43.8790,0.08,0.13,-0.99,3.48,3.42,1.95
43.8960,0.08,0.13,-0.99,2.38,3.48,1.95
43.9130,0.07,0.12,-0.99,3.17,2.93,2.44
43.9280,0.08,0.12,-0.99,3.05,3.17,2.26
43.9440,0.07,0.13,-1.00,3.91,3.11,2.20
43.9640,0.07,0.12,-0.99,3.23,3.11,2.50
43.9810,0.08,0.13,-0.99,2.87,3.05,2.44
43.9820,0.07,0.12,-0.99,2.75,3.17,2.50
43.9990,0.08,0.12,-0.99,2.87,3.05,2.62
44.0290,0.08,0.13,-0.99,2.69,3.05,2.56
44.0370,0.07,0.12,-0.99,2.62,3.48,2.75
44.0590,0.07,0.12,-0.99,2.87,3.42,2.50
44.0740,0.08,0.12,-0.99,2.75,3.11,2.32
44.0830,0.08,0.13,-0.99,3.48,2.87,2.38
44.1000,0.09,0.14,-0.98,3.42,2.99,2.20
44.1160,0.08,0.13,-1.00,2.93,3.05,2.99
44.1330,0.08,0.13,-0.99,1.71,3.05,3.23
44.1500,0.07,0.11,-0.99,2.50,3.05,3.54
44.1650,0.07,0.11,-0.99,2.93,2.93,3.54
44.1660,0.08,0.12,-1.00,4.58,2.69,2.87
44.1950,0.07,0.12,-0.99,2.81,3.23,2.62
44.1990,0.07,0.12,-0.99,2.56,2.87,3.05
44.2160,0.07,0.12,-0.99,2.75,2.93,3.36
44.2370,0.07,0.11,-0.99,3.05,2.87,3.42
44.2560,0.07,0.11,-0.99,3.30,2.93,2.75
44.2660,0.08,0.12,-0.99,3.48,3.48,2.08
44.2830,0.08,0.13,-0.99,3.48,3.23,1.89
44.2990,0.08,0.13,-0.99,3.11,2.93,2.01
44.3170,0.07,0.13,-0.99,2.99,3.36,2.20
44.3200,0.08,0.12,-0.99,3.17,3.17,2.62
44.3490,0.08,0.12,-0.99,3.23,3.11,2.44
44.3640,0.08,0.13,-0.99,3.05,2.87,1.83
44.3800,0.09,0.15,-0.98,3.17,2.87,2.32
44.3870,0.07,0.12,-1.00,3.17,3.05,3.60
44.4100,0.07,0.12,-0.99,2.50,2.99,3.17
44.4200,0.07,0.12,-0.99,2.93,2.87,3.05
44.4370,0.07,0.11,-1.00,3.48,3.23,2.87
44.4530,0.08,0.13,-0.99,3.17,3.23,1.95
44.4700,0.07,0.11,-0.99,2.56,2.87,2.32
44.4860,0.07,0.11,-0.99,2.62,2.93,2.62
44.4870,0.07,0.11,-0.99,3.42,3.05,2.44
44.5040,0.07,0.12,-0.99,3.42,3.11,2.08
44.5330,0.08,0.13,-0.99,3.11,3.11,2.14
44.5490,0.07,0.12,-0.99,2.93,3.11,2.01
44.5530,0.07,0.12,-0.99,2.99,3.05,2.14
44.5690,0.08,0.12,-0.99,3.48,3.30,2.26
44.5900,0.08,0.13,-0.99,3.42,3.54,2.14
44.6070,0.07,0.13,-0.99,3.36,3.42,1.77
44.6250,0.07,0.12,-0.99,2.87,3.23,2.01
44.6390,0.08,0.13,-1.01,4.94,2.93,2.20
44.6550,0.07,0.12,-0.99,3.60,3.30,1.89
44.6700,0.07,0.12,-0.99,4.39,3.11,2.20
44.6850,0.07,0.13,-1.00,3.85,2.99,2.14
44.6900,0.08,0.13,-0.99,3.11,3.54,2.01
44.7070,0.08,0.13,-0.99,3.30,2.93,2.38
44.7290,0.07,0.12,-0.99,3.17,2.99,2.56
44.7460,0.07,0.12,-0.99,3.78,2.87,2.20
44.7620,0.07,0.12,-0.99,3.54,3.36,2.08
44.7790,0.08,0.12,-0.99,3.05,3.17,2.20
44.7830,0.08,0.14,-0.99,2.93,3.30,1.89
44.8000,0.06,0.12,-0.99,2.44,2.93,1.65
44.8150,0.08,0.12,-0.99,2.20,3.23,2.01
44.8370,0.08,0.14,-1.00,1.83,3.17,2.75
44.8490,0.08,0.14,-0.98,2.87,3.05,3.17
44.8660,0.07,0.12,-1.00,3.60,2.75,3.30
44.8820,0.07,0.11,-0.99,2.08,3.17,2.69
44.8990,0.07,0.11,-0.99,2.69,2.81,2.20
44.9150,0.07,0.11,-0.99,3.42,2.99,2.08
44.9310,0.08,0.12,-0.99,3.78,3.11,2.01
44.9370,0.08,0.13,-0.99,3.72,2.93,2.08
44.9610,0.08,0.13,-0.99,3.30,3.11,2.08
44.9710,0.07,0.12,-0.99,3.17,3.05,2.75
44.9860,0.08,0.13,-0.99,2.75,2.87,2.81
45.0030,0.08,0.13,-0.99,2.87,2.87,3.11
45.0200,0.08,0.13,-0.99,3.30,2.93,3.42
45.0370,0.07,0.12,-0.99,2.87,2.93,3.60
45.0530,0.07,0.12,-0.99,2.75,2.99,3.48
45.0690,0.07,0.12,-0.99,2.56,2.87,3.05
45.0710,0.07,0.11,-0.99,3.54,3.05,2.50
45.0870,0.07,0.12,-0.99,3.30,3.48,1.95
45.1150,0.07,0.12,-0.99,3.42,3.48,1.89
45.1300,0.07,0.12,-0.99,3.48,2.87,1.89
45.1450,0.08,0.12,-0.99,2.87,3.23,1.71
45.1600,0.08,0.13,-0.99,2.87,3.60,1.83
45.1750,0.08,0.13,-0.98,3.23,3.66,1.71
45.1860,0.08,0.13,-0.99,4.15,3.17,1.71
45.2030,0.08,0.13,-0.99,3.11,3.60,2.08
45.2200,0.08,0.13,-1.00,4.58,2.69,2.69
45.2210,0.08,0.14,-1.00,1.40,3.05,2.32
45.2380,0.07,0.13,-1.00,3.48,2.62,2.81
45.2670,0.07,0.12,-0.99,2.44,3.30,2.26
45.2830,0.07,0.11,-0.99,3.23,3.23,2.08
45.2980,0.08,0.12,-0.98,2.93,3.05,2.14
45.3150,0.07,0.10,-0.97,2.32,3.72,1.77
45.3310,0.08,0.13,-1.00,3.48,3.23,1.89
45.3390,0.06,0.12,-1.00,3.78,3.30,1.28
45.3620,0.08,0.13,-0.98,2.75,3.23,1.65
45.3720,0.07,0.12,-1.00,3.23,2.81,1.40
45.3880,0.08,0.13,-1.00,3.54,2.93,1.89
45.4050,0.08,0.13,-0.99,3.05,3.17,1.95
45.4200,0.07,0.12,-0.99,3.36,2.99,2.08
45.4360,0.07,0.12,-0.99,2.87,3.30,2.08
45.4440,0.08,0.12,-0.99,3.11,3.23,2.01
45.4620,0.08,0.13,-0.99,3.30,2.87,1.83
45.4780,0.07,0.12,-0.99,2.93,3.17,1.71
45.4950,0.07,0.12,-0.99,3.42,3.17,1.83
45.5100,0.07,0.12,-0.99,3.05,3.36,1.95
45.5270,0.08,0.13,-0.99,3.05,3.30,2.08
45.5440,0.08,0.13,-0.98,3.11,3.23,1.89
45.5610,0.08,0.13,-0.99,2.93,2.93,1.65
45.5780,0.08,0.13,-0.99,2.93,3.05,2.14
45.5940,0.08,0.13,-0.99,2.99,3.05,2.38
45.6100,0.07,0.11,-0.99,3.85,2.99,2.38
45.6190,0.08,0.12,-0.99,2.75,3.11,2.01
45.6380,0.08,0.13,-0.99,3.11,3.36,2.20
45.6520,0.08,0.13,-0.99,3.30,3.23,2.99
45.6700,0.08,0.14,-0.99,2.81,2.69,3.17
45.6740,0.07,0.10,-0.99,3.11,2.75,3.05
45.6920,0.07,0.11,-0.99,2.44,2.99,2.38
45.7150,0.07,0.12,-0.99,3.11,3.05,1.77
45.7300,0.07,0.11,-0.98,3.05,3.42,1.95
45.7410,0.08,0.12,-0.99,3.23,3.36,1.89
45.7580,0.08,0.13,-0.99,3.23,3.36,1.71
45.7750,0.07,0.12,-0.99,3.30,3.36,1.22
45.7910,0.07,0.12,-0.99,3.30,3.48,1.65
45.8060,0.08,0.13,-1.00,3.36,3.17,1.89
45.8080,0.08,0.13,-0.98,2.01,3.48,1.65
45.8380,0.07,0.12,-0.99,3.48,3.17,1.22
45.8560,0.07,0.12,-0.99,3.60,3.36,1.77
45.8580,0.08,0.13,-1.00,3.36,3.30,1.89
45.8870,0.08,0.13,-1.00,3.30,3.17,1.65
45.9020,0.08,0.13,-0.99,2.87,3.72,1.46
45.9170,0.07,0.12,-0.99,3.30,3.17,1.10
45.9320,0.07,0.12,-0.99,3.36,3.48,1.10
45.9420,0.08,0.12,-0.99,3.17,3.54,1.10
45.9600,0.07,0.12,-0.99,2.99,2.99,1.04
45.9750,0.07,0.12,-0.99,2.62,3.11,1.28
45.9910,0.08,0.12,-1.00,2.81,2.99,1.71
46.0090,0.09,0.13,-0.98,2.62,3.36,1.83
46.0250,0.08,0.10,-0.99,3.72,3.36,1.53
46.0410,0.07,0.12,-0.99,3.48,3.30,1.65
46.0470,0.08,0.13,-0.99,2.75,3.23,1.65
46.0640,0.07,0.13,-0.98,2.75,3.17,1.65
46.0820,0.07,0.13,-1.00,3.05,2.44,2.08
46.0970,0.08,0.13,-1.00,3.66,3.36,1.83
46.1130,0.09,0.13,-0.98,2.08,3.30,1.77
46.1310,0.07,0.11,-0.99,3.42,2.75,1.46
46.1380,0.07,0.12,-1.00,3.23,3.36,1.22
46.1610,0.07,0.12,-0.99,2.69,3.30,1.59
46.1770,0.07,0.12,-0.99,2.62,3.36,1.71
46.1860,0.08,0.12,-0.99,2.93,3.54,1.89
46.2020,0.07,0.12,-0.99,3.42,3.05,1.83
46.2190,0.07,0.13,-0.99,3.36,3.05,1.95
46.2380,0.08,0.13,-0.99,2.69,2.87,1.65
46.2510,0.08,0.13,-0.99,2.62,3.11,1.53
46.2680,0.08,0.13,-0.98,2.99,3.23,1.04
46.2830,0.07,0.11,-0.99,3.97,2.81,1.71
46.2990,0.07,0.12,-0.99,3.30,3.17,1.89
46.3070,0.07,0.12,-0.99,3.54,2.87,1.89
46.3230,0.08,0.12,-0.99,3.42,2.99,1.83
46.3460,0.08,0.12,-0.99,3.85,2.87,1.89
46.3620,0.08,0.12,-0.99,4.21,3.05,1.89
46.3630,0.08,0.12,-0.99,3.91,3.11,1.83
46.3930,0.07,0.12,-0.99,3.66,2.81,1.71
46.3950,0.08,0.13,-0.99,4.21,2.75,1.89
46.4250,0.08,0.12,-0.99,4.52,2.93,1.95
46.4400,0.08,0.13,-0.99,4.76,3.05,2.08
46.4550,0.08,0.13,-0.99,4.21,2.50,1.95
46.4620,0.08,0.13,-0.99,4.27,2.44,1.77
46.4790,0.08,0.13,-1.00,4.88,2.20,1.95
46.4950,0.08,0.13,-1.00,4.46,2.08,1.77
46.5160,0.08,0.13,-1.00,5.13,2.26,1.71
46.5310,0.08,0.13,-0.99,5.13,2.32,2.01
46.5470,0.08,0.13,-0.99,5.07,2.93,1.95
46.5630,0.08,0.13,-0.99,4.33,2.99,1.89
46.5680,0.08,0.13,-0.99,3.36,3.23,1.83
46.5930,0.08,0.13,-0.99,3.05,3.60,1.95
46.6080,0.08,0.13,-0.99,2.81,4.09,1.95
46.6180,0.06,0.12,-0.97,3.36,3.91,1.95
46.6380,0.08,0.12,-0.98,2.69,5.19,2.08
46.6510,0.09,0.10,-0.99,1.53,5.98,-1.22
46.6670,0.07,0.13,-0.98,-1.34,6.65,-8.61
46.6820,0.07,0.15,-1.01,6.35,3.05,-2.26
46.6970,0.08,0.17,-1.03,8.85,2.56,2.08
46.7130,0.08,0.11,-1.00,-0.06,2.99,1.40
46.7280,0.05,0.17,-1.06,3.17,4.82,2.56
46.7420,0.06,0.12,-0.99,2.20,4.21,2.08
46.7500,0.09,0.12,-0.98,2.38,3.78,1.83
46.7680,0.07,0.11,-0.99,1.77,3.42,1.83
46.7840,0.08,0.12,-1.00,3.30,3.17,1.83
46.8000,0.08,0.13,-0.99,3.48,3.36,2.01
46.8170,0.08,0.12,-0.99,2.50,3.36,1.89
46.8340,0.07,0.13,-0.99,3.11,3.66,2.14
46.8490,0.08,0.13,-0.99,2.75,3.30,1.89
46.8630,0.08,0.13,-0.99,3.05,2.99,1.83
46.8670,0.08,0.12,-0.99,2.87,3.30,1.89
46.8930,0.08,0.13,-0.99,3.11,3.36,1.95
46.9090,0.08,0.13,-0.99,3.17,3.17,1.89
46.9180,0.08,0.13,-0.99,3.05,2.93,1.83
46.9380,0.07,0.13,-0.99,2.93,2.99,1.89
46.9520,0.07,0.13,-0.99,2.81,3.36,1.71
46.9690,0.07,0.13,-0.99,2.81,3.42,1.83
46.9690,0.07,0.13,-0.99,2.87,3.42,1.83
46.9990,0.07,0.12,-1.00,3.05,2.99,1.83
47.0010,0.07,0.13,-0.99,3.17,3.05,1.89
47.0300,0.07,0.13,-0.99,3.36,3.11,1.95
47.0380,0.08,0.12,-0.99,3.17,3.05,1.89
47.0510,0.08,0.13,-0.99,2.99,2.93,2.01
47.0750,0.08,0.12,-0.99,3.11,2.75,2.01
47.0840,0.08,0.13,-0.99,3.11,3.54,1.89
47.1010,0.07,0.13,-0.99,3.23,3.48,2.01
47.1170,0.08,0.13,-0.99,3.30,3.23,1.83
47.1330,0.08,0.13,-0.99,3.17,3.17,1.89
47.1500,0.07,0.13,-0.99,3.23,3.30,1.83
47.1540,0.08,0.12,-0.99,2.99,3.30,1.89
47.1820,0.07,0.13,-0.99,3.05,3.11,1.89
47.1980,0.08,0.13,-0.99,3.17,3.23,2.08
47.2130,0.07,0.13,-0.99,3.05,3.48,1.95
47.2290,0.07,0.13,-0.99,3.17,3.42,1.95
47.2380,0.08,0.13,-0.99,2.87,3.36,1.89
47.2590,0.07,0.13,-0.99,3.17,3.36,1.83
47.2700,0.08,0.12,-0.99,2.99,3.42,1.83
47.2880,0.08,0.12,-0.99,2.99,3.11,1.89
47.3040,0.07,0.13,-0.99,3.05,3.23,1.95
47.3200,0.08,0.13,-0.99,3.11,2.93,1.95
47.3370,0.08,0.13,-0.99,3.11,3.11,2.01
