Timestamp, AccX, AccY, AccZ, GyroX, GyroY, GyroZ
0.0110,0.07,0.11,-1.00,1.34,1.77,1.65
0.0170,0.08,0.14,-1.00,4.94,2.20,2.14
0.0410,0.07,0.12,-0.99,2.14,2.38,1.83
0.0560,0.07,0.13,-1.00,2.62,2.75,2.01
0.0720,0.07,0.13,-0.99,2.32,2.62,2.01
0.0830,0.07,0.13,-1.00,2.69,2.81,1.89
0.1000,0.07,0.13,-0.99,3.85,2.99,2.08
0.1160,0.07,0.12,-0.99,3.30,2.38,1.95
0.1310,0.07,0.13,-0.99,3.60,2.62,1.89
0.1460,0.07,0.12,-0.99,2.99,2.56,1.89
0.1610,0.07,0.13,-1.00,3.54,2.87,2.01
0.1760,0.07,0.13,-1.00,3.48,2.75,2.01
0.1920,0.07,0.13,-1.00,3.05,2.69,1.95
0.2000,0.07,0.13,-1.00,3.36,2.44,1.89
0.2170,0.07,0.13,-0.99,3.60,2.75,2.08
0.2330,0.07,0.13,-0.99,3.60,3.11,2.14
0.2500,0.07,0.13,-0.99,2.99,2.62,2.08
0.2660,0.07,0.13,-0.99,3.17,2.81,2.08
0.2810,0.07,0.13,-0.99,3.48,2.56,2.01
0.2970,0.07,0.13,-0.99,3.91,2.81,2.20
0.3120,0.07,0.13,-0.99,3.60,2.50,1.95
0.3270,0.07,0.13,-0.99,3.72,2.56,2.01
0.3420,0.07,0.13,-1.00,4.82,2.32,2.08
0.3500,0.07,0.13,-1.00,4.46,2.56,2.20
0.3730,0.07,0.13,-0.99,5.00,2.38,2.08
0.3830,0.07,0.13,-1.00,4.33,2.69,2.01
0.4000,0.07,0.13,-0.99,3.48,2.44,2.01
0.4160,0.07,0.13,-1.00,3.48,3.05,2.08
0.4340,0.06,0.13,-1.00,3.23,2.69,1.89
0.4460,0.07,0.13,-0.99,3.11,3.23,1.83
0.4540,0.10,0.12,-0.98,2.20,2.87,1.16
0.4710,0.04,0.13,-1.00,3.36,2.87,-0.12
0.4870,0.06,0.12,-0.99,1.89,3.30,0.98
0.5030,0.07,0.13,-0.99,2.44,2.44,1.77
0.5210,0.07,0.13,-0.99,2.93,2.56,1.71
0.5370,0.07,0.12,-0.99,3.60,2.62,1.83
0.5550,0.07,0.13,-1.00,3.54,2.69,2.01
0.5720,0.07,0.13,-0.99,3.11,2.62,2.08
0.5870,0.07,0.13,-0.99,3.23,2.69,1.89
0.6030,0.07,0.13,-1.00,3.05,2.26,1.95
0.6190,0.07,0.13,-1.00,2.56,2.38,1.83
0.6340,0.07,0.13,-0.99,2.93,2.75,2.08
0.6460,0.08,0.13,-0.99,3.23,2.69,2.01
0.6640,0.06,0.13,-1.00,3.97,2.44,0.49
0.6790,0.07,0.14,-0.99,3.05,2.69,0.61
0.6870,0.06,0.12,-1.00,3.42,2.62,0.31
0.7120,0.07,0.13,-0.99,2.50,3.05,1.22
0.7220,0.07,0.13,-0.99,3.11,2.81,1.16
0.7380,0.07,0.12,-1.00,3.30,2.44,2.20
0.7540,0.07,0.13,-1.00,3.54,2.56,1.89
0.7710,0.07,0.14,-0.99,2.93,2.75,1.77
0.7870,0.07,0.14,-0.99,2.62,2.69,2.26
0.8040,0.07,0.13,-1.00,2.69,2.62,2.38
0.8210,0.06,0.11,-1.00,3.23,2.50,2.08
0.8370,0.07,0.12,-1.00,3.30,2.44,1.71
0.8530,0.07,0.12,-1.00,3.60,2.50,2.08
0.8690,0.07,0.12,-0.99,3.60,2.75,2.14
0.8850,0.07,0.13,-1.00,3.97,2.38,1.89
0.9010,0.07,0.13,-1.00,3.11,2.81,2.14
0.9040,0.09,0.14,-0.98,2.93,2.50,1.83
0.9330,0.08,0.12,-1.00,4.52,2.38,1.46
0.9460,0.07,0.12,-1.00,3.60,2.26,2.20
0.9630,0.07,0.13,-0.99,3.30,2.32,2.14
0.9730,0.07,0.13,-0.99,3.42,2.32,2.08
0.9890,0.07,0.13,-0.99,3.30,1.89,2.32
1.0070,0.06,0.12,-1.00,3.48,2.50,2.38
1.0230,0.07,0.13,-0.99,3.30,2.08,2.14
1.0390,0.06,0.12,-1.00,3.42,2.62,2.20
1.0560,0.07,0.13,-0.99,3.05,2.44,2.32
1.0720,0.07,0.12,-1.00,3.11,2.50,2.26
1.0730,0.07,0.13,-0.99,2.99,2.69,2.14
1.1040,0.07,0.12,-1.00,3.17,2.50,3.05
1.1190,0.07,0.12,-1.00,3.05,2.44,3.17
1.1230,0.06,0.12,-1.00,2.99,2.20,2.93
1.1510,0.06,0.13,-1.00,2.32,2.75,2.44
1.1670,0.07,0.13,-0.99,2.56,2.50,2.81
1.1760,0.07,0.13,-1.00,3.05,2.44,2.62
1.1940,0.07,0.13,-1.00,3.54,2.26,1.65
1.2090,0.07,0.13,-1.00,2.81,2.14,3.42
1.2280,0.06,0.12,-1.00,3.17,2.44,2.62
1.2300,0.07,0.13,-1.00,3.17,2.81,3.23
1.2470,0.07,0.12,-1.00,3.23,2.38,2.81
1.2610,0.07,0.14,-0.99,2.81,2.44,2.56
1.2890,0.07,0.15,-1.00,2.99,2.93,3.97
1.2970,0.07,0.12,-1.00,3.11,2.38,4.58
1.3190,0.07,0.12,-1.00,2.32,2.69,5.80
1.3300,0.07,0.12,-1.00,2.26,2.75,4.46
1.3470,0.06,0.11,-1.00,3.42,2.50,2.14
1.3630,0.07,0.11,-1.00,2.87,2.44,3.54
1.3790,0.07,0.12,-1.00,3.30,2.62,2.08
1.3970,0.07,0.12,-1.00,3.54,2.26,2.01
1.4130,0.07,0.13,-1.00,3.60,2.38,2.08
1.4280,0.07,0.12,-1.00,3.30,2.38,2.01
1.4320,0.07,0.13,-1.00,3.36,2.32,2.20
1.4470,0.07,0.12,-1.00,2.69,3.17,2.08
1.4700,0.07,0.12,-0.99,2.69,2.20,1.83
1.4870,0.07,0.12,-0.99,2.81,2.56,2.08
1.5040,0.07,0.14,-1.00,4.15,2.38,2.26
1.5200,0.06,0.12,-1.01,3.91,2.50,2.87
1.5350,0.07,0.13,-1.00,2.20,2.56,2.32
1.5510,0.07,0.13,-0.99,2.99,2.44,2.38
1.5670,0.08,0.13,-0.99,2.81,2.44,3.72
1.5700,0.07,0.12,-1.01,3.48,2.08,4.70
1.5970,0.07,0.13,-1.00,2.75,2.08,3.05
1.6110,0.06,0.13,-1.00,4.21,2.44,4.33
1.6260,0.07,0.12,-1.00,2.32,2.38,5.07
1.6370,0.06,0.11,-0.99,2.38,1.77,2.87
1.6540,0.07,0.10,-1.01,3.11,2.38,4.46
1.6710,0.07,0.10,-1.00,2.38,2.44,2.38
1.6860,0.07,0.11,-1.00,2.38,2.62,1.95
1.7040,0.07,0.12,-1.00,3.23,2.56,1.95
1.7200,0.07,0.12,-1.00,3.17,2.50,1.95
1.7360,0.07,0.12,-1.00,2.20,3.17,2.01
1.7510,0.07,0.13,-0.99,3.30,2.56,2.44
1.7530,0.07,0.11,-1.00,3.72,2.38,2.44
1.7820,0.07,0.12,-1.00,2.87,2.62,2.32
1.7890,0.07,0.12,-0.99,3.05,2.69,2.38
1.8050,0.07,0.13,-0.99,3.11,2.38,2.69
1.8220,0.07,0.13,-1.00,3.60,2.26,2.69
1.8390,0.07,0.14,-0.99,1.89,2.87,2.14
1.8550,0.07,0.13,-1.00,4.33,3.05,3.72
1.8730,0.08,0.13,-1.00,3.72,2.44,5.55
1.8900,0.07,0.13,-1.00,2.44,2.56,4.21
1.9060,0.06,0.12,-0.99,3.36,2.38,3.05
1.9230,0.07,0.11,-1.01,3.30,2.14,5.98
1.9240,0.07,0.11,-1.00,2.26,2.32,3.91
1.9540,0.06,0.11,-1.00,4.82,2.44,2.38
1.9560,0.07,0.10,-1.00,2.50,2.44,2.69
1.9850,0.07,0.12,-1.00,3.11,2.26,2.01
1.9890,0.07,0.12,-1.00,4.15,2.38,2.14
2.0180,0.07,0.12,-1.00,2.75,2.56,2.14
2.0330,0.07,0.12,-1.00,2.69,2.38,2.08
2.0480,0.07,0.12,-1.00,2.44,2.69,2.20
2.0580,0.07,0.13,-0.99,2.93,2.81,2.56
2.0800,0.07,0.12,-1.00,3.54,2.62,2.50
2.0800,0.07,0.12,-0.99,2.38,3.05,2.26
2.1110,0.07,0.12,-0.99,3.42,2.56,2.56
2.1270,0.07,0.11,-1.00,3.78,2.69,2.87
2.1430,0.06,0.13,-1.00,3.60,2.69,4.27
2.1590,0.07,0.12,-0.99,3.30,2.50,3.66
2.1750,0.07,0.12,-1.00,2.69,2.32,3.72
2.1910,0.06,0.14,-1.00,2.32,2.93,3.85
2.2060,0.06,0.12,-0.97,2.87,2.44,3.23
2.2220,0.08,0.11,-1.02,4.03,1.53,6.65
2.2370,0.07,0.14,-1.01,0.55,2.81,3.78
2.2510,0.06,0.11,-0.95,0.67,2.56,3.11
2.2630,0.07,0.10,-1.01,5.92,1.53,5.37
2.2790,0.06,0.10,-1.00,1.83,2.87,2.32
2.2960,0.06,0.11,-0.99,2.87,2.38,1.83
2.3110,0.07,0.12,-1.00,4.39,2.20,2.14
2.3260,0.06,0.12,-1.00,3.91,2.62,2.01
2.3410,0.07,0.12,-1.00,3.91,2.01,2.08
2.3570,0.07,0.12,-1.00,2.20,2.99,1.95
2.3720,0.06,0.12,-0.99,1.59,3.17,2.14
2.3880,0.06,0.12,-1.00,2.56,2.75,2.69
2.3950,0.06,0.12,-1.00,3.05,2.69,2.44
2.4110,0.07,0.11,-1.00,3.11,2.56,2.38
2.4310,0.07,0.12,-1.00,3.17,2.20,2.20
2.4480,0.07,0.12,-1.00,3.60,2.08,2.20
2.4640,0.07,0.12,-1.00,3.05,2.32,2.08
2.4800,0.06,0.12,-0.99,2.38,2.69,2.20
2.4950,0.07,0.12,-1.00,2.93,2.87,2.14
2.5090,0.06,0.12,-0.99,2.93,3.05,2.44
2.5250,0.07,0.12,-0.99,3.60,2.20,4.94
2.5400,0.07,0.14,-1.00,2.93,1.59,3.85
2.5560,0.06,0.14,-0.98,1.83,3.30,4.52
2.5650,0.07,0.11,-1.00,4.46,2.14,6.47
2.5810,0.06,0.13,-0.99,1.71,2.01,4.09
2.5990,0.06,0.09,-1.00,4.82,2.50,4.94
2.6170,0.07,0.09,-1.01,2.87,1.77,2.69
2.6340,0.06,0.10,-0.98,2.14,2.93,1.95
2.6500,0.07,0.12,-1.00,5.62,1.46,2.01
2.6660,0.07,0.13,-1.00,3.66,2.14,1.95
2.6820,0.07,0.12,-1.00,2.50,2.44,1.83
2.6980,0.06,0.12,-0.99,1.46,3.17,2.01
2.7130,0.06,0.12,-0.99,2.20,2.81,2.62
2.7280,0.06,0.12,-1.00,4.09,2.32,2.08
2.7430,0.06,0.12,-1.00,2.75,2.75,2.50
2.7580,0.06,0.12,-0.99,2.38,2.81,2.38
2.7670,0.05,0.14,-1.00,3.05,2.32,2.56
2.7880,0.06,0.13,-0.96,2.87,1.71,2.99
2.8010,0.08,0.13,-1.01,5.07,1.16,4.94
2.8170,0.06,0.14,-0.99,-0.31,2.87,4.33
2.8330,0.06,0.10,-0.99,4.76,2.99,5.68
2.8500,0.07,0.09,-1.02,3.05,1.53,4.82
2.8660,0.06,0.11,-0.98,0.43,2.56,2.69
2.8810,0.07,0.10,-0.99,3.85,2.14,4.33
2.8970,0.06,0.10,-1.01,3.11,2.81,2.62
2.9130,0.06,0.11,-0.99,2.75,2.81,1.89
2.9160,0.07,0.12,-1.00,4.52,2.32,2.08
2.9320,0.06,0.12,-1.00,4.27,2.01,2.08
2.9530,0.07,0.13,-1.00,3.97,2.08,2.08
2.9700,0.06,0.12,-0.99,2.08,3.30,2.50
2.9880,0.07,0.12,-1.00,3.72,2.14,2.38
3.0030,0.07,0.12,-1.00,3.48,2.56,2.01
3.0190,0.06,0.12,-0.99,1.95,2.93,2.20
3.0360,0.06,0.12,-1.00,2.69,3.17,2.38
3.0520,0.07,0.13,-0.98,2.32,2.87,3.42
3.0680,0.07,0.12,-1.00,4.88,1.71,4.94
3.0840,0.07,0.12,-0.97,2.26,1.77,3.85
3.1000,0.07,0.12,-1.00,3.78,2.69,5.80
3.1170,0.06,0.11,-0.98,1.10,1.89,4.27
3.1320,0.07,0.09,-1.00,3.85,2.44,5.86
3.1470,0.06,0.10,-0.98,1.83,1.89,2.44
3.1540,0.06,0.11,-0.99,3.54,2.99,3.78
3.1760,0.07,0.09,-1.01,2.87,2.69,3.78
3.1920,0.06,0.11,-0.99,2.20,2.50,2.20
3.2040,0.06,0.12,-1.00,4.09,2.44,2.01
3.2200,0.06,0.12,-1.00,3.42,2.81,2.01
3.2370,0.06,0.12,-1.00,3.11,2.32,2.32
3.2530,0.06,0.12,-1.00,2.81,2.56,2.50
3.2690,0.07,0.12,-0.99,2.69,2.81,2.56
3.2860,0.06,0.11,-1.00,3.54,2.62,2.38
3.3020,0.07,0.13,-0.98,2.44,2.56,3.42
3.3180,0.06,0.11,-1.00,5.07,1.89,4.88
3.3340,0.06,0.13,-1.00,2.38,1.83,3.72
3.3500,0.06,0.12,-1.00,4.58,2.87,4.94
3.3660,0.07,0.12,-1.03,2.93,1.77,4.70
3.3710,0.06,0.10,-0.99,2.38,3.78,3.42
3.3980,0.07,0.10,-1.02,3.78,1.89,4.64
3.4040,0.06,0.10,-1.01,2.50,2.50,3.42
3.4270,0.06,0.10,-0.99,1.77,3.05,2.81
3.4370,0.07,0.12,-1.00,4.09,2.20,1.95
3.4530,0.06,0.11,-1.00,2.69,2.69,1.89
3.4740,0.06,0.12,-1.00,2.01,2.62,2.32
3.4900,0.06,0.12,-1.00,2.69,2.75,2.99
3.5070,0.07,0.14,-0.98,3.36,2.50,5.07
3.5230,0.07,0.13,-1.00,4.58,2.32,6.10
3.5240,0.06,0.12,-0.97,1.59,1.22,4.58
3.5550,0.07,0.12,-1.01,4.33,2.32,6.23
3.5710,0.06,0.11,-0.98,1.65,1.95,5.25
3.5880,0.07,0.10,-1.01,3.54,1.46,6.23
3.5910,0.06,0.10,-1.00,3.85,2.20,3.36
3.6180,0.06,0.09,-1.01,2.75,2.20,3.23
3.6340,0.06,0.10,-0.99,2.62,2.69,2.14
3.6500,0.06,0.11,-0.99,5.07,1.89,2.08
3.6660,0.06,0.12,-1.00,5.25,1.59,2.08
3.6740,0.07,0.12,-1.01,4.03,2.01,1.89
3.6900,0.06,0.12,-1.00,1.89,2.75,1.95
3.7120,0.06,0.11,-0.99,1.46,3.23,2.44
3.7280,0.06,0.11,-0.99,3.36,2.93,2.69
3.7440,0.06,0.13,-1.01,3.48,2.56,2.81
3.7600,0.07,0.12,-0.99,4.27,2.44,4.52
3.7750,0.06,0.12,-1.00,4.76,1.59,5.19
3.7780,0.06,0.15,-1.02,2.93,2.01,5.13
3.7930,0.06,0.12,-0.99,3.48,2.99,6.29
3.8170,0.07,0.11,-1.00,2.50,1.22,5.74
3.8370,0.06,0.10,-1.00,2.99,3.11,5.07
3.8500,0.07,0.10,-0.99,1.10,1.89,3.30
3.8660,0.06,0.11,-0.99,1.53,2.87,3.23
3.8830,0.06,0.09,-1.00,3.42,2.01,4.58
3.8990,0.06,0.09,-1.00,2.56,2.75,2.87
3.9140,0.06,0.11,-1.00,4.52,2.81,2.08
3.9300,0.06,0.11,-1.00,4.46,2.32,2.14
3.9450,0.06,0.12,-1.00,3.78,2.08,2.38
3.9610,0.06,0.12,-1.00,3.72,2.08,2.56
3.9780,0.07,0.12,-1.00,2.44,2.32,2.87
3.9930,0.06,0.11,-0.99,2.62,3.05,3.05
4.0090,0.07,0.13,-0.99,2.87,1.71,3.97
4.0250,0.06,0.14,-1.02,3.60,2.38,4.88
4.0400,0.06,0.12,-0.99,2.56,3.54,5.13
4.0550,0.07,0.12,-1.01,2.38,1.40,5.55
4.0660,0.06,0.11,-0.98,2.56,3.17,5.86
4.0830,0.07,0.11,-1.00,3.23,2.14,6.35
4.0990,0.06,0.10,-1.01,4.03,2.20,5.25
4.1160,0.06,0.09,-0.99,2.38,1.89,4.88
4.1320,0.06,0.09,-1.00,4.09,2.44,4.27
4.1380,0.07,0.10,-1.00,2.99,2.69,2.99
4.1530,0.06,0.11,-0.99,3.48,2.26,2.32
4.1730,0.06,0.11,-1.00,5.00,2.08,2.14
4.1900,0.06,0.12,-1.00,4.09,2.01,2.14
4.2060,0.07,0.12,-1.01,3.11,2.62,2.26
4.2230,0.06,0.11,-0.99,1.71,3.11,2.44
4.2390,0.07,0.11,-0.99,2.56,2.62,2.44
4.2550,0.06,0.12,-0.99,3.11,2.32,1.77
4.2710,0.07,0.11,-1.00,3.72,2.62,2.38
4.2870,0.06,0.11,-0.99,2.50,2.99,2.62
4.3040,0.06,0.13,-0.99,4.09,1.95,2.75
4.3200,0.07,0.12,-1.00,5.13,1.77,3.91
4.3350,0.07,0.12,-1.00,3.36,2.32,3.85
4.3500,0.06,0.11,-1.00,2.44,2.69,4.03
4.3550,0.07,0.13,-1.01,2.38,2.01,4.03
4.3790,0.06,0.12,-0.99,3.66,2.44,4.94
4.3960,0.07,0.10,-1.00,4.46,1.16,5.86
4.3980,0.07,0.10,-0.99,2.56,1.77,3.91
4.4270,0.07,0.10,-1.00,4.82,2.14,3.30
4.4300,0.06,0.11,-1.00,2.50,3.17,2.62
4.4500,0.06,0.11,-0.99,2.75,2.93,3.17
4.4720,0.06,0.11,-1.00,4.15,2.08,3.36
4.4830,0.06,0.11,-0.99,3.17,2.14,2.69
4.5010,0.07,0.12,-1.00,3.36,2.26,3.23
4.5170,0.06,0.12,-1.00,3.17,2.75,3.17
4.5340,0.06,0.11,-1.00,3.17,2.75,3.78
4.5500,0.06,0.11,-1.00,3.11,2.81,3.36
4.5670,0.06,0.11,-0.99,3.97,2.20,2.93
4.5830,0.06,0.11,-1.00,4.03,2.26,2.44
4.5990,0.07,0.12,-1.00,3.78,2.14,2.50
4.6150,0.07,0.12,-0.99,3.72,2.50,3.05
4.6290,0.06,0.12,-1.00,4.27,1.95,3.66
4.6450,0.06,0.11,-1.00,2.93,2.20,3.54
4.6510,0.06,0.13,-0.97,1.40,2.56,3.05
4.6660,0.06,0.12,-0.99,3.48,2.75,4.39
4.6890,0.06,0.10,-1.01,3.54,2.01,3.78
4.7050,0.06,0.11,-0.99,2.69,2.87,3.23
4.7210,0.06,0.11,-1.00,3.48,2.26,2.81
4.7370,0.07,0.11,-1.00,3.42,2.50,2.81
4.7530,0.06,0.12,-1.00,3.54,2.14,2.56
4.7560,0.06,0.13,-1.00,3.36,2.26,2.69
4.7720,0.06,0.12,-0.99,3.85,2.20,4.09
4.7940,0.07,0.12,-1.00,4.94,1.34,4.27
4.8100,0.06,0.13,-0.98,2.44,2.01,3.97
4.8270,0.06,0.11,-1.00,4.27,2.32,6.23
4.8440,0.07,0.11,-1.01,2.62,1.89,5.74
4.8590,0.06,0.11,-0.99,2.81,2.81,4.70
4.8760,0.06,0.11,-1.02,3.78,1.77,4.27
4.8900,0.06,0.11,-0.99,2.93,2.87,4.52
4.9060,0.07,0.10,-1.00,4.15,1.65,3.85
4.9100,0.06,0.11,-1.00,4.21,1.95,2.56
4.9250,0.07,0.12,-1.00,3.97,2.38,2.50
4.9510,0.06,0.12,-0.99,3.36,2.87,2.62
4.9670,0.07,0.13,-0.99,3.72,2.14,4.21
4.9830,0.07,0.13,-1.00,4.09,1.95,5.19
4.9990,0.06,0.14,-1.01,2.62,2.26,4.76
5.0150,0.07,0.12,-0.99,2.75,2.75,6.29
5.0300,0.06,0.11,-1.01,2.38,1.77,5.62
5.0470,0.06,0.11,-0.99,1.77,2.20,4.76
5.0620,0.06,0.10,-1.00,4.27,2.26,4.58
5.0770,0.07,0.10,-1.00,3.66,2.08,2.99
5.0930,0.06,0.11,-0.99,3.11,2.75,2.93
5.1080,0.06,0.12,-0.99,4.15,2.14,2.81
5.1230,0.06,0.12,-1.00,4.52,1.95,2.81
5.1350,0.06,0.13,-1.00,3.54,2.08,3.54
5.1510,0.06,0.12,-1.00,4.27,2.08,3.85
5.1670,0.06,0.12,-1.00,3.60,2.44,3.30
5.1850,0.07,0.12,-1.00,3.42,2.14,3.78
5.2010,0.06,0.12,-1.00,3.11,2.44,3.72
5.2170,0.06,0.12,-1.00,3.23,2.50,3.42
5.2330,0.07,0.11,-1.00,3.23,2.01,4.27
5.2470,0.06,0.11,-1.00,3.23,1.95,3.85
5.2630,0.06,0.11,-1.00,3.36,2.32,3.91
5.2680,0.06,0.11,-1.00,3.60,2.38,3.60
5.2840,0.07,0.12,-0.99,3.54,1.83,3.36
5.3040,0.07,0.12,-1.00,4.70,1.65,3.97
5.3210,0.07,0.12,-1.00,4.33,1.89,4.15
5.3370,0.07,0.12,-1.00,3.72,2.14,4.64
5.3540,0.06,0.13,-1.01,3.11,2.50,4.33
5.3700,0.07,0.12,-0.99,3.42,2.50,4.64
5.3860,0.07,0.11,-1.00,3.36,1.83,4.15
5.4010,0.06,0.12,-0.99,2.62,2.26,3.36
5.4170,0.06,0.12,-0.99,3.97,2.38,4.15
5.4330,0.06,0.11,-1.00,3.72,2.08,3.85
5.4490,0.06,0.11,-1.00,2.87,2.75,3.30
5.4540,0.06,0.12,-1.00,4.09,2.26,3.54
5.4690,0.06,0.12,-1.00,3.85,2.20,3.66
5.4920,0.06,0.12,-1.00,3.36,2.56,3.54
5.5090,0.07,0.12,-1.00,3.36,2.26,3.30
5.5260,0.07,0.12,-1.00,2.99,2.75,3.78
5.5420,0.07,0.13,-1.00,2.38,2.50,2.99
5.5510,0.06,0.12,-0.99,3.11,2.62,3.05
5.5720,0.07,0.12,-1.00,3.48,2.08,3.05
5.5760,0.07,0.12,-1.00,3.05,2.62,3.11
5.5930,0.07,0.12,-0.99,3.60,1.95,3.48
5.6170,0.07,0.12,-0.99,4.03,1.89,3.97
5.6320,0.06,0.12,-1.00,3.60,1.95,4.39
5.6430,0.06,0.11,-1.00,2.87,2.69,4.39
5.6600,0.07,0.11,-0.99,3.42,1.89,3.78
5.6770,0.07,0.11,-1.00,4.09,1.95,3.97
5.6920,0.06,0.11,-1.00,3.54,2.32,3.17
5.7080,0.06,0.11,-0.99,3.11,2.87,2.87
5.7240,0.07,0.12,-1.00,4.39,2.08,2.93
5.7380,0.07,0.12,-1.00,4.15,2.26,3.17
5.7530,0.07,0.13,-1.00,2.87,2.44,2.87
5.7700,0.07,0.13,-0.99,2.38,2.32,4.33
5.7840,0.06,0.12,-0.99,3.78,1.83,4.70
5.7930,0.07,0.12,-0.99,3.23,2.26,4.33
5.8090,0.07,0.12,-1.00,3.48,2.01,4.64
5.8260,0.07,0.12,-0.99,2.87,2.32,4.09
5.8430,0.07,0.12,-0.99,3.66,2.20,4.58
5.8590,0.06,0.11,-1.00,3.60,2.32,4.52
5.8600,0.07,0.11,-1.00,3.72,1.40,4.03
5.8900,0.07,0.11,-0.99,3.97,2.14,2.87
5.9050,0.06,0.11,-1.00,4.09,2.56,2.99
5.9200,0.07,0.11,-1.00,3.66,2.20,2.38
5.9360,0.07,0.12,-0.99,3.48,3.05,2.26
5.9510,0.07,0.12,-1.00,3.78,2.50,2.20
5.9600,0.07,0.12,-1.00,3.54,2.20,2.08
5.9820,0.07,0.12,-1.00,3.48,2.99,2.26
5.9920,0.07,0.12,-1.00,3.11,3.23,2.62
6.0090,0.06,0.13,-0.99,2.56,3.17,2.50
6.0260,0.07,0.13,-0.99,4.27,2.50,4.88
6.0430,0.06,0.12,-1.00,5.62,1.34,4.88
6.0590,0.06,0.13,-1.00,4.03,1.95,4.64
6.0740,0.06,0.12,-1.00,5.55,1.83,5.37
6.0770,0.07,0.12,-1.00,3.78,2.14,5.07
6.1040,0.07,0.12,-1.00,3.23,2.44,4.58
6.1190,0.07,0.11,-1.00,2.93,2.50,3.97
6.1270,0.07,0.12,-1.00,2.69,2.81,3.36
6.1500,0.06,0.12,-0.99,3.17,3.05,2.93
6.1600,0.07,0.12,-0.99,3.60,2.50,3.11
6.1760,0.06,0.12,-1.00,3.66,2.75,3.17
6.1920,0.07,0.12,-1.00,3.72,2.26,3.36
6.2100,0.07,0.12,-0.99,2.75,2.62,3.23
6.2260,0.07,0.13,-0.99,3.60,2.08,3.60
6.2420,0.07,0.13,-1.00,4.76,1.65,4.64
6.2570,0.07,0.13,-1.00,3.48,1.83,5.00
6.2720,0.07,0.13,-0.99,2.50,2.44,4.82
6.2770,0.06,0.12,-1.00,3.78,2.32,5.43
6.2920,0.07,0.12,-1.00,2.99,2.01,4.52
6.3080,0.06,0.11,-1.00,2.81,2.62,3.72
6.3300,0.06,0.11,-1.00,4.03,2.32,3.11
6.3460,0.07,0.12,-1.00,4.58,2.14,3.23
6.3630,0.06,0.12,-1.00,3.91,2.38,3.42
6.3780,0.07,0.13,-1.00,2.69,2.75,3.30
6.3940,0.07,0.13,-1.00,3.42,2.44,3.91
6.4090,0.07,0.13,-0.99,3.72,2.44,3.78
6.4250,0.07,0.13,-1.00,3.42,2.01,3.48
6.4410,0.07,0.13,-0.99,3.91,2.26,4.46
6.4570,0.07,0.13,-1.00,3.30,2.26,4.82
6.4740,0.07,0.14,-0.99,3.36,2.32,5.43
6.4890,0.06,0.12,-1.00,3.85,2.01,6.16
6.5040,0.06,0.12,-1.00,3.05,1.77,5.19
6.5190,0.07,0.13,-1.00,3.36,2.44,5.37
6.5300,0.07,0.13,-1.00,3.97,2.32,5.74
6.5460,0.07,0.12,-0.99,3.36,2.69,5.86
6.5630,0.07,0.12,-1.00,2.93,2.38,5.37
6.5810,0.07,0.12,-1.00,3.17,1.95,4.70
6.5820,0.07,0.13,-0.99,2.50,2.62,5.07
6.6110,0.07,0.13,-0.99,3.11,2.20,5.37
6.6170,0.07,0.13,-1.00,3.11,2.38,6.04
6.6320,0.06,0.12,-0.99,2.20,2.38,5.62
6.6570,0.07,0.12,-1.00,3.30,2.01,5.19
6.6690,0.07,0.13,-0.99,3.42,2.38,4.33
6.6870,0.07,0.12,-1.00,2.50,2.44,5.31
6.7020,0.07,0.12,-1.00,2.69,2.50,5.37
6.7190,0.06,0.12,-0.99,2.87,2.01,4.82
6.7350,0.06,0.12,-1.00,4.15,2.08,5.25
6.7510,0.06,0.12,-1.00,3.05,2.26,5.31
6.7670,0.06,0.12,-1.00,2.87,2.81,5.00
6.7830,0.06,0.13,-0.99,2.81,2.75,4.64
6.7850,0.07,0.13,-0.99,3.78,2.01,5.49
6.8010,0.07,0.13,-1.00,4.09,1.53,5.07
6.8240,0.07,0.13,-1.00,2.44,2.50,5.13
6.8420,0.07,0.13,-0.99,2.62,2.20,5.07
6.8580,0.06,0.12,-1.00,3.36,2.26,5.25
6.8740,0.06,0.12,-0.99,2.99,2.08,4.94
6.8890,0.06,0.12,-0.99,3.36,1.71,4.76
6.9050,0.06,0.12,-1.00,4.15,1.83,4.88
6.9090,0.07,0.12,-1.00,3.23,1.95,4.15
6.9380,0.07,0.12,-0.99,3.23,2.20,3.91
6.9410,0.07,0.13,-0.99,3.78,2.01,4.70
6.9570,0.07,0.13,-1.00,3.66,1.83,4.76
6.9790,0.07,0.14,-1.00,2.32,2.14,4.76
6.9950,0.07,0.14,-0.99,1.77,2.14,5.13
7.0120,0.07,0.12,-1.00,2.99,2.32,5.19
7.0280,0.07,0.12,-0.99,2.75,2.32,4.70
7.0440,0.07,0.12,-0.99,3.36,2.08,4.64
7.0600,0.06,0.12,-1.00,4.70,1.77,5.25
7.0750,0.07,0.12,-1.00,2.99,1.83,5.19
7.0920,0.07,0.13,-0.99,2.81,2.20,5.13
7.0960,0.07,0.13,-1.00,3.17,1.95,5.07
7.1120,0.07,0.12,-0.99,3.23,1.53,5.31
7.1340,0.07,0.13,-0.99,3.30,1.89,5.37
7.1500,0.07,0.12,-1.00,3.97,1.77,5.74
7.1660,0.07,0.12,-1.00,2.87,2.08,4.46
7.1810,0.07,0.13,-1.00,2.81,2.50,4.09
7.1890,0.07,0.13,-0.99,3.42,2.20,3.72
7.2060,0.07,0.11,-0.99,4.21,1.83,3.36
7.2220,0.07,0.12,-0.99,2.87,1.83,3.91
7.2390,0.07,0.12,-1.00,3.60,2.32,3.91
7.2550,0.07,0.12,-1.00,3.48,2.20,3.85
7.2730,0.06,0.13,-0.99,3.60,1.83,4.21
7.2880,0.06,0.12,-1.00,3.60,2.20,4.58
7.2930,0.07,0.13,-1.00,3.60,1.83,4.46
7.3170,0.07,0.12,-0.99,3.11,2.08,4.09
7.3250,0.07,0.12,-1.00,3.66,2.14,4.03
7.3470,0.07,0.12,-1.00,3.30,2.26,3.17
7.3590,0.07,0.12,-0.99,2.81,2.56,2.32
7.3760,0.07,0.13,-0.99,3.36,2.20,2.62
7.3930,0.06,0.14,-1.00,3.54,1.95,4.15
7.4080,0.07,0.13,-0.99,4.03,1.77,4.39
7.4090,0.06,0.13,-1.00,3.17,2.14,4.15
7.4390,0.07,0.13,-1.00,3.17,2.08,4.39
7.4550,0.07,0.12,-0.99,3.11,2.38,4.27
7.4720,0.07,0.13,-0.99,3.42,2.26,4.15
7.4870,0.07,0.13,-1.00,4.03,2.08,4.76
7.5020,0.07,0.12,-1.00,3.11,2.26,4.76
7.5180,0.07,0.13,-0.99,2.81,2.26,4.94
7.5320,0.06,0.12,-1.00,3.54,1.71,5.31
7.5420,0.06,0.13,-1.00,2.81,2.08,4.46
7.5580,0.07,0.13,-1.00,3.60,2.14,4.52
7.5750,0.07,0.12,-1.00,2.50,2.75,4.70
7.5940,0.07,0.13,-0.99,2.14,2.50,4.52
7.6090,0.07,0.13,-0.99,3.66,2.20,5.37
7.6260,0.07,0.12,-1.00,3.91,1.83,5.62
7.6420,0.06,0.12,-1.00,2.75,2.26,5.13
7.6570,0.07,0.13,-0.99,2.62,2.44,4.27
7.6720,0.07,0.13,-1.00,3.48,1.71,5.86
7.6880,0.06,0.13,-0.99,2.93,2.01,6.53
7.6940,0.07,0.13,-1.00,3.85,2.01,6.90
7.7190,0.06,0.12,-1.00,2.93,2.14,5.98
7.7270,0.07,0.12,-1.00,2.50,2.20,5.62
7.7430,0.07,0.12,-1.00,3.36,1.71,5.07
7.7600,0.07,0.12,-0.99,3.42,1.95,5.19
7.7760,0.07,0.12,-1.00,3.72,1.89,5.07
7.7930,0.07,0.12,-1.00,3.30,1.83,4.64
7.8100,0.06,0.12,-0.99,3.42,2.32,4.64
7.8260,0.07,0.13,-1.00,3.72,2.44,4.52
7.8420,0.07,0.13,-1.00,3.91,2.14,4.27
7.8580,0.07,0.13,-1.00,2.87,2.20,3.54
7.8730,0.07,0.13,-0.99,3.05,2.26,3.85
7.8880,0.07,0.12,-1.00,3.60,2.14,3.91
7.9030,0.07,0.12,-1.00,3.17,2.44,3.60
7.9190,0.07,0.13,-0.99,3.30,1.59,3.11
7.9340,0.07,0.14,-0.99,3.72,2.26,4.39
7.9430,0.07,0.14,-1.00,4.15,2.08,4.70
7.9600,0.07,0.13,-1.00,3.17,2.08,4.52
7.9780,0.07,0.13,-0.99,2.93,2.08,4.21
7.9930,0.07,0.13,-0.99,3.42,1.89,4.94
8.0090,0.07,0.13,-1.00,3.60,1.89,4.88
8.0270,0.07,0.13,-0.98,2.62,2.01,5.00
8.0410,0.07,0.13,-1.00,3.54,1.83,5.55
8.0570,0.07,0.11,-1.00,2.99,2.26,5.43
8.0720,0.07,0.11,-1.00,3.23,2.26,4.09
8.0870,0.07,0.12,-0.99,2.81,2.81,3.23
8.1030,0.07,0.13,-1.00,3.54,2.38,3.72
8.1190,0.07,0.13,-1.00,3.30,2.32,3.54
8.1350,0.07,0.14,-1.00,3.11,1.95,3.91
8.1500,0.07,0.14,-0.99,3.05,2.26,5.00
8.1650,0.07,0.13,-0.99,3.48,1.95,4.70
8.1770,0.07,0.12,-1.00,3.36,2.08,4.33
8.1930,0.07,0.12,-1.00,3.30,2.26,2.93
8.2100,0.07,0.13,-1.00,3.48,2.99,2.75
8.2260,0.07,0.12,-0.99,4.09,2.32,2.99
8.2420,0.07,0.12,-1.00,4.21,2.08,2.93
8.2570,0.07,0.13,-0.99,3.17,2.69,2.08
8.2730,0.07,0.13,-0.99,3.23,2.32,2.62
8.2890,0.07,0.14,-0.99,3.17,2.32,3.42
8.3040,0.07,0.13,-0.99,3.66,1.65,4.64
8.3100,0.06,0.13,-1.00,2.75,2.32,4.09
8.3250,0.07,0.12,-0.99,2.56,2.20,4.09
8.3470,0.07,0.12,-0.99,3.30,2.62,3.60
8.3630,0.07,0.12,-1.00,3.66,2.69,3.05
8.3800,0.07,0.13,-1.00,3.66,2.62,2.14
8.3960,0.06,0.14,-0.99,3.91,2.01,2.62
8.4110,0.07,0.14,-0.99,3.97,2.01,3.72
8.4270,0.07,0.13,-1.00,3.97,1.59,4.21
8.4430,0.07,0.13,-0.99,2.62,2.75,3.48
8.4590,0.07,0.13,-1.00,3.42,2.26,3.42
8.4760,0.07,0.12,-1.00,3.60,1.89,3.30
8.4910,0.07,0.13,-1.00,3.60,2.26,2.62
8.5080,0.07,0.14,-0.99,3.78,2.44,2.62
8.5230,0.07,0.14,-0.99,3.66,2.44,4.33
8.5390,0.06,0.12,-1.00,3.78,1.65,4.09
8.5550,0.07,0.12,-1.00,3.30,2.32,2.75
8.5640,0.07,0.13,-0.99,3.23,2.32,2.32
8.5790,0.07,0.13,-0.99,4.09,1.89,3.23
8.5990,0.07,0.12,-1.00,4.15,1.89,2.99
8.6150,0.07,0.13,-0.99,3.36,2.44,2.62
8.6290,0.08,0.13,-1.00,4.15,2.14,2.87
8.6440,0.06,0.12,-0.99,3.85,2.08,3.97
8.6560,0.07,0.13,-1.00,3.30,2.44,2.99
8.6680,0.07,0.13,-0.99,3.11,2.87,2.93
8.6910,0.07,0.13,-0.99,4.09,2.26,4.33
8.7070,0.06,0.12,-1.00,3.85,2.14,3.36
8.7230,0.07,0.13,-0.99,3.30,2.32,2.75
8.7390,0.07,0.13,-1.00,3.54,2.32,3.05
8.7550,0.07,0.13,-1.00,3.30,2.08,3.48
8.7590,0.06,0.12,-1.00,3.48,2.50,3.11
8.7750,0.07,0.13,-0.99,2.99,2.20,2.08
8.8020,0.07,0.13,-0.99,3.97,2.87,2.44
8.8170,0.07,0.12,-1.00,3.54,2.75,2.20
8.8290,0.07,0.13,-0.99,4.09,2.32,1.95
8.8450,0.07,0.13,-1.00,3.72,2.50,1.89
8.8620,0.07,0.14,-0.99,3.36,2.50,2.26
8.8770,0.06,0.13,-0.99,5.13,1.89,3.48
8.8930,0.07,0.13,-0.99,4.76,2.44,3.54
8.9070,0.07,0.14,-0.99,4.52,2.01,3.05
8.9220,0.07,0.13,-0.99,3.85,2.26,3.23
8.9380,0.07,0.13,-1.00,3.91,2.62,3.66
8.9520,0.07,0.13,-1.00,3.91,2.50,2.93
8.9630,0.07,0.13,-1.00,3.72,2.44,3.48
8.9790,0.07,0.13,-0.99,4.15,2.20,3.91
8.9960,0.07,0.13,-1.00,3.60,2.62,2.44
9.0130,0.07,0.13,-0.99,4.70,2.50,2.20
9.0290,0.07,0.13,-1.00,4.03,2.14,1.95
9.0300,0.07,0.14,-0.99,4.27,2.14,2.08
9.0570,0.07,0.14,-0.99,3.60,2.08,1.89
9.0670,0.07,0.13,-0.99,3.97,2.44,2.14
9.0840,0.07,0.13,-0.99,3.97,2.56,2.14
9.0990,0.07,0.14,-0.99,3.23,2.44,2.01
9.1200,0.15,0.20,-1.05,10.38,-4.64,1.16
9.1210,0.04,0.11,-0.99,8.30,-0.98,1.65
9.1390,0.08,0.16,-1.00,8.54,-0.49,0.98
9.1570,0.07,0.14,-0.98,5.80,1.28,1.22
9.1840,0.07,0.14,-1.00,3.66,1.95,1.83
9.1980,0.08,0.14,-1.00,3.60,2.20,2.14
9.2130,0.08,0.14,-1.00,2.14,3.54,2.14
9.2230,0.07,0.14,-0.99,0.92,4.70,2.20
9.2400,0.06,0.13,-0.98,1.53,4.27,2.14
9.2570,0.08,0.14,-0.98,0.79,6.16,2.50
9.2720,0.06,0.13,-0.98,0.49,5.49,2.08
9.2890,0.07,0.13,-1.00,2.87,2.14,1.83
9.3060,0.07,0.14,-0.99,5.13,2.32,2.14
9.3070,0.07,0.14,-0.99,4.76,2.14,1.89
9.3380,0.07,0.14,-1.00,4.09,2.20,2.01
9.3540,0.07,0.13,-0.99,3.66,2.26,2.08
9.3570,0.07,0.14,-1.00,3.54,2.69,1.95
9.3720,0.07,0.14,-0.99,3.42,2.75,2.08
9.3960,0.08,0.13,-1.00,3.36,2.87,1.77
9.4130,0.07,0.15,-1.00,3.30,2.93,0.98
9.4290,0.07,0.14,-1.00,2.44,2.87,1.53
9.4460,0.07,0.14,-0.99,2.75,2.62,1.34
9.4610,0.07,0.14,-0.99,3.17,2.44,1.16
9.4770,0.07,0.14,-0.99,2.87,3.05,1.59
9.4930,0.07,0.14,-0.99,3.11,2.32,1.34
9.5090,0.08,0.13,-0.99,2.75,3.11,1.22
9.5250,0.07,0.14,-0.99,3.54,2.62,0.61
9.5300,0.07,0.14,-0.99,3.48,2.69,0.92
9.5450,0.07,0.14,-0.99,3.42,2.87,1.10
9.5690,0.07,0.14,-0.99,3.60,2.50,1.10
9.5850,0.07,0.14,-0.99,3.36,2.56,1.04
9.6020,0.07,0.14,-0.99,3.54,2.08,0.92
9.6200,0.07,0.14,-1.00,3.85,2.44,0.98
9.6350,0.07,0.14,-0.99,3.72,2.62,1.10
9.6510,0.07,0.14,-0.99,3.66,2.32,0.79
9.6670,0.07,0.14,-0.99,2.81,2.81,1.16
9.6820,0.07,0.14,-0.99,2.56,2.69,1.34
9.6980,0.07,0.13,-0.99,3.05,2.38,1.34
9.7020,0.08,0.14,-1.00,3.48,2.32,1.40
9.7180,0.07,0.14,-1.00,3.48,2.75,1.53
9.7430,0.06,0.14,-0.99,3.30,2.69,1.71
9.7590,0.06,0.14,-0.99,2.87,2.62,1.89
9.7750,0.07,0.13,-1.00,2.93,2.50,2.01
9.7920,0.09,0.14,-0.99,2.38,2.62,1.71
9.8090,0.09,0.15,-1.00,2.93,2.20,1.40
9.8240,0.06,0.13,-0.99,3.11,2.32,1.65
9.8410,0.06,0.13,-0.99,3.23,2.62,1.77
9.8560,0.06,0.13,-1.00,3.11,2.56,1.71
9.8590,0.07,0.13,-1.00,2.69,2.20,1.77
9.8880,0.07,0.13,-0.99,2.20,2.56,1.71
9.9040,0.07,0.13,-0.99,2.81,2.56,1.89
9.9080,0.07,0.13,-1.00,3.60,2.50,1.95
9.9240,0.07,0.14,-1.00,3.36,2.62,1.83
9.9500,0.08,0.14,-0.99,2.93,2.56,1.77
9.9660,0.06,0.13,-1.00,3.11,2.56,1.65
9.9670,0.07,0.14,-0.99,2.93,2.56,2.01
9.9960,0.09,0.16,-0.98,2.69,2.14,2.69
10.0110,0.07,0.15,-1.03,3.36,1.83,5.62
10.0260,0.06,0.11,-1.00,2.69,2.14,2.81
10.0410,0.08,0.14,-0.98,2.08,3.05,1.95
10.0570,0.07,0.15,-1.00,3.30,2.99,2.38
10.0720,0.06,0.12,-1.00,3.66,2.26,4.33
10.0830,0.07,0.13,-0.99,2.38,2.81,2.26
10.1000,0.07,0.13,-0.99,2.56,2.75,2.01
10.1150,0.07,0.13,-1.00,3.48,2.62,1.89
10.1340,0.07,0.13,-0.99,4.21,2.44,1.89
10.1490,0.07,0.14,-0.99,4.03,2.56,2.01
10.1640,0.07,0.13,-0.99,3.42,2.26,1.83
10.1720,0.07,0.13,-1.00,4.03,2.69,1.83
10.1870,0.07,0.14,-1.00,4.03,2.50,1.95
10.2090,0.07,0.13,-0.99,3.17,2.62,2.14
10.2240,0.07,0.13,-0.99,3.48,2.75,2.14
10.2390,0.08,0.13,-1.00,3.78,2.14,1.34
10.2540,0.07,0.14,-0.99,3.78,2.44,0.18
10.2630,0.07,0.13,-0.99,3.91,2.44,0.37
10.2790,0.07,0.13,-0.99,3.60,3.36,0.79
10.3000,0.07,0.13,-0.99,3.91,2.38,1.04
10.3160,0.07,0.13,-0.99,3.78,2.50,1.22
10.3320,0.07,0.14,-1.00,3.72,2.32,1.28
10.3340,0.07,0.14,-0.99,3.11,2.50,1.71
10.3580,0.07,0.13,-0.99,3.05,2.14,1.71
10.3720,0.07,0.13,-1.00,3.23,2.75,1.95
10.3890,0.07,0.13,-0.99,3.36,2.32,2.01
10.4060,0.07,0.13,-0.99,3.30,2.38,1.95
10.4220,0.07,0.13,-0.99,3.05,2.62,2.01
10.4380,0.09,0.13,-0.99,3.66,2.62,1.77
10.4540,0.07,0.13,-0.99,3.91,2.56,1.10
10.4730,0.08,0.13,-1.00,4.15,2.32,1.04
10.4760,0.07,0.13,-1.00,3.78,2.62,0.98
10.5030,0.07,0.13,-0.99,3.54,2.75,1.10
10.5180,0.08,0.14,-1.00,3.23,2.99,0.92
10.5330,0.06,0.13,-1.00,3.36,2.56,0.55
10.5480,0.06,0.13,-1.00,3.91,2.44,0.85
10.5600,0.06,0.14,-1.00,3.66,2.69,0.85
10.5770,0.06,0.13,-0.99,3.17,2.93,1.34
10.5930,0.07,0.13,-0.99,3.78,2.81,1.83
10.6090,0.07,0.13,-1.00,3.48,2.56,1.53
10.6250,0.07,0.13,-0.99,3.30,2.56,1.59
10.6410,0.07,0.13,-0.99,3.54,2.69,1.59
10.6560,0.07,0.13,-0.99,4.03,2.62,1.53
10.6720,0.07,0.13,-0.99,3.72,2.56,1.34
10.6870,0.07,0.13,-0.99,3.66,2.50,1.16
10.7040,0.07,0.13,-0.99,3.48,2.26,1.22
10.7200,0.07,0.13,-0.99,3.85,2.32,0.98
10.7360,0.07,0.13,-1.00,4.03,2.56,1.28
10.7440,0.07,0.14,-1.00,4.09,2.20,1.10
10.7610,0.08,0.15,-1.00,3.78,2.26,0.92
10.7760,0.08,0.14,-1.00,3.23,2.87,1.28
10.7920,0.06,0.14,-1.00,3.11,2.87,-0.24
10.8120,0.07,0.14,-1.00,3.72,2.44,1.65
10.8280,0.05,0.12,-1.00,2.69,2.32,2.08
10.8440,0.06,0.13,-0.99,3.23,2.50,1.46
10.8600,0.05,0.13,-1.00,3.17,2.62,1.53
10.8650,0.07,0.13,-0.99,3.60,2.75,1.71
10.8810,0.06,0.13,-1.00,3.91,2.26,1.40
10.8970,0.07,0.14,-1.00,4.27,2.20,1.59
10.9180,0.07,0.13,-0.99,3.78,2.50,1.40
10.9350,0.07,0.13,-0.99,3.60,2.44,1.46
10.9510,0.07,0.13,-0.99,3.72,2.56,1.46
10.9680,0.07,0.13,-0.99,3.78,2.32,1.34
10.9850,0.07,0.13,-0.99,3.78,2.56,1.22
11.0020,0.06,0.13,-1.00,3.54,2.14,1.34
11.0170,0.07,0.14,-0.99,3.54,2.44,1.59
11.0330,0.07,0.14,-0.99,3.11,2.14,1.53
11.0490,0.07,0.13,-0.99,3.17,2.50,1.40
11.0660,0.07,0.13,-1.00,3.91,2.44,1.40
11.0800,0.09,0.13,-0.99,3.05,2.69,1.28
11.0960,0.06,0.13,-1.00,4.27,2.26,1.16
11.1020,0.07,0.14,-1.00,3.97,2.08,1.22
11.1180,0.07,0.13,-1.00,3.60,2.08,1.34
11.1370,0.08,0.13,-0.99,3.66,2.44,0.79
11.1550,0.04,0.12,-1.00,3.48,2.75,1.46
11.1710,0.07,0.13,-0.99,4.09,2.38,1.16
11.1870,0.07,0.13,-0.99,3.72,2.50,0.98
11.2020,0.08,0.13,-0.99,3.17,2.87,0.92
11.2050,0.07,0.13,-1.00,3.72,2.87,0.73
11.2220,0.07,0.14,-0.99,4.09,2.14,0.67
11.2380,0.06,0.14,-0.99,3.36,2.56,0.85
11.2590,0.07,0.13,-0.99,2.93,2.32,1.16
11.2700,0.08,0.14,-0.99,3.72,2.32,1.10
11.2910,0.07,0.13,-0.99,3.78,2.44,1.34
11.3080,0.07,0.13,-1.00,3.48,2.38,1.10
11.3240,0.07,0.14,-1.00,3.97,2.75,1.28
11.3410,0.07,0.13,-0.99,3.72,2.38,1.40
11.3580,0.07,0.13,-1.00,3.97,2.01,1.40
11.3740,0.07,0.13,-0.99,4.15,2.26,0.98
11.3900,0.07,0.14,-0.99,3.85,2.20,0.79
11.3920,0.09,0.13,-1.00,2.87,2.93,0.61
11.4070,0.05,0.14,-1.00,3.72,2.50,0.24
11.4250,0.08,0.14,-0.99,3.97,2.32,0.85
11.4540,0.06,0.14,-0.99,3.91,2.69,1.16
11.4690,0.06,0.13,-0.99,3.60,2.56,1.16
11.4750,0.09,0.14,-0.99,3.66,2.50,1.28
11.4910,0.10,0.13,-0.99,3.54,2.93,0.24
11.5090,0.05,0.14,-1.00,3.85,2.93,0.24
11.5260,0.05,0.13,-0.99,2.93,2.14,1.22
11.5430,0.07,0.13,-0.99,3.66,2.50,1.77
11.5590,0.07,0.14,-1.00,3.66,2.32,1.77
11.5600,0.07,0.14,-0.99,3.17,2.26,1.77
11.5910,0.07,0.13,-0.99,3.48,2.50,1.83
11.5930,0.08,0.13,-0.99,3.60,2.32,1.71
11.6240,0.07,0.14,-0.99,3.30,2.69,1.22
11.6400,0.08,0.14,-1.00,3.54,2.62,1.22
11.6430,0.07,0.13,-1.00,3.36,2.56,0.73
11.6720,0.07,0.13,-0.99,3.48,2.50,0.79
11.6880,0.07,0.14,-0.99,3.48,2.62,0.98
11.7040,0.08,0.13,-0.99,3.23,2.50,1.04
11.7100,0.09,0.14,-1.01,3.85,2.99,-0.31
11.7260,0.05,0.12,-1.00,1.95,2.38,0.73
11.7480,0.07,0.14,-0.98,4.33,2.08,0.98
11.7650,0.07,0.12,-0.99,2.93,2.26,0.79
11.7820,0.15,0.13,-1.00,3.36,3.54,0.37
11.7980,0.07,0.14,-1.02,3.78,2.38,1.28
11.8140,0.11,0.14,-1.00,2.99,1.95,1.71
11.8300,0.07,0.14,-0.98,2.69,2.62,2.38
11.8460,0.05,0.15,-0.99,2.81,2.50,0.73
11.8610,0.06,0.14,-1.02,2.50,2.99,2.20
11.8670,0.04,0.13,-0.99,2.87,2.38,1.46
11.8920,0.09,0.12,-1.00,2.99,2.69,1.77
11.9080,0.03,0.14,-1.00,3.54,2.32,0.61
11.9230,0.07,0.13,-1.00,3.54,3.11,1.04
11.9380,0.05,0.13,-1.00,3.48,2.44,1.59
11.9490,0.09,0.13,-0.98,3.48,2.62,1.46
11.9660,0.04,0.13,-0.99,3.66,2.75,1.40
11.9820,0.06,0.13,-0.99,3.91,2.38,1.59
11.9990,0.07,0.14,-1.00,3.42,2.75,1.22
12.0160,0.04,0.14,-1.00,3.48,1.95,1.40
12.0320,0.07,0.14,-0.99,4.27,2.44,1.71
12.0470,0.07,0.13,-0.99,3.36,2.32,2.08
12.0630,0.07,0.13,-1.00,3.66,2.32,1.95
12.0770,0.07,0.14,-0.99,3.97,2.44,2.08
12.0820,0.07,0.13,-0.99,3.23,2.93,2.08
12.0980,0.07,0.13,-1.00,3.23,2.69,2.01
12.1220,0.07,0.14,-0.99,2.81,2.69,1.89
12.1380,0.07,0.13,-0.99,3.60,2.32,2.14
12.1540,0.07,0.13,-0.99,4.03,2.26,2.08
12.1700,0.08,0.13,-0.99,3.60,2.26,1.77
12.1730,0.07,0.14,-1.00,3.54,2.87,1.28
12.1890,0.07,0.13,-0.99,3.30,2.56,1.16
12.2150,0.07,0.13,-0.99,3.30,2.75,1.22
12.2270,0.07,0.14,-0.99,3.48,2.56,1.34
12.2440,0.07,0.13,-0.99,3.48,2.62,1.59
12.2600,0.08,0.13,-1.00,3.48,2.81,1.34
12.2750,0.07,0.14,-1.00,3.60,2.50,0.92
12.2780,0.07,0.14,-0.99,3.66,2.75,1.16
12.3070,0.07,0.13,-0.99,3.66,2.81,1.10
12.3220,0.07,0.14,-1.00,3.66,2.81,0.73
12.3370,0.06,0.15,-0.99,4.09,2.50,0.43
12.3440,0.07,0.13,-1.00,3.30,2.93,1.34
12.3680,0.07,0.13,-0.99,3.54,2.81,1.28
12.3830,0.07,0.14,-0.99,3.48,2.87,1.22
12.3940,0.07,0.13,-0.99,3.17,2.62,1.46
12.4110,0.07,0.13,-0.99,3.30,2.62,2.08
12.4260,0.08,0.13,-1.00,3.91,2.50,1.83
12.4430,0.07,0.14,-1.00,3.30,2.56,1.04
12.4580,0.07,0.14,-0.99,3.42,2.32,1.40
12.4730,0.07,0.13,-0.99,3.54,2.32,1.22
12.4830,0.07,0.14,-0.99,3.48,2.56,1.16
12.5000,0.07,0.13,-0.99,3.72,2.69,1.53
12.5170,0.07,0.13,-0.99,3.72,2.32,1.46
12.5330,0.07,0.14,-0.99,3.78,2.20,1.40
12.5500,0.07,0.13,-0.99,3.30,2.14,1.34
12.5600,0.07,0.14,-0.99,3.66,2.20,1.65
12.5820,0.07,0.13,-0.99,3.66,2.14,1.65
12.5970,0.07,0.14,-1.00,3.91,2.32,1.28
12.6120,0.07,0.13,-0.99,3.42,2.38,1.10
12.6160,0.07,0.14,-0.99,3.30,2.32,1.22
12.6320,0.07,0.13,-0.99,3.60,2.62,1.53
12.6540,0.07,0.13,-0.99,3.78,2.14,1.46
12.6730,0.07,0.14,-1.00,3.91,2.50,1.40
12.6870,0.07,0.13,-0.99,3.17,2.44,1.65
12.7050,0.07,0.14,-0.99,3.17,2.75,1.53
12.7210,0.06,0.13,-0.99,3.17,2.38,1.65
12.7220,0.07,0.14,-0.99,3.17,2.50,1.83
12.7530,0.07,0.14,-1.00,2.87,2.56,1.89
12.7690,0.07,0.14,-1.00,2.87,2.44,1.83
12.7710,0.07,0.13,-0.99,2.69,2.01,1.83
12.7870,0.07,0.13,-0.99,3.42,2.38,1.83
12.8150,0.07,0.13,-1.00,3.85,2.26,2.20
12.8260,0.07,0.15,-1.00,5.68,1.89,1.95
12.8420,0.07,0.14,-0.99,3.23,2.14,1.95
12.8590,0.07,0.14,-0.99,4.27,1.83,1.89
12.8750,0.06,0.14,-1.00,3.85,1.28,1.59
12.8910,0.07,0.14,-0.99,4.33,2.26,-0.31
12.9060,0.08,0.14,-0.99,3.85,3.11,0.31
12.9100,0.08,0.13,-1.00,3.48,2.62,0.67
12.9250,0.07,0.13,-1.00,4.03,2.62,0.98
12.9410,0.07,0.12,-1.00,4.82,2.38,0.43
12.9630,0.10,0.15,-1.00,2.01,3.11,-0.18
12.9800,0.06,0.15,-1.00,3.42,2.75,0.67
12.9950,0.06,0.12,-1.00,1.89,1.89,0.98
13.0130,0.06,0.12,-1.00,2.62,2.08,1.22
13.0180,0.08,0.14,-0.99,2.93,1.89,0.92
13.0440,0.09,0.12,-0.99,3.30,2.50,0.85
13.0590,0.07,0.14,-0.99,3.54,2.81,0.85
13.0740,0.07,0.13,-1.00,3.11,2.26,1.65
13.0840,0.07,0.13,-0.99,2.93,1.95,2.20
13.1020,0.07,0.14,-0.99,3.23,2.20,2.14
13.1180,0.07,0.13,-0.99,2.99,2.44,2.32
13.1350,0.07,0.14,-0.99,3.17,2.38,2.32
13.1510,0.08,0.14,-1.00,3.11,1.95,1.77
13.1670,0.08,0.13,-0.99,2.32,2.32,1.95
13.1840,0.07,0.14,-0.99,2.44,2.32,1.95
13.2000,0.07,0.13,-0.99,2.44,2.62,1.89
13.2160,0.06,0.14,-1.00,2.81,2.75,2.08
13.2180,0.07,0.15,-1.01,-0.92,3.97,1.89
13.2340,0.09,0.15,-0.98,3.85,1.28,1.89
13.2620,0.07,0.11,-0.99,1.22,2.50,1.83
13.2720,0.07,0.13,-1.00,3.05,2.20,1.95
13.2880,0.07,0.13,-1.00,3.05,2.56,1.95
13.3050,0.07,0.13,-1.00,3.23,2.75,2.08
13.3220,0.07,0.13,-0.99,3.05,2.32,2.08
13.3380,0.07,0.13,-0.99,3.17,2.56,2.08
13.3530,0.07,0.13,-1.00,3.23,2.44,1.95
13.3700,0.07,0.13,-1.00,3.97,2.81,2.01
13.3860,0.07,0.13,-1.00,3.54,2.81,2.20
13.3880,0.07,0.13,-1.00,3.36,2.56,2.20
13.4040,0.07,0.13,-0.99,2.99,2.93,2.08
13.4320,0.07,0.13,-1.00,3.48,2.75,2.08
13.4430,0.07,0.13,-1.00,3.42,2.81,2.14
13.4610,0.07,0.13,-0.99,3.42,2.69,2.14
13.4760,0.07,0.13,-0.99,2.93,2.75,1.95
13.4930,0.07,0.13,-0.99,3.36,2.62,2.01
13.5090,0.07,0.12,-0.99,2.81,3.11,2.01
13.5250,0.07,0.13,-1.00,3.91,2.87,2.08
13.5410,0.11,0.13,-1.01,4.15,2.50,1.95
13.5560,0.03,0.14,-1.00,3.66,2.38,-0.12
13.5720,0.06,0.13,-1.00,4.03,2.81,1.83
13.5880,0.07,0.13,-1.00,3.66,2.56,1.95
13.6030,0.07,0.13,-0.99,3.30,2.44,1.83
13.6110,0.07,0.13,-1.00,2.99,2.69,2.01
13.6270,0.07,0.13,-1.00,3.66,2.32,1.95
13.6480,0.07,0.13,-0.99,3.42,2.50,1.89
13.6630,0.07,0.13,-0.99,3.17,2.56,1.83
13.6790,0.07,0.13,-0.99,3.17,2.75,1.89
13.6820,0.07,0.13,-0.99,2.81,2.69,1.95
13.6980,0.07,0.13,-0.99,3.60,2.81,2.14
13.7190,0.06,0.13,-1.00,3.91,2.56,2.01
13.7360,0.06,0.13,-1.00,3.54,2.38,2.01
13.7520,0.07,0.14,-0.99,3.91,2.87,2.01
13.7710,0.07,0.13,-1.00,2.75,2.56,2.08
13.7770,0.07,0.13,-0.99,2.69,2.44,2.08
13.7940,0.07,0.12,-0.99,2.75,2.56,1.89
13.8160,0.07,0.13,-1.00,3.23,2.32,1.83
13.8270,0.07,0.13,-1.00,2.75,2.81,1.83
13.8430,0.07,0.13,-0.99,3.17,2.20,1.89
13.8620,0.07,0.13,-0.99,3.60,2.62,1.95
13.8770,0.07,0.13,-0.99,3.54,2.81,2.14
13.8920,0.07,0.13,-1.00,3.30,2.69,2.14
13.9080,0.08,0.13,-0.99,2.20,2.99,1.95
13.9140,0.07,0.13,-0.99,2.99,2.38,2.26
13.9290,0.06,0.12,-1.00,3.78,2.62,2.08
13.9520,0.07,0.13,-1.00,3.97,2.44,2.14
13.9700,0.08,0.13,-1.00,3.54,2.50,2.08
13.9850,0.06,0.13,-1.00,3.48,2.56,2.14
14.0030,0.07,0.13,-1.00,3.30,2.99,2.08
14.0180,0.07,0.14,-1.00,3.36,2.99,1.95
14.0340,0.08,0.14,-1.00,4.15,2.50,2.14
14.0490,0.07,0.13,-0.99,3.36,2.75,1.71
14.0650,0.07,0.13,-1.00,3.78,2.38,1.89
14.0690,0.06,0.12,-0.99,3.17,2.75,2.14
14.0950,0.06,0.13,-1.00,3.23,2.75,1.89
14.1100,0.07,0.13,-1.00,3.42,2.81,1.89
14.1190,0.07,0.13,-0.99,2.93,2.81,1.77
14.1360,0.07,0.13,-1.00,3.17,2.50,1.65
14.1530,0.07,0.12,-0.99,2.32,2.69,1.77
14.1690,0.07,0.13,-1.00,3.42,2.56,1.83
14.1860,0.06,0.12,-1.00,3.97,2.38,1.89
14.2020,0.07,0.13,-1.00,3.85,2.69,1.95
14.2190,0.07,0.13,-0.99,3.91,2.44,1.83
14.2350,0.07,0.13,-1.00,3.78,2.38,1.95
14.2510,0.07,0.13,-0.99,3.48,2.38,1.77
14.2680,0.07,0.13,-1.00,3.30,2.44,1.65
14.2840,0.07,0.12,-0.99,2.62,2.56,1.53
14.3000,0.07,0.13,-1.00,3.48,2.50,1.46
14.3150,0.07,0.13,-1.00,3.66,2.56,1.46
14.3300,0.07,0.13,-0.99,3.78,2.38,1.53
14.3450,0.07,0.13,-0.99,3.66,2.81,1.59
14.3520,0.07,0.13,-0.99,3.97,2.38,1.28
14.3680,0.07,0.13,-1.00,3.97,2.44,1.46
14.3890,0.07,0.13,-0.99,4.21,2.69,1.46
14.4070,0.07,0.13,-1.00,4.27,2.44,1.28
14.4220,0.07,0.13,-1.00,4.70,1.95,1.04
14.4380,0.06,0.13,-1.00,4.33,2.50,0.92
14.4530,0.07,0.13,-0.99,3.54,2.81,1.40
14.4680,0.07,0.13,-1.00,3.72,2.56,1.34
14.4830,0.07,0.13,-0.99,3.72,2.44,1.46
14.4890,0.07,0.13,-0.99,3.30,2.69,1.53
14.5060,0.07,0.13,-1.00,4.27,2.32,1.59
14.5230,0.07,0.13,-0.99,3.97,2.20,1.34
14.5390,0.09,0.13,-0.99,3.91,2.38,1.28
14.5590,0.08,0.13,-0.99,3.60,2.99,-0.43
14.5750,0.07,0.14,-1.00,3.66,2.81,-0.24
14.5910,0.08,0.13,-0.99,3.36,1.89,1.40
14.6070,0.06,0.12,-0.99,4.58,2.38,1.46
14.6220,0.05,0.13,-1.00,3.97,2.69,1.16
14.6380,0.06,0.13,-0.99,3.36,2.99,1.22
14.6540,0.08,0.13,-0.99,2.99,2.99,0.73
14.6690,0.05,0.13,-1.00,2.75,2.87,0.92
14.6760,0.06,0.13,-1.00,3.66,2.26,1.89
14.6920,0.06,0.13,-0.99,3.54,2.26,1.95
14.7130,0.07,0.13,-0.99,4.09,2.50,2.08
14.7300,0.07,0.13,-0.99,3.91,2.20,2.14
14.7460,0.07,0.13,-1.00,3.78,2.50,2.01
14.7620,0.07,0.13,-0.99,3.66,2.93,2.08
14.7770,0.07,0.13,-1.00,3.54,2.38,2.08
14.7930,0.07,0.13,-1.00,3.48,2.69,1.95
14.8090,0.07,0.13,-1.00,3.30,2.93,2.01
14.8240,0.07,0.13,-0.99,2.81,2.62,1.77
14.8300,0.07,0.13,-0.99,3.23,2.75,1.95
14.8460,0.07,0.13,-0.99,3.36,2.44,1.95
14.8680,0.06,0.13,-1.00,3.36,2.44,0.98
14.8840,0.07,0.14,-1.00,3.85,2.81,1.77
14.9010,0.07,0.13,-1.00,3.30,2.62,1.95
14.9170,0.07,0.13,-0.99,3.54,2.50,1.95
14.9340,0.07,0.13,-0.99,3.54,2.44,1.71
14.9500,0.07,0.13,-1.00,3.60,2.87,1.77
14.9660,0.07,0.13,-0.99,3.60,2.26,1.53
14.9820,0.07,0.13,-1.00,4.03,2.32,1.22
14.9980,0.07,0.13,-0.99,3.72,2.50,1.10
15.0130,0.07,0.13,-0.99,3.30,2.81,1.22
15.0290,0.08,0.13,-0.99,3.05,2.56,0.98
15.0350,0.06,0.13,-1.00,4.09,2.69,1.16
15.0600,0.07,0.14,-1.00,3.91,2.62,1.46
15.0750,0.06,0.13,-1.00,3.42,2.44,1.53
15.0900,0.07,0.13,-1.00,3.60,2.44,1.53
15.1010,0.08,0.13,-1.00,3.85,2.56,1.65
15.1160,0.07,0.13,-1.00,3.60,2.75,1.65
15.1350,0.07,0.14,-0.99,4.09,2.38,1.89
15.1390,0.07,0.13,-0.99,3.54,2.44,1.83
15.1670,0.07,0.13,-0.99,3.60,2.75,1.95
15.1720,0.08,0.13,-0.99,3.78,2.56,1.65
15.1880,0.07,0.13,-0.99,3.60,2.56,1.04
15.2120,0.06,0.13,-0.99,3.48,2.38,1.22
15.2280,0.08,0.13,-1.00,3.17,2.56,1.46
15.2430,0.11,0.13,-0.97,2.44,2.87,0.43
15.2580,0.09,0.14,-0.99,2.62,2.93,-0.06
15.2740,0.06,0.13,-1.00,3.48,2.81,0.79
15.2780,0.06,0.13,-1.00,3.78,2.69,1.28
15.2930,0.07,0.13,-0.99,3.85,2.56,0.98
15.3160,0.07,0.13,-1.00,3.54,2.75,1.34
15.3330,0.09,0.13,-1.00,3.42,2.93,1.53
15.3490,0.06,0.13,-1.00,2.62,2.87,1.04
15.3640,0.05,0.12,-0.99,3.54,2.62,1.95
15.3800,0.06,0.13,-0.99,3.97,2.44,1.77
15.3830,0.03,0.13,-1.00,3.85,2.01,1.71
15.4110,0.05,0.13,-0.99,3.91,2.26,2.01
15.4260,0.07,0.13,-1.00,4.03,2.32,2.01
15.4410,0.07,0.13,-0.99,3.66,2.50,2.20
15.4520,0.07,0.13,-0.99,3.23,2.20,2.08
15.4680,0.07,0.13,-0.99,3.36,2.44,2.08
15.4860,0.07,0.13,-1.00,3.48,2.56,1.89
15.5020,0.07,0.13,-1.00,3.23,2.50,2.01
15.5180,0.07,0.13,-1.00,3.17,2.50,2.01
15.5340,0.06,0.13,-0.99,3.42,2.26,1.83
15.5500,0.07,0.13,-0.99,3.85,2.20,2.20
15.5660,0.07,0.13,-0.99,3.97,2.50,2.08
15.5810,0.07,0.13,-0.99,3.48,2.26,1.95
15.5960,0.07,0.13,-0.99,3.36,2.56,2.01
15.6120,0.07,0.13,-0.99,3.42,2.38,1.95
15.6270,0.07,0.13,-0.99,3.78,2.14,1.95
15.6420,0.07,0.13,-0.99,3.36,2.14,1.95
15.6570,0.08,0.13,-0.99,3.66,2.14,2.01
15.6680,0.08,0.13,-0.99,3.30,2.87,2.08
15.6840,0.07,0.13,-0.99,3.30,2.75,1.95
15.7020,0.07,0.13,-0.99,3.60,2.56,1.71
15.7180,0.09,0.12,-0.99,3.72,2.44,1.65
15.7360,0.07,0.13,-0.99,2.93,2.26,-0.67
15.7520,0.07,0.13,-1.00,3.66,2.87,-0.37
15.7670,0.06,0.13,-1.00,3.91,2.93,0.00
15.7820,0.05,0.13,-1.00,2.99,2.69,0.61
15.7970,0.07,0.13,-1.00,3.17,3.11,0.92
15.8010,0.08,0.13,-0.99,2.75,2.75,0.79
15.8170,0.06,0.13,-0.99,3.66,2.14,0.79
15.8380,0.07,0.13,-0.99,3.42,2.69,1.46
15.8600,0.07,0.13,-1.00,3.17,2.87,1.34
15.8710,0.07,0.14,-1.00,3.54,2.38,1.53
15.8870,0.08,0.13,-0.99,3.42,2.62,1.10
15.9060,0.07,0.13,-1.00,3.42,2.69,1.40
15.9230,0.06,0.13,-1.00,3.66,2.26,1.53
15.9380,0.07,0.13,-0.99,3.66,2.26,1.71
15.9550,0.08,0.13,-0.99,3.42,2.62,1.16
15.9720,0.07,0.13,-0.99,3.36,2.87,0.49
15.9880,0.07,0.13,-1.00,3.60,2.69,0.79
16.0040,0.07,0.13,-0.99,3.42,2.50,1.04
16.0070,0.07,0.13,-0.99,2.99,2.56,1.10
16.0360,0.07,0.13,-0.99,3.30,2.38,1.04
16.0520,0.07,0.13,-1.00,3.72,2.50,1.28
16.0670,0.08,0.13,-0.99,3.42,2.62,0.92
16.0730,0.07,0.13,-0.99,3.66,2.69,0.49
16.0890,0.07,0.13,-1.00,3.36,3.17,0.79
16.1120,0.07,0.13,-0.99,3.78,2.38,0.67
16.1270,0.06,0.13,-1.00,3.54,2.56,0.85
16.1420,0.06,0.13,-1.00,3.23,2.69,0.98
16.1570,0.07,0.13,-1.00,3.60,2.56,1.65
16.1720,0.07,0.13,-0.99,3.54,2.62,1.59
16.1890,0.08,0.13,-0.99,3.36,2.62,1.34
16.2030,0.06,0.13,-1.00,3.36,2.32,0.37
16.2120,0.07,0.13,-0.99,3.42,2.14,0.79
16.2270,0.08,0.13,-0.99,3.36,2.38,0.98
16.2480,0.06,0.13,-1.00,3.66,2.32,0.98
16.2650,0.07,0.13,-0.99,3.78,2.38,1.22
16.2800,0.07,0.13,-0.99,3.42,2.26,1.34
16.2950,0.07,0.13,-1.00,3.54,2.26,1.59
16.3100,0.07,0.13,-0.99,3.30,2.44,1.59
16.3260,0.08,0.13,-0.99,3.60,2.26,1.53
16.3410,0.07,0.13,-1.00,3.85,2.38,1.28
16.3570,0.07,0.14,-0.99,4.46,2.56,0.92
16.3720,0.08,0.13,-1.00,3.66,2.56,0.43
16.3830,0.07,0.13,-1.00,3.66,2.38,0.24
16.3990,0.06,0.13,-1.00,3.66,3.23,0.37
16.4150,0.07,0.13,-0.99,3.85,2.50,0.37
16.4330,0.06,0.13,-0.99,4.09,2.20,0.67
16.4480,0.07,0.13,-0.99,3.72,2.44,0.85
16.4630,0.07,0.13,-0.99,3.66,2.26,1.10
16.4780,0.07,0.12,-1.00,2.81,1.95,0.85
16.4930,0.08,0.14,-0.99,3.91,2.08,0.73
16.5080,0.06,0.13,-0.99,3.42,2.50,0.92
16.5230,0.07,0.13,-0.99,3.30,2.56,1.59
16.5330,0.07,0.13,-0.99,3.36,2.38,1.40
16.5490,0.06,0.13,-1.00,3.66,2.32,1.34
16.5690,0.07,0.13,-1.00,3.60,2.38,1.59
16.5850,0.07,0.13,-0.99,3.60,2.26,1.28
16.6010,0.07,0.14,-0.99,3.66,2.69,1.34
16.6170,0.07,0.13,-0.99,3.36,2.50,1.16
16.6210,0.07,0.13,-1.00,3.60,2.56,1.40
16.6370,0.08,0.13,-0.99,3.54,2.44,1.53
16.6660,0.06,0.13,-0.99,3.54,2.38,1.10
16.6740,0.06,0.13,-1.00,3.66,2.75,1.40
16.6960,0.07,0.13,-0.99,3.36,2.62,1.59
16.7070,0.07,0.13,-0.99,3.54,2.44,1.59
16.7240,0.07,0.13,-1.00,3.23,2.56,1.59
16.7390,0.07,0.14,-1.00,3.54,2.44,1.28
16.7580,0.07,0.14,-1.00,3.97,2.56,1.28
16.7650,0.08,0.13,-0.99,3.54,2.62,1.04
16.7880,0.07,0.13,-0.99,3.66,2.50,0.92
16.8030,0.08,0.13,-0.99,3.78,2.75,1.28
16.8180,0.06,0.13,-0.99,3.42,2.50,1.04
16.8240,0.06,0.13,-1.00,3.48,2.56,1.40
16.8390,0.07,0.13,-1.00,3.30,2.56,1.65
16.8640,0.08,0.14,-0.99,3.42,2.32,1.40
16.8790,0.06,0.13,-1.00,3.30,2.87,0.92
16.8950,0.07,0.13,-0.99,3.30,2.75,1.28
16.9100,0.08,0.14,-0.99,3.23,2.50,0.85
16.9260,0.07,0.13,-0.99,3.23,2.62,0.67
16.9410,0.07,0.13,-0.99,3.42,2.32,0.61
16.9560,0.08,0.13,-0.99,4.03,2.69,0.67
16.9720,0.06,0.13,-1.00,3.97,2.38,0.73
16.9890,0.07,0.13,-0.99,3.85,2.08,0.98
17.0040,0.06,0.13,-0.99,3.85,2.26,1.22
17.0190,0.07,0.13,-0.99,3.54,2.20,1.46
17.0340,0.07,0.13,-0.99,3.54,2.56,1.65
17.0460,0.09,0.13,-1.00,3.91,2.75,1.53
17.0630,0.07,0.13,-1.00,3.97,2.50,0.67
17.0790,0.07,0.14,-1.00,2.81,2.87,0.67
17.0950,0.07,0.13,-1.00,3.72,2.69,0.85
17.1100,0.08,0.14,-0.99,4.09,2.50,1.10
17.1270,0.07,0.14,-0.99,3.72,2.75,0.61
17.1430,0.05,0.13,-0.99,3.54,2.69,1.04
17.1580,0.07,0.13,-1.00,2.93,2.87,1.53
17.1750,0.07,0.14,-0.99,3.30,2.87,1.59
17.1810,0.06,0.13,-0.99,3.11,2.44,1.16
17.2060,0.07,0.13,-0.99,3.23,2.20,1.59
17.2210,0.07,0.13,-1.00,3.36,2.14,1.65
17.2370,0.07,0.13,-0.99,3.36,2.50,1.34
17.2520,0.07,0.13,-1.00,3.11,2.20,1.16
17.2660,0.07,0.14,-0.99,4.21,2.38,1.10
17.2790,0.07,0.13,-0.99,3.72,2.01,1.28
17.2960,0.07,0.14,-0.99,3.66,2.38,1.34
17.3120,0.08,0.14,-0.99,3.60,2.56,1.46
17.3270,0.08,0.14,-0.99,3.60,2.14,1.04
17.3420,0.07,0.13,-0.99,3.42,2.14,0.67
17.3460,0.06,0.13,-0.99,4.09,2.44,0.92
17.3660,0.07,0.14,-1.00,3.60,2.26,1.10
17.3840,0.07,0.14,-0.99,3.91,2.38,0.85
17.4010,0.06,0.13,-1.00,3.66,2.20,1.04
17.4180,0.07,0.14,-1.00,3.97,2.50,1.40
17.4340,0.07,0.13,-0.99,3.42,2.93,1.34
17.4490,0.08,0.14,-1.00,3.54,2.56,1.16
17.4650,0.07,0.13,-0.99,3.23,2.56,1.04
17.4820,0.06,0.13,-0.99,3.91,2.62,1.34
17.4980,0.07,0.14,-0.99,3.72,2.32,1.40
17.5130,0.07,0.14,-0.99,3.66,2.81,1.46
17.5290,0.07,0.14,-1.00,3.36,2.20,1.28
17.5340,0.07,0.14,-0.99,3.48,2.32,1.46
17.5500,0.07,0.14,-0.99,3.85,2.20,1.53
17.5710,0.08,0.14,-0.99,3.91,2.08,1.34
17.5880,0.07,0.13,-1.00,3.66,1.95,1.22
17.6050,0.07,0.14,-0.99,3.54,2.32,1.46
17.6200,0.07,0.13,-0.99,3.72,2.14,1.40
17.6350,0.07,0.14,-0.99,3.72,2.08,1.16
17.6500,0.07,0.14,-1.00,3.78,2.44,1.28
17.6650,0.06,0.13,-0.99,3.48,2.50,1.10
17.6810,0.07,0.14,-0.99,3.78,2.38,1.53
17.6870,0.07,0.13,-0.99,3.48,2.50,1.46
17.7030,0.07,0.14,-0.99,4.09,2.14,1.53
17.7230,0.08,0.14,-0.99,3.66,2.26,1.40
17.7400,0.08,0.14,-1.00,3.72,2.26,1.28
17.7570,0.07,0.14,-1.00,3.72,2.38,1.04
17.7720,0.07,0.14,-1.00,3.97,2.44,0.92
17.7730,0.08,0.14,-0.99,3.91,2.26,1.22
17.8030,0.06,0.14,-1.00,3.36,2.62,1.34
17.8190,0.06,0.13,-0.99,4.15,2.38,1.46
17.8240,0.07,0.13,-1.00,4.09,2.87,1.59
17.8500,0.06,0.14,-0.99,3.85,2.32,1.59
17.8650,0.07,0.14,-0.99,4.03,2.69,1.83
17.8740,0.07,0.14,-0.99,3.54,2.38,1.65
17.8900,0.08,0.14,-1.00,3.48,2.44,1.59
17.9070,0.07,0.13,-0.99,3.60,2.32,1.16
17.9240,0.08,0.14,-1.00,3.54,2.56,1.28
17.9390,0.08,0.13,-1.00,3.48,2.69,1.22
17.9570,0.07,0.14,-1.00,3.85,2.62,1.04
17.9670,0.07,0.14,-0.99,3.78,2.81,1.46
17.9730,0.06,0.14,-1.00,3.36,2.56,1.28
17.9900,0.07,0.13,-0.99,3.23,2.62,1.46
18.0060,0.08,0.14,-1.00,3.48,2.62,0.92
18.0340,0.07,0.14,-0.99,3.42,2.38,0.98
18.0440,0.09,0.14,-0.99,3.48,2.81,0.67
18.0610,0.07,0.13,-1.00,3.05,3.23,0.06
18.0780,0.06,0.14,-1.00,4.58,2.50,0.61
18.0940,0.07,0.14,-1.00,4.21,2.32,0.92
18.1090,0.07,0.14,-1.00,3.66,2.69,0.67
18.1240,0.06,0.13,-0.99,3.42,2.50,1.04
18.1270,0.08,0.13,-0.99,3.48,2.62,1.77
18.1430,0.07,0.14,-0.99,2.62,2.32,1.77
18.1680,0.10,0.15,-0.98,2.32,3.11,1.71
18.1800,0.06,0.12,-1.00,1.77,2.38,0.55
18.1960,0.07,0.14,-0.98,4.39,2.50,1.10
18.2140,0.05,0.14,-1.00,3.54,2.93,1.10
18.2170,0.04,0.14,-0.99,4.21,2.14,1.10
18.2450,0.07,0.14,-1.00,4.27,1.83,1.65
18.2600,0.07,0.14,-0.99,3.72,2.56,2.08
18.2750,0.07,0.14,-0.99,3.05,2.44,1.95
18.2900,0.08,0.13,-1.00,1.71,3.23,1.65
18.3000,0.07,0.12,-1.00,1.89,2.87,1.65
18.3170,0.06,0.14,-0.99,4.39,2.38,1.83
18.3330,0.07,0.13,-1.00,3.42,2.75,1.83
18.3500,0.07,0.14,-0.99,3.91,2.20,2.08
18.3670,0.07,0.14,-1.00,3.78,2.32,2.08
18.3820,0.07,0.14,-0.99,3.97,1.95,1.89
18.3970,0.07,0.14,-0.99,3.60,2.20,1.95
18.4130,0.07,0.13,-0.99,3.17,2.50,2.14
18.4290,0.07,0.14,-1.00,4.09,2.14,2.01
18.4440,0.07,0.14,-0.99,3.36,2.69,2.20
18.4600,0.07,0.13,-0.99,3.91,2.50,2.01
18.4750,0.07,0.14,-1.00,4.27,2.14,2.01
18.4900,0.07,0.14,-0.99,3.48,2.08,2.01
18.5000,0.07,0.13,-0.99,2.99,2.32,1.89
18.5170,0.08,0.15,-1.02,5.68,-0.12,1.83
18.5330,0.08,0.15,-0.99,5.55,0.37,1.59
18.5500,0.07,0.18,-0.96,3.85,0.85,0.85
18.5670,0.07,0.14,-1.02,3.60,0.79,-2.93
18.5820,0.07,0.13,-1.01,5.74,0.85,-0.98
18.5980,0.07,0.14,-0.99,4.33,0.73,1.65
18.6140,0.07,0.14,-0.99,3.66,1.89,1.89
18.6290,0.07,0.15,-1.00,4.27,1.83,2.01
18.6440,0.08,0.14,-0.99,3.36,1.77,1.95
18.6590,0.08,0.14,-1.00,2.38,2.81,2.08
18.6750,0.07,0.14,-0.99,2.38,2.99,1.95
18.6900,0.08,0.14,-0.99,2.56,2.87,2.08
18.7000,0.10,0.15,-1.01,2.08,3.36,2.14
18.7170,0.08,0.15,-1.00,1.77,3.11,2.20
18.7350,0.07,0.12,-1.00,-1.16,4.21,1.89
18.7500,0.07,0.14,-0.98,2.81,3.48,2.08
18.7660,0.07,0.14,-1.00,2.08,3.36,1.89
18.7820,0.07,0.13,-0.99,2.50,3.11,2.14
18.7990,0.07,0.14,-1.00,2.87,2.26,1.95
18.8140,0.07,0.14,-0.99,2.81,2.44,1.95
18.8290,0.07,0.13,-0.99,2.81,2.62,1.71
18.8440,0.07,0.14,-1.00,2.20,1.83,1.83
18.8590,0.07,0.13,-0.99,1.89,2.38,1.89
18.8750,0.04,0.13,-0.99,1.77,2.26,1.71
18.8900,0.08,0.14,-0.99,2.26,2.08,1.77
18.9000,0.07,0.13,-0.99,1.28,2.50,1.83
18.9170,0.07,0.13,-0.99,2.56,2.75,2.08
18.9330,0.07,0.13,-1.00,2.20,2.50,2.08
18.9500,0.07,0.13,-1.00,2.69,2.87,2.14
18.9670,0.07,0.12,-0.99,2.50,2.93,2.01
18.9830,0.07,0.13,-0.99,3.78,2.81,2.14
18.9990,0.07,0.14,-0.99,3.91,2.62,2.32
19.0150,0.09,0.07,-0.97,-2.44,1.65,1.04
19.0300,0.07,0.18,-1.02,9.77,2.32,2.62
19.0460,0.08,0.14,-1.00,-0.92,3.54,1.71
19.0620,0.08,0.12,-0.99,3.72,1.83,1.89
19.0770,0.07,0.13,-0.99,2.44,2.14,1.95
19.0930,0.07,0.13,-0.99,4.21,2.08,2.01
19.1010,0.07,0.12,-0.99,2.32,2.44,1.95
19.1160,0.07,0.14,-0.99,4.46,1.83,2.01
19.1380,0.07,0.14,-1.00,3.66,2.26,1.77
19.1540,0.07,0.13,-1.00,3.72,1.89,1.95
19.1700,0.07,0.13,-0.99,3.17,2.56,2.08
19.1730,0.07,0.13,-1.00,3.60,2.01,1.95
19.1880,0.07,0.13,-1.00,2.87,2.20,1.95
19.2120,0.07,0.14,-1.00,3.48,2.26,2.01
19.2280,0.07,0.13,-1.00,3.23,2.26,2.08
19.2440,0.07,0.13,-1.00,3.60,2.08,1.95
19.2610,0.07,0.13,-0.99,3.17,2.50,1.95
19.2760,0.07,0.13,-0.99,4.27,2.50,2.20
19.2910,0.07,0.13,-1.00,4.21,2.08,2.14
19.2950,0.07,0.13,-0.99,3.85,2.08,2.08
19.3110,0.07,0.13,-1.00,3.97,1.83,2.01
19.3320,0.07,0.13,-1.00,3.97,1.83,2.08
19.3490,0.07,0.10,-0.98,5.25,2.44,2.26
19.3660,0.07,0.16,-1.00,6.71,2.62,2.32
19.3830,0.07,0.12,-0.99,2.69,2.69,1.89
19.4000,0.07,0.13,-0.99,3.60,2.44,2.01
19.4160,0.06,0.12,-0.99,3.85,2.87,0.92
19.4170,0.07,0.13,-0.99,3.91,2.62,0.61
19.4480,0.07,0.14,-1.00,3.91,3.17,0.49
19.4630,0.09,0.11,-1.00,3.78,2.62,1.40
19.4780,0.07,0.13,-0.99,3.72,2.99,-1.16
19.4950,0.07,0.12,-1.00,4.52,2.69,0.00
19.5100,0.06,0.15,-0.99,3.85,2.87,-0.98
19.5260,0.07,0.15,-0.99,3.54,2.81,-0.06
19.5430,0.06,0.14,-0.99,3.36,2.44,1.28
19.5580,0.07,0.13,-0.99,2.81,2.50,1.65
19.5730,0.07,0.13,-1.00,2.75,2.44,1.71
19.5870,0.07,0.13,-0.99,3.30,2.38,1.53
19.6000,0.07,0.13,-1.00,3.66,2.93,0.98
19.6170,0.07,0.13,-0.99,3.48,2.87,0.73
19.6330,0.07,0.13,-0.99,3.23,2.75,0.79
19.6500,0.07,0.14,-0.99,3.48,2.87,0.98
19.6650,0.07,0.14,-0.99,3.11,2.81,0.73
19.6820,0.07,0.13,-0.99,3.11,2.81,0.49
19.6970,0.07,0.14,-1.00,3.36,3.42,-2.08
19.7120,0.07,0.14,-0.99,3.85,2.93,-0.43
19.7280,0.07,0.13,-0.99,3.48,2.81,0.12
19.7430,0.07,0.14,-1.00,3.30,2.87,0.31
19.7590,0.07,0.13,-0.99,3.54,2.93,0.73
19.7740,0.07,0.14,-0.99,3.60,2.56,0.55
19.7890,0.07,0.13,-0.99,3.23,3.23,1.10
19.7990,0.07,0.13,-0.99,3.42,2.56,1.34
19.8160,0.07,0.13,-0.99,3.23,2.38,1.04
19.8320,0.07,0.14,-0.99,3.36,2.69,1.22
19.8490,0.07,0.13,-0.99,3.11,3.05,1.65
19.8660,0.07,0.13,-0.99,3.48,2.69,1.89
19.8830,0.07,0.13,-0.99,3.66,2.56,1.28
19.8840,0.07,0.13,-0.99,3.78,2.62,1.22
19.9140,0.07,0.13,-0.99,3.36,2.93,1.10
19.9310,0.07,0.13,-0.99,3.60,3.23,0.92
19.9460,0.07,0.13,-0.99,3.78,2.69,0.73
19.9610,0.07,0.14,-0.99,3.54,2.69,1.04
19.9760,0.07,0.13,-0.99,3.23,3.11,1.40
19.9910,0.07,0.13,-0.99,3.23,3.17,0.73
20.0060,0.07,0.13,-1.00,3.66,2.44,0.98
20.0160,0.07,0.13,-0.99,3.54,2.75,1.04
20.0320,0.07,0.13,-0.99,3.66,2.93,1.04
20.0540,0.07,0.14,-0.99,3.48,2.75,-0.31
20.0700,0.07,0.14,-0.99,3.85,2.75,0.31
20.0860,0.07,0.14,-0.99,3.60,2.75,0.98
20.1020,0.07,0.13,-0.99,3.30,3.05,1.04
20.1170,0.07,0.14,-0.99,3.30,2.26,1.04
20.1320,0.07,0.14,-0.99,3.11,2.50,1.59
20.1480,0.07,0.13,-0.99,3.11,2.50,1.53
20.1560,0.07,0.13,-0.99,3.36,2.81,1.53
20.1720,0.07,0.13,-1.00,3.36,2.69,1.46
20.1880,0.07,0.13,-0.99,3.42,2.81,1.46
20.2090,0.07,0.13,-0.99,3.54,2.38,1.40
20.2260,0.07,0.13,-0.99,3.48,2.99,1.10
20.2410,0.06,0.13,-0.99,3.42,2.75,-0.61
20.2570,0.08,0.14,-0.99,3.36,2.81,0.73
20.2730,0.07,0.13,-1.00,3.42,2.56,1.10
20.2760,0.07,0.13,-0.99,3.42,2.56,1.34
20.2910,0.07,0.13,-0.99,3.66,2.56,1.46
20.3140,0.07,0.13,-1.00,3.60,2.01,1.59
20.3310,0.07,0.13,-1.00,3.48,2.38,1.77
20.3470,0.07,0.13,-0.99,3.48,2.50,1.83
20.3640,0.07,0.13,-1.00,3.36,2.38,1.59
20.3810,0.07,0.13,-1.00,3.48,2.32,1.77
20.3960,0.07,0.13,-0.99,3.48,2.50,1.46
20.4120,0.07,0.13,-1.00,3.48,2.99,1.59
20.4270,0.07,0.13,-1.00,3.60,2.14,1.40
20.4310,0.07,0.13,-0.99,3.54,2.32,1.04
20.4460,0.07,0.13,-0.99,3.54,2.69,0.85
20.4710,0.07,0.13,-0.99,3.54,2.75,0.79
20.4840,0.07,0.12,-0.99,3.66,3.17,0.73
20.5010,0.07,0.11,-0.99,3.97,2.93,-3.17
20.5160,0.07,0.13,-0.99,4.21,3.30,-3.05
20.5340,0.07,0.13,-1.00,4.09,2.87,-2.14
20.5500,0.07,0.13,-0.99,3.54,3.11,-1.10
20.5660,0.07,0.15,-0.99,3.91,2.69,-0.67
20.5820,0.07,0.14,-0.99,3.72,2.56,0.73
20.5980,0.07,0.14,-0.99,3.72,2.56,0.92
20.6140,0.07,0.14,-0.99,3.60,2.56,1.34
20.6170,0.07,0.13,-1.00,3.60,2.08,1.46
20.6330,0.07,0.13,-1.00,3.54,2.62,0.85
20.6540,0.07,0.12,-1.00,3.72,2.75,-0.24
20.6710,0.07,0.11,-1.00,3.54,3.30,-1.59
20.6870,0.07,0.14,-0.99,3.97,3.17,-1.46
20.7040,0.07,0.13,-1.00,3.97,2.69,0.67
20.7200,0.07,0.13,-0.99,3.54,2.81,0.67
20.7350,0.07,0.14,-0.99,3.54,2.56,0.37
20.7440,0.07,0.14,-0.99,3.54,2.56,0.67
20.7620,0.07,0.13,-1.00,3.66,2.44,1.28
20.7770,0.07,0.13,-1.00,3.42,2.44,1.16
20.7970,0.07,0.13,-1.00,3.30,2.75,0.67
20.8130,0.07,0.12,-1.00,3.30,2.93,-0.18
20.8300,0.07,0.13,-0.99,3.54,2.87,-0.67
20.8310,0.07,0.14,-0.99,3.54,2.62,-0.12
20.8610,0.07,0.14,-1.00,3.78,2.93,0.43
20.8760,0.07,0.13,-0.99,3.54,2.93,1.04
20.8910,0.07,0.13,-0.99,3.42,2.38,1.10
20.8970,0.07,0.14,-0.99,3.48,2.75,1.28
20.9130,0.07,0.13,-0.99,3.54,2.81,1.77
20.9370,0.07,0.13,-1.00,3.36,2.32,1.65
20.9370,0.07,0.13,-1.00,3.72,2.50,1.65
20.9680,0.07,0.13,-0.99,3.42,2.38,1.22
20.9710,0.07,0.13,-0.99,3.66,2.50,0.73
21.0010,0.07,0.13,-0.99,3.30,3.23,-1.53
21.0020,0.07,0.14,-0.99,4.03,2.93,-0.06
21.0190,0.07,0.13,-0.99,3.97,2.81,0.85
21.0360,0.07,0.13,-0.99,3.54,2.93,0.73
21.0530,0.07,0.14,-0.99,3.54,2.62,0.31
21.0710,0.07,0.13,-1.00,3.23,2.81,0.55
21.0860,0.07,0.13,-0.98,3.85,2.93,1.04
21.1020,0.07,0.14,-1.00,3.48,2.81,0.61
21.1190,0.07,0.13,-1.00,3.23,2.87,0.98
21.1350,0.07,0.13,-1.00,3.48,2.87,0.79
21.1560,0.07,0.14,-0.99,3.72,2.99,0.61
21.1710,0.07,0.13,-1.00,3.30,2.87,0.49
21.1730,0.07,0.12,-0.99,3.48,3.05,0.00
21.1890,0.07,0.13,-0.99,3.48,2.81,-0.49
21.2060,0.07,0.14,-0.99,3.48,2.75,-0.12
21.2220,0.07,0.14,-0.99,3.72,2.81,0.67
21.2370,0.07,0.13,-1.00,3.78,2.69,0.55
21.2590,0.07,0.14,-0.99,3.66,2.87,0.67
21.2810,0.07,0.14,-0.99,3.72,2.99,0.98
21.2920,0.07,0.13,-1.00,3.54,2.75,1.34
21.3090,0.07,0.13,-0.99,3.54,2.81,1.16
21.3250,0.07,0.12,-1.00,3.42,2.75,0.37
21.3410,0.07,0.12,-1.00,3.23,2.93,-0.18
21.3560,0.07,0.13,-1.00,3.48,3.30,-1.46
21.3710,0.07,0.14,-0.99,3.91,3.36,-0.85
21.3750,0.07,0.13,-1.00,3.85,2.75,0.31
21.3980,0.07,0.13,-1.00,3.36,3.23,-0.55
21.4150,0.07,0.13,-0.99,3.30,3.30,-0.98
21.4330,0.07,0.14,-0.99,3.66,2.87,-0.61
21.4480,0.07,0.14,-1.00,3.72,2.62,0.67
21.4630,0.07,0.13,-0.99,3.42,3.23,0.73
21.4800,0.07,0.13,-0.99,3.36,3.11,0.31
21.4960,0.07,0.14,-0.99,3.42,2.69,0.85
21.5110,0.07,0.13,-0.99,3.97,2.69,1.53
21.5260,0.07,0.13,-0.99,3.85,2.50,1.65
21.5310,0.07,0.13,-1.00,3.30,2.20,0.85
21.5470,0.07,0.12,-0.99,3.42,2.81,0.61
21.5720,0.07,0.13,-1.00,3.48,2.93,-0.61
21.5870,0.07,0.12,-1.00,3.78,2.81,-1.04
21.6020,0.07,0.12,-1.00,3.91,2.93,-1.34
21.6030,0.07,0.14,-0.99,3.54,3.23,-1.77
21.6200,0.07,0.14,-0.99,3.85,3.23,-0.79
21.6350,0.07,0.14,-0.99,3.54,2.93,0.12
21.6620,0.07,0.14,-1.00,3.78,2.62,0.61
21.6720,0.07,0.14,-0.99,3.78,2.99,0.73
21.6860,0.07,0.13,-0.99,3.48,2.87,0.55
21.7030,0.07,0.13,-0.99,3.48,3.11,0.43
21.7200,0.07,0.13,-1.00,3.30,2.50,0.18
21.7370,0.07,0.13,-0.99,4.03,2.56,0.37
21.7530,0.07,0.13,-0.99,2.99,2.81,0.12
21.7680,0.07,0.13,-1.00,3.36,2.69,0.37
21.7840,0.07,0.13,-1.00,3.66,2.50,0.31
21.7860,0.07,0.13,-0.99,3.30,2.87,0.00
21.8030,0.07,0.14,-0.99,3.48,2.93,-0.31
21.8200,0.07,0.13,-1.00,3.60,2.69,0.61
21.8370,0.07,0.13,-1.00,3.97,2.62,0.67
21.8520,0.07,0.13,-1.00,3.78,3.05,-0.18
21.8720,0.07,0.13,-0.99,3.54,2.99,-0.61
21.8940,0.07,0.14,-0.99,3.72,2.32,0.31
21.9020,0.07,0.13,-0.99,3.78,2.20,1.22
21.9190,0.07,0.13,-0.99,3.72,2.50,0.92
21.9370,0.07,0.14,-1.00,3.85,2.01,1.04
21.9520,0.07,0.13,-1.00,3.42,2.14,0.98
21.9690,0.07,0.13,-0.99,3.54,2.56,1.10
21.9850,0.07,0.13,-0.99,4.03,2.62,1.34
22.0020,0.07,0.13,-0.99,3.85,2.87,1.65
22.0180,0.07,0.13,-0.99,3.54,2.62,1.28
22.0200,0.07,0.13,-1.00,3.85,2.75,1.53
22.0370,0.07,0.13,-1.00,3.66,2.69,1.34
22.0520,0.07,0.12,-1.00,3.60,2.50,0.98
22.0720,0.07,0.13,-0.99,3.36,2.56,0.67
22.0930,0.07,0.12,-1.00,3.36,2.93,0.24
22.1090,0.07,0.14,-0.99,3.48,2.81,-0.61
22.1260,0.07,0.14,-0.99,3.97,2.75,0.18
22.1410,0.07,0.13,-0.99,3.60,2.50,0.85
22.1570,0.07,0.14,-1.00,3.48,2.32,0.98
22.1720,0.07,0.13,-1.00,3.91,2.50,0.67
22.1870,0.07,0.13,-0.99,3.36,3.17,0.37
22.1930,0.07,0.14,-0.99,3.17,2.93,0.18
22.2100,0.07,0.13,-1.00,3.23,2.69,0.49
22.2260,0.07,0.13,-1.00,3.60,2.69,0.79
22.2490,0.07,0.13,-0.99,3.60,2.20,0.61
22.2650,0.07,0.12,-0.99,3.23,2.20,0.37
22.2810,0.07,0.13,-0.99,3.42,2.81,0.00
22.2830,0.07,0.13,-0.99,3.42,2.50,-0.31
22.3140,0.07,0.13,-1.00,3.66,2.99,0.31
22.3290,0.07,0.13,-0.99,3.91,2.62,0.85
22.3440,0.07,0.13,-1.00,3.66,2.56,0.43
22.3490,0.07,0.12,-1.00,3.66,2.44,-0.06
22.3750,0.07,0.13,-1.00,3.30,3.17,-1.34
22.3900,0.07,0.14,-0.99,3.91,3.05,-1.10
22.4070,0.07,0.13,-1.00,3.78,3.11,-0.37
22.4220,0.07,0.14,-1.00,3.48,2.62,-0.18
22.4370,0.07,0.15,-0.99,3.54,2.81,0.92
22.4490,0.07,0.14,-0.99,3.85,2.93,1.53
22.4650,0.07,0.13,-0.99,3.54,2.50,1.71
22.4810,0.07,0.13,-1.00,3.11,2.69,1.53
22.4990,0.07,0.12,-1.00,3.48,2.69,1.28
22.5150,0.07,0.12,-0.99,3.54,2.56,0.67
22.5310,0.07,0.10,-1.00,4.03,3.36,-0.55
22.5330,0.06,0.15,-1.00,4.15,2.87,-2.08
22.5630,0.06,0.14,-0.99,4.09,2.69,-0.49
22.5790,0.07,0.14,-0.99,3.85,2.75,0.12
22.5940,0.07,0.14,-0.99,3.48,2.62,0.31
22.5980,0.07,0.14,-0.99,4.09,2.44,0.67
22.6140,0.07,0.14,-0.99,3.30,2.62,0.55
22.6360,0.07,0.13,-1.00,3.48,2.56,1.22
22.6530,0.07,0.13,-1.00,3.54,2.44,1.40
22.6700,0.07,0.13,-1.00,3.66,2.14,1.28
22.6730,0.07,0.13,-0.99,3.60,2.44,1.16
22.6870,0.07,0.13,-0.99,3.30,2.75,0.79
22.7030,0.07,0.12,-0.99,3.60,2.69,0.00
22.7190,0.07,0.13,-0.99,3.30,2.81,-0.79
22.7360,0.07,0.14,-1.00,4.27,2.56,0.24
22.7540,0.07,0.13,-1.00,3.91,2.62,0.55
22.7730,0.07,0.13,-0.99,3.60,2.75,0.31
22.7950,0.07,0.14,-0.99,3.60,2.69,0.31
22.7950,0.07,0.13,-1.00,3.54,2.56,0.85
22.8260,0.07,0.13,-0.99,3.30,2.81,0.79
22.8410,0.07,0.13,-0.99,3.23,2.81,0.61
22.8560,0.07,0.13,-1.00,3.17,3.17,0.55
22.8730,0.06,0.12,-1.00,3.78,2.81,0.06
22.8890,0.07,0.12,-0.99,3.42,3.42,-1.16
22.9040,0.07,0.14,-0.99,3.36,2.50,-0.61
22.9200,0.07,0.13,-1.00,3.85,2.81,0.73
22.9270,0.07,0.13,-1.00,3.48,2.38,0.98
22.9430,0.07,0.13,-0.99,3.66,2.93,0.49
22.9660,0.07,0.13,-1.00,2.99,2.87,0.06
22.9820,0.07,0.13,-1.00,3.66,3.11,0.31
22.9980,0.07,0.12,-1.00,3.42,2.99,-0.43
23.0140,0.07,0.13,-0.99,3.54,3.30,-1.77
23.0300,0.07,0.14,-1.00,3.66,3.05,-0.55
23.0460,0.07,0.13,-0.99,3.72,2.81,0.49
23.0620,0.07,0.13,-0.99,3.78,2.87,0.67
23.0780,0.07,0.14,-1.00,3.48,2.99,0.61
23.0930,0.07,0.13,-0.99,4.09,2.75,1.10
23.1080,0.07,0.13,-0.99,3.91,2.50,1.10
23.1220,0.07,0.13,-1.00,3.97,2.44,1.28
23.1330,0.07,0.13,-1.00,3.54,2.56,1.10
23.1490,0.07,0.13,-1.00,3.60,2.87,0.85
23.1670,0.07,0.13,-1.00,3.60,2.50,0.43
23.1830,0.07,0.13,-0.99,3.78,2.38,0.31
23.1990,0.07,0.13,-0.99,3.66,2.44,0.18
23.2150,0.07,0.13,-1.00,3.60,2.50,0.18
23.2310,0.07,0.13,-0.99,3.54,3.05,0.06
23.2470,0.07,0.13,-0.99,3.60,2.93,0.37
23.2630,0.07,0.13,-1.00,3.60,2.81,0.31
23.2780,0.07,0.13,-0.99,3.72,2.62,0.49
23.2930,0.07,0.13,-1.00,3.78,2.56,0.92
23.2990,0.07,0.13,-0.99,3.60,2.56,0.98
23.3160,0.07,0.13,-0.99,3.36,2.32,0.67
23.3370,0.07,0.13,-0.99,3.48,2.62,0.67
23.3540,0.07,0.13,-1.00,3.48,2.56,0.18
23.3720,0.06,0.13,-0.99,3.17,2.93,-0.18
23.3880,0.07,0.14,-0.99,4.03,2.38,0.49
23.4040,0.07,0.13,-0.99,3.48,2.20,1.40
23.4190,0.07,0.14,-0.99,3.72,2.81,1.34
23.4220,0.07,0.13,-1.00,3.30,2.32,1.22
23.4520,0.07,0.13,-1.00,3.17,2.62,0.61
23.4680,0.07,0.13,-0.99,3.54,2.62,0.98
23.4730,0.07,0.13,-1.00,3.66,2.69,1.04
23.4860,0.07,0.13,-0.99,3.42,2.62,1.04
23.5090,0.07,0.13,-0.99,3.23,2.56,0.55
23.5260,0.07,0.13,-1.00,3.36,2.56,0.67
23.5430,0.07,0.13,-0.99,3.48,2.62,0.73
23.5590,0.07,0.13,-0.99,3.91,2.50,0.98
23.5760,0.07,0.13,-0.99,3.72,2.38,1.28
23.5910,0.07,0.13,-0.99,3.60,2.32,0.98
23.6070,0.07,0.13,-0.99,3.66,2.38,1.04
23.6230,0.07,0.13,-0.99,3.42,2.69,1.22
23.6390,0.07,0.13,-0.99,3.36,2.93,1.34
23.6550,0.07,0.13,-1.00,3.48,2.62,1.22
23.6710,0.07,0.12,-1.01,3.97,3.30,1.04
23.6870,0.07,0.13,-1.00,3.48,2.50,0.43
23.7020,0.07,0.14,-0.99,3.91,2.62,-0.12
23.7180,0.07,0.14,-1.00,3.66,2.81,0.49
23.7330,0.07,0.14,-0.99,3.72,2.75,0.73
23.7480,0.07,0.13,-0.99,3.60,2.50,0.79
23.7600,0.07,0.14,-1.00,3.42,2.62,0.61
23.7770,0.07,0.13,-0.99,3.72,2.50,1.16
23.7930,0.07,0.13,-0.99,3.66,2.38,1.22
23.7940,0.07,0.13,-0.99,3.42,2.69,1.46
23.8240,0.07,0.13,-1.00,3.66,2.26,1.28
23.8270,0.07,0.13,-1.00,3.42,2.62,1.10
23.8430,0.07,0.13,-1.00,3.48,2.69,1.34
23.8710,0.07,0.13,-0.99,3.42,2.81,0.92
23.8810,0.07,0.13,-0.99,3.23,2.87,0.12
23.8970,0.07,0.13,-0.99,3.54,2.56,0.18
23.9130,0.07,0.14,-1.00,3.97,2.26,0.37
23.9310,0.07,0.13,-1.00,3.11,2.44,0.49
23.9470,0.07,0.13,-0.99,3.60,3.05,0.61
23.9630,0.07,0.13,-0.99,3.30,2.69,0.49
23.9740,0.07,0.13,-0.99,3.60,2.56,-0.37
23.9830,0.07,0.13,-1.00,3.36,2.93,-0.31
24.0050,0.07,0.14,-1.00,3.48,2.44,-0.12
24.0230,0.07,0.14,-1.00,3.60,2.87,0.06
24.0390,0.07,0.14,-1.00,3.42,2.87,0.85
24.0550,0.07,0.14,-1.00,3.60,2.44,1.22
24.0710,0.07,0.13,-0.98,3.23,2.93,1.46
24.0870,0.07,0.13,-0.99,3.17,2.50,0.98
24.0890,0.07,0.13,-1.00,3.11,2.26,1.04
24.1180,0.07,0.13,-0.99,3.17,2.69,0.92
24.1230,0.07,0.12,-1.00,3.17,2.44,0.31
24.1380,0.07,0.13,-0.99,3.66,2.50,-0.24
24.1630,0.07,0.13,-0.99,3.72,2.50,0.55
24.1800,0.07,0.13,-1.00,3.48,2.32,1.04
24.1960,0.07,0.14,-1.00,3.42,2.50,0.98
24.1980,0.07,0.13,-0.99,3.23,2.56,1.22
24.2130,0.07,0.13,-0.99,3.54,2.14,1.34
24.2430,0.07,0.13,-1.00,3.42,2.14,1.83
24.2530,0.07,0.13,-0.99,3.97,2.50,1.77
24.2700,0.07,0.13,-0.99,4.21,2.93,1.46
24.2860,0.07,0.13,-1.00,3.60,2.81,1.04
24.3020,0.07,0.14,-0.99,3.42,2.62,1.04
24.3190,0.07,0.13,-1.00,3.66,2.44,1.46
24.3350,0.07,0.13,-1.00,3.66,2.26,1.65
24.3490,0.07,0.13,-0.99,3.42,2.75,1.40
24.3530,0.07,0.13,-1.00,3.17,2.38,1.10
24.3750,0.07,0.13,-0.99,3.48,2.44,1.34
24.3930,0.07,0.13,-1.00,3.85,2.50,1.22
24.4100,0.07,0.13,-0.99,3.66,2.99,1.16
24.4260,0.07,0.13,-1.00,3.42,2.69,0.92
24.4420,0.07,0.13,-0.99,3.30,2.62,0.67
24.4580,0.07,0.13,-0.99,3.30,2.62,0.18
24.4730,0.07,0.13,-0.99,3.78,2.81,0.73
24.4760,0.07,0.13,-1.00,3.60,2.81,0.98
24.4920,0.07,0.14,-0.99,3.54,2.62,1.34
24.5170,0.07,0.13,-1.00,3.66,2.56,1.59
24.5330,0.07,0.13,-0.99,3.36,2.20,1.59
24.5490,0.07,0.13,-0.99,3.54,2.50,1.22
24.5670,0.07,0.13,-0.99,3.60,3.23,0.73
24.5830,0.07,0.14,-0.99,3.72,2.75,0.55
24.6000,0.07,0.13,-0.99,3.66,2.69,1.28
24.6160,0.07,0.13,-0.99,3.36,2.26,1.28
24.6320,0.07,0.13,-0.99,3.60,2.75,0.92
24.6480,0.07,0.13,-1.00,3.23,2.44,0.73
24.6510,0.07,0.12,-1.00,3.66,2.81,0.85
24.6800,0.07,0.12,-1.00,3.60,2.62,0.98
24.6840,0.07,0.13,-0.99,3.78,2.44,0.37
24.7000,0.07,0.13,-0.99,3.17,2.38,0.18
24.7210,0.07,0.14,-0.99,4.09,2.75,-0.24
24.7390,0.07,0.14,-0.99,3.85,2.50,0.37
24.7540,0.07,0.14,-0.99,3.54,2.93,0.85
24.7700,0.07,0.14,-1.00,3.36,2.50,0.73
24.7900,0.07,0.14,-0.99,3.36,2.93,1.22
24.8050,0.07,0.13,-1.00,3.30,2.62,1.28
24.8200,0.07,0.13,-1.00,3.42,2.56,0.92
24.8360,0.07,0.13,-0.99,3.60,2.32,0.79
24.8430,0.07,0.13,-0.99,3.36,2.44,0.79
24.8700,0.07,0.13,-0.99,3.30,2.87,0.67
24.8760,0.07,0.13,-1.00,3.54,2.62,0.43
24.9000,0.07,0.13,-1.00,3.60,2.75,0.61
24.9150,0.07,0.14,-1.00,3.54,2.38,0.55
24.9250,0.07,0.13,-0.99,3.36,3.11,0.85
24.9420,0.07,0.13,-0.99,3.42,2.81,0.98
24.9590,0.07,0.13,-1.00,3.54,2.56,0.98
24.9750,0.07,0.13,-1.00,3.11,2.99,0.98
24.9910,0.07,0.13,-0.99,3.05,2.69,1.16
25.0070,0.07,0.13,-0.99,3.60,2.69,1.65
25.0230,0.07,0.13,-0.99,3.78,2.50,1.53
25.0270,0.07,0.13,-0.99,3.48,2.75,1.34
25.0550,0.07,0.13,-0.99,3.30,2.44,1.16
25.0710,0.07,0.12,-0.99,3.23,2.44,0.67
25.0760,0.07,0.13,-1.00,3.72,2.56,0.61
25.1020,0.07,0.13,-1.00,3.48,2.56,0.18
25.1190,0.07,0.12,-1.00,3.54,2.81,-0.24
25.1340,0.07,0.14,-0.99,3.54,2.87,-0.18
25.1490,0.07,0.14,-0.99,3.78,2.62,0.67
25.1580,0.07,0.14,-0.99,3.78,2.44,1.71
25.1760,0.07,0.13,-0.99,3.78,2.81,1.65
25.1930,0.07,0.13,-1.00,3.48,2.50,1.77
25.2090,0.07,0.13,-1.00,3.42,2.93,1.89
25.2250,0.07,0.12,-1.00,3.66,2.56,1.53
25.2410,0.07,0.13,-0.99,3.66,2.20,1.46
25.2570,0.07,0.13,-0.99,3.60,2.99,0.92
25.2730,0.06,0.12,-1.00,3.05,2.32,-0.73
25.2880,0.07,0.14,-1.00,3.36,2.56,-0.24
25.3040,0.07,0.14,-0.99,3.72,2.93,0.18
25.3190,0.07,0.14,-0.99,3.36,2.20,0.55
25.3350,0.07,0.13,-0.99,3.48,2.69,1.28
25.3420,0.07,0.13,-1.00,3.36,2.69,1.28
25.3650,0.07,0.13,-0.99,3.54,2.69,0.98
25.3810,0.07,0.12,-1.00,3.54,2.81,0.24
25.3920,0.07,0.12,-1.00,3.30,3.11,-0.67
25.4080,0.07,0.13,-0.99,3.42,2.99,-0.73
25.4250,0.07,0.12,-0.98,4.09,2.56,0.12
25.4410,0.07,0.11,-1.02,4.58,3.30,0.31
25.4420,0.07,0.12,-0.99,3.30,2.99,-1.22
25.4730,0.06,0.13,-0.99,4.46,3.05,-1.53
25.4890,0.07,0.15,-0.99,3.91,2.69,-1.28
25.5050,0.07,0.15,-0.99,3.23,2.69,-0.12
25.5210,0.07,0.13,-0.99,3.78,2.50,1.53
25.5370,0.07,0.13,-1.00,3.11,2.44,1.04
25.5520,0.07,0.13,-1.00,2.87,2.93,0.98
25.5590,0.07,0.13,-0.99,3.30,2.20,0.79
25.5750,0.07,0.13,-0.99,3.36,2.50,0.85
25.5950,0.07,0.13,-1.00,3.78,2.75,0.85
25.6130,0.07,0.12,-1.00,3.36,2.69,0.18
25.6290,0.07,0.13,-0.99,3.60,3.17,-0.49
25.6450,0.07,0.14,-0.99,3.78,3.30,0.06
25.6610,0.07,0.13,-1.00,3.66,2.75,0.49
25.6770,0.07,0.13,-0.99,3.54,3.11,0.79
25.6920,0.07,0.13,-0.99,3.60,3.05,0.61
25.7090,0.07,0.13,-0.99,3.23,2.93,0.43
25.7240,0.07,0.13,-1.00,3.42,2.87,0.31
25.7400,0.07,0.13,-1.00,3.42,2.81,0.24
25.7560,0.07,0.12,-1.00,3.30,3.11,-0.67
25.7710,0.07,0.13,-0.99,3.36,3.11,-1.59
25.7860,0.07,0.13,-1.00,3.72,3.17,-0.92
25.7950,0.07,0.13,-1.00,3.66,3.23,-0.98
25.8120,0.07,0.14,-0.99,3.78,2.81,-1.22
25.8290,0.07,0.13,-0.99,3.48,2.75,0.31
25.8450,0.07,0.13,-0.99,3.60,2.87,0.67
25.8620,0.07,0.12,-1.00,3.42,3.05,-0.18
25.8780,0.07,0.13,-0.99,3.42,3.11,-1.59
25.8940,0.07,0.13,-1.00,3.36,3.36,-1.77
25.9100,0.07,0.14,-0.99,3.91,3.48,-1.16
25.9260,0.07,0.13,-1.00,2.99,2.75,-1.10
25.9410,0.07,0.12,-0.99,3.42,2.81,-0.92
25.9570,0.07,0.13,-0.99,3.23,3.30,-1.77
25.9720,0.07,0.14,-0.99,4.15,2.62,0.06
25.9890,0.07,0.13,-0.99,3.97,2.38,1.65
26.0040,0.07,0.13,-0.99,3.60,2.20,1.46
26.0180,0.07,0.14,-0.99,3.78,2.75,1.46
26.0330,0.07,0.13,-0.99,3.54,2.81,1.65
26.0450,0.07,0.13,-1.00,3.72,2.87,1.89
26.0620,0.07,0.12,-1.00,3.60,2.99,1.59
26.0790,0.07,0.13,-1.00,3.36,3.05,1.16
26.0960,0.07,0.12,-1.00,3.42,2.69,0.55
26.1110,0.07,0.12,-1.00,3.23,2.87,-0.12
26.1280,0.07,0.13,-1.00,3.54,2.56,-0.24
26.1430,0.07,0.12,-1.00,3.85,2.44,-0.18
26.1590,0.07,0.13,-0.99,3.23,3.11,-0.85
26.1610,0.07,0.13,-0.99,3.91,3.05,-0.37
26.1770,0.08,0.11,-1.00,4.33,3.05,0.61
26.2050,0.08,0.12,-1.00,3.85,2.81,0.24
26.2150,0.07,0.15,-1.00,3.78,3.05,-1.34
26.2320,0.06,0.13,-0.99,4.58,2.62,-0.24
26.2470,0.07,0.15,-0.99,2.99,2.62,-0.31
26.2630,0.07,0.15,-0.99,3.66,2.75,0.61
26.2790,0.07,0.14,-0.99,3.85,2.75,1.34
26.2890,0.07,0.13,-0.99,3.42,2.26,1.65
26.3050,0.07,0.13,-1.00,3.36,2.75,1.89
26.3210,0.07,0.13,-0.99,3.17,2.87,1.71
26.3380,0.07,0.13,-1.00,3.54,2.56,1.46
26.3540,0.07,0.13,-1.00,3.30,2.56,1.34
26.3710,0.07,0.13,-0.99,3.42,2.26,0.98
26.3870,0.07,0.13,-0.99,3.60,2.69,0.98
26.4040,0.07,0.12,-1.00,3.72,2.62,0.98
26.4190,0.07,0.12,-1.00,3.72,2.44,0.49
26.4350,0.07,0.13,-0.99,3.17,2.87,-0.43
26.4500,0.07,0.13,-1.00,3.66,2.69,0.37
26.4670,0.07,0.12,-1.00,3.42,2.99,-15.32
26.4760,0.07,0.13,-0.99,3.05,2.81,-0.61
26.4870,0.10,0.10,-1.02,4.33,2.75,-0.43
26.5030,0.07,0.16,-0.99,1.40,2.38,-1.59
26.5270,0.06,0.13,-0.99,4.70,2.20,-0.06
26.5430,0.07,0.16,-0.99,2.87,2.44,-0.37
26.5600,0.07,0.14,-1.00,3.36,2.38,0.92
26.5750,0.07,0.14,-0.99,2.87,2.81,1.40
26.5910,0.07,0.13,-0.99,2.50,2.62,1.53
26.6080,0.07,0.13,-0.99,3.72,2.62,1.83
26.6100,0.07,0.13,-0.99,3.60,2.56,1.77
26.6260,0.07,0.13,-0.99,3.97,2.56,1.65
26.6560,0.07,0.13,-0.99,3.36,2.50,1.65
26.6720,0.07,0.13,-1.00,3.30,2.32,1.65
26.6880,0.07,0.13,-1.00,3.60,2.14,1.71
26.7040,0.07,0.12,-1.00,3.66,2.50,1.83
26.7200,0.07,0.13,-1.00,3.60,2.01,1.53
26.7360,0.07,0.13,-0.99,3.60,2.50,1.53
26.7430,0.07,0.13,-1.00,3.42,2.20,1.28
26.7590,0.07,0.13,-1.00,3.23,2.50,0.49
26.7800,0.07,0.14,-0.99,3.30,2.44,0.67
26.7960,0.07,0.13,-1.00,3.78,2.44,1.59
26.8130,0.07,0.13,-0.99,3.30,2.81,1.34
26.8290,0.07,0.13,-0.99,3.11,2.50,0.98
26.8440,0.07,0.13,-0.99,3.05,2.50,1.04
26.8590,0.06,0.12,-1.00,3.48,2.20,0.92
26.8740,0.07,0.13,-1.00,3.30,3.11,-0.18
26.8890,0.07,0.14,-1.00,3.17,2.99,0.06
26.9040,0.07,0.13,-0.99,3.23,2.69,-0.18
26.9200,0.07,0.15,-1.00,3.17,2.87,0.00
26.9340,0.07,0.14,-1.00,4.27,2.75,1.53
26.9460,0.07,0.12,-1.00,3.17,2.93,1.59
26.9620,0.07,0.13,-0.99,3.30,2.75,1.28
26.9800,0.07,0.13,-0.99,3.36,2.44,1.04
26.9960,0.07,0.13,-1.00,3.36,2.62,1.10
27.0120,0.07,0.12,-1.00,3.42,2.69,0.67
27.0280,0.07,0.11,-1.00,3.42,2.93,0.37
27.0430,0.07,0.13,-1.00,3.05,3.30,-2.14
27.0590,0.07,0.13,-1.00,4.03,3.17,-0.61
27.0740,0.07,0.11,-0.98,3.97,3.23,-0.55
27.0900,0.07,0.12,-1.00,3.60,3.66,-1.77
27.1060,0.07,0.15,-0.99,4.21,2.75,-1.04
27.1220,0.06,0.13,-0.99,4.52,2.62,-0.18
27.1380,0.07,0.13,-0.99,3.30,2.50,0.55
27.1540,0.07,0.14,-0.99,3.42,2.56,-0.73
27.1690,0.07,0.14,-0.99,3.42,2.81,0.43
27.1790,0.07,0.13,-0.99,3.17,2.56,0.61
27.1960,0.07,0.13,-1.00,3.54,2.50,0.85
27.2140,0.07,0.13,-1.00,3.42,2.56,0.85
27.2290,0.07,0.13,-0.99,3.30,2.75,0.31
27.2450,0.07,0.11,-1.00,3.48,2.69,-0.37
27.2620,0.07,0.13,-0.99,3.48,2.69,-1.34
27.2770,0.07,0.13,-0.99,3.85,2.50,-0.61
27.2930,0.07,0.13,-0.99,3.54,2.81,-0.49
27.3090,0.07,0.13,-1.00,3.48,2.93,-0.55
27.3120,0.07,0.13,-0.99,4.09,2.75,-0.31
27.3290,0.08,0.10,-1.03,4.76,3.17,-0.67
27.3510,0.07,0.14,-1.00,3.72,2.87,-2.69
27.3670,0.06,0.14,-0.99,4.15,2.56,-2.26
27.3840,0.07,0.16,-0.98,3.23,2.38,-0.67
27.4000,0.07,0.15,-0.99,3.72,2.44,1.22
27.4160,0.07,0.14,-1.00,3.54,2.44,1.40
27.4330,0.07,0.13,-0.99,3.05,2.56,1.59
27.4480,0.07,0.12,-1.00,3.05,2.50,1.53
27.4510,0.07,0.12,-1.00,3.66,2.38,1.10
27.4770,0.07,0.13,-1.00,3.72,2.62,0.85
27.4950,0.07,0.13,-1.00,3.42,2.62,0.79
27.5060,0.07,0.13,-1.00,3.30,2.81,0.55
27.5230,0.07,0.12,-0.99,3.05,2.44,-0.06
27.5390,0.07,0.13,-1.00,3.17,2.75,-0.18
27.5540,0.07,0.12,-1.00,3.60,2.87,0.31
27.5710,0.07,0.12,-0.99,3.36,3.05,-0.79
27.5770,0.07,0.13,-1.00,3.42,2.75,-0.55
27.5880,0.07,0.13,-1.00,3.66,2.69,-0.49
27.6180,0.07,0.13,-0.99,3.54,3.23,-0.24
27.6340,0.07,0.13,-1.00,3.78,2.62,0.43
27.6380,0.08,0.11,-1.00,4.21,2.62,0.79
27.6550,0.07,0.13,-0.99,2.50,3.23,-1.59
27.6810,0.06,0.13,-1.00,4.58,2.44,-0.61
27.6920,0.07,0.15,-0.99,3.66,2.99,-0.24
27.7080,0.07,0.15,-0.99,3.36,2.32,0.55
27.7260,0.07,0.14,-0.99,3.72,2.62,1.04
27.7270,0.07,0.13,-1.00,2.99,2.38,1.04
27.7580,0.07,0.13,-1.00,3.11,2.44,1.16
27.7730,0.07,0.13,-0.99,3.54,2.26,0.79
27.7890,0.07,0.12,-1.00,4.21,2.50,1.46
27.7950,0.07,0.13,-0.99,3.72,2.81,0.79
27.8100,0.07,0.12,-1.00,3.54,2.44,0.73
27.8310,0.07,0.12,-1.00,3.42,2.44,-0.37
27.8470,0.07,0.12,-1.00,3.54,2.81,-1.46
27.8650,0.07,0.13,-0.99,3.85,2.93,-1.16
27.8810,0.06,0.10,-0.97,3.85,3.05,-1.04
27.8970,0.09,0.10,-1.04,2.38,3.60,-3.17
27.9120,0.07,0.15,-1.00,2.50,3.23,-3.48
27.9280,0.06,0.13,-1.00,4.58,3.17,-2.38
27.9440,0.07,0.17,-0.99,3.05,3.11,-1.59
27.9590,0.07,0.14,-1.00,3.54,2.93,0.92
27.9740,0.07,0.13,-0.99,2.87,2.69,1.53
27.9900,0.07,0.13,-0.99,2.38,2.38,1.89
28.0050,0.07,0.13,-1.00,2.81,2.32,1.83
28.0140,0.07,0.13,-1.00,3.42,2.69,1.40
28.0310,0.07,0.13,-1.00,3.54,2.75,1.53
28.0480,0.07,0.13,-1.00,3.72,2.62,1.46
28.0650,0.07,0.13,-0.99,3.72,2.38,1.34
28.0810,0.07,0.13,-1.00,3.72,2.62,1.53
28.0960,0.07,0.13,-1.00,3.42,2.81,1.59
28.1120,0.07,0.13,-1.00,3.72,2.81,1.40
28.1270,0.07,0.12,-1.00,3.23,2.75,0.73
28.1430,0.07,0.12,-1.00,3.05,2.99,-0.31
28.1590,0.07,0.12,-0.99,3.42,2.99,-0.61
28.1750,0.07,0.12,-1.00,3.48,2.93,-0.61
28.1900,0.07,0.13,-1.00,2.93,3.23,-1.89
28.1980,0.07,0.14,-0.99,3.60,3.05,-1.59
28.2140,0.07,0.13,-0.99,3.60,2.32,-0.55
28.2360,0.07,0.14,-1.00,3.66,2.44,0.12
28.2510,0.07,0.13,-0.99,3.54,2.87,0.98
28.2680,0.07,0.12,-1.00,3.54,2.56,1.10
28.2790,0.07,0.12,-0.99,4.09,2.56,1.04
28.2850,0.09,0.10,-1.01,4.03,3.11,-0.06
28.3020,0.07,0.13,-1.00,3.54,3.05,-3.11
28.3180,0.06,0.13,-0.99,4.33,2.87,-3.23
28.3360,0.06,0.13,-0.98,3.91,2.81,-2.08
28.3520,0.07,0.13,-0.99,3.23,2.99,-2.44
28.3790,0.07,0.15,-1.00,4.58,3.23,-1.53
28.3850,0.07,0.14,-0.99,3.17,2.81,-1.40
28.4070,0.07,0.14,-0.99,3.30,3.30,-1.16
28.4240,0.07,0.14,-0.99,3.48,2.99,-0.79
28.4390,0.07,0.13,-0.99,3.66,2.81,0.18
28.4570,0.07,0.13,-0.99,3.60,2.75,0.49
28.4570,0.07,0.12,-1.00,3.54,2.56,0.73
28.4880,0.07,0.12,-0.99,3.54,2.81,0.18
28.4910,0.07,0.13,-0.99,3.23,2.69,-1.10
28.5200,0.07,0.13,-0.99,3.54,2.75,-0.24
28.5240,0.07,0.13,-1.00,3.60,2.44,0.37
28.5400,0.07,0.14,-0.99,3.42,2.44,0.55
28.5560,0.07,0.13,-1.00,3.42,2.56,1.16
28.5830,0.07,0.13,-0.99,3.23,2.81,0.98
28.5940,0.07,0.13,-1.00,3.78,2.38,1.10
28.6100,0.07,0.13,-0.99,3.42,2.81,1.04
28.6270,0.07,0.13,-1.00,3.60,2.81,0.49
28.6440,0.07,0.13,-1.00,3.54,2.93,0.49
28.6600,0.07,0.12,-1.00,3.78,2.81,0.37
28.6760,0.07,0.12,-0.99,3.72,2.93,-0.31
28.6910,0.07,0.11,-0.99,3.48,2.99,-0.67
28.7050,0.09,0.12,-1.01,4.21,3.54,-1.46
28.7210,0.07,0.12,-0.99,2.62,3.17,-2.56
28.7370,0.06,0.14,-0.99,4.46,3.36,-2.20
28.7530,0.07,0.15,-0.99,4.21,2.38,-0.85
28.7690,0.07,0.14,-0.99,3.85,2.81,0.61
28.7800,0.07,0.14,-0.99,3.48,2.56,0.98
28.7920,0.07,0.13,-1.00,2.93,2.75,1.46
28.8140,0.07,0.13,-0.99,3.42,2.81,1.71
28.8300,0.07,0.13,-1.00,3.54,2.99,1.71
28.8460,0.07,0.12,-1.00,3.72,2.44,1.10
28.8620,0.07,0.12,-0.99,3.42,2.93,0.67
28.8780,0.07,0.10,-0.99,2.93,3.23,-2.56
28.8810,0.07,0.14,-0.99,3.42,3.11,-1.59
28.9100,0.07,0.12,-1.00,4.03,3.05,-0.43
28.9250,0.08,0.11,-0.99,3.91,3.17,-1.28
28.9400,0.08,0.12,-1.02,4.52,3.48,-2.99
28.9550,0.06,0.15,-1.00,3.97,2.93,-1.95
28.9650,0.07,0.13,-0.99,4.39,2.75,-0.98
28.9810,0.07,0.14,-0.99,3.72,2.99,-0.67
28.9970,0.07,0.14,-0.99,3.72,2.99,-0.24
29.0140,0.07,0.14,-1.00,3.42,2.62,0.92
29.0310,0.07,0.14,-0.99,3.17,2.56,1.04
29.0470,0.07,0.13,-1.00,3.05,2.81,1.40
29.0640,0.07,0.13,-0.99,3.42,2.81,1.22
29.0810,0.07,0.12,-1.00,3.48,2.75,0.61
29.0970,0.06,0.10,-1.00,3.42,3.78,-1.22
29.1130,0.07,0.13,-0.99,3.11,3.11,-2.93
29.1280,0.07,0.11,-0.99,4.15,3.54,-2.50
29.1440,0.07,0.14,-0.99,3.54,3.17,-3.05
29.1600,0.08,0.13,-1.01,5.19,3.42,-1.40
29.1750,0.07,0.13,-0.98,3.23,2.99,-2.38
29.1910,0.07,0.15,-0.99,4.39,2.62,-0.49
29.2070,0.07,0.14,-1.00,4.21,2.93,0.06
29.2230,0.07,0.14,-0.99,2.93,3.17,-0.12
29.2370,0.07,0.13,-1.00,3.17,2.99,0.79
29.2480,0.07,0.12,-1.00,3.42,2.81,0.73
29.2640,0.06,0.11,-1.00,3.85,3.05,-1.77
29.2830,0.07,0.13,-0.99,2.69,3.30,-2.26
29.2990,0.07,0.12,-1.00,3.97,2.93,-1.16
29.3150,0.07,0.12,-1.00,3.42,3.42,-2.87
29.3300,0.07,0.14,-1.00,3.66,3.66,-3.30
29.3460,0.07,0.14,-0.99,3.72,3.78,-2.44
29.3620,0.07,0.14,-0.99,3.72,2.99,-0.67
29.3670,0.07,0.13,-1.00,3.91,2.87,-0.24
29.3940,0.07,0.11,-0.99,4.09,3.17,-0.31
29.4050,0.07,0.12,-1.00,3.17,3.23,-1.77
29.4220,0.06,0.14,-1.00,4.46,3.23,-1.77
29.4370,0.07,0.14,-0.99,3.85,3.23,-1.71
29.4540,0.07,0.15,-0.99,3.17,3.42,-0.92
29.4700,0.07,0.14,-1.00,3.36,2.99,0.12
29.4860,0.07,0.14,-0.99,3.48,2.87,0.61
29.5020,0.07,0.13,-0.99,3.17,2.93,1.04
29.5180,0.07,0.13,-1.00,3.11,2.99,0.73
29.5210,0.07,0.11,-1.00,3.54,3.17,0.31
29.5370,0.06,0.12,-1.01,3.66,3.23,-1.28
29.5640,0.07,0.13,-1.00,3.91,3.54,-1.34
29.5760,0.07,0.13,-0.99,3.66,3.42,-1.83
29.5930,0.07,0.14,-0.99,3.60,3.30,-1.77
29.6090,0.07,0.14,-1.00,3.60,3.11,-1.16
29.6260,0.07,0.13,-1.00,3.97,2.93,-0.12
29.6420,0.07,0.13,-0.99,3.05,2.87,-0.12
29.6570,0.07,0.13,-0.99,2.93,3.30,-0.06
29.6730,0.07,0.13,-1.00,3.17,2.69,0.73
29.6810,0.06,0.13,-0.99,3.54,2.81,1.10
29.6920,0.07,0.13,-1.00,3.60,2.81,0.85
29.7130,0.07,0.14,-0.99,3.11,2.99,0.55
29.7290,0.06,0.12,-1.00,3.54,2.20,1.53
29.7460,0.07,0.13,-0.99,3.36,2.81,1.04
29.7630,0.07,0.13,-1.00,3.36,2.56,1.10
29.7790,0.07,0.13,-1.00,3.23,2.44,1.59
29.7940,0.07,0.13,-1.00,3.48,2.81,1.40
29.8080,0.07,0.13,-1.00,3.54,2.75,1.46
29.8120,0.07,0.12,-1.00,3.17,2.38,1.40
29.8270,0.07,0.13,-1.00,3.36,2.14,1.10
29.8500,0.07,0.13,-1.00,3.23,2.62,0.98
29.8660,0.07,0.14,-0.99,3.42,2.44,-0.06
29.8830,0.07,0.13,-1.00,3.54,2.56,1.65
29.9000,0.07,0.13,-0.99,2.87,2.32,1.71
29.9170,0.07,0.11,-0.99,2.99,2.44,1.95
29.9330,0.07,0.13,-1.00,4.46,2.75,0.67
29.9490,0.06,0.11,-0.98,3.66,3.05,0.31
29.9650,0.08,0.12,-1.00,4.27,2.75,0.24
29.9810,0.06,0.12,-0.99,3.54,4.03,-3.17
29.9960,0.07,0.13,-0.99,4.15,2.50,0.61
30.0120,0.07,0.13,-0.99,4.09,2.32,1.04
30.0280,0.07,0.14,-0.99,3.66,2.99,-0.49
30.0430,0.08,0.13,-0.99,3.36,2.26,1.22
30.0500,0.07,0.13,-0.99,3.66,2.50,1.77
30.0730,0.07,0.13,-1.00,2.99,2.44,2.08
30.0830,0.07,0.13,-1.00,3.36,2.20,2.08
30.0990,0.06,0.13,-1.00,3.60,2.20,1.89
30.1190,0.07,0.13,-0.99,3.30,2.62,0.98
30.1220,0.07,0.12,-0.99,4.21,2.01,1.40
30.1500,0.07,0.13,-1.00,3.97,2.87,1.10
30.1650,0.07,0.13,-0.99,3.78,2.50,1.22
30.1720,0.07,0.13,-1.00,3.42,2.56,0.98
30.1880,0.07,0.12,-0.99,3.72,2.50,0.73
30.2060,0.05,0.12,-1.00,4.52,2.93,-0.31
30.2240,0.06,0.13,-1.00,5.00,3.42,-2.75
30.2390,0.07,0.13,-1.00,4.76,3.11,-2.62
30.2560,0.07,0.16,-0.99,3.78,3.17,-1.59
30.2570,0.07,0.13,-0.99,3.66,2.69,1.46
30.2880,0.07,0.13,-1.00,2.81,2.44,1.83
30.3040,0.07,0.13,-1.00,2.69,2.32,1.95
30.3210,0.07,0.12,-0.99,3.17,2.87,2.01
30.3230,0.07,0.13,-1.00,3.30,2.26,1.83
30.3520,0.07,0.13,-0.99,3.36,2.38,1.95
30.3560,0.07,0.13,-1.00,3.42,2.14,1.04
30.3830,0.05,0.09,-0.95,3.48,2.26,0.92
30.3880,0.05,0.11,-1.01,4.27,1.16,1.65
30.4100,0.07,0.14,-1.00,5.43,1.28,1.83
30.4270,0.07,0.13,-1.00,3.91,1.59,1.83
30.4430,0.07,0.13,-1.00,3.78,1.10,1.65
30.4590,0.07,0.13,-1.00,5.74,0.49,1.40
30.4750,0.07,0.14,-0.99,5.37,1.22,1.89
30.4910,0.07,0.13,-0.99,3.72,2.26,1.89
30.5080,0.07,0.13,-0.99,3.30,2.56,2.01
30.5230,0.07,0.13,-0.99,3.60,2.14,1.95
30.5400,0.07,0.13,-1.00,4.21,1.59,1.77
30.5550,0.07,0.14,-1.00,3.91,1.83,1.77
30.5710,0.07,0.14,-0.99,3.23,2.87,1.65
30.5870,0.07,0.13,-0.99,3.11,3.17,1.10
30.6040,0.07,0.13,-0.99,3.17,3.05,1.71
30.6190,0.09,0.14,-0.98,5.07,0.98,1.28
30.6340,0.14,0.15,-1.04,13.31,-2.50,-3.30
30.6490,0.03,0.14,-1.02,14.53,-3.60,-3.42
30.6590,0.05,0.13,-0.99,13.12,-2.93,-1.71
30.6760,0.08,0.15,-0.99,9.16,-0.24,0.92
30.6930,0.09,0.15,-0.98,3.23,3.91,2.14
30.7100,0.08,0.14,-1.00,-1.46,6.53,2.20
30.7260,0.07,0.13,-1.00,-1.53,7.08,2.56
30.7420,0.04,0.13,-1.00,-3.78,6.90,2.87
30.7580,0.05,0.14,-1.02,-2.14,5.92,3.36
30.7610,0.07,0.13,-0.96,-3.23,5.55,2.32
30.7900,0.09,0.13,-0.98,-0.43,5.98,1.28
30.8060,0.06,0.14,-1.01,1.46,2.93,1.40
30.8100,0.08,0.13,-0.99,3.17,2.87,1.40
30.8380,0.08,0.13,-0.99,2.75,3.48,1.71
30.8540,0.07,0.13,-0.99,3.36,2.26,1.95
30.8700,0.07,0.13,-0.99,3.85,2.20,2.08
30.8840,0.07,0.13,-1.00,3.66,2.87,2.20
30.8930,0.07,0.13,-0.99,3.11,3.05,2.08
30.9090,0.07,0.13,-0.99,3.11,2.87,2.08
30.9300,0.07,0.13,-0.99,2.93,2.56,1.95
30.9470,0.07,0.13,-0.99,3.23,2.81,2.01
30.9630,0.07,0.13,-0.99,3.11,2.93,2.01
30.9800,0.07,0.13,-0.99,3.30,2.62,2.08
30.9840,0.08,0.13,-0.99,3.48,3.23,2.20
31.0120,0.07,0.13,-1.00,3.30,2.81,2.14
31.0270,0.07,0.13,-0.99,3.30,2.81,2.01
31.0420,0.07,0.13,-0.99,3.23,2.75,1.89
31.0570,0.07,0.13,-1.00,3.48,2.69,2.20
31.0740,0.07,0.13,-1.00,3.66,2.38,2.14
31.0880,0.07,0.13,-0.99,3.23,2.69,2.01
31.1030,0.07,0.13,-0.99,2.99,3.17,1.95
31.1180,0.07,0.13,-1.00,3.11,2.14,1.89
31.1300,0.07,0.13,-0.99,3.54,2.32,1.95
31.1460,0.07,0.13,-0.99,4.33,2.56,2.14
31.1640,0.07,0.13,-1.00,3.23,2.93,1.89
31.1800,0.07,0.13,-1.00,3.17,2.62,1.89
31.1970,0.07,0.13,-1.00,3.36,2.56,2.20
31.2140,0.07,0.13,-0.99,3.48,2.56,2.14
31.2290,0.07,0.13,-0.99,3.66,2.56,2.20
31.2440,0.07,0.13,-1.00,3.85,2.44,2.08
31.2600,0.07,0.13,-1.00,3.48,2.50,2.01
31.2750,0.07,0.13,-1.00,3.23,2.93,2.08
31.2900,0.07,0.13,-0.99,3.54,2.26,1.95
31.3060,0.07,0.13,-0.99,3.05,2.62,1.95
31.3200,0.07,0.13,-0.99,3.05,2.26,2.08
31.3300,0.07,0.13,-1.00,3.11,2.44,1.95
31.3470,0.07,0.13,-0.99,3.48,2.32,2.20
31.3640,0.07,0.13,-0.99,3.42,2.56,2.01
31.3800,0.07,0.13,-0.99,3.36,2.69,2.20
31.3960,0.07,0.13,-1.00,3.60,2.01,2.01
31.4120,0.07,0.13,-0.99,3.66,2.08,2.01
31.4270,0.07,0.13,-1.00,3.11,2.32,1.83
31.4420,0.07,0.13,-1.00,3.42,2.38,1.89
31.4570,0.07,0.13,-0.99,3.54,2.44,2.01
31.4730,0.07,0.13,-0.99,3.60,2.32,2.20
31.4880,0.07,0.13,-0.99,3.72,2.32,1.89
31.5040,0.07,0.14,-1.00,3.42,2.20,1.95
31.5140,0.08,0.11,-1.01,3.11,2.26,1.89
31.5310,0.07,0.14,-0.99,3.42,2.56,-0.31
31.5480,0.07,0.13,-0.99,3.78,2.32,1.04
31.5650,0.07,0.14,-1.00,3.85,2.20,1.71
31.5800,0.07,0.13,-1.00,3.78,2.38,1.53
31.5970,0.07,0.13,-1.00,3.66,2.56,0.98
31.6130,0.07,0.12,-0.99,4.39,3.05,-0.85
31.6280,0.06,0.15,-0.99,4.39,2.87,-0.92
31.6440,0.07,0.14,-0.99,4.15,2.26,2.01
31.6580,0.07,0.13,-1.00,3.17,2.38,1.83
31.6740,0.07,0.13,-1.00,3.30,2.62,1.89
31.6900,0.07,0.13,-1.00,3.85,2.38,1.53
31.7060,0.07,0.13,-0.99,3.85,2.32,1.16
31.7130,0.08,0.11,-0.99,3.85,2.69,0.85
31.7290,0.06,0.14,-0.99,3.17,2.75,-0.55
31.7490,0.07,0.14,-1.00,4.15,2.50,1.40
31.7650,0.07,0.13,-0.99,2.87,2.26,0.73
31.7830,0.07,0.13,-0.99,3.42,2.56,0.43
31.7840,0.07,0.14,-0.99,3.54,2.69,-0.31
31.8140,0.07,0.14,-0.99,3.91,2.50,1.28
31.8300,0.07,0.13,-0.99,3.30,2.44,2.01
31.8440,0.07,0.13,-0.99,3.05,2.32,2.01
31.8600,0.07,0.14,-0.99,2.56,2.69,1.89
31.8750,0.07,0.13,-0.99,2.62,2.50,1.95
31.8900,0.07,0.13,-1.00,3.05,2.56,2.01
31.9040,0.07,0.13,-0.99,3.48,2.50,2.08
31.9160,0.07,0.13,-0.99,3.17,2.44,2.01
31.9320,0.07,0.13,-0.99,2.75,2.50,1.77
31.9490,0.07,0.13,-1.00,2.38,2.44,1.77
31.9670,0.07,0.13,-1.00,2.81,2.56,2.20
31.9820,0.07,0.14,-1.00,3.36,2.38,2.26
31.9980,0.07,0.13,-1.00,3.23,2.32,2.38
32.0160,0.07,0.13,-1.00,3.72,2.32,2.20
32.0310,0.07,0.13,-0.99,3.85,2.38,2.26
32.0480,0.07,0.13,-1.00,3.48,2.38,1.83
32.0500,0.07,0.13,-1.00,3.78,2.62,2.01
32.0660,0.07,0.13,-0.99,3.54,2.69,2.32
32.0850,0.07,0.13,-0.99,3.48,2.50,2.26
32.0990,0.07,0.13,-1.00,2.81,2.38,2.20
32.1180,0.07,0.13,-1.00,2.81,2.44,2.01
32.1350,0.07,0.13,-1.00,3.30,2.62,2.20
32.1520,0.07,0.13,-0.99,3.85,2.62,2.14
32.1680,0.07,0.13,-0.99,3.23,2.81,2.08
32.1860,0.07,0.13,-0.99,3.11,2.50,2.08
32.2020,0.07,0.13,-0.99,3.30,2.69,2.44
32.2030,0.07,0.13,-1.00,3.48,2.38,2.20
32.2180,0.07,0.13,-1.00,3.91,2.50,2.08
32.2480,0.07,0.13,-0.99,3.36,2.38,2.14
32.2650,0.07,0.13,-1.00,3.17,2.14,1.95
32.2800,0.07,0.13,-0.99,2.81,2.38,1.83
32.2860,0.07,0.13,-1.00,3.42,2.14,1.95
32.3020,0.07,0.13,-0.99,3.60,2.93,2.08
32.3230,0.07,0.13,-0.99,4.15,2.20,1.89
32.3390,0.07,0.13,-0.99,3.42,2.08,2.01
32.3560,0.07,0.13,-1.00,3.48,2.01,1.95
32.3720,0.07,0.13,-0.99,3.66,1.59,2.08
32.3880,0.07,0.13,-0.99,3.66,1.46,2.01
32.4040,0.07,0.13,-1.00,3.66,1.71,2.01
32.4190,0.07,0.13,-0.99,4.21,1.16,2.01
32.4230,0.08,0.14,-1.02,5.31,0.43,1.95
32.4380,0.07,0.13,-1.01,6.84,0.37,0.37
32.4650,0.07,0.13,-1.00,4.82,1.53,1.34
32.4760,0.08,0.14,-0.99,4.27,2.32,1.34
32.4930,0.07,0.13,-1.00,3.17,2.87,1.40
32.5100,0.07,0.13,-1.00,2.20,3.85,1.89
32.5260,0.10,0.15,-1.01,2.62,3.54,2.20
32.5420,0.07,0.14,-0.99,2.81,3.85,2.14
32.5570,0.07,0.13,-1.00,2.14,4.03,2.08
32.5720,0.07,0.13,-1.00,1.95,3.11,2.08
32.5880,0.07,0.13,-1.00,3.36,2.62,2.38
32.6030,0.07,0.13,-1.00,2.93,2.56,2.26
32.6190,0.07,0.13,-1.00,3.05,2.38,2.20
32.6340,0.07,0.13,-0.99,3.17,2.44,2.08
32.6490,0.07,0.13,-1.00,3.17,2.32,2.14
32.6600,0.07,0.13,-1.00,2.75,2.69,2.14
32.6760,0.07,0.13,-0.99,2.93,2.75,2.44
32.6930,0.07,0.13,-1.00,3.48,2.20,2.62
32.7090,0.07,0.13,-0.99,3.23,2.38,2.81
32.7240,0.07,0.14,-0.99,3.30,2.08,3.05
32.7390,0.07,0.13,-1.00,3.66,2.01,3.36
32.7440,0.07,0.13,-0.99,3.30,2.32,3.36
32.7710,0.07,0.12,-1.00,2.20,2.01,2.81
32.7850,0.07,0.13,-1.00,3.05,2.69,2.20
32.7930,0.07,0.13,-1.00,3.78,2.26,2.20
32.8140,0.06,0.13,-0.99,3.91,2.32,2.38
32.8300,0.05,0.14,-0.99,3.23,2.44,2.50
32.8470,0.06,0.12,-0.99,3.78,2.62,2.50
32.8630,0.07,0.13,-1.00,4.09,2.56,2.75
32.8790,0.08,0.13,-1.00,3.91,2.69,2.75
32.8940,0.07,0.14,-0.99,2.93,2.75,2.81
32.9090,0.07,0.13,-0.99,4.09,2.38,2.69
32.9230,0.09,0.12,-0.99,2.81,3.11,0.06
32.9390,0.07,0.14,-1.00,4.15,2.75,1.16
32.9540,0.07,0.13,-1.00,3.72,3.17,1.34
32.9690,0.08,0.14,-0.99,3.60,2.38,1.22
32.9800,0.07,0.13,-0.99,2.93,2.62,1.71
32.9970,0.07,0.13,-0.99,2.50,2.81,2.08
33.0130,0.06,0.13,-0.99,2.93,2.81,2.20
33.0290,0.07,0.13,-1.00,3.60,2.81,2.20
33.0440,0.06,0.13,-1.00,3.36,3.42,2.08
33.0590,0.07,0.13,-1.00,3.23,3.17,2.01
33.0740,0.08,0.13,-0.99,2.93,3.05,1.89
33.0890,0.07,0.13,-0.99,3.05,2.62,2.32
33.0970,0.07,0.13,-0.99,2.93,2.62,2.32
33.1140,0.06,0.13,-1.00,2.99,2.81,2.26
33.1310,0.07,0.13,-1.00,3.60,2.69,1.77
33.1470,0.08,0.13,-0.99,2.87,3.17,1.40
33.1640,0.07,0.13,-1.00,3.30,2.50,2.08
33.1790,0.07,0.13,-0.99,3.05,2.62,2.14
33.1860,0.07,0.13,-0.99,3.17,2.38,1.95
33.2090,0.06,0.13,-1.00,2.99,2.32,1.89
33.2250,0.07,0.13,-0.99,3.17,2.26,2.14
33.2400,0.07,0.13,-1.00,2.99,2.75,2.26
33.2550,0.07,0.13,-1.00,3.05,2.75,1.95
33.2700,0.07,0.13,-1.00,3.60,2.32,2.01
33.2860,0.07,0.13,-0.99,3.42,2.69,2.08
33.2970,0.08,0.14,-1.01,4.15,2.26,1.71
33.3140,0.06,0.13,-0.99,2.81,2.62,1.89
33.3300,0.07,0.13,-1.00,3.48,2.75,1.89
33.3460,0.06,0.13,-0.99,2.99,2.87,2.01
33.3610,0.06,0.13,-0.99,3.48,2.62,2.44
33.3760,0.07,0.13,-1.00,3.85,2.75,2.20
33.3920,0.07,0.13,-1.00,3.30,2.20,2.01
33.4070,0.06,0.12,-0.99,3.23,2.50,2.14
33.4210,0.07,0.12,-0.99,2.81,2.87,2.38
33.4300,0.07,0.13,-0.99,3.30,2.32,2.26
33.4470,0.07,0.13,-1.00,3.17,2.32,2.26
33.4690,0.06,0.13,-1.00,3.36,2.62,2.20
33.4850,0.06,0.13,-1.00,3.11,2.99,2.81
33.5010,0.09,0.13,-1.00,3.48,2.62,2.87
33.5030,0.07,0.13,-0.99,3.72,2.62,2.75
33.5320,0.07,0.12,-1.00,3.42,2.26,2.38
33.5370,0.07,0.12,-0.99,2.69,2.38,2.20
33.5640,0.07,0.13,-1.00,3.36,2.26,2.08
33.5700,0.07,0.13,-1.00,3.30,2.32,2.26
33.5850,0.07,0.13,-1.00,3.17,2.14,2.32
33.6080,0.06,0.13,-1.00,3.72,3.05,2.38
33.6250,0.06,0.13,-0.99,3.48,2.62,2.14
33.6410,0.07,0.13,-1.00,3.30,2.69,2.08
33.6580,0.07,0.13,-1.00,3.17,2.38,2.44
33.6710,0.06,0.13,-0.99,3.11,2.62,2.81
33.6880,0.08,0.12,-0.99,3.17,2.87,2.87
33.7040,0.07,0.13,-1.00,3.91,2.14,2.44
33.7190,0.06,0.13,-0.99,3.11,2.32,2.50
33.7250,0.07,0.13,-1.00,3.17,2.26,2.56
33.7410,0.07,0.13,-1.00,3.11,2.32,2.50
33.7620,0.06,0.13,-0.99,2.99,2.38,2.44
33.7790,0.06,0.13,-1.00,3.05,2.44,2.32
33.7950,0.07,0.13,-1.00,2.99,2.38,2.32
33.8110,0.07,0.13,-1.00,3.17,2.32,2.38
33.8260,0.07,0.13,-1.00,3.23,2.44,2.26
33.8410,0.07,0.13,-1.00,3.42,2.14,2.20
33.8460,0.06,0.13,-0.99,3.30,2.14,2.14
33.8620,0.06,0.13,-1.00,3.30,2.20,2.14
33.8860,0.06,0.13,-0.99,3.36,2.87,2.26
33.8990,0.06,0.13,-0.99,3.23,2.81,2.50
33.9160,0.06,0.13,-0.99,3.97,2.62,2.50
33.9320,0.07,0.13,-0.99,3.97,2.32,2.32
33.9480,0.08,0.14,-1.01,3.97,2.44,2.14
33.9640,0.06,0.12,-0.99,3.17,3.05,2.26
33.9660,0.08,0.13,-1.00,4.15,2.26,2.14
33.9860,0.07,0.13,-1.00,3.23,3.05,1.83
34.0020,0.06,0.12,-0.99,3.23,2.99,2.01
34.0180,0.07,0.13,-0.99,3.85,2.62,2.08
34.0360,0.06,0.13,-1.00,3.48,2.56,1.83
34.0520,0.06,0.13,-1.00,3.42,2.32,1.95
34.0690,0.07,0.13,-1.00,3.11,3.23,2.01
34.0860,0.07,0.12,-1.00,2.62,2.50,1.95
34.1020,0.06,0.13,-1.00,3.54,2.26,2.26
34.1030,0.06,0.13,-0.99,3.66,2.50,2.50
34.1330,0.07,0.13,-0.99,3.42,2.69,2.08
34.1360,0.06,0.12,-1.00,2.81,2.38,2.14
34.1520,0.07,0.13,-1.00,3.30,2.69,2.01
34.1680,0.07,0.13,-1.00,3.23,2.38,1.71
34.1890,0.06,0.13,-1.00,3.23,2.50,2.20
34.2060,0.07,0.13,-1.00,2.93,2.50,2.38
34.2230,0.06,0.13,-0.99,3.05,2.08,2.08
34.2400,0.07,0.13,-1.00,3.11,2.38,2.20
34.2550,0.06,0.13,-0.99,3.30,2.44,2.20
34.2710,0.07,0.13,-1.00,3.85,2.14,2.32
34.2880,0.07,0.12,-1.00,3.11,1.83,2.20
34.2900,0.06,0.12,-0.99,3.54,2.26,2.01
34.3180,0.06,0.13,-1.00,3.66,2.50,2.20
34.3230,0.06,0.13,-1.00,3.48,1.83,2.08
34.3490,0.06,0.13,-1.00,3.60,2.14,2.08
34.3570,0.06,0.13,-0.99,3.66,2.01,1.71
34.3790,0.07,0.13,-1.00,4.09,2.32,1.40
34.3890,0.06,0.12,-0.99,3.60,2.38,1.40
34.4060,0.06,0.13,-0.99,3.72,2.62,1.28
34.4230,0.07,0.13,-1.00,3.60,2.08,1.22
34.4390,0.06,0.13,-0.99,3.48,2.38,1.71
34.4400,0.07,0.13,-0.99,3.97,2.20,2.08
34.4560,0.07,0.12,-0.99,3.36,2.44,2.20
34.4860,0.07,0.12,-0.99,3.11,2.01,2.44
34.4900,0.07,0.13,-1.00,3.23,2.38,2.26
34.5180,0.07,0.13,-1.00,3.30,2.26,2.14
34.5230,0.06,0.12,-0.99,3.23,2.08,2.08
34.5410,0.07,0.12,-0.99,3.85,1.95,1.83
34.5560,0.06,0.13,-0.99,3.60,2.69,1.59
34.5730,0.06,0.13,-0.99,3.85,2.01,1.53
34.5890,0.06,0.12,-0.99,3.17,2.14,1.04
34.6060,0.05,0.13,-1.00,3.48,3.17,1.16
34.6230,0.06,0.13,-0.99,3.72,2.26,0.67
34.6390,0.07,0.13,-1.00,3.66,2.44,1.22
34.6400,0.06,0.13,-0.99,3.30,2.69,1.77
34.6570,0.07,0.12,-1.00,3.48,2.32,2.01
34.6860,0.06,0.13,-0.99,3.66,2.26,1.95
34.6900,0.07,0.13,-1.00,3.36,2.75,2.01
34.7050,0.07,0.13,-1.00,3.48,2.75,2.01
34.7300,0.07,0.13,-1.00,2.69,2.62,1.95
34.7460,0.06,0.13,-0.99,2.99,2.44,2.26
34.7620,0.06,0.12,-0.99,3.48,2.44,2.62
34.7770,0.07,0.13,-1.00,3.85,2.50,2.62
34.7920,0.07,0.13,-0.99,3.48,2.20,2.26
34.7960,0.07,0.13,-1.00,3.36,2.56,2.20
34.8120,0.07,0.12,-1.00,3.05,2.32,2.14
34.8330,0.06,0.12,-0.99,3.54,2.44,2.32
34.8500,0.08,0.14,-1.01,3.97,1.89,2.08
34.8660,0.06,0.12,-1.00,2.62,2.08,1.59
34.8830,0.06,0.13,-0.99,3.30,2.93,1.95
34.9000,0.06,0.13,-1.00,3.30,2.26,1.77
34.9160,0.07,0.13,-1.00,3.48,2.08,2.08
34.9320,0.07,0.12,-0.99,3.42,1.71,2.14
34.9470,0.07,0.13,-1.00,3.85,2.01,2.14
34.9500,0.07,0.13,-0.99,3.48,2.08,2.01
34.9660,0.07,0.13,-1.00,3.30,1.40,1.83
34.9880,0.07,0.12,-0.99,2.62,1.16,1.83
35.0040,0.07,0.13,-0.99,2.56,0.98,1.71
35.0190,0.06,0.13,-0.99,3.17,1.16,1.77
35.0400,0.07,0.12,-0.99,3.42,0.98,1.65
35.0560,0.07,0.13,-1.00,2.99,1.46,1.77
35.0570,0.07,0.13,-1.00,3.17,1.16,1.59
35.0870,0.07,0.12,-0.99,2.14,1.46,1.40
35.1030,0.07,0.12,-1.00,2.20,1.16,1.59
35.1190,0.07,0.12,-1.00,2.99,1.46,1.89
35.1240,0.07,0.12,-0.99,3.54,1.46,1.77
35.1410,0.07,0.13,-1.00,3.66,1.71,1.89
35.1650,0.07,0.13,-0.99,3.48,1.40,1.77
35.1780,0.07,0.13,-0.99,2.69,1.95,1.83
35.1950,0.07,0.12,-1.00,2.62,1.95,1.77
35.2110,0.07,0.12,-0.99,2.50,2.14,1.83
35.2260,0.07,0.12,-0.99,2.87,1.65,1.71
35.2410,0.07,0.12,-1.00,2.81,1.95,1.89
35.2560,0.07,0.12,-0.99,2.87,1.77,1.83
35.2710,0.07,0.13,-1.00,3.36,1.83,1.83
35.2870,0.07,0.12,-1.00,3.54,1.65,2.01
35.3020,0.07,0.13,-0.99,3.97,1.40,2.01
35.3170,0.07,0.13,-1.00,3.48,2.08,2.01
35.3270,0.06,0.12,-1.00,3.05,2.20,1.95
35.3430,0.08,0.12,-0.99,3.05,2.20,4.21
35.3650,0.07,0.13,-1.00,4.03,2.26,2.26
35.3800,0.07,0.12,-0.99,3.54,1.77,1.89
35.3940,0.07,0.12,-1.00,3.48,2.14,1.95
35.4090,0.07,0.13,-1.00,3.36,2.08,1.89
35.4240,0.07,0.12,-0.99,3.54,2.01,1.95
35.4330,0.07,0.13,-1.00,3.66,2.20,2.01
35.4490,0.07,0.12,-0.99,3.85,2.32,2.08
35.4660,0.07,0.13,-0.99,4.52,1.59,2.08
35.4830,0.07,0.12,-1.00,4.27,2.26,2.20
35.5000,0.07,0.12,-1.00,3.23,2.62,2.69
35.5170,0.07,0.13,-0.99,3.42,2.32,2.81
35.5330,0.07,0.12,-1.00,3.30,2.32,2.08
35.5490,0.07,0.12,-0.99,3.54,2.69,2.14
35.5650,0.07,0.12,-0.99,3.85,2.38,2.08
35.5810,0.07,0.13,-1.00,3.42,2.69,1.95
35.5970,0.07,0.13,-1.00,3.78,2.50,1.95
35.6130,0.07,0.13,-1.00,3.54,2.14,1.89
35.6160,0.07,0.13,-1.00,3.48,2.20,1.89
35.6320,0.07,0.12,-0.99,3.54,2.20,2.01
35.6560,0.07,0.12,-0.99,3.72,2.26,2.14
35.6720,0.08,0.13,-0.99,3.54,2.75,1.95
35.6890,0.07,0.10,-1.00,0.49,4.27,2.01
35.7060,0.08,0.12,-1.00,3.85,2.26,2.01
35.7220,0.07,0.10,-1.00,3.30,2.38,1.95
35.7240,0.07,0.12,-1.00,2.87,2.69,2.08
35.7540,0.07,0.12,-1.00,3.23,2.69,2.08
35.7570,0.07,0.13,-1.00,3.42,2.08,1.89
35.7860,0.07,0.12,-0.99,3.54,2.26,2.01
35.8020,0.07,0.13,-1.00,3.42,2.38,1.89
35.8180,0.07,0.12,-1.00,3.42,2.56,2.08
35.8230,0.07,0.12,-1.00,3.54,2.20,2.01
35.8380,0.07,0.13,-1.00,3.85,2.26,1.77
35.8620,0.07,0.13,-1.00,3.78,2.01,1.89
35.8790,0.07,0.13,-0.99,3.60,2.38,1.95
35.8960,0.07,0.13,-0.99,3.72,2.44,1.95
35.9110,0.07,0.12,-1.00,3.48,2.87,2.08
35.9270,0.07,0.12,-1.00,3.60,2.38,1.89
35.9430,0.07,0.13,-1.00,3.66,2.69,1.95
35.9580,0.07,0.12,-0.99,3.66,2.14,1.95
35.9740,0.07,0.13,-1.00,3.85,2.56,2.08
35.9890,0.07,0.13,-0.99,3.85,2.69,2.08
35.9950,0.07,0.13,-1.00,3.30,2.56,2.08
36.0190,0.07,0.13,-1.00,3.17,2.69,2.08
36.0280,0.07,0.13,-1.00,3.05,2.20,2.01
36.0440,0.07,0.13,-1.00,3.11,2.14,1.95
36.0650,0.07,0.12,-0.99,3.05,1.95,1.71
36.0810,0.07,0.12,-0.99,2.14,1.89,1.89
36.0970,0.06,0.12,-1.01,1.65,2.93,2.08
36.1140,0.07,0.14,-1.00,3.66,1.77,1.95
36.1300,0.06,0.12,-1.00,1.65,2.38,1.71
36.1460,0.07,0.13,-1.00,3.30,2.44,1.95
36.1480,0.08,0.12,-0.99,3.30,1.83,1.89
36.1630,0.07,0.12,-0.99,3.48,2.62,2.08
36.1880,0.07,0.13,-1.00,3.91,2.50,2.20
36.2010,0.07,0.12,-1.00,3.42,2.32,2.44
36.2190,0.08,0.12,-1.00,3.36,2.50,2.62
36.2360,0.07,0.12,-0.99,3.17,2.69,2.20
36.2520,0.07,0.12,-1.00,3.36,2.99,2.20
36.2690,0.07,0.12,-1.00,3.42,2.44,1.89
36.2840,0.07,0.12,-0.99,3.36,2.56,2.08
36.3010,0.07,0.12,-1.00,3.23,2.56,1.95
36.3020,0.07,0.13,-1.00,3.42,2.56,2.20
36.3190,0.07,0.12,-0.99,3.36,2.50,2.01
36.3350,0.07,0.12,-1.00,3.72,2.32,1.89
36.3650,0.07,0.12,-1.00,3.78,2.81,2.14
36.3690,0.07,0.12,-1.00,3.60,2.75,2.14
36.3890,0.07,0.13,-1.00,3.66,2.75,2.08
36.4020,0.07,0.12,-1.00,3.66,2.32,2.08
36.4230,0.05,0.13,-1.00,4.52,2.56,2.81
36.4400,0.08,0.12,-1.00,4.33,2.26,3.11
36.4560,0.07,0.13,-1.00,4.64,2.38,2.50
36.4730,0.07,0.12,-0.99,4.03,2.69,2.44
36.4890,0.07,0.13,-1.00,4.82,2.62,2.20
36.4900,0.07,0.13,-1.00,4.03,2.93,2.20
36.5050,0.07,0.13,-1.00,3.72,2.75,2.14
36.5360,0.06,0.13,-0.99,3.23,2.93,2.26
36.5520,0.06,0.13,-0.99,3.42,3.05,2.44
36.5570,0.08,0.12,-1.00,3.72,2.99,2.14
36.5730,0.07,0.12,-1.00,3.97,2.44,2.08
36.5890,0.06,0.13,-0.99,3.72,2.44,2.32
36.6120,0.08,0.13,-1.00,4.21,2.69,2.26
36.6280,0.08,0.12,-1.00,3.91,2.32,2.14
36.6450,0.07,0.13,-0.99,3.91,2.26,1.95
36.6610,0.07,0.13,-1.00,3.66,2.75,2.01
36.6770,0.07,0.13,-0.99,3.54,2.56,1.83
36.6940,0.07,0.13,-0.99,3.78,3.11,1.83
36.6960,0.07,0.13,-1.00,3.91,2.75,1.95
36.7250,0.07,0.13,-0.99,3.78,2.38,1.95
36.7400,0.07,0.13,-1.00,3.66,2.38,1.83
36.7560,0.07,0.13,-1.00,3.66,2.32,1.95
36.7610,0.07,0.13,-1.00,3.97,2.44,1.95
36.7770,0.06,0.13,-1.00,3.85,2.32,2.20
36.7980,0.06,0.13,-1.00,4.03,2.38,1.77
36.8150,0.06,0.13,-0.99,3.85,2.99,-0.06
36.8310,0.09,0.13,-0.99,4.09,2.56,0.67
36.8470,0.07,0.13,-1.00,3.78,2.32,1.34
36.8490,0.07,0.13,-1.00,3.78,2.56,1.59
36.8800,0.08,0.13,-0.99,3.48,2.38,1.34
36.8960,0.07,0.13,-1.00,3.48,2.44,1.53
36.9120,0.06,0.12,-0.99,2.14,2.44,1.71
36.9270,0.07,0.13,-1.00,2.99,2.69,2.01
36.9320,0.07,0.13,-1.00,3.85,2.44,2.14
36.9480,0.07,0.13,-1.00,3.72,2.50,1.83
36.9680,0.07,0.13,-1.00,3.36,2.44,1.83
36.9900,0.06,0.13,-1.00,2.99,2.50,1.77
37.0010,0.08,0.13,-1.00,3.42,2.26,1.65
37.0210,0.07,0.13,-1.00,3.42,2.26,1.71
37.0370,0.07,0.13,-1.00,3.72,2.75,1.89
37.0530,0.07,0.13,-0.99,3.30,2.50,1.77
37.0690,0.07,0.13,-1.00,3.17,2.38,1.77
37.0730,0.07,0.13,-1.00,3.17,2.32,1.83
37.1010,0.07,0.13,-1.00,3.30,2.56,1.89
37.1160,0.07,0.13,-1.00,3.48,2.62,1.71
37.1230,0.07,0.13,-1.00,3.48,2.50,2.01
37.1390,0.07,0.13,-0.99,3.54,2.26,1.77
37.1610,0.07,0.13,-0.99,3.11,2.75,1.89
37.1780,0.07,0.13,-1.00,3.36,2.56,1.77
37.1950,0.06,0.13,-0.99,3.60,2.62,1.83
37.2120,0.06,0.13,-1.00,3.60,2.26,1.77
37.2280,0.06,0.13,-1.00,3.85,2.26,1.77
37.2430,0.07,0.13,-1.00,3.78,2.26,1.65
37.2580,0.06,0.12,-0.98,2.20,2.14,2.08
37.2740,0.07,0.13,-1.00,3.23,2.32,1.46
37.2890,0.07,0.13,-1.01,4.03,2.62,1.83
37.2960,0.07,0.12,-1.00,3.30,2.75,1.77
37.3120,0.08,0.13,-0.99,4.09,2.56,1.34
37.3270,0.08,0.13,-1.00,3.72,2.14,1.46
37.3490,0.07,0.13,-0.99,3.54,2.56,1.59
37.3660,0.07,0.13,-0.99,3.23,2.38,1.65
37.3830,0.07,0.13,-1.00,3.23,2.32,1.95
37.3980,0.07,0.13,-1.00,3.54,1.95,1.89
37.4150,0.07,0.13,-1.00,3.42,1.95,1.95
37.4310,0.06,0.13,-1.00,3.36,2.26,1.83
37.4490,0.08,0.13,-0.99,3.66,2.32,1.40
37.4650,0.07,0.13,-0.99,4.09,2.32,1.71
37.4800,0.06,0.13,-1.00,4.21,2.56,1.53
37.4960,0.06,0.13,-1.00,4.27,2.44,1.10
37.5100,0.08,0.13,-0.99,3.60,2.99,0.06
37.5260,0.07,0.13,-1.00,3.23,2.50,1.40
37.5410,0.06,0.13,-0.99,3.85,2.69,1.34
37.5490,0.08,0.13,-0.99,3.36,2.69,1.16
37.5650,0.07,0.13,-1.00,3.60,2.50,1.71
37.5810,0.06,0.13,-0.99,3.48,2.87,1.59
37.6030,0.07,0.13,-0.99,3.36,2.75,1.34
37.6190,0.07,0.13,-1.00,3.11,2.26,1.83
37.6360,0.06,0.13,-0.99,3.30,2.69,1.65
37.6520,0.06,0.13,-1.00,3.60,2.62,1.16
37.6680,0.06,0.13,-0.99,4.03,2.93,0.79
37.6840,0.07,0.13,-1.00,3.60,2.14,0.24
37.7000,0.06,0.13,-1.00,3.48,2.14,0.12
37.7030,0.06,0.12,-1.00,4.21,2.50,0.06
37.7210,0.06,0.13,-0.99,4.15,2.75,0.31
37.7360,0.07,0.13,-1.00,3.91,2.56,0.49
37.7590,0.05,0.16,-1.07,3.48,2.38,0.92
37.7750,0.08,0.14,-1.01,3.11,3.97,1.46
37.7920,0.06,0.12,-0.99,2.75,3.05,0.73
37.8080,0.08,0.13,-1.00,4.46,2.56,0.61
37.8240,0.07,0.14,-1.00,2.01,2.14,1.16
37.8390,0.09,0.13,-1.00,3.42,3.11,1.83
37.8550,0.08,0.13,-1.00,2.69,2.44,1.83
37.8580,0.07,0.13,-0.99,2.87,3.11,1.89
37.8740,0.07,0.13,-1.00,3.23,2.75,2.14
37.9000,0.07,0.13,-0.99,3.54,2.81,2.01
37.9110,0.07,0.13,-0.99,3.23,2.62,1.83
37.9270,0.07,0.13,-0.99,3.17,2.20,1.89
37.9460,0.07,0.13,-1.00,3.60,2.38,2.08
37.9620,0.07,0.13,-0.99,3.60,2.14,2.01
37.9780,0.07,0.13,-0.99,3.42,2.56,2.01
37.9920,0.07,0.13,-1.00,3.48,2.32,1.95
38.0070,0.07,0.13,-1.00,3.36,2.56,2.01
38.0220,0.07,0.13,-0.99,3.36,2.81,2.01
38.0320,0.07,0.13,-1.00,3.48,2.38,1.83
38.0480,0.07,0.13,-1.00,3.42,2.26,1.95
38.0640,0.07,0.13,-0.99,3.30,2.26,1.95
38.0870,0.07,0.13,-1.00,3.23,2.32,2.01
38.1030,0.07,0.13,-0.99,3.42,2.56,1.83
38.1190,0.07,0.13,-1.00,3.48,2.56,2.14
38.1200,0.07,0.13,-1.00,3.66,2.50,2.01
38.1510,0.07,0.13,-1.00,3.30,2.26,1.83
38.1680,0.07,0.13,-1.00,3.36,2.38,2.14
38.1700,0.07,0.13,-1.00,3.72,2.32,1.77
38.1930,0.07,0.13,-0.99,3.72,2.38,2.20
38.2130,0.07,0.13,-1.00,3.54,2.69,2.01
38.2240,0.07,0.13,-1.00,3.17,2.62,2.01
38.2410,0.07,0.13,-0.99,3.30,2.44,1.95
38.2580,0.06,0.13,-0.99,3.54,2.44,2.01
38.2730,0.08,0.13,-1.00,3.85,3.36,1.89
38.2890,0.07,0.13,-1.00,3.97,2.26,2.01
38.3060,0.07,0.13,-0.99,3.60,2.99,2.01
38.3220,0.07,0.13,-1.00,3.30,2.75,2.01
38.3380,0.07,0.13,-1.00,3.36,2.56,1.95
38.3540,0.07,0.13,-0.99,3.66,2.75,2.01
38.3700,0.07,0.13,-1.00,3.11,2.14,1.89
38.3860,0.07,0.13,-1.00,3.66,2.38,1.89
38.4020,0.07,0.13,-1.00,3.36,2.08,1.89
38.4170,0.07,0.13,-1.00,3.23,1.89,1.71
38.4320,0.06,0.13,-1.00,3.48,2.56,1.83
38.4470,0.07,0.13,-1.00,3.54,2.38,1.71
38.4570,0.07,0.13,-0.99,3.36,2.32,1.83
38.4740,0.07,0.13,-0.99,2.99,2.38,1.83
38.4930,0.07,0.13,-1.00,3.78,2.38,2.01
38.5080,0.07,0.13,-0.99,3.54,2.14,1.83
38.5240,0.07,0.13,-0.99,3.05,1.95,1.95
38.5400,0.07,0.13,-0.99,2.99,1.95,1.83
38.5560,0.07,0.13,-1.00,3.30,1.77,1.77
38.5720,0.07,0.13,-1.00,3.23,1.34,1.71
38.5870,0.07,0.13,-0.99,3.17,1.10,1.71
38.6020,0.07,0.12,-1.00,2.14,0.67,1.65
38.6170,0.07,0.13,-0.99,3.66,0.79,1.89
38.6280,0.07,0.13,-1.00,2.56,1.59,1.71
38.6440,0.06,0.12,-0.99,1.59,1.71,0.98
38.6610,0.08,0.13,-1.00,2.56,1.71,1.34
38.6780,0.06,0.12,-1.00,1.95,1.53,1.71
38.6940,0.09,0.11,-0.95,0.85,1.22,1.95
38.6950,0.07,0.12,-0.99,2.14,2.14,1.71
38.7250,0.07,0.12,-0.99,1.95,2.01,2.08
38.7400,0.07,0.12,-0.99,3.11,2.32,1.95
38.7560,0.07,0.12,-0.99,2.81,1.95,1.95
38.7620,0.07,0.13,-1.00,3.72,1.77,1.95
38.7870,0.07,0.13,-1.00,3.48,2.20,2.14
38.8040,0.07,0.12,-1.00,3.66,1.95,2.14
38.8200,0.07,0.12,-1.00,3.60,2.32,2.08
38.8370,0.08,0.13,-0.99,4.03,2.50,2.20
38.8510,0.07,0.13,-1.00,4.03,2.81,2.01
38.8660,0.07,0.13,-1.00,4.15,2.62,2.08
38.8780,0.07,0.13,-0.99,3.66,2.62,2.01
38.8940,0.07,0.13,-1.00,3.60,2.69,2.01
38.9110,0.07,0.13,-1.00,3.60,2.62,2.08
38.9280,0.07,0.13,-1.00,3.54,2.69,1.95
38.9440,0.07,0.12,-1.00,3.78,2.50,2.01
38.9590,0.07,0.12,-0.99,3.91,2.56,1.89
38.9740,0.07,0.13,-0.99,3.91,2.44,2.08
38.9780,0.07,0.13,-0.99,3.72,2.81,2.01
38.9940,0.08,0.13,-0.99,3.30,2.75,2.32
39.0140,0.07,0.13,-1.00,3.60,2.62,2.20
39.0310,0.06,0.13,-1.00,3.36,2.62,2.26
39.0470,0.06,0.13,-1.00,3.85,2.93,2.62
39.0640,0.08,0.12,-1.00,4.21,2.81,2.62
39.0790,0.07,0.13,-0.99,4.09,3.05,2.32
39.0950,0.08,0.13,-0.99,4.15,2.99,2.26
39.1100,0.08,0.13,-1.00,4.09,2.56,2.14
39.1260,0.07,0.13,-0.99,3.72,2.69,2.14
39.1410,0.08,0.13,-0.99,3.66,2.44,2.01
39.1570,0.07,0.13,-1.00,3.54,2.50,2.08
39.1720,0.07,0.13,-1.00,3.78,2.81,2.01
39.1860,0.07,0.13,-1.00,3.36,2.62,1.95
39.1970,0.06,0.13,-0.99,3.23,2.69,1.83
39.2140,0.07,0.13,-1.00,3.91,2.50,2.01
39.2310,0.06,0.13,-1.00,4.15,2.20,1.95
39.2480,0.07,0.13,-1.00,4.15,2.56,1.77
39.2640,0.07,0.13,-0.99,3.54,2.44,1.95
39.2790,0.07,0.13,-0.99,3.66,2.44,1.71
39.2950,0.07,0.13,-1.00,3.72,2.44,1.89
39.3100,0.02,0.14,-1.00,4.39,2.44,1.53
39.3130,0.09,0.12,-0.99,3.85,3.11,-0.37
39.3300,0.05,0.13,-0.99,4.09,2.75,1.04
39.3490,0.07,0.13,-1.00,3.85,2.99,-0.24
39.3660,0.09,0.13,-0.99,3.42,3.17,-0.18
39.3830,0.07,0.13,-0.99,3.23,2.62,1.10
39.3990,0.07,0.13,-1.00,3.36,2.56,1.53
39.4190,0.07,0.13,-0.99,3.60,2.69,1.71
39.4330,0.07,0.13,-1.00,3.54,2.62,1.83
39.4360,0.07,0.13,-0.99,3.11,2.44,1.77
39.4520,0.06,0.13,-1.00,2.87,2.32,2.08
39.4750,0.06,0.13,-0.99,3.17,2.75,2.56
39.4920,0.07,0.13,-1.00,3.30,2.20,2.87
39.5080,0.07,0.13,-0.99,3.17,2.38,2.87
39.5250,0.07,0.13,-1.00,3.54,2.38,2.93
39.5400,0.07,0.12,-0.99,3.48,2.20,2.87
39.5560,0.07,0.12,-0.99,3.30,2.50,2.87
39.5720,0.07,0.13,-1.00,3.48,2.38,2.93
39.5750,0.07,0.13,-1.00,3.36,2.50,2.81
39.5940,0.07,0.13,-1.00,3.54,2.20,2.56
39.6070,0.07,0.13,-1.00,3.91,1.95,2.38
39.6340,0.06,0.13,-0.99,3.42,2.01,2.08
39.6450,0.07,0.13,-1.00,3.42,2.20,2.01
39.6610,0.07,0.13,-1.00,3.42,1.95,2.20
39.6770,0.07,0.13,-1.00,3.66,2.26,2.14
39.6950,0.07,0.13,-0.99,3.36,2.20,2.08
39.7110,0.07,0.13,-0.99,3.30,2.32,2.08
39.7270,0.07,0.13,-0.99,3.11,2.69,2.08
39.7430,0.07,0.13,-1.00,3.36,2.08,2.01
39.7590,0.06,0.13,-0.99,3.42,2.20,2.01
39.7740,0.07,0.13,-0.99,3.48,2.44,2.26
39.7900,0.06,0.13,-0.99,3.60,2.44,2.01
39.7950,0.07,0.13,-0.99,2.81,2.32,2.01
39.8110,0.06,0.13,-1.00,3.30,2.69,2.38
39.8350,0.07,0.13,-1.00,3.60,1.89,2.26
39.8520,0.07,0.13,-1.00,3.72,2.26,2.26
39.8670,0.06,0.13,-0.99,3.42,2.08,2.62
39.8690,0.08,0.13,-0.99,3.17,2.38,2.69
39.8950,0.07,0.14,-1.00,2.81,2.14,2.56
39.9010,0.04,0.12,-0.95,1.34,1.28,2.50
39.9180,0.08,0.12,-0.99,3.05,2.08,3.23
39.9350,0.07,0.13,-1.00,3.78,2.26,2.62
39.9640,0.07,0.13,-1.00,4.03,2.32,2.75
39.9680,0.07,0.13,-0.99,3.54,2.44,2.56
39.9950,0.08,0.13,-1.00,3.66,2.50,2.14
40.0020,0.07,0.13,-0.99,3.78,2.44,2.08
40.0190,0.07,0.13,-1.00,3.30,2.56,2.01
40.0350,0.07,0.13,-1.00,3.36,2.14,2.01
40.0510,0.06,0.13,-0.99,3.17,2.50,2.01
40.0680,0.06,0.13,-1.00,3.11,2.44,1.71
40.0850,0.06,0.13,-0.99,3.66,2.75,1.53
40.1010,0.08,0.13,-0.99,3.60,2.99,1.22
40.1170,0.07,0.13,-0.99,3.66,3.05,1.40
40.1340,0.08,0.13,-1.00,3.60,2.75,1.34
40.1500,0.07,0.13,-0.99,2.93,2.44,1.65
40.1670,0.07,0.13,-0.99,2.99,2.93,1.71
40.1820,0.06,0.13,-0.99,3.05,2.56,1.65
40.1970,0.06,0.13,-1.00,3.05,2.32,1.22
40.2010,0.06,0.13,-1.00,3.66,2.38,1.22
40.2180,0.05,0.13,-0.99,3.42,2.62,1.04
40.2390,0.06,0.10,-0.94,0.43,1.77,1.59
40.2560,0.08,0.13,-1.00,4.21,2.44,0.49
40.2720,0.08,0.14,-1.00,5.00,2.93,1.10
40.2880,0.08,0.13,-0.99,3.78,2.75,1.28
40.2950,0.08,0.13,-0.99,3.23,2.50,1.34
40.3200,0.05,0.14,-1.00,2.20,2.32,1.34
40.3230,0.08,0.13,-1.00,3.30,2.69,1.40
40.3520,0.07,0.13,-0.99,3.42,2.50,1.59
40.3560,0.07,0.13,-0.99,3.54,2.44,1.71
40.3720,0.07,0.13,-1.00,4.21,2.38,2.01
40.3950,0.07,0.13,-1.00,3.78,2.56,1.71
40.4110,0.07,0.13,-1.00,3.30,2.20,1.71
40.4280,0.07,0.13,-0.99,3.11,2.20,1.65
40.4450,0.07,0.13,-0.99,3.17,2.26,1.89
40.4610,0.07,0.13,-1.00,3.91,1.95,1.89
40.4760,0.07,0.13,-1.00,3.72,2.69,1.77
40.4920,0.07,0.13,-1.00,3.30,2.20,1.89
40.5070,0.07,0.13,-0.99,3.54,2.32,1.89
40.5230,0.06,0.13,-1.00,3.60,2.32,1.89
40.5380,0.07,0.13,-1.00,3.60,2.56,1.59
40.5450,0.06,0.13,-0.99,3.42,2.32,1.71
40.5610,0.07,0.13,-1.00,4.15,2.56,1.53
40.5840,0.07,0.13,-0.99,4.15,2.75,1.34
40.6010,0.07,0.13,-1.00,3.48,2.50,1.28
40.6180,0.07,0.13,-1.00,3.85,2.75,1.28
40.6340,0.07,0.13,-0.99,3.66,2.56,1.53
40.6360,0.07,0.13,-1.00,3.60,2.44,1.53
40.6510,0.07,0.13,-0.99,3.17,2.56,1.65
40.6680,0.06,0.13,-1.00,3.66,2.99,1.71
40.6960,0.06,0.13,-1.00,4.09,2.93,1.34
40.7130,0.07,0.12,-1.00,2.99,3.05,1.28
40.7280,0.06,0.13,-1.00,3.78,2.50,1.40
40.7370,0.06,0.13,-0.99,3.48,3.11,1.28
40.7530,0.07,0.13,-1.00,3.30,2.56,1.28
40.7700,0.06,0.13,-1.00,3.17,2.44,1.59
40.7870,0.06,0.13,-1.00,3.42,2.01,1.34
40.8030,0.06,0.13,-1.00,3.11,2.56,1.40
40.8190,0.07,0.13,-1.00,3.11,1.40,1.77
40.8350,0.07,0.11,-0.98,-0.92,2.01,2.69
40.8370,0.06,0.13,-1.01,1.53,1.83,2.38
40.8520,0.07,0.12,-0.99,3.60,2.32,2.38
40.8810,0.08,0.13,-0.99,4.03,1.59,2.14
40.8910,0.07,0.13,-0.99,3.72,2.26,2.01
40.9080,0.07,0.13,-0.99,3.11,2.44,1.89
40.9250,0.06,0.13,-1.00,3.36,2.32,1.77
40.9410,0.07,0.13,-1.00,3.17,1.65,1.77
40.9570,0.06,0.13,-1.00,3.23,1.34,1.46
40.9730,0.07,0.12,-1.00,2.50,1.28,1.65
40.9880,0.07,0.13,-0.99,3.60,1.34,1.59
40.9970,0.03,0.14,-0.99,3.91,1.77,1.40
41.0080,0.08,0.13,-1.00,3.48,2.56,0.79
41.0350,0.04,0.12,-0.95,1.59,1.34,1.71
41.0460,0.10,0.12,-1.00,4.33,3.11,2.14
41.0620,0.07,0.12,-1.00,4.03,2.26,1.89
41.0800,0.08,0.12,-1.00,4.09,2.26,1.89
41.0960,0.07,0.13,-1.00,3.54,1.95,2.01
41.1110,0.07,0.13,-1.00,3.17,2.44,2.01
41.1280,0.07,0.13,-1.00,3.36,2.32,1.77
41.1430,0.07,0.13,-1.00,3.23,2.01,1.83
41.1580,0.07,0.13,-0.99,3.36,1.89,1.95
41.1730,0.07,0.13,-1.00,3.60,2.20,1.95
41.1790,0.07,0.13,-1.00,3.85,2.20,1.95
41.1970,0.07,0.13,-1.00,3.66,2.26,2.08
41.2180,0.04,0.13,-1.00,3.36,2.81,1.89
41.2340,0.08,0.12,-1.00,3.48,2.50,1.95
41.2350,0.06,0.13,-1.00,2.99,2.44,1.71
41.2660,0.07,0.12,-0.99,3.85,2.44,1.89
41.2680,0.07,0.12,-1.00,3.54,2.14,1.89
41.2970,0.07,0.13,-1.00,3.72,1.83,1.65
41.3010,0.07,0.13,-1.00,3.42,2.38,1.71
41.3170,0.07,0.13,-1.00,3.36,2.20,1.71
41.3440,0.07,0.12,-1.00,3.23,2.38,1.83
41.3560,0.06,0.13,-1.00,3.36,1.83,1.77
41.3730,0.05,0.13,-0.99,3.17,1.95,1.16
41.3880,0.06,0.12,-0.99,2.93,1.95,1.16
41.4050,0.08,0.13,-1.01,3.91,2.32,1.04
41.4220,0.06,0.11,-0.97,0.49,1.22,1.59
41.4380,0.06,0.13,-1.02,3.11,1.95,1.40
41.4390,0.09,0.14,-1.00,3.54,1.59,1.59
41.4700,0.07,0.11,-0.99,1.77,1.71,1.77
41.4720,0.08,0.12,-0.99,3.78,1.34,1.65
41.5020,0.08,0.13,-1.00,3.36,1.59,1.71
41.5060,0.08,0.12,-0.99,3.36,1.83,1.83
41.5340,0.07,0.12,-0.99,3.30,2.20,1.95
41.5490,0.07,0.13,-1.00,3.72,2.14,1.89
41.5550,0.07,0.12,-1.00,4.27,2.01,2.01
41.5790,0.06,0.12,-0.99,4.15,2.32,1.95
41.5890,0.08,0.13,-0.99,3.60,2.75,1.77
41.6060,0.07,0.13,-1.00,3.78,2.75,1.95
41.6210,0.07,0.13,-1.00,3.66,2.56,2.14
41.6390,0.07,0.13,-0.99,3.91,2.75,2.14
41.6440,0.07,0.12,-0.99,3.60,2.50,2.01
41.6690,0.07,0.13,-1.00,3.72,2.44,2.08
41.6840,0.07,0.12,-0.99,3.42,2.56,1.95
41.6970,0.07,0.13,-1.00,3.60,2.93,2.01
41.7100,0.07,0.13,-0.99,3.91,2.50,2.01
41.7320,0.07,0.13,-1.00,3.30,2.50,1.89
41.7330,0.07,0.13,-1.00,3.17,2.44,1.95
41.7500,0.03,0.13,-0.99,3.05,2.50,2.01
41.7670,0.07,0.12,-0.99,3.11,3.23,1.95
41.7830,0.07,0.12,-1.00,3.48,2.81,2.01
41.8110,0.07,0.12,-1.00,3.60,2.62,2.01
41.8260,0.07,0.13,-0.99,3.85,2.56,2.14
41.8410,0.07,0.13,-0.99,3.78,2.81,2.20
41.8490,0.08,0.13,-0.99,3.78,2.50,2.32
41.8650,0.08,0.13,-0.99,3.72,2.62,2.20
41.8820,0.07,0.13,-1.00,3.91,2.08,2.08
41.8990,0.07,0.13,-1.00,3.60,2.56,1.95
41.9160,0.07,0.13,-1.00,3.42,2.81,2.08
41.9320,0.04,0.14,-1.00,4.27,2.62,1.89
41.9470,0.06,0.13,-1.00,3.97,2.75,1.46
41.9620,0.07,0.13,-1.00,3.91,2.81,1.59
41.9660,0.06,0.12,-0.99,3.85,2.56,1.59
41.9820,0.07,0.13,-0.99,4.03,2.50,1.83
42.0030,0.07,0.13,-0.99,3.36,2.62,1.77
42.0190,0.07,0.12,-0.99,2.93,2.32,2.14
42.0370,0.07,0.13,-1.00,3.17,2.50,2.01
42.0530,0.07,0.13,-0.99,3.60,2.81,2.08
42.0700,0.07,0.13,-1.00,3.85,2.32,1.83
42.0860,0.07,0.13,-1.00,3.23,2.50,1.59
42.0990,0.07,0.13,-0.99,2.87,2.56,2.01
42.1030,0.07,0.13,-0.99,3.36,2.44,2.01
42.1200,0.06,0.13,-1.00,3.66,2.26,2.01
42.1360,0.06,0.13,-0.99,3.42,2.69,1.89
42.1650,0.06,0.13,-1.00,3.72,2.93,2.01
42.1810,0.06,0.13,-0.99,3.11,2.56,1.95
42.1960,0.06,0.12,-0.99,2.99,2.75,2.20
42.2060,0.01,0.14,-0.99,2.75,1.89,2.62
42.2220,0.09,0.13,-1.00,4.09,3.42,3.78
42.2380,0.07,0.12,-0.99,3.72,3.05,2.44
42.2580,0.09,0.13,-0.99,4.21,2.44,2.01
42.2730,0.07,0.13,-1.00,3.85,2.56,1.95
42.2880,0.06,0.13,-1.00,2.56,2.56,1.77
42.3000,0.08,0.13,-1.00,3.11,2.99,2.01
42.3180,0.07,0.13,-1.00,3.48,2.26,1.83
42.3280,0.06,0.13,-1.00,3.60,1.89,1.77
42.3450,0.07,0.13,-0.99,3.72,2.14,1.83
42.3640,0.06,0.13,-1.00,3.17,2.62,1.71
42.3670,0.06,0.13,-1.00,3.54,2.81,1.77
42.3960,0.06,0.12,-1.00,3.17,2.87,1.71
42.4120,0.06,0.12,-0.99,3.36,2.75,1.83
42.4280,0.06,0.13,-0.99,3.36,2.38,1.89
42.4430,0.06,0.13,-1.00,3.23,2.87,2.01
42.4490,0.06,0.13,-1.00,3.42,2.81,2.08
42.4730,0.06,0.13,-1.00,3.72,2.75,1.83
42.4820,0.05,0.13,-0.99,3.54,2.69,1.77
42.4990,0.07,0.13,-1.00,3.11,2.69,1.83
42.5150,0.06,0.13,-0.99,3.05,2.69,1.95
42.5320,0.01,0.15,-1.04,2.26,2.44,3.11
42.5510,0.11,0.12,-0.99,3.48,3.97,3.48
42.5660,0.08,0.12,-0.99,3.36,3.36,1.95
42.5810,0.08,0.13,-0.99,3.66,2.50,1.77
42.5970,0.07,0.13,-1.00,2.62,2.69,1.65
42.6120,0.07,0.12,-1.00,2.32,3.05,1.71
42.6270,0.06,0.13,-0.99,2.32,2.87,1.77
42.6440,0.06,0.12,-0.99,2.20,2.69,1.77
42.6490,0.06,0.12,-0.99,2.69,2.50,1.77
42.6650,0.04,0.13,-1.00,3.30,2.26,1.89
42.6870,0.07,0.13,-1.00,3.48,2.69,2.01
42.7040,0.06,0.12,-1.00,3.36,2.75,1.77
42.7200,0.06,0.13,-1.00,3.54,2.87,2.01
42.7210,0.07,0.12,-0.99,3.72,2.50,1.89
42.7510,0.06,0.13,-1.00,3.72,2.20,2.01
42.7540,0.07,0.12,-1.00,3.72,2.81,2.20
42.7810,0.06,0.13,-1.00,3.91,2.56,2.14
42.7880,0.07,0.13,-0.99,3.72,2.99,1.83
42.8030,0.07,0.12,-0.99,3.11,2.08,1.77
42.8260,0.06,0.13,-0.99,3.17,2.14,1.77
42.8410,0.06,0.13,-1.00,2.93,2.69,1.89
42.8570,0.05,0.12,-1.00,3.23,2.75,1.89
42.8730,0.07,0.13,-0.99,3.05,2.44,1.83
42.8880,0.06,0.12,-1.00,3.48,2.93,2.08
42.9030,0.05,0.13,-1.00,3.91,2.26,1.89
42.9190,0.05,0.12,-1.00,3.30,2.20,1.95
42.9340,0.08,0.13,-1.01,3.72,2.56,1.40
42.9500,0.07,0.12,-0.99,2.44,3.17,1.71
42.9650,0.05,0.12,-1.00,2.62,2.62,2.50
42.9750,0.11,0.11,-0.99,2.20,2.81,3.17
42.9920,0.06,0.13,-1.01,3.72,2.56,1.77
43.0080,0.06,0.13,-1.00,4.03,2.14,1.40
43.0250,0.06,0.13,-0.99,4.15,2.81,0.49
43.0410,0.07,0.13,-1.00,3.78,2.44,0.85
43.0430,0.07,0.13,-1.00,3.54,2.20,1.34
43.0720,0.06,0.13,-0.99,3.60,2.62,2.01
43.0760,0.06,0.12,-0.99,3.05,2.99,1.83
43.1000,0.07,0.15,-1.05,6.35,-0.67,1.53
43.1180,0.06,0.13,-1.00,6.41,-1.77,1.59
43.1330,0.07,0.13,-1.00,5.37,-0.67,1.59
43.1450,0.08,0.14,-1.02,5.92,-1.71,1.53
43.1620,0.07,0.13,-1.00,3.97,0.79,1.40
43.1780,0.07,0.13,-1.00,3.72,1.34,1.59
43.1950,0.07,0.13,-0.99,3.36,2.62,1.77
43.2110,0.07,0.13,-0.99,2.69,4.39,1.95
43.2270,0.05,0.11,-0.98,2.56,5.43,2.14
43.2430,0.04,0.11,-0.99,2.62,5.49,2.20
43.2580,0.06,0.12,-0.99,2.44,5.00,2.14
43.2610,0.06,0.13,-1.00,3.60,3.42,2.01
43.2880,0.06,0.13,-0.99,3.05,2.75,1.95
43.3010,0.06,0.12,-1.00,2.75,3.05,1.77
43.3110,0.06,0.12,-0.99,3.36,1.71,1.77
43.3280,0.06,0.13,-0.99,3.17,2.14,1.89
43.3440,0.06,0.13,-0.99,3.05,2.32,1.83
43.3610,0.06,0.13,-1.00,3.17,1.83,1.59
43.3780,0.06,0.13,-1.00,3.05,1.77,1.83
43.3930,0.06,0.13,-1.00,3.05,1.77,1.65
43.4080,0.06,0.13,-0.99,2.99,1.28,1.53
43.4230,0.07,0.13,-1.00,3.54,1.22,1.77
43.4380,0.07,0.13,-1.00,2.50,1.53,1.71
43.4530,0.06,0.13,-0.99,2.56,1.77,1.65
43.4610,0.06,0.13,-0.99,2.26,2.01,1.59
43.4780,0.06,0.13,-1.00,2.01,1.77,1.59
43.4940,0.07,0.13,-1.00,2.01,1.40,1.53
43.5120,0.06,0.12,-1.00,2.56,0.67,1.46
43.5280,0.06,0.09,-0.98,6.10,-4.21,0.98
43.5430,0.03,0.06,-1.02,-1.46,4.58,1.59
43.5570,0.05,0.12,-1.02,2.99,3.23,2.08
43.5620,0.06,0.12,-1.00,3.30,2.50,2.08
43.5880,0.07,0.12,-1.00,3.36,2.32,1.95
43.6010,0.07,0.13,-1.00,3.48,1.59,1.89
43.6120,0.07,0.12,-0.99,3.30,1.89,1.89
43.6340,0.06,0.13,-1.00,3.11,1.89,1.77
43.6500,0.07,0.11,-0.99,1.04,2.38,1.77
43.6510,0.07,0.13,-1.00,3.78,2.50,2.08
43.6680,0.07,0.12,-1.00,3.85,2.50,1.89
43.6970,0.07,0.13,-1.00,4.03,2.81,2.14
43.7010,0.07,0.13,-1.00,4.09,2.87,2.01
43.7300,0.07,0.12,-1.00,3.48,3.05,2.20
43.7340,0.07,0.12,-0.99,4.33,2.50,2.01
43.7510,0.09,0.11,-0.99,2.08,1.77,4.21
43.7670,0.05,0.14,-1.00,3.30,2.38,3.85
43.7840,0.08,0.13,-0.99,2.26,2.50,2.87
43.8020,0.08,0.13,-1.00,1.71,2.32,3.05
43.8180,0.07,0.13,-0.99,1.59,2.32,3.23
43.8350,0.07,0.13,-0.99,1.77,2.56,3.30
43.8390,0.06,0.12,-0.99,2.26,2.20,3.23
43.8660,0.04,0.12,-1.00,2.87,2.93,3.11
43.8830,0.05,0.12,-1.00,2.62,2.69,2.32
43.8890,0.05,0.12,-1.00,2.81,2.50,1.71
43.9060,0.07,0.12,-0.99,2.75,2.62,1.77
43.9280,0.07,0.12,-1.00,3.72,2.56,1.89
43.9400,0.07,0.12,-1.00,3.97,2.26,1.95
43.9550,0.07,0.13,-1.00,3.91,1.89,1.95
43.9750,0.06,0.12,-0.99,3.36,2.50,1.95
43.9900,0.07,0.13,-1.00,3.30,2.69,1.89
44.0050,0.07,0.13,-1.00,2.50,2.81,1.89
44.0200,0.07,0.12,-0.99,2.50,2.56,1.89
44.0370,0.06,0.12,-1.00,2.26,2.50,1.95
44.0520,0.06,0.13,-0.99,3.30,2.14,3.17
44.0670,0.06,0.13,-1.00,3.48,1.95,5.37
44.0810,0.06,0.13,-1.00,3.11,2.08,5.74
44.0930,0.07,0.12,-1.00,2.81,1.71,6.29
44.1090,0.07,0.13,-0.99,3.11,1.71,5.68
44.1250,0.07,0.12,-1.00,4.39,1.40,6.77
44.1420,0.07,0.12,-1.00,4.09,2.14,6.16
44.1590,0.07,0.12,-1.00,4.03,1.89,6.10
44.1600,0.07,0.12,-1.00,4.58,1.16,5.92
44.1890,0.07,0.11,-0.99,5.00,1.53,5.37
44.2060,0.06,0.12,-1.00,5.19,1.65,4.15
44.2110,0.07,0.13,-1.00,4.70,2.26,3.05
44.2270,0.08,0.13,-0.99,3.78,2.08,4.52
44.2420,0.07,0.14,-1.00,3.36,1.46,6.47
44.2650,0.07,0.13,-1.00,3.11,1.77,7.14
44.2820,0.06,0.12,-1.00,2.81,1.95,7.39
44.2970,0.06,0.10,-1.00,2.81,2.01,4.88
44.3140,0.07,0.13,-0.99,3.91,2.50,1.95
44.3290,0.07,0.13,-1.00,4.46,2.38,2.08
44.3450,0.07,0.13,-1.00,4.70,2.14,1.95
44.3480,0.07,0.09,-0.99,4.94,1.89,2.14
44.3640,0.08,0.13,-0.99,9.09,1.40,2.38
44.3900,0.07,0.12,-1.00,4.21,3.05,2.01
44.4050,0.07,0.14,-1.00,6.47,1.89,2.26
44.4210,0.07,0.13,-1.00,3.54,1.95,1.95
44.4380,0.06,0.12,-0.99,3.17,2.20,2.08
44.4530,0.07,0.14,-1.00,4.21,1.95,2.14
44.4550,0.07,0.13,-1.01,2.62,1.65,1.89
44.4710,0.06,0.10,-0.97,-0.61,1.77,1.65
44.4880,0.07,0.15,-1.00,5.00,1.46,2.20
44.5050,0.07,0.12,-0.99,2.14,2.38,1.89
44.5220,0.07,0.12,-1.00,2.38,2.32,2.01
44.5380,0.07,0.13,-1.00,3.85,2.14,2.08
44.5550,0.07,0.12,-0.99,3.05,2.08,1.77
44.5820,0.07,0.13,-1.00,3.42,2.26,2.08
44.5890,0.05,0.14,-0.98,3.42,1.95,1.83
44.6050,0.06,0.13,-1.00,3.23,2.26,2.01
44.6260,0.07,0.12,-1.00,3.30,2.44,2.01
44.6420,0.07,0.13,-1.00,3.60,2.20,2.08
44.6570,0.07,0.12,-1.00,3.36,2.26,2.01
44.6720,0.07,0.12,-0.99,3.60,2.44,2.14
44.6880,0.07,0.13,-0.99,3.48,2.26,2.14
44.7030,0.07,0.13,-1.00,3.48,2.20,2.08
44.7070,0.07,0.13,-0.99,3.42,2.08,1.89
44.7320,0.07,0.13,-0.99,3.48,2.20,1.95
44.7480,0.07,0.12,-0.99,3.54,2.38,2.01
44.7650,0.07,0.13,-1.00,3.54,2.14,1.95
44.7810,0.07,0.13,-1.00,3.48,2.69,2.08
44.7970,0.07,0.13,-1.00,3.54,2.32,2.08
44.8140,0.07,0.13,-1.00,3.36,1.89,1.95
44.8290,0.07,0.13,-1.00,3.66,2.20,2.01
44.8440,0.07,0.13,-0.99,3.42,2.50,2.08
44.8480,0.07,0.13,-1.00,3.36,2.14,1.95
44.8640,0.07,0.13,-1.00,3.60,2.08,1.95
44.8880,0.07,0.13,-0.99,3.54,2.08,2.08
44.9050,0.07,0.13,-0.99,3.30,2.50,2.08
44.9220,0.07,0.13,-1.00,3.23,2.26,1.95
44.9370,0.07,0.13,-1.00,3.36,2.56,2.26
44.9530,0.07,0.13,-0.99,3.30,2.44,1.95
44.9550,0.07,0.13,-0.99,3.36,2.75,2.08
44.9730,0.07,0.13,-1.00,3.54,2.38,2.01
44.9890,0.07,0.13,-0.99,3.42,2.44,2.08
45.0050,0.07,0.13,-1.00,3.48,2.14,1.83
45.0200,0.07,0.13,-1.00,3.36,2.32,2.01
45.0420,0.07,0.13,-1.00,3.54,2.44,2.08
45.0590,0.07,0.13,-1.00,3.54,2.38,1.95
45.0750,0.07,0.13,-1.00,3.48,2.26,2.01
45.0760,0.07,0.13,-1.00,3.54,2.32,2.01
45.1050,0.07,0.13,-1.00,3.17,2.50,1.89
45.1090,0.07,0.13,-0.99,2.93,2.69,1.95
45.1250,0.07,0.13,-1.00,4.46,1.89,2.08
45.1520,0.07,0.13,-1.00,5.25,2.14,2.20
45.1630,0.07,0.11,-0.99,3.91,2.44,2.26
45.1800,0.07,0.14,-1.01,7.26,1.89,2.26
45.1970,0.07,0.14,-0.99,4.70,2.20,2.01
45.2130,0.07,0.13,-0.99,1.83,2.99,1.83
45.2290,0.07,0.13,-1.00,1.77,2.69,1.71
45.2450,0.07,0.13,-0.99,2.50,2.50,1.77
45.2600,0.07,0.13,-0.99,2.26,2.38,1.71
45.2630,0.08,0.13,-0.99,2.75,2.56,1.83
45.2790,0.06,0.13,-0.99,2.99,1.89,2.32
45.3040,0.05,0.12,-1.00,2.20,2.69,2.62
45.3200,0.06,0.12,-0.99,2.50,2.32,2.26
45.3210,0.07,0.13,-1.00,3.60,2.20,2.20
45.3380,0.06,0.12,-0.99,3.42,2.38,2.26
45.3660,0.07,0.13,-1.00,3.17,2.26,2.26
45.3710,0.06,0.12,-1.00,3.05,2.32,2.08
45.3870,0.07,0.13,-1.00,2.75,2.01,1.89
45.4100,0.07,0.12,-0.99,2.50,2.44,1.89
45.4270,0.07,0.13,-0.99,3.30,2.50,2.08
45.4420,0.07,0.13,-1.00,3.42,2.38,2.14
45.4570,0.07,0.13,-1.00,3.23,2.50,2.44
45.4730,0.07,0.13,-0.99,2.62,2.01,2.87
45.4880,0.07,0.12,-0.99,2.99,1.89,2.99
45.5030,0.07,0.12,-1.00,3.60,2.38,2.38
45.5100,0.07,0.13,-1.00,3.85,2.32,2.26
45.5250,0.07,0.13,-0.99,3.72,2.32,2.14
45.5460,0.07,0.13,-0.99,2.62,2.01,2.32
45.5630,0.06,0.12,-1.00,2.50,2.56,2.32
45.5800,0.07,0.13,-1.00,2.69,2.69,2.26
45.5960,0.06,0.12,-1.00,3.36,1.77,2.56
45.6120,0.06,0.12,-0.99,3.05,2.14,2.87
45.6280,0.07,0.12,-1.00,2.99,2.44,2.44
45.6430,0.07,0.13,-0.99,3.23,2.14,2.08
45.6580,0.07,0.13,-1.00,3.85,1.95,2.14
45.6630,0.07,0.13,-0.99,3.60,1.89,2.20
45.6790,0.07,0.12,-1.00,3.60,2.01,2.56
45.7010,0.07,0.12,-1.00,2.93,2.62,2.32
45.7180,0.07,0.13,-0.99,2.50,2.26,2.38
45.7330,0.07,0.12,-1.00,2.75,2.14,2.62
45.7500,0.07,0.12,-1.00,2.69,2.56,2.81
45.7510,0.07,0.12,-1.00,2.99,2.44,2.62
45.7800,0.07,0.13,-1.00,2.93,2.32,2.81
45.7830,0.07,0.13,-1.00,2.14,2.56,2.81
45.8050,0.07,0.12,-0.99,1.71,2.75,3.17
45.8210,0.07,0.12,-1.00,3.23,2.08,3.23
45.8400,0.07,0.13,-1.00,2.93,2.44,3.17
45.8550,0.07,0.12,-0.99,1.28,2.32,3.11
45.8710,0.07,0.12,-1.00,3.85,1.95,3.05
45.8720,0.07,0.12,-1.00,3.36,2.62,2.87
45.8890,0.07,0.12,-0.99,2.87,2.08,3.05
45.9180,0.07,0.12,-1.00,3.48,2.44,3.17
45.9220,0.07,0.12,-0.99,3.36,2.32,2.50
45.9490,0.07,0.12,-1.00,4.21,2.14,2.32
45.9650,0.07,0.12,-1.00,4.46,2.08,2.14
45.9720,0.07,0.12,-0.99,3.66,2.44,2.14
45.9960,0.07,0.12,-1.00,4.15,2.08,1.95
46.0060,0.07,0.13,-1.00,3.60,2.32,2.01
46.0220,0.07,0.12,-1.00,2.99,2.50,1.95
46.0370,0.07,0.13,-1.00,3.17,2.32,2.08
46.0590,0.07,0.12,-0.99,1.95,2.38,1.95
46.0740,0.07,0.12,-0.99,2.44,2.75,1.95
46.0890,0.07,0.12,-1.00,3.30,2.26,1.89
46.1050,0.07,0.13,-1.00,3.23,2.44,2.20
46.1210,0.08,0.13,-0.99,3.42,2.20,2.56
46.1370,0.08,0.13,-1.00,4.70,1.77,2.32
46.1520,0.07,0.12,-1.00,3.91,2.08,2.26
46.1610,0.07,0.12,-0.99,3.48,2.20,2.01
46.1770,0.07,0.13,-1.00,4.03,2.32,2.14
46.1950,0.06,0.12,-1.00,3.30,2.56,2.69
46.2100,0.07,0.12,-1.00,3.66,2.01,2.14
46.2280,0.07,0.13,-1.00,3.42,2.14,2.32
46.2440,0.07,0.12,-0.99,3.30,2.26,2.62
46.2590,0.07,0.12,-1.00,3.48,2.38,2.69
46.2740,0.07,0.12,-1.00,3.78,2.69,2.14
46.2890,0.07,0.13,-1.00,4.15,2.50,2.20
46.3050,0.07,0.13,-1.00,3.60,2.38,2.32
46.3100,0.07,0.12,-1.00,3.48,2.26,2.38
46.3320,0.07,0.13,-1.00,3.23,2.26,2.26
46.3480,0.07,0.13,-1.00,3.60,2.26,2.38
46.3650,0.07,0.13,-1.00,3.17,2.56,2.87
46.3820,0.07,0.12,-0.99,3.17,2.38,3.54
46.3980,0.07,0.12,-1.00,2.87,2.69,3.36
46.4140,0.06,0.12,-1.00,2.50,2.20,2.75
46.4310,0.06,0.12,-1.00,3.42,2.26,2.87
46.4460,0.06,0.12,-0.99,3.30,2.50,2.69
46.4620,0.07,0.12,-1.00,4.09,2.32,2.62
46.4650,0.07,0.12,-1.00,3.42,2.38,2.56
46.4800,0.07,0.12,-0.99,3.42,2.26,2.32
46.5050,0.07,0.12,-1.00,3.78,2.14,2.08
46.5190,0.07,0.13,-0.99,3.72,2.26,2.14
46.5360,0.07,0.13,-1.00,4.09,1.95,2.14
46.5540,0.07,0.12,-0.99,3.48,2.20,2.44
46.5700,0.07,0.13,-1.00,2.93,2.50,2.50
46.5700,0.07,0.13,-0.99,2.20,2.20,3.17
46.5860,0.07,0.12,-1.00,2.69,2.26,3.97
46.6060,0.07,0.12,-1.00,2.69,2.14,3.66
46.6290,0.07,0.12,-1.00,2.99,2.26,3.17
46.6440,0.07,0.12,-0.99,2.75,2.08,2.93
46.6530,0.07,0.12,-1.00,3.30,2.14,2.56
46.6710,0.07,0.12,-1.00,2.69,1.83,2.62
46.6880,0.07,0.12,-0.99,2.87,2.08,2.81
46.7040,0.07,0.12,-1.00,3.42,2.50,2.93
46.7190,0.07,0.13,-1.00,3.05,2.14,2.69
46.7200,0.07,0.12,-0.99,2.20,2.20,2.99
46.7510,0.07,0.12,-0.99,2.50,1.83,3.66
46.7530,0.07,0.11,-1.00,2.38,2.14,3.72
46.7700,0.07,0.11,-1.00,2.99,2.14,2.62
46.7860,0.07,0.12,-1.00,3.85,2.01,2.32
46.8090,0.07,0.12,-1.00,3.42,2.26,2.32
46.8250,0.07,0.12,-1.00,2.99,2.14,2.26
46.8420,0.07,0.12,-1.00,3.17,2.20,2.20
46.8580,0.07,0.12,-1.00,3.48,2.01,2.38
46.8760,0.07,0.12,-1.00,3.66,2.08,2.38
46.8760,0.07,0.12,-1.00,3.48,2.26,2.20
46.9060,0.07,0.12,-0.99,3.11,2.87,2.08
46.9210,0.07,0.13,-1.00,3.66,2.38,2.62
46.9360,0.07,0.13,-1.00,2.75,2.26,2.81
46.9520,0.07,0.12,-1.00,2.32,2.08,3.11
46.9590,0.07,0.12,-0.99,2.08,2.56,3.72
46.9830,0.07,0.11,-1.00,3.36,2.32,3.97
46.9930,0.07,0.11,-0.99,2.14,2.75,2.87
47.0090,0.07,0.12,-0.99,3.42,2.50,2.32
47.0290,0.07,0.12,-1.00,3.30,2.50,2.26
47.0460,0.07,0.12,-0.99,2.50,2.87,2.26
47.0620,0.07,0.13,-1.00,3.23,2.93,2.44
47.0770,0.06,0.11,-0.99,2.87,2.87,2.08
47.0910,0.07,0.12,-1.00,3.66,2.56,3.05
47.1060,0.07,0.12,-0.99,3.17,2.44,2.75
47.1120,0.07,0.12,-0.99,3.78,2.26,2.93
47.1330,0.07,0.11,-0.99,4.27,2.14,2.69
47.1510,0.07,0.12,-1.00,4.15,2.14,2.26
47.1690,0.07,0.12,-1.00,3.66,2.26,2.62
47.1840,0.07,0.12,-0.99,3.72,1.89,2.75
47.2000,0.07,0.12,-1.00,3.78,2.01,2.50
47.2070,0.07,0.12,-1.00,4.21,2.08,2.32
47.2170,0.07,0.13,-1.00,3.91,2.20,2.38
47.2340,0.06,0.11,-0.99,3.30,2.38,2.01
47.2640,0.07,0.12,-1.00,4.33,2.20,2.26
47.2670,0.07,0.12,-0.99,3.78,2.26,2.20
47.2840,0.07,0.12,-1.00,4.64,1.95,2.62
47.3070,0.08,0.13,-1.00,3.54,2.26,2.87
47.3170,0.06,0.12,-1.00,3.11,1.65,3.97
47.3440,0.07,0.12,-1.00,2.93,2.08,3.11
47.3510,0.06,0.12,-1.00,3.97,1.83,2.81
47.3670,0.07,0.12,-1.00,3.91,1.95,2.93
47.3850,0.07,0.12,-0.99,3.91,2.08,2.75
47.4010,0.07,0.12,-0.99,3.78,2.20,2.38
47.4170,0.07,0.12,-1.00,3.97,2.01,2.08
47.4350,0.08,0.13,-1.00,3.85,1.95,1.95
47.4500,0.07,0.12,-0.99,3.72,1.77,2.81
47.4660,0.07,0.13,-1.00,3.72,1.77,2.81
47.4670,0.07,0.12,-1.00,3.85,1.89,2.99
47.4980,0.07,0.13,-1.00,3.85,2.01,2.32
47.5070,0.07,0.13,-0.99,3.54,1.71,2.81
47.5180,0.06,0.12,-0.99,3.60,2.01,3.36
47.5340,0.06,0.12,-1.00,4.09,2.01,2.87
47.5510,0.07,0.12,-1.00,3.54,2.32,2.01
47.5730,0.07,0.12,-0.99,3.48,2.08,1.95
47.5890,0.07,0.13,-0.99,3.42,2.44,2.14
47.6070,0.07,0.12,-1.00,3.36,2.44,2.08
47.6230,0.07,0.13,-1.00,3.30,2.44,1.89
47.6230,0.07,0.12,-0.99,3.42,2.38,1.83
47.6540,0.07,0.12,-1.00,3.23,2.44,2.01
47.6560,0.07,0.12,-1.00,2.81,2.44,1.89
47.6860,0.07,0.12,-1.00,2.69,2.62,1.95
47.6900,0.07,0.12,-0.99,2.75,2.56,1.83
47.7180,0.07,0.12,-0.99,2.99,2.56,1.89
47.7230,0.07,0.12,-1.00,3.48,2.38,2.01
47.7380,0.07,0.13,-1.00,3.11,2.81,1.89
