Timestamp, AccX, AccY, AccZ, GyroX, GyroY, GyroZ
0.0100,0.08,0.13,-0.99,2.38,4.88,2.14
0.0180,0.07,0.14,-1.00,1.28,4.76,2.01
0.0350,0.04,0.11,-0.99,0.12,5.07,1.89
0.0500,0.08,0.11,-0.98,4.64,3.42,2.08
0.0680,0.07,0.12,-0.99,2.69,3.17,2.01
0.0840,0.07,0.13,-0.99,2.99,3.60,2.01
0.1000,0.07,0.13,-0.99,2.87,3.91,2.08
0.1010,0.07,0.13,-1.00,3.23,3.42,2.08
0.1310,0.07,0.13,-0.99,2.56,3.60,2.08
0.1460,0.07,0.12,-0.99,3.11,3.42,1.95
0.1610,0.07,0.13,-0.99,2.81,3.42,2.01
0.1760,0.07,0.13,-1.00,3.17,3.54,2.14
0.1900,0.07,0.12,-0.99,2.44,3.66,2.08
0.2050,0.07,0.12,-0.99,2.75,3.72,2.14
0.2170,0.07,0.13,-1.00,2.87,3.91,2.01
0.2330,0.07,0.12,-0.99,2.81,3.91,2.01
0.2500,0.07,0.12,-0.99,2.87,4.03,2.08
0.2660,0.07,0.12,-0.99,2.99,3.66,1.95
0.2800,0.07,0.13,-1.00,3.42,3.60,2.14
0.2840,0.07,0.13,-0.99,2.44,3.66,1.89
0.3110,0.07,0.12,-0.99,2.56,3.30,1.89
0.3260,0.07,0.12,-1.00,3.05,3.78,2.01
0.3410,0.07,0.13,-0.99,3.23,3.48,2.01
0.3500,0.07,0.12,-0.99,3.30,3.36,2.14
0.3660,0.08,0.13,-1.00,3.85,3.48,2.01
0.3870,0.07,0.13,-0.99,3.05,3.48,2.14
0.4020,0.07,0.13,-0.99,3.17,3.48,2.08
0.4030,0.07,0.13,-0.99,2.50,4.03,1.89
0.4320,0.07,0.12,-0.99,2.69,3.85,2.14
0.4470,0.08,0.13,-0.99,3.54,3.60,1.95
0.4550,0.07,0.13,-0.99,3.42,3.48,2.01
0.4770,0.07,0.13,-0.99,3.11,3.54,1.95
0.4920,0.07,0.13,-0.99,2.81,3.48,1.89
0.5080,0.07,0.12,-0.99,2.69,3.97,2.01
0.5230,0.07,0.12,-0.99,2.99,3.91,2.01
0.5380,0.08,0.13,-0.99,3.30,3.54,1.95
0.5530,0.07,0.12,-0.99,3.05,3.36,2.01
0.5680,0.08,0.12,-0.99,2.99,3.60,2.14
0.5830,0.07,0.13,-0.99,2.87,3.30,1.89
0.5940,0.07,0.13,-0.99,2.87,3.54,2.01
0.6080,0.08,0.13,-0.99,3.23,3.60,2.20
0.6240,0.08,0.13,-0.99,2.99,3.48,2.08
0.6440,0.07,0.12,-1.00,2.93,3.42,2.14
0.6590,0.07,0.13,-0.99,3.11,3.30,2.08
0.6740,0.07,0.13,-0.99,2.99,3.60,2.14
0.6900,0.07,0.12,-0.99,2.62,3.54,2.01
0.7060,0.07,0.13,-0.99,3.48,3.66,2.32
0.7220,0.07,0.13,-0.99,3.36,3.60,2.20
0.7370,0.07,0.13,-0.99,2.87,3.48,2.08
0.7450,0.07,0.12,-0.99,2.50,3.72,2.32
0.7680,0.07,0.12,-0.99,2.81,3.91,2.62
0.7770,0.07,0.12,-0.99,3.11,3.85,2.20
0.7990,0.07,0.12,-0.99,3.60,3.36,2.08
0.8110,0.07,0.13,-1.00,3.30,3.48,1.95
0.8280,0.07,0.13,-0.99,3.11,3.54,2.08
0.8440,0.08,0.13,-0.99,3.17,3.30,2.01
0.8600,0.07,0.12,-0.99,2.99,3.23,2.14
0.8640,0.07,0.13,-0.99,3.36,3.66,2.14
0.8900,0.07,0.13,-0.99,3.11,3.72,2.20
0.9050,0.07,0.13,-0.99,3.54,3.60,2.14
0.9150,0.07,0.13,-0.99,3.30,3.60,2.08
0.9300,0.07,0.13,-0.99,3.17,3.78,2.14
0.9510,0.07,0.12,-0.99,3.05,3.66,2.08
0.9660,0.07,0.12,-0.99,3.17,3.97,2.20
0.9820,0.07,0.13,-0.99,3.60,3.66,2.20
0.9970,0.07,0.13,-0.99,3.48,3.54,2.08
1.0010,0.07,0.13,-0.99,3.05,3.72,2.08
1.0280,0.07,0.12,-1.00,2.50,3.78,2.38
1.0440,0.07,0.12,-1.00,3.42,3.78,2.62
1.0510,0.07,0.12,-0.99,3.42,3.85,2.50
1.0740,0.08,0.13,-0.99,3.30,3.42,2.44
1.0890,0.08,0.13,-0.99,3.17,3.66,2.50
1.1010,0.08,0.13,-0.99,2.75,3.48,2.44
1.1170,0.09,0.11,-1.01,2.62,3.91,2.08
1.1350,0.07,0.12,-1.00,2.99,3.66,2.08
1.1510,0.07,0.12,-0.99,2.38,3.60,2.01
1.1670,0.07,0.13,-0.99,3.60,3.48,1.95
1.1820,0.08,0.13,-0.99,3.54,3.66,2.08
1.1990,0.07,0.13,-0.99,3.42,3.36,1.89
1.2150,0.07,0.12,-0.99,2.99,3.48,1.95
1.2300,0.07,0.12,-0.99,2.62,3.72,2.01
1.2450,0.07,0.12,-0.99,3.11,3.66,2.01
1.2510,0.07,0.13,-0.99,3.72,3.42,2.08
1.2670,0.07,0.13,-0.99,3.05,3.48,1.89
1.2880,0.07,0.13,-0.99,3.11,3.42,2.01
1.3050,0.08,0.13,-1.00,2.69,3.85,2.08
1.3200,0.07,0.12,-0.99,2.87,3.54,2.01
1.3380,0.07,0.12,-0.99,3.72,3.42,2.08
1.3540,0.07,0.13,-0.99,4.33,3.60,2.08
1.3550,0.07,0.13,-0.99,4.21,4.03,2.26
1.3770,0.07,0.13,-0.99,4.09,3.78,2.08
1.3880,0.07,0.13,-0.99,4.52,3.72,2.26
1.4040,0.07,0.12,-0.99,3.11,3.36,2.08
1.4210,0.07,0.11,-0.96,3.48,3.48,1.95
1.4380,0.07,0.12,-0.99,3.11,3.85,2.20
1.4540,0.07,0.13,-0.99,5.55,3.23,2.14
1.4770,0.07,0.12,-0.99,3.48,3.54,2.08
1.4880,0.07,0.12,-0.99,3.11,3.60,2.08
1.5030,0.07,0.13,-0.99,3.42,3.60,2.08
1.5220,0.07,0.13,-0.99,2.81,3.36,1.89
1.5380,0.07,0.13,-0.99,2.99,3.48,1.95
1.5530,0.07,0.13,-0.99,3.72,3.30,1.95
1.5530,0.07,0.13,-0.99,3.11,3.42,1.95
1.5780,0.07,0.13,-0.99,2.75,3.66,2.01
1.5880,0.07,0.12,-0.99,2.50,3.72,1.89
1.6050,0.07,0.13,-0.99,2.69,3.85,1.95
1.6200,0.07,0.13,-0.99,2.75,3.60,1.95
1.6480,0.07,0.13,-0.99,2.99,3.66,2.14
1.6540,0.07,0.13,-0.99,2.69,3.48,1.95
1.6780,0.07,0.13,-0.99,2.69,3.42,2.08
1.6870,0.07,0.12,-0.99,2.32,3.85,1.95
1.7090,0.07,0.12,-0.99,2.50,3.72,1.83
1.7260,0.07,0.13,-0.99,3.54,3.72,2.01
1.7430,0.08,0.13,-0.99,3.05,3.97,2.08
1.7430,0.07,0.12,-0.99,3.11,3.97,2.14
1.7730,0.07,0.12,-0.99,2.87,3.85,1.89
1.7880,0.07,0.12,-0.99,2.69,3.60,2.08
1.8040,0.07,0.12,-1.00,2.50,3.48,1.95
1.8190,0.07,0.13,-1.00,4.15,3.11,2.14
1.8340,0.07,0.13,-0.99,3.72,3.54,2.26
1.8430,0.07,0.13,-1.00,2.87,3.91,1.89
1.8590,0.07,0.12,-0.99,2.75,3.48,1.77
1.8790,0.07,0.13,-0.99,3.05,3.66,1.89
1.8940,0.07,0.12,-0.99,2.99,3.42,2.01
1.9090,0.07,0.13,-0.99,3.97,3.17,2.08
1.9250,0.07,0.12,-0.99,3.66,3.23,2.01
1.9400,0.07,0.13,-0.99,3.54,2.93,1.89
1.9550,0.07,0.12,-0.99,2.75,3.17,1.83
1.9700,0.07,0.13,-0.99,3.36,3.66,2.14
1.9850,0.07,0.14,-1.01,3.36,3.36,1.83
1.9970,0.07,0.13,-0.99,3.30,3.91,2.08
2.0120,0.07,0.14,-1.00,4.64,3.42,2.08
2.0300,0.07,0.12,-0.99,2.62,3.66,2.01
2.0450,0.07,0.13,-0.99,3.54,3.60,1.95
2.0600,0.07,0.13,-1.00,2.81,3.42,1.95
2.0760,0.07,0.13,-0.99,2.87,3.66,2.08
2.0840,0.07,0.13,-0.99,2.75,3.48,1.89
2.1080,0.07,0.13,-0.99,2.81,3.23,1.89
2.1230,0.07,0.13,-0.99,2.93,3.42,1.95
2.1380,0.07,0.13,-0.99,2.62,3.42,1.89
2.1500,0.07,0.12,-0.99,2.38,3.72,1.95
2.1680,0.07,0.13,-0.99,3.23,3.60,2.14
2.1830,0.07,0.13,-0.99,3.54,3.48,2.01
2.1980,0.07,0.13,-0.99,2.87,3.66,2.14
2.2140,0.07,0.13,-0.99,2.69,3.85,2.08
2.2300,0.07,0.12,-0.99,2.69,3.42,1.95
2.2460,0.07,0.13,-0.99,3.05,3.60,1.95
2.2610,0.07,0.13,-0.99,3.17,3.30,2.01
2.2760,0.07,0.13,-0.99,3.36,3.42,2.08
2.2830,0.07,0.13,-0.99,2.44,3.66,2.01
2.2990,0.07,0.12,-0.99,2.99,3.97,1.95
2.3190,0.07,0.13,-1.00,3.72,3.48,2.14
2.3370,0.07,0.12,-0.99,3.05,3.42,1.95
2.3530,0.07,0.13,-0.99,2.93,3.85,1.89
2.3680,0.07,0.13,-0.99,2.69,3.66,1.95
2.3840,0.07,0.13,-0.99,3.54,3.66,1.95
2.3990,0.07,0.13,-0.99,3.17,4.09,2.01
2.4140,0.07,0.13,-0.99,3.11,3.36,2.14
2.4290,0.07,0.12,-0.99,2.87,3.60,2.20
2.4440,0.07,0.13,-0.99,3.17,3.91,2.14
2.4530,0.07,0.13,-0.99,3.17,3.78,1.95
2.4680,0.07,0.13,-0.99,3.17,3.97,2.08
2.4900,0.07,0.13,-0.99,2.75,3.85,1.95
2.5060,0.07,0.12,-0.99,3.17,3.42,2.08
2.5230,0.07,0.13,-0.99,3.36,3.48,2.14
2.5380,0.07,0.13,-0.99,2.99,3.66,2.01
2.5410,0.07,0.13,-0.99,2.81,3.60,2.01
2.5700,0.07,0.12,-0.99,2.69,3.42,2.08
2.5860,0.07,0.12,-0.99,3.23,3.78,1.89
2.6020,0.07,0.13,-0.99,3.11,3.66,1.89
2.6180,0.07,0.13,-0.99,2.99,3.60,2.01
2.6340,0.07,0.13,-0.99,2.87,3.48,1.89
2.6490,0.07,0.12,-0.99,2.75,3.11,2.01
2.6560,0.07,0.13,-0.99,3.78,3.36,2.01
2.6780,0.07,0.13,-0.99,2.75,3.85,2.01
2.6970,0.07,0.13,-0.99,3.17,3.54,2.08
2.7060,0.07,0.13,-0.99,3.23,3.60,2.08
2.7220,0.07,0.13,-0.99,2.93,3.42,2.01
2.7410,0.07,0.13,-0.99,2.99,3.54,2.08
2.7580,0.07,0.13,-0.99,2.75,3.60,2.01
2.7760,0.07,0.13,-0.99,2.69,3.48,2.01
2.7920,0.07,0.13,-0.99,2.99,3.78,1.89
2.8090,0.07,0.13,-0.99,3.23,3.48,2.14
2.8240,0.07,0.13,-0.99,3.36,3.36,1.95
2.8410,0.07,0.13,-0.99,3.23,3.60,2.08
2.8560,0.07,0.13,-1.00,3.66,3.48,2.01
2.8720,0.07,0.12,-0.99,3.11,3.72,1.89
2.8870,0.07,0.13,-0.99,3.54,3.78,2.14
2.9020,0.07,0.12,-0.99,3.36,3.72,1.95
2.9130,0.07,0.13,-0.99,3.17,3.78,2.14
2.9300,0.07,0.13,-0.99,2.99,3.85,2.14
2.9450,0.07,0.13,-0.99,3.17,3.72,2.08
2.9630,0.07,0.13,-0.99,3.17,3.66,2.14
2.9780,0.07,0.13,-0.99,3.48,3.60,2.14
2.9840,0.07,0.12,-0.99,2.56,3.66,1.77
3.0090,0.07,0.12,-0.99,2.81,3.36,2.01
3.0240,0.07,0.13,-0.99,3.30,3.42,1.89
3.0340,0.07,0.13,-0.99,3.30,3.36,1.95
3.0510,0.07,0.13,-0.99,2.99,3.54,2.14
3.0680,0.07,0.13,-0.99,2.93,3.91,2.01
3.0850,0.07,0.12,-0.99,2.81,3.66,1.95
3.1020,0.07,0.13,-0.99,2.99,3.78,2.01
3.1170,0.07,0.13,-0.99,3.30,3.60,2.08
3.1330,0.07,0.13,-0.99,3.17,3.42,1.95
3.1420,0.07,0.13,-0.99,2.69,3.72,1.89
3.1590,0.07,0.13,-0.99,2.93,3.17,1.89
3.1790,0.07,0.13,-0.99,2.75,3.85,1.89
3.1920,0.07,0.13,-0.99,2.99,3.36,2.01
3.2090,0.07,0.13,-0.99,2.93,3.72,1.95
3.2250,0.07,0.12,-0.99,2.62,3.48,1.95
3.2420,0.07,0.13,-1.00,3.30,3.48,2.14
3.2440,0.07,0.12,-0.99,2.99,3.48,1.89
3.2590,0.07,0.12,-1.00,3.23,3.54,1.95
3.2810,0.07,0.12,-0.99,2.20,3.66,1.83
3.3020,0.07,0.12,-0.98,3.05,3.48,2.08
3.3140,0.07,0.12,-0.99,3.11,3.78,1.89
3.3310,0.07,0.13,-1.00,3.30,3.97,2.01
3.3470,0.07,0.12,-0.99,2.87,3.60,1.95
3.3620,0.07,0.16,-0.99,2.93,3.42,2.01
3.3780,0.07,0.13,-0.99,2.93,3.42,1.95
3.3940,0.07,0.13,-0.99,3.23,3.54,2.14
3.4090,0.07,0.13,-0.99,3.17,3.60,1.95
3.4250,0.07,0.13,-0.99,2.93,3.60,2.14
3.4400,0.07,0.12,-0.99,2.81,3.97,2.01
3.4480,0.07,0.13,-0.99,3.11,3.72,1.89
3.4710,0.07,0.13,-0.99,3.36,3.48,2.08
3.4820,0.07,0.13,-1.00,3.48,3.48,2.08
3.4980,0.07,0.12,-0.99,3.11,3.72,2.20
3.5150,0.07,0.12,-0.99,2.93,3.72,2.08
3.5320,0.07,0.12,-0.99,2.93,3.66,2.08
3.5480,0.07,0.13,-0.99,3.42,3.60,2.14
3.5640,0.07,0.13,-0.99,3.42,3.30,2.01
3.5780,0.07,0.13,-0.99,2.99,3.54,2.01
3.5860,0.07,0.12,-0.99,2.75,3.78,1.83
3.6040,0.07,0.12,-0.99,2.93,3.54,2.08
3.6190,0.07,0.12,-0.99,3.17,3.97,2.08
3.6360,0.07,0.13,-0.99,3.42,3.48,2.01
3.6520,0.07,0.13,-0.99,3.17,3.66,2.01
3.6710,0.07,0.13,-0.99,3.36,3.85,2.01
3.6870,0.07,0.12,-0.99,2.93,3.54,1.95
3.7030,0.07,0.12,-0.99,3.17,3.42,2.01
3.7060,0.07,0.12,-0.99,2.87,3.60,1.83
3.7240,0.07,0.12,-0.99,3.30,3.66,1.95
3.7510,0.07,0.13,-0.99,3.42,3.60,2.14
3.7660,0.07,0.13,-0.99,3.17,3.60,2.14
3.7800,0.07,0.13,-0.99,2.99,3.60,2.20
3.7990,0.07,0.12,-0.99,3.05,3.78,2.14
3.8070,0.07,0.12,-0.99,2.87,3.78,2.08
3.8230,0.07,0.12,-0.99,2.93,3.66,2.01
3.8440,0.07,0.13,-0.99,3.23,3.66,2.01
3.8600,0.07,0.13,-0.99,3.17,3.36,2.01
3.8750,0.07,0.13,-0.99,3.17,3.30,2.08
3.8930,0.07,0.12,-0.99,2.75,3.48,2.01
3.8950,0.07,0.12,-0.99,3.23,3.60,2.14
3.9230,0.07,0.12,-1.00,3.42,3.60,2.08
3.9390,0.07,0.13,-0.99,3.05,3.54,1.89
3.9560,0.07,0.13,-0.99,3.05,3.36,1.77
3.9710,0.07,0.13,-0.99,2.87,3.60,1.77
3.9860,0.07,0.13,-0.99,3.23,3.66,2.01
4.0010,0.07,0.12,-0.99,2.87,3.78,2.01
4.0120,0.07,0.12,-0.99,3.05,3.66,2.08
4.0280,0.07,0.12,-0.99,3.23,3.42,2.01
4.0450,0.07,0.13,-0.99,3.17,3.54,2.01
4.0600,0.07,0.13,-0.99,2.81,3.42,1.95
4.0770,0.07,0.13,-0.99,2.99,3.23,1.89
4.0920,0.07,0.12,-0.99,2.87,3.42,2.01
4.0990,0.07,0.12,-0.99,3.42,3.54,2.08
4.1230,0.07,0.12,-0.99,3.05,3.78,2.14
4.1380,0.07,0.13,-0.99,2.99,3.48,2.08
4.1490,0.07,0.12,-0.99,3.05,3.48,1.95
4.1640,0.07,0.13,-1.00,3.11,3.66,2.08
4.1830,0.07,0.12,-0.99,2.93,3.66,2.08
4.1870,0.07,0.12,-0.99,3.17,3.42,2.01
4.2040,0.07,0.12,-0.99,3.42,3.48,2.14
4.2210,0.07,0.13,-0.99,3.42,3.48,2.14
4.2380,0.07,0.13,-0.99,3.23,3.85,2.01
4.2530,0.07,0.13,-0.99,3.30,3.91,2.08
4.2710,0.07,0.12,-0.99,2.99,3.91,2.08
4.2880,0.07,0.12,-0.99,3.11,3.66,2.01
4.3030,0.07,0.12,-0.99,3.36,3.85,2.08
4.3200,0.07,0.13,-0.99,3.17,3.60,2.01
4.3360,0.07,0.13,-0.99,3.36,3.48,2.08
4.3520,0.07,0.13,-0.99,3.17,3.42,2.08
4.3690,0.07,0.12,-0.99,2.81,3.54,1.95
4.3840,0.07,0.12,-0.99,2.87,3.54,1.95
4.3990,0.07,0.13,-0.99,3.05,3.91,2.01
4.4100,0.07,0.13,-0.99,3.42,3.54,2.20
4.4270,0.07,0.13,-0.99,3.36,3.42,2.14
4.4430,0.07,0.12,-0.99,3.23,3.91,2.08
4.4610,0.07,0.13,-0.99,2.99,3.30,2.01
4.4770,0.07,0.13,-0.99,2.93,3.66,1.83
4.4800,0.07,0.13,-0.99,2.50,3.78,1.89
4.4990,0.07,0.13,-0.99,2.38,3.23,2.01
4.5160,0.07,0.13,-0.99,2.44,3.23,1.95
4.5330,0.07,0.12,-0.99,2.26,3.72,2.01
4.5490,0.07,0.12,-0.99,2.50,3.60,1.83
4.5660,0.07,0.12,-0.99,3.23,3.97,2.01
4.5820,0.08,0.12,-0.99,3.48,3.91,2.01
4.5980,0.08,0.13,-0.99,3.48,3.78,2.14
4.6040,0.07,0.13,-0.99,3.66,3.85,2.08
4.6280,0.07,0.13,-0.99,3.54,3.54,2.14
4.6380,0.07,0.12,-0.99,3.05,3.54,2.01
4.6550,0.07,0.12,-0.99,2.99,3.66,1.95
4.6720,0.07,0.12,-0.99,2.99,3.66,1.89
4.6880,0.07,0.13,-0.99,3.11,3.91,1.89
4.7040,0.07,0.13,-0.99,3.23,3.54,1.89
4.7200,0.07,0.13,-0.99,3.23,3.72,2.01
4.7360,0.07,0.13,-0.99,3.23,3.48,2.14
4.7510,0.07,0.13,-1.00,3.17,3.48,2.01
4.7620,0.07,0.12,-0.99,2.69,3.66,1.95
4.7810,0.07,0.13,-0.99,2.69,3.30,1.95
4.7960,0.07,0.12,-0.99,2.56,3.42,1.89
4.8110,0.07,0.12,-0.99,2.69,3.72,1.95
4.8280,0.07,0.12,-0.99,2.75,3.54,2.14
4.8440,0.07,0.12,-0.99,3.23,3.85,2.01
4.8590,0.07,0.12,-0.99,3.54,3.72,2.01
4.8660,0.07,0.13,-0.99,3.36,3.72,2.01
4.8820,0.07,0.13,-0.99,3.30,3.60,2.01
4.9050,0.07,0.12,-0.99,2.87,3.48,1.95
4.9200,0.07,0.12,-0.99,2.75,3.78,1.95
4.9370,0.07,0.12,-0.99,3.23,3.66,2.01
4.9370,0.07,0.13,-0.99,3.72,3.30,2.01
4.9680,0.07,0.13,-0.99,3.85,3.30,2.08
4.9830,0.07,0.13,-0.99,3.85,3.48,2.08
4.9980,0.07,0.13,-0.99,2.93,3.72,1.95
5.0060,0.07,0.12,-0.99,2.44,3.54,1.77
5.0210,0.07,0.12,-0.99,2.38,3.54,1.89
5.0440,0.07,0.12,-0.99,3.11,3.48,2.08
5.0600,0.07,0.13,-0.99,3.60,3.23,2.08
5.0750,0.07,0.13,-0.99,3.36,3.48,1.89
5.0910,0.07,0.13,-0.99,3.17,3.72,2.01
5.1060,0.07,0.12,-0.99,2.75,3.72,1.95
5.1210,0.07,0.12,-0.99,2.99,3.66,2.08
5.1380,0.07,0.12,-0.99,3.30,3.60,2.01
5.1530,0.07,0.12,-0.99,3.42,3.42,2.01
5.1690,0.07,0.13,-0.99,3.42,3.36,2.14
5.1810,0.07,0.13,-0.99,3.36,3.66,2.01
5.1930,0.07,0.13,-0.99,3.11,3.36,2.08
5.2150,0.07,0.13,-0.99,2.93,3.42,2.14
5.2310,0.07,0.12,-0.99,2.69,3.60,2.08
5.2470,0.07,0.12,-0.99,2.93,3.48,2.01
5.2620,0.07,0.13,-0.99,3.11,3.54,2.08
5.2770,0.07,0.12,-0.99,2.93,3.36,1.95
5.2920,0.07,0.12,-1.00,2.81,3.66,2.01
5.2990,0.07,0.12,-0.99,2.69,3.60,2.01
5.3160,0.07,0.12,-0.99,2.75,3.48,1.83
5.3320,0.07,0.12,-0.99,3.54,3.42,1.95
5.3490,0.07,0.13,-0.99,3.85,3.72,2.08
5.3650,0.07,0.13,-0.99,3.54,3.66,2.20
5.3830,0.07,0.12,-0.99,3.17,3.48,2.08
5.3990,0.07,0.12,-0.99,3.23,3.54,2.08
5.4150,0.07,0.12,-0.99,3.23,3.42,2.01
5.4330,0.07,0.13,-0.99,3.36,3.48,2.08
5.4490,0.07,0.13,-0.99,2.87,3.42,1.95
5.4650,0.07,0.13,-0.99,2.99,3.36,2.01
5.4800,0.07,0.13,-1.00,2.62,3.42,2.08
5.4950,0.07,0.12,-0.99,2.38,3.36,1.95
5.5110,0.07,0.12,-0.99,3.11,3.36,1.95
5.5270,0.07,0.13,-0.99,3.60,3.36,1.95
5.5430,0.07,0.13,-0.99,3.23,3.30,2.01
5.5490,0.07,0.12,-0.99,2.87,3.36,2.08
5.5730,0.07,0.12,-1.00,2.62,3.23,1.95
5.5880,0.07,0.12,-0.99,2.87,3.54,2.01
5.5980,0.07,0.12,-0.99,2.99,3.36,2.08
5.6160,0.07,0.12,-0.99,3.11,3.66,2.14
5.6330,0.07,0.12,-0.99,3.05,3.48,2.14
5.6500,0.07,0.12,-0.99,3.72,3.05,2.32
5.6660,0.07,0.16,-1.01,7.45,3.30,0.37
5.6830,0.06,0.09,-1.00,3.85,3.48,2.26
5.6980,0.07,0.12,-0.99,2.87,3.78,1.77
5.7140,0.07,0.13,-0.99,3.42,3.54,1.65
5.7300,0.08,0.14,-0.99,3.72,3.17,3.17
5.7450,0.07,0.11,-0.99,3.11,3.30,3.60
5.7600,0.07,0.12,-0.99,2.93,3.66,2.56
5.7650,0.07,0.12,-0.99,2.87,3.36,2.08
5.7820,0.07,0.13,-0.99,2.93,3.72,2.08
5.8030,0.08,0.13,-0.99,3.60,3.54,1.95
5.8200,0.07,0.13,-0.99,3.42,3.60,2.14
5.8370,0.07,0.12,-0.99,2.87,3.48,2.08
5.8520,0.07,0.11,-0.99,2.44,3.72,1.89
5.8690,0.07,0.11,-0.99,2.44,3.97,1.95
5.8820,0.07,0.12,-0.99,2.93,3.78,2.01
5.8920,0.08,0.13,-0.99,3.91,3.78,2.08
5.9080,0.07,0.14,-0.99,3.78,3.17,1.95
5.9250,0.07,0.12,-0.99,2.62,3.54,2.08
5.9410,0.07,0.12,-0.99,2.20,3.54,1.89
5.9590,0.07,0.12,-0.99,2.69,3.54,2.14
5.9750,0.07,0.13,-0.99,3.17,3.54,2.14
5.9910,0.07,0.13,-0.99,3.36,3.36,2.20
6.0090,0.07,0.13,-0.99,3.23,3.42,1.95
6.0140,0.07,0.12,-0.99,2.44,3.66,1.95
6.0390,0.07,0.12,-0.99,2.93,3.60,1.95
6.0540,0.07,0.12,-0.99,3.30,3.97,2.01
6.0640,0.07,0.13,-0.99,3.42,3.72,1.95
6.0820,0.07,0.13,-0.99,3.54,3.36,2.01
6.0990,0.07,0.13,-0.99,2.81,3.54,1.95
6.1160,0.07,0.12,-0.99,2.56,3.36,1.83
6.1160,0.07,0.12,-0.99,2.62,3.66,1.95
6.1320,0.07,0.12,-0.99,3.05,3.72,1.95
6.1620,0.07,0.13,-0.99,3.17,3.85,2.08
6.1720,0.07,0.13,-0.99,3.36,3.60,2.08
6.1870,0.07,0.13,-1.00,2.75,3.66,2.01
6.2070,0.07,0.12,-0.99,2.32,4.03,2.20
6.2240,0.08,0.12,-0.99,2.87,3.72,2.01
6.2390,0.07,0.13,-0.99,4.09,3.66,2.20
6.2550,0.07,0.13,-1.00,4.21,3.54,2.14
6.2710,0.07,0.12,-0.99,3.48,3.72,2.08
6.2830,0.07,0.12,-0.99,3.17,3.66,2.14
6.2910,0.07,0.12,-0.99,3.05,3.54,2.01
6.3140,0.07,0.12,-0.99,3.72,3.36,1.95
6.3310,0.07,0.12,-0.99,3.30,3.85,1.89
6.3470,0.07,0.14,-1.00,5.68,3.23,2.14
6.3640,0.07,0.12,-0.99,3.78,3.54,2.08
6.3790,0.07,0.13,-1.00,4.21,3.11,2.14
6.3960,0.07,0.12,-0.99,2.99,3.66,2.01
6.4110,0.07,0.13,-0.99,3.17,3.72,2.14
6.4190,0.07,0.12,-1.00,3.17,3.72,2.01
6.4350,0.07,0.13,-0.99,3.78,3.36,2.08
6.4520,0.07,0.12,-0.99,2.69,3.36,1.83
6.4670,0.07,0.13,-0.99,2.99,3.54,2.01
6.4880,0.07,0.12,-0.99,2.44,3.48,1.83
6.5040,0.07,0.13,-0.99,3.05,3.42,1.95
6.5190,0.07,0.13,-0.99,3.05,3.66,2.01
6.5340,0.07,0.13,-0.99,3.17,3.42,1.95
6.5490,0.07,0.13,-0.99,3.05,3.36,1.83
6.5640,0.07,0.13,-0.99,2.93,3.42,2.01
6.5790,0.07,0.12,-0.99,2.99,3.85,2.08
6.5890,0.07,0.13,-0.99,3.17,3.30,2.14
6.6060,0.07,0.13,-0.99,3.30,3.60,1.95
6.6220,0.07,0.13,-0.99,3.23,3.66,2.14
6.6380,0.07,0.13,-1.00,3.23,3.48,1.89
6.6560,0.07,0.12,-0.99,2.81,3.54,1.95
6.6700,0.07,0.13,-1.00,3.36,3.48,1.95
6.6830,0.07,0.13,-0.99,3.11,3.72,2.08
6.7020,0.07,0.13,-0.99,3.42,3.54,2.01
6.7170,0.07,0.13,-0.99,2.99,3.54,1.95
6.7270,0.08,0.12,-0.97,2.93,3.54,1.95
6.7430,0.05,0.16,-0.96,3.23,3.72,2.08
6.7630,0.06,0.10,-1.01,2.87,3.85,2.14
6.7780,0.09,0.14,-0.96,3.17,3.66,2.01
6.7930,0.08,0.12,-0.98,2.99,3.97,1.95
6.8080,0.07,0.12,-1.00,2.81,3.42,2.08
6.8240,0.06,0.14,-0.99,4.03,3.54,2.14
6.8400,0.09,0.13,-0.99,3.36,3.36,2.14
6.8560,0.07,0.13,-0.99,1.95,3.66,1.95
6.8640,0.07,0.12,-1.00,2.69,3.97,1.89
6.8830,0.08,0.12,-1.00,2.75,3.48,2.08
6.9020,0.07,0.13,-0.99,3.48,3.91,2.08
6.9170,0.08,0.12,-0.99,3.42,3.72,2.14
6.9330,0.06,0.13,-0.99,3.54,3.60,2.08
6.9490,0.07,0.13,-0.99,2.99,3.91,2.08
6.9640,0.07,0.12,-0.99,2.62,3.54,2.08
6.9700,0.07,0.13,-0.99,3.23,3.60,1.95
6.9870,0.07,0.13,-0.99,3.42,3.72,1.95
7.0040,0.07,0.13,-1.00,3.11,3.60,2.14
7.0210,0.07,0.13,-0.99,2.87,3.78,1.95
7.0360,0.07,0.13,-0.99,2.56,3.72,2.01
7.0570,0.07,0.12,-0.99,2.20,3.60,1.95
7.0580,0.07,0.13,-0.99,2.38,3.78,1.95
7.0880,0.07,0.12,-0.99,2.01,3.78,1.95
7.1040,0.07,0.13,-1.00,2.99,3.36,1.77
7.1200,0.08,0.12,-0.99,2.62,3.30,2.01
7.1360,0.07,0.13,-0.99,2.62,3.85,2.01
7.1520,0.07,0.12,-0.99,3.11,3.54,2.14
7.1670,0.08,0.13,-1.00,3.66,3.60,2.14
7.1820,0.07,0.13,-0.99,3.48,4.03,2.20
7.1900,0.07,0.12,-0.99,3.85,3.91,2.26
7.2070,0.07,0.13,-1.00,3.78,3.85,2.20
7.2230,0.07,0.13,-0.99,3.36,3.54,2.01
7.2440,0.07,0.13,-0.99,2.50,3.97,2.01
7.2600,0.07,0.13,-0.99,2.32,3.85,1.83
7.2600,0.07,0.12,-0.99,2.20,3.30,1.83
7.2900,0.07,0.13,-0.99,2.62,3.23,1.95
7.2970,0.07,0.13,-0.99,2.56,3.36,1.89
7.3150,0.07,0.12,-1.00,2.69,3.78,2.01
7.3300,0.07,0.12,-1.00,2.87,3.54,2.08
7.3470,0.07,0.12,-0.99,2.69,3.91,2.01
7.3630,0.07,0.12,-0.99,2.87,3.72,2.01
7.3810,0.07,0.13,-0.99,3.60,3.36,2.14
7.3960,0.07,0.13,-0.99,4.03,3.66,2.26
7.4110,0.07,0.13,-1.00,3.85,3.66,2.08
7.4260,0.07,0.12,-1.00,2.81,3.72,2.01
7.4340,0.07,0.13,-0.99,2.81,3.91,1.95
7.4510,0.07,0.13,-1.00,2.75,3.85,1.95
7.4730,0.07,0.13,-0.99,2.93,3.11,1.95
7.4880,0.08,0.13,-1.00,2.62,3.48,2.01
7.5040,0.07,0.11,-0.99,2.14,3.72,2.08
7.5200,0.07,0.12,-1.00,3.11,3.48,2.01
7.5250,0.08,0.12,-0.99,2.81,3.54,2.08
7.5410,0.07,0.12,-0.99,3.23,3.66,2.08
7.5660,0.07,0.12,-0.99,4.03,3.72,2.20
7.5820,0.07,0.13,-1.00,4.03,3.72,2.14
7.5900,0.07,0.12,-0.99,3.72,3.54,2.08
7.6130,0.07,0.12,-0.99,4.39,3.85,2.01
7.6240,0.06,0.14,-0.98,4.64,3.85,2.20
7.6410,0.07,0.13,-0.99,4.27,3.97,2.44
7.6570,0.07,0.13,-1.00,4.21,3.42,1.95
7.6750,0.07,0.13,-0.99,2.50,3.66,1.95
7.6910,0.07,0.13,-1.00,2.32,3.66,1.83
7.7070,0.07,0.11,-0.99,1.65,3.85,1.83
7.7220,0.07,0.12,-0.99,2.93,3.78,1.89
7.7390,0.07,0.13,-1.00,4.03,3.54,2.20
7.7550,0.07,0.13,-0.99,3.42,3.42,2.14
7.7710,0.07,0.13,-0.99,2.69,3.72,1.95
7.7850,0.07,0.12,-1.00,2.32,3.85,2.01
7.7940,0.07,0.12,-0.99,2.08,3.72,2.20
7.8100,0.07,0.13,-0.99,2.93,3.78,2.26
7.8310,0.07,0.13,-1.00,3.30,3.42,1.83
7.8460,0.07,0.13,-0.99,2.56,3.78,2.01
7.8620,0.07,0.13,-0.99,2.32,3.85,2.08
7.8660,0.07,0.12,-0.99,2.56,3.23,2.14
7.8850,0.07,0.12,-0.99,2.69,3.72,2.14
7.9050,0.07,0.12,-0.99,3.17,3.30,2.01
7.9210,0.07,0.12,-0.99,3.30,4.03,2.08
7.9370,0.07,0.12,-0.99,3.36,3.85,1.95
7.9530,0.07,0.13,-0.99,3.17,3.72,1.83
7.9680,0.07,0.13,-1.00,3.30,3.54,2.08
7.9840,0.07,0.13,-1.01,2.69,3.97,2.01
8.0010,0.08,0.12,-0.99,2.56,3.48,1.89
8.0160,0.07,0.12,-1.00,2.62,3.36,1.89
8.0310,0.07,0.13,-1.00,3.72,3.36,2.08
8.0380,0.08,0.13,-0.99,3.11,3.72,2.08
8.0530,0.07,0.12,-0.99,2.99,3.54,2.01
8.0760,0.06,0.12,-0.99,2.69,3.85,2.14
8.0920,0.08,0.13,-1.00,3.72,3.72,2.14
8.1070,0.07,0.13,-0.99,3.23,3.48,1.95
8.1220,0.07,0.13,-0.99,3.85,3.48,2.14
8.1370,0.07,0.13,-1.00,3.23,3.78,2.08
8.1520,0.07,0.13,-0.98,2.75,3.72,1.83
8.1630,0.06,0.11,-0.97,1.40,3.48,3.36
8.1790,0.06,0.19,-1.01,6.59,1.65,8.67
8.1960,0.07,0.11,-0.97,1.34,2.26,9.52
8.2120,0.08,0.11,-0.99,3.11,3.05,6.47
8.2270,0.07,0.12,-0.99,3.42,3.60,2.75
8.2420,0.07,0.13,-1.00,4.15,3.48,2.50
8.2510,0.07,0.12,-1.00,3.11,3.42,2.32
8.2670,0.07,0.13,-0.99,3.11,3.36,2.93
8.2870,0.07,0.11,-0.99,2.81,3.91,3.48
8.3040,0.07,0.13,-1.00,3.48,3.54,2.32
8.3190,0.07,0.12,-1.00,4.21,3.85,2.14
8.3340,0.07,0.12,-0.99,4.09,3.54,2.14
8.3390,0.07,0.12,-1.00,3.42,3.60,2.20
8.3550,0.07,0.13,-0.99,2.99,3.66,2.32
8.3790,0.08,0.13,-0.99,3.11,3.23,4.46
8.3960,0.08,0.12,-0.99,2.38,3.05,4.03
8.4110,0.07,0.12,-0.99,2.32,3.66,2.56
8.4260,0.07,0.13,-0.99,3.17,3.42,2.38
8.4420,0.07,0.14,-0.99,2.99,3.54,3.23
8.4570,0.07,0.12,-0.99,2.87,3.54,4.94
8.4730,0.07,0.14,-1.00,2.93,3.05,4.52
8.4890,0.08,0.13,-0.99,2.56,3.05,5.25
8.5040,0.07,0.13,-0.99,2.81,3.30,5.19
8.5190,0.07,0.13,-0.98,2.62,3.11,5.37
8.5340,0.07,0.13,-0.99,2.81,2.87,5.55
8.5460,0.07,0.12,-0.99,2.99,3.05,5.55
8.5620,0.07,0.11,-1.00,2.81,3.36,6.04
8.5790,0.07,0.12,-0.99,2.14,3.48,4.52
8.5850,0.07,0.11,-0.99,2.32,3.78,4.15
8.5940,0.07,0.11,-0.99,2.50,3.97,3.23
8.6250,0.07,0.13,-1.00,3.85,3.78,2.08
8.6400,0.07,0.13,-0.99,3.11,3.60,2.08
8.6550,0.07,0.13,-0.99,2.44,3.72,1.89
8.6700,0.07,0.12,-0.99,2.38,3.72,2.01
8.6820,0.07,0.13,-1.00,2.14,3.78,1.95
8.7000,0.07,0.12,-0.99,1.89,3.91,2.14
8.7000,0.07,0.12,-0.99,2.56,3.30,2.20
8.7300,0.07,0.12,-0.99,2.81,3.60,2.14
8.7370,0.07,0.12,-0.99,2.93,3.42,2.08
8.7540,0.07,0.13,-0.99,2.81,3.91,2.20
8.7700,0.07,0.13,-0.98,3.11,3.30,2.56
8.7900,0.07,0.13,-0.99,2.87,3.66,3.48
8.8060,0.07,0.13,-0.99,2.87,3.36,4.52
8.8080,0.07,0.12,-1.00,2.50,3.30,4.39
8.8390,0.07,0.12,-1.00,2.50,3.54,3.60
8.8410,0.07,0.13,-0.99,2.56,3.60,3.36
8.8560,0.07,0.12,-0.99,3.30,3.36,3.60
8.8840,0.07,0.11,-1.00,3.11,3.42,3.54
8.8990,0.07,0.12,-0.99,2.62,3.17,2.81
8.9100,0.07,0.12,-0.99,3.05,3.17,3.60
8.9270,0.07,0.11,-0.99,3.66,3.66,3.54
8.9440,0.07,0.12,-1.00,3.60,3.66,2.56
8.9600,0.08,0.14,-0.99,3.85,3.11,2.08
8.9760,0.07,0.14,-0.99,3.66,3.30,2.08
8.9910,0.07,0.12,-1.00,2.62,3.54,2.01
8.9940,0.07,0.11,-1.00,1.71,4.03,2.08
9.0230,0.07,0.11,-0.99,1.83,4.09,2.50
9.0380,0.07,0.12,-0.99,3.60,3.54,3.05
9.0550,0.07,0.13,-0.99,4.46,3.48,2.62
9.0600,0.08,0.14,-1.00,4.39,3.72,2.26
9.0860,0.07,0.13,-1.00,2.50,3.60,1.89
9.1010,0.07,0.13,-0.99,2.08,3.54,2.87
9.1160,0.07,0.14,-0.99,2.32,3.11,4.33
9.1280,0.07,0.12,-0.99,2.50,3.30,4.46
9.1440,0.07,0.13,-0.99,2.20,3.42,3.60
9.1610,0.08,0.14,-1.00,2.99,3.54,4.03
9.1770,0.08,0.13,-0.99,3.30,3.05,4.15
9.1920,0.08,0.13,-1.00,2.87,2.75,4.03
9.2070,0.07,0.11,-1.00,3.11,2.99,4.39
9.2230,0.06,0.11,-1.00,3.23,3.42,3.78
9.2390,0.07,0.11,-0.99,2.50,3.48,2.62
9.2540,0.07,0.12,-1.00,2.81,3.42,2.01
9.2610,0.07,0.12,-1.00,2.56,3.54,2.08
9.2860,0.07,0.13,-0.99,2.08,3.66,2.20
9.3010,0.07,0.14,-0.98,2.26,3.78,3.17
9.3110,0.07,0.13,-0.99,3.97,3.42,4.21
9.3270,0.07,0.11,-0.99,3.36,3.48,4.64
9.3440,0.07,0.12,-0.99,2.38,3.91,2.69
9.3610,0.07,0.12,-0.99,2.56,3.72,2.50
9.3770,0.07,0.12,-0.99,2.93,3.60,2.99
9.3940,0.07,0.12,-1.00,2.75,3.60,3.23
9.4090,0.07,0.12,-0.99,2.81,3.36,3.05
9.4240,0.07,0.13,-0.99,2.87,3.36,2.93
9.4310,0.07,0.13,-0.99,3.17,3.36,3.66
9.4540,0.08,0.13,-0.99,2.99,3.85,4.03
9.4690,0.07,0.13,-0.99,2.81,3.42,3.91
9.4800,0.07,0.13,-0.99,2.75,3.48,3.78
9.4970,0.07,0.12,-1.00,3.85,3.11,5.13
9.5140,0.07,0.11,-0.99,2.81,3.23,3.66
9.5300,0.07,0.12,-0.99,2.44,3.60,2.69
9.5450,0.07,0.12,-0.99,2.69,3.85,3.54
9.5590,0.07,0.12,-0.99,3.54,3.48,4.03
9.5760,0.07,0.12,-0.99,3.11,3.36,3.60
9.5910,0.07,0.12,-0.99,3.05,3.85,2.56
9.6060,0.07,0.13,-0.99,3.85,3.54,2.26
9.6220,0.07,0.12,-0.99,2.93,3.78,2.26
9.6370,0.07,0.13,-0.99,2.99,3.48,2.62
9.6520,0.07,0.13,-0.99,2.69,3.48,4.33
9.6630,0.07,0.11,-1.00,3.54,3.17,4.27
9.6800,0.07,0.13,-0.99,2.93,3.72,2.26
9.6970,0.07,0.13,-0.99,3.54,3.54,2.08
9.7130,0.07,0.13,-0.99,3.91,3.54,2.38
9.7280,0.07,0.13,-0.99,4.09,3.54,3.23
9.7430,0.07,0.14,-0.99,3.66,3.30,4.52
9.7580,0.07,0.13,-0.99,3.36,2.50,6.10
9.7730,0.07,0.13,-0.99,2.69,3.23,6.10
9.7850,0.07,0.12,-0.99,2.99,3.17,5.86
9.8000,0.07,0.11,-0.98,1.71,3.48,5.74
9.8160,0.07,0.12,-1.00,3.30,3.11,4.52
9.8320,0.07,0.12,-1.00,3.17,3.36,4.27
9.8480,0.07,0.12,-0.99,2.93,3.36,3.91
9.8640,0.07,0.13,-0.99,3.11,3.23,4.03
9.8670,0.07,0.12,-1.00,3.48,3.42,4.03
9.8850,0.07,0.12,-0.99,3.11,3.42,2.81
9.9030,0.07,0.12,-1.00,2.69,3.42,2.56
9.9190,0.07,0.12,-0.99,2.81,3.60,2.26
9.9350,0.07,0.12,-0.99,3.11,3.97,2.26
9.9520,0.08,0.13,-0.99,3.36,3.36,2.01
9.9690,0.07,0.13,-0.99,3.17,4.09,2.01
9.9860,0.07,0.12,-1.00,2.56,3.48,1.89
10.0010,0.07,0.13,-0.99,2.32,3.85,2.01
10.0060,0.07,0.14,-0.99,2.93,3.48,1.95
10.0230,0.07,0.13,-1.00,3.42,3.48,2.32
10.0400,0.07,0.13,-0.99,2.75,3.60,2.44
10.0560,0.07,0.13,-0.99,3.11,3.66,2.93
10.0720,0.07,0.11,-1.00,2.44,3.97,3.11
10.0900,0.07,0.11,-1.00,2.56,3.60,2.56
10.1060,0.07,0.12,-0.99,2.69,3.48,2.32
10.1210,0.07,0.13,-0.99,3.36,3.54,2.20
10.1400,0.07,0.13,-0.99,4.03,3.23,2.62
10.1550,0.07,0.13,-0.99,3.17,3.42,2.75
10.1710,0.07,0.13,-0.99,2.99,3.97,2.44
10.1860,0.07,0.12,-0.99,2.87,3.54,2.56
10.2000,0.07,0.12,-0.99,3.30,3.72,2.44
10.2130,0.07,0.12,-0.99,2.69,3.60,2.26
10.2290,0.07,0.13,-0.99,2.81,3.48,2.38
10.2460,0.07,0.13,-0.99,2.93,3.60,2.87
10.2610,0.07,0.13,-0.99,3.36,3.17,3.11
10.2760,0.07,0.13,-0.99,2.93,3.42,3.17
10.2900,0.07,0.13,-0.99,2.62,3.54,3.36
10.3020,0.07,0.12,-1.00,3.23,3.60,4.15
10.3180,0.07,0.11,-1.00,2.69,3.60,3.78
10.3350,0.07,0.11,-0.99,2.69,3.36,2.62
10.3510,0.07,0.12,-0.99,2.87,3.36,2.38
10.3670,0.07,0.14,-0.99,3.60,3.48,2.75
10.3830,0.07,0.13,-0.99,3.17,3.42,3.97
10.3980,0.08,0.13,-0.99,3.23,2.93,6.10
10.4130,0.07,0.12,-0.99,2.93,3.48,5.68
10.4280,0.07,0.12,-0.99,2.93,3.23,5.07
10.4360,0.07,0.12,-0.99,3.11,3.54,4.33
10.4590,0.07,0.12,-1.00,3.23,2.99,4.21
10.4690,0.07,0.13,-0.99,2.26,3.30,3.54
10.4900,0.07,0.13,-0.99,2.81,3.30,4.70
10.5020,0.07,0.13,-1.00,2.38,3.05,5.86
10.5180,0.07,0.12,-0.99,2.14,3.17,5.68
10.5360,0.08,0.13,-1.00,2.20,3.23,6.65
10.5520,0.07,0.13,-1.00,3.05,2.81,6.96
10.5550,0.07,0.12,-0.99,2.32,3.23,5.43
10.5700,0.07,0.11,-1.00,2.26,3.42,3.85
10.5980,0.07,0.12,-0.99,2.44,3.36,2.26
10.6080,0.07,0.12,-0.99,2.75,3.42,2.14
10.6240,0.07,0.13,-0.99,3.17,3.72,2.20
10.6430,0.07,0.13,-0.99,2.87,3.66,2.38
10.6580,0.07,0.14,-0.99,2.69,3.72,3.23
10.6730,0.07,0.13,-0.99,3.30,3.05,4.82
10.6890,0.07,0.12,-1.00,2.93,3.54,5.49
10.7030,0.08,0.12,-0.99,2.38,3.60,4.64
10.7100,0.07,0.12,-0.99,2.26,3.48,3.36
10.7340,0.07,0.11,-0.99,3.17,3.91,2.44
10.7430,0.07,0.12,-0.99,3.66,3.54,2.20
10.7610,0.07,0.12,-0.99,3.66,3.23,2.20
10.7770,0.07,0.13,-1.00,3.42,3.66,2.08
10.7940,0.07,0.14,-0.99,2.81,3.85,2.26
10.8090,0.08,0.14,-1.00,4.46,3.23,3.97
10.8160,0.08,0.13,-0.99,3.97,2.99,4.88
10.8390,0.07,0.12,-0.99,3.72,3.11,4.58
10.8500,0.07,0.12,-0.99,3.05,3.42,3.48
10.8670,0.07,0.12,-0.99,3.91,3.48,3.05
10.8830,0.07,0.11,-1.00,3.85,3.66,2.26
10.9000,0.07,0.13,-0.99,3.05,3.54,1.77
10.9160,0.08,0.14,-0.99,3.17,3.60,1.83
10.9310,0.07,0.13,-0.99,4.03,3.85,1.16
10.9480,0.07,0.13,-0.99,4.03,3.54,2.08
10.9640,0.08,0.14,-0.99,3.48,3.78,2.69
10.9800,0.07,0.12,-0.99,3.48,3.91,1.83
10.9960,0.07,0.12,-1.00,3.23,3.60,1.40
11.0110,0.07,0.13,-0.99,2.99,3.66,1.53
11.0260,0.07,0.12,-0.99,2.93,3.78,1.71
11.0340,0.07,0.12,-0.99,2.99,3.54,2.14
11.0500,0.07,0.13,-1.00,3.48,3.54,2.99
11.0710,0.07,0.12,-0.99,3.17,3.42,3.23
11.0880,0.07,0.12,-0.99,3.11,3.60,2.99
11.1040,0.08,0.13,-0.99,3.17,3.42,3.17
11.1200,0.07,0.13,-0.99,3.36,3.36,3.05
11.1350,0.07,0.13,-0.99,3.11,3.42,2.93
11.1490,0.07,0.12,-0.99,2.81,3.54,2.81
11.1640,0.07,0.12,-0.99,2.50,3.66,2.93
11.1760,0.07,0.12,-0.99,3.05,3.36,3.05
11.1920,0.07,0.12,-0.99,3.30,3.48,2.32
11.2090,0.07,0.13,-0.99,3.30,3.54,2.20
11.2260,0.07,0.13,-0.99,3.36,3.78,2.20
11.2410,0.07,0.13,-0.99,3.05,3.60,1.95
11.2580,0.07,0.13,-0.99,3.05,3.48,2.01
11.2600,0.07,0.13,-1.00,3.66,3.11,2.32
11.2890,0.07,0.13,-0.99,2.44,3.36,2.38
11.2960,0.07,0.13,-0.99,2.81,3.36,2.62
11.3190,0.07,0.13,-0.99,2.44,3.60,2.62
11.3290,0.07,0.13,-0.99,2.62,3.54,3.05
11.3460,0.07,0.15,-0.99,2.99,3.17,3.66
11.3630,0.07,0.13,-0.99,2.93,3.48,4.82
11.3790,0.07,0.12,-1.00,2.44,3.11,5.37
11.3950,0.07,0.12,-1.00,1.53,3.17,5.68
11.4100,0.07,0.11,-0.99,1.77,3.36,4.76
11.4250,0.07,0.12,-0.99,1.95,3.72,3.60
11.4390,0.07,0.12,-1.00,2.50,3.85,3.30
11.4550,0.07,0.12,-1.00,2.81,3.48,2.93
11.4700,0.07,0.13,-0.98,2.81,3.36,2.69
11.4840,0.07,0.13,-0.99,2.81,3.60,3.30
11.4960,0.08,0.13,-0.99,2.87,3.23,3.66
11.5130,0.07,0.13,-0.99,2.69,3.36,3.17
11.5300,0.07,0.14,-0.99,3.05,3.42,3.72
11.5450,0.07,0.12,-0.99,2.93,3.05,5.13
11.5450,0.07,0.11,-0.99,2.99,3.42,4.70
11.5690,0.07,0.12,-0.99,3.17,3.30,3.97
11.5870,0.07,0.14,-0.99,3.54,3.42,4.52
11.6040,0.07,0.13,-1.00,3.42,3.11,5.74
11.6190,0.07,0.11,-0.99,2.69,2.87,5.80
11.6360,0.07,0.12,-0.99,2.08,2.99,4.70
11.6530,0.07,0.11,-1.00,2.50,3.85,3.60
11.6680,0.07,0.12,-0.99,3.05,3.85,2.08
11.6690,0.07,0.12,-0.99,2.99,3.36,1.95
11.7010,0.07,0.12,-0.99,2.93,3.72,1.95
11.7030,0.07,0.12,-0.99,2.62,3.91,2.01
11.7190,0.07,0.12,-0.99,2.56,3.72,2.01
11.7370,0.07,0.13,-1.00,3.36,3.91,2.26
11.7530,0.06,0.14,-0.99,3.11,3.66,3.17
11.7700,0.07,0.15,-0.99,2.44,2.99,6.16
11.7880,0.08,0.12,-0.99,2.20,3.17,6.65
11.8020,0.08,0.12,-1.00,2.26,3.30,5.74
11.8190,0.07,0.12,-0.99,2.01,3.48,4.82
11.8360,0.07,0.11,-0.99,2.75,3.36,5.19
11.8520,0.07,0.10,-1.00,2.75,3.78,4.03
11.8680,0.07,0.11,-0.99,2.93,3.78,2.14
11.8850,0.07,0.12,-0.99,3.11,3.66,2.26
11.8880,0.07,0.12,-0.99,2.62,3.66,2.14
11.9030,0.07,0.12,-0.98,2.62,3.54,2.75
11.9200,0.07,0.12,-1.00,2.81,3.42,2.99
11.9370,0.07,0.13,-0.99,2.93,3.78,2.26
11.9540,0.07,0.12,-0.99,2.99,3.66,2.81
11.9690,0.07,0.12,-0.99,2.93,3.48,3.23
11.9880,0.07,0.12,-0.99,2.62,3.85,3.48
12.0050,0.07,0.12,-0.99,2.62,3.48,2.56
12.0220,0.07,0.12,-0.99,2.93,3.85,2.32
12.0380,0.06,0.14,-0.99,3.11,3.85,2.62
12.0550,0.07,0.14,-0.99,3.17,3.05,6.77
12.0700,0.07,0.13,-0.99,2.44,2.87,8.30
12.0720,0.07,0.11,-0.99,2.38,2.93,8.42
12.1030,0.07,0.11,-0.99,2.62,3.42,7.20
12.1060,0.07,0.10,-0.99,4.03,3.30,5.55
12.1330,0.07,0.11,-0.99,3.05,3.91,4.27
12.1480,0.07,0.12,-1.00,4.88,3.11,4.27
12.1540,0.07,0.11,-0.99,2.87,3.85,3.30
12.1720,0.07,0.11,-0.99,3.11,3.97,2.44
12.1880,0.07,0.13,-1.00,2.44,3.60,2.01
12.2080,0.07,0.12,-0.99,1.28,3.23,2.08
12.2240,0.07,0.13,-0.99,2.81,3.42,2.38
12.2390,0.07,0.13,-0.99,3.91,3.48,2.56
12.2550,0.07,0.13,-0.99,2.99,3.72,2.69
12.2710,0.07,0.13,-0.99,3.42,3.85,4.21
12.2860,0.07,0.10,-1.00,2.93,3.36,4.39
12.3010,0.07,0.11,-1.00,2.50,3.60,3.05
12.3170,0.07,0.12,-0.99,3.78,3.42,2.01
12.3270,0.07,0.13,-0.99,2.87,3.78,2.38
12.3430,0.07,0.15,-0.99,3.23,3.11,4.46
12.3630,0.07,0.12,-0.99,3.97,3.05,5.25
12.3790,0.07,0.12,-1.00,2.93,3.36,4.76
12.3940,0.07,0.15,-0.99,2.26,3.17,4.64
12.4090,0.07,0.14,-0.99,2.08,2.93,7.63
12.4230,0.07,0.13,-0.99,2.69,3.23,8.67
12.4390,0.07,0.13,-0.99,2.69,2.75,8.67
12.4540,0.07,0.11,-0.99,1.77,3.05,9.09
12.4640,0.08,0.10,-1.00,2.87,2.75,8.48
12.4800,0.07,0.09,-1.00,2.62,2.93,5.68
12.4980,0.07,0.10,-0.99,2.44,3.66,3.11
12.5140,0.07,0.11,-0.99,2.62,3.72,2.44
12.5300,0.07,0.12,-1.00,4.64,3.17,2.32
12.5460,0.07,0.12,-0.99,3.11,3.30,2.20
12.5610,0.06,0.13,-0.99,2.75,3.66,2.50
12.5770,0.07,0.12,-0.99,2.62,3.48,4.82
12.5930,0.07,0.12,-0.99,2.50,3.54,4.94
12.5990,0.07,0.12,-1.00,2.14,3.60,4.21
12.6160,0.07,0.10,-0.98,2.50,3.54,3.05
12.6390,0.07,0.12,-0.99,4.09,3.60,2.26
12.6500,0.07,0.12,-1.00,3.78,3.72,2.14
12.6660,0.07,0.12,-0.99,3.42,3.36,2.08
12.6840,0.07,0.12,-0.99,3.30,3.30,2.01
12.6890,0.07,0.12,-0.99,3.78,3.36,2.14
12.7150,0.07,0.12,-1.00,3.48,3.48,2.20
12.7300,0.07,0.13,-0.99,2.75,3.36,2.44
12.7440,0.07,0.13,-0.99,2.50,3.60,5.00
12.7540,0.07,0.13,-0.99,3.23,3.36,5.13
12.7710,0.08,0.13,-0.99,4.09,3.42,4.64
12.7890,0.07,0.11,-0.99,4.52,3.36,2.99
12.8050,0.07,0.12,-0.99,3.11,3.48,2.44
12.8200,0.07,0.11,-1.00,3.11,3.54,2.75
12.8350,0.07,0.13,-0.99,3.30,3.23,2.81
12.8500,0.07,0.13,-0.99,3.72,3.42,3.48
12.8650,0.08,0.12,-0.99,3.91,3.36,3.66
12.8750,0.08,0.13,-0.99,3.78,3.17,2.56
12.8920,0.08,0.12,-0.99,3.91,3.23,2.01
12.9090,0.08,0.12,-0.99,4.27,3.60,-0.18
12.9240,0.07,0.12,-0.99,4.21,3.72,-0.73
12.9420,0.07,0.13,-0.99,3.54,3.60,-0.31
12.9570,0.06,0.11,-0.99,3.72,3.60,1.28
12.9730,0.06,0.11,-1.00,3.66,3.97,1.34
12.9890,0.07,0.12,-1.00,3.66,3.72,1.77
13.0040,0.07,0.12,-0.99,3.17,3.42,2.08
13.0190,0.07,0.13,-0.99,3.42,3.54,2.08
13.0330,0.07,0.13,-0.99,2.87,3.85,2.14
13.0450,0.07,0.11,-0.99,2.44,3.85,2.01
13.0620,0.07,0.13,-0.99,3.54,3.54,2.01
13.0780,0.08,0.14,-0.99,4.15,3.60,0.79
13.0890,0.07,0.12,-1.00,3.66,3.72,0.37
13.0960,0.07,0.13,-0.99,2.56,3.42,1.40
13.1170,0.07,0.12,-0.99,2.87,3.42,1.83
13.1330,0.07,0.11,-1.00,3.30,3.42,2.50
13.1500,0.07,0.12,-0.99,3.11,3.60,2.32
13.1670,0.07,0.12,-0.99,3.23,3.66,2.32
13.1830,0.07,0.13,-1.00,3.11,3.23,2.38
13.1990,0.07,0.15,-0.99,3.30,3.11,3.54
13.1990,0.07,0.13,-0.99,2.20,3.23,6.04
13.2220,0.07,0.13,-0.99,2.75,2.81,5.92
13.2450,0.07,0.12,-0.99,2.14,3.05,5.68
13.2560,0.07,0.12,-0.99,2.56,3.48,4.58
13.2730,0.07,0.12,-1.00,2.87,2.99,4.21
13.2900,0.07,0.12,-1.00,3.05,3.54,3.97
13.3050,0.07,0.12,-1.00,2.50,3.60,2.87
13.3220,0.07,0.12,-0.99,2.38,3.66,2.99
13.3380,0.07,0.11,-0.99,2.38,3.60,3.05
13.3400,0.07,0.12,-1.00,2.87,3.54,2.75
13.3560,0.07,0.12,-0.99,2.87,3.60,1.95
13.3830,0.07,0.12,-0.99,3.05,3.78,2.14
13.3930,0.07,0.13,-0.99,2.93,3.97,2.14
13.4090,0.07,0.13,-1.00,2.50,3.60,2.08
13.4270,0.07,0.13,-0.99,1.53,3.30,2.32
13.4420,0.08,0.13,-0.99,3.05,3.17,3.91
13.4420,0.08,0.12,-0.99,3.42,3.54,3.85
13.4730,0.07,0.10,-0.99,2.44,3.72,2.87
13.4880,0.07,0.12,-1.00,3.05,3.54,2.01
13.4980,0.07,0.13,-1.00,2.32,3.72,2.08
13.5130,0.07,0.15,-0.98,1.71,3.48,3.23
13.5330,0.07,0.13,-1.00,3.17,2.99,5.00
13.5480,0.07,0.11,-1.00,2.44,3.54,4.27
13.5630,0.07,0.11,-1.00,2.75,3.72,2.93
13.5780,0.07,0.12,-0.99,3.72,3.48,2.20
13.5930,0.07,0.12,-0.99,3.72,3.72,2.08
13.6070,0.07,0.12,-0.99,3.60,3.85,2.08
13.6170,0.07,0.12,-0.99,4.15,3.17,1.95
13.6340,0.08,0.14,-0.98,3.72,3.42,2.20
13.6510,0.07,0.14,-1.00,5.49,3.42,2.01
13.6680,0.08,0.14,-1.00,3.60,3.05,3.60
13.6830,0.08,0.13,-0.99,3.11,3.48,4.27
13.7000,0.07,0.12,-1.00,3.48,3.23,4.33
13.7060,0.07,0.11,-1.00,2.81,3.60,3.66
13.7220,0.07,0.12,-0.99,3.23,3.30,3.66
13.7390,0.07,0.13,-0.99,3.23,3.30,4.70
13.7570,0.07,0.13,-0.99,2.99,3.05,5.55
13.7720,0.07,0.12,-0.99,2.81,3.11,5.92
13.7910,0.07,0.12,-1.00,2.38,3.30,5.43
13.8060,0.07,0.12,-0.99,2.14,3.36,4.76
13.8220,0.07,0.12,-1.00,2.81,3.85,4.15
13.8370,0.07,0.12,-0.99,2.93,3.72,3.48
13.8520,0.07,0.12,-1.00,3.23,3.60,3.23
13.8610,0.07,0.12,-0.99,3.23,3.36,2.69
13.8830,0.07,0.13,-0.99,2.99,3.72,2.26
13.8940,0.07,0.12,-0.99,2.38,3.78,2.08
13.9110,0.07,0.12,-0.99,1.95,3.23,2.08
13.9270,0.07,0.12,-0.99,2.20,3.72,2.32
13.9430,0.07,0.13,-0.99,2.50,3.72,2.75
13.9580,0.07,0.12,-0.99,2.93,3.72,2.99
13.9740,0.07,0.13,-1.00,3.66,3.30,3.30
13.9900,0.08,0.14,-0.98,2.69,3.54,4.27
14.0050,0.08,0.15,-1.00,3.42,2.87,5.13
14.0190,0.07,0.12,-1.00,2.44,3.23,5.43
14.0300,0.07,0.12,-1.00,1.77,3.42,5.98
14.0460,0.07,0.12,-1.00,2.14,3.23,5.74
14.0640,0.07,0.10,-1.00,2.32,3.30,4.58
14.0800,0.07,0.10,-0.99,2.32,3.60,2.14
14.0960,0.07,0.12,-0.99,3.60,3.60,1.95
14.1120,0.07,0.12,-0.99,3.97,3.66,1.89
14.1270,0.07,0.12,-1.00,4.03,3.60,2.01
14.1420,0.07,0.12,-0.99,3.60,3.66,2.01
14.1580,0.07,0.12,-0.99,3.78,3.54,2.01
14.1630,0.07,0.12,-0.99,4.03,3.42,2.26
14.1900,0.07,0.13,-1.00,4.15,3.48,2.08
14.2060,0.07,0.13,-1.00,3.48,3.97,2.20
14.2130,0.07,0.13,-1.00,3.17,3.54,2.14
14.2370,0.07,0.12,-0.99,2.38,3.72,1.95
14.2520,0.07,0.12,-0.99,2.81,3.42,1.95
14.2630,0.07,0.12,-0.99,3.48,3.72,2.20
14.2800,0.07,0.13,-1.00,3.66,3.48,2.20
14.2980,0.07,0.12,-1.00,3.30,3.54,2.14
14.3140,0.07,0.13,-0.99,3.66,3.42,2.26
14.3290,0.07,0.13,-0.99,2.87,3.91,2.44
14.3440,0.07,0.13,-0.99,2.62,3.54,2.75
14.3590,0.07,0.13,-0.99,3.66,3.23,3.97
14.3750,0.07,0.11,-1.00,2.99,3.66,3.36
14.3910,0.07,0.13,-1.00,2.32,4.09,2.38
14.4060,0.07,0.14,-0.99,2.08,3.66,2.38
14.4220,0.07,0.13,-0.99,3.23,3.54,4.39
14.4320,0.07,0.14,-1.00,3.11,3.23,4.52
14.4480,0.07,0.13,-0.99,2.69,3.54,5.13
14.4650,0.07,0.12,-0.99,2.81,3.23,5.55
14.4810,0.06,0.11,-1.00,3.11,3.11,5.19
14.4970,0.07,0.13,-0.99,2.99,3.48,4.88
14.5110,0.07,0.12,-0.99,2.56,3.23,5.31
14.5210,0.07,0.10,-1.00,2.38,3.23,4.52
14.5370,0.07,0.10,-1.00,3.17,3.72,2.38
14.5570,0.07,0.13,-1.00,4.09,3.78,2.14
14.5730,0.07,0.13,-1.00,4.09,3.97,2.20
14.5890,0.07,0.12,-0.99,3.11,4.09,2.08
14.6050,0.07,0.13,-0.99,2.93,3.54,2.01
14.6210,0.07,0.12,-0.99,3.17,3.66,1.95
14.6360,0.07,0.12,-0.99,3.60,3.97,2.26
14.6520,0.07,0.13,-0.99,3.66,3.48,2.20
14.6670,0.07,0.13,-0.99,3.36,3.85,2.44
14.6720,0.07,0.13,-0.99,2.99,3.23,3.91
14.6920,0.07,0.12,-0.99,2.26,3.48,4.94
14.7100,0.07,0.12,-1.00,2.62,3.42,4.76
14.7280,0.07,0.13,-0.99,2.56,3.78,3.66
14.7430,0.07,0.13,-0.99,2.38,3.48,3.72
14.7600,0.07,0.13,-0.99,2.32,3.30,4.21
14.7760,0.07,0.13,-0.99,3.05,3.30,4.27
14.7780,0.07,0.13,-0.99,3.05,3.23,5.25
14.8060,0.07,0.12,-0.99,2.69,3.66,6.77
14.8200,0.07,0.12,-1.00,2.14,3.36,6.16
14.8350,0.07,0.11,-1.00,2.14,3.42,5.00
14.8500,0.07,0.11,-0.99,2.26,3.91,3.54
14.8660,0.07,0.12,-0.99,2.56,3.48,2.44
14.8770,0.07,0.13,-0.99,3.17,3.60,2.69
14.8940,0.07,0.13,-1.00,3.66,3.48,3.85
14.9100,0.07,0.15,-0.99,2.56,3.66,4.09
14.9260,0.08,0.13,-0.98,3.11,3.30,5.49
14.9280,0.07,0.11,-0.99,2.38,3.11,5.31
14.9550,0.07,0.11,-1.00,2.50,3.78,4.39
14.9710,0.07,0.11,-0.99,2.87,3.97,3.97
14.9850,0.07,0.12,-0.99,3.48,3.30,2.99
14.9960,0.07,0.13,-0.99,3.97,3.11,2.93
15.0130,0.07,0.15,-0.99,3.54,3.36,3.85
15.0300,0.08,0.15,-0.99,3.42,2.87,6.65
15.0460,0.08,0.14,-0.99,3.42,3.17,7.69
15.0620,0.07,0.13,-1.00,2.69,3.42,7.39
15.0760,0.08,0.13,-0.99,2.38,2.87,8.00
15.0910,0.07,0.11,-0.99,2.26,3.11,8.18
15.0960,0.07,0.11,-1.00,2.20,2.93,7.32
15.1120,0.07,0.10,-0.99,2.50,3.23,6.29
15.1340,0.06,0.10,-1.00,3.36,3.30,4.64
15.1500,0.07,0.12,-0.99,3.54,3.91,2.14
15.1650,0.07,0.13,-1.00,4.09,3.60,2.14
15.1820,0.07,0.13,-1.00,3.78,3.36,2.08
15.1970,0.07,0.14,-0.99,2.99,3.66,2.44
15.2030,0.07,0.13,-0.99,2.01,3.72,3.78
15.2200,0.07,0.11,-0.99,2.38,3.23,3.72
15.2360,0.07,0.13,-0.99,2.44,3.66,2.56
15.2510,0.07,0.12,-0.99,2.56,3.60,2.93
15.2740,0.07,0.12,-1.00,3.78,3.54,2.93
15.2890,0.07,0.12,-0.99,3.30,3.91,2.56
15.2930,0.07,0.12,-0.99,3.30,3.54,2.32
15.3190,0.07,0.12,-0.99,3.36,3.54,2.32
15.3350,0.07,0.12,-0.99,3.23,3.66,2.32
15.3460,0.07,0.12,-1.00,3.60,4.03,2.38
15.3620,0.07,0.13,-0.99,3.66,3.48,1.95
15.3790,0.07,0.13,-1.00,3.36,3.66,2.20
15.3960,0.07,0.12,-0.99,2.69,3.97,1.95
15.3960,0.08,0.15,-0.99,3.72,3.66,1.89
15.4260,0.07,0.14,-1.00,4.88,3.42,3.36
15.4410,0.08,0.13,-0.99,2.75,3.60,3.05
15.4560,0.07,0.12,-0.99,3.54,3.66,1.83
15.4720,0.07,0.12,-0.99,3.72,3.97,1.40
15.4870,0.07,0.13,-0.99,3.48,3.42,1.53
15.5020,0.07,0.13,-0.99,3.48,3.48,1.77
15.5140,0.07,0.13,-0.99,3.36,3.60,1.89
15.5310,0.07,0.13,-0.99,2.56,3.60,2.26
15.5470,0.07,0.14,-0.99,2.44,3.66,2.99
15.5640,0.07,0.13,-1.00,2.69,3.60,4.09
15.5800,0.07,0.13,-0.99,2.56,2.93,3.97
15.5960,0.07,0.13,-0.99,3.05,3.60,4.64
15.6120,0.07,0.13,-0.99,3.72,2.99,6.29
15.6260,0.07,0.13,-0.99,3.17,2.99,7.51
15.6420,0.07,0.13,-0.99,2.38,2.81,7.63
15.6570,0.08,0.13,-0.99,2.99,2.81,7.02
15.6730,0.07,0.12,-0.99,3.05,2.81,7.51
15.6890,0.07,0.12,-1.00,2.26,3.05,6.77
15.7030,0.07,0.11,-0.99,1.53,3.11,5.74
15.7140,0.07,0.10,-1.00,2.08,3.17,4.64
15.7310,0.06,0.11,-0.99,2.75,3.66,2.32
15.7470,0.07,0.12,-0.99,3.30,3.48,2.14
15.7640,0.07,0.12,-0.99,3.30,3.85,2.14
15.7810,0.07,0.12,-0.99,2.69,3.54,2.14
15.7960,0.07,0.13,-0.99,2.26,3.66,2.14
15.8120,0.07,0.12,-0.99,2.14,3.78,2.01
15.8270,0.07,0.13,-0.99,2.26,3.72,2.69
15.8350,0.07,0.13,-0.99,2.69,3.36,4.27
15.8520,0.07,0.11,-0.99,2.62,3.66,3.97
15.8680,0.07,0.12,-0.99,2.32,3.66,2.44
15.8850,0.07,0.12,-0.99,2.50,3.23,2.26
15.9020,0.07,0.13,-0.99,2.44,3.36,2.32
15.9190,0.07,0.13,-1.00,2.50,3.54,4.27
15.9190,0.07,0.12,-0.99,2.38,3.42,4.94
15.9350,0.07,0.11,-0.99,2.26,3.66,4.58
15.9570,0.07,0.12,-0.99,2.81,3.66,4.09
15.9730,0.07,0.12,-1.00,2.56,3.66,3.85
15.9930,0.07,0.13,-0.99,1.53,4.09,3.91
16.0060,0.07,0.11,-0.99,1.83,4.03,4.64
16.0230,0.08,0.11,-0.99,2.62,3.48,3.11
16.0390,0.07,0.12,-1.00,2.62,3.66,2.32
16.0550,0.07,0.12,-0.99,3.17,3.11,2.08
16.0700,0.07,0.12,-0.99,2.99,3.66,2.01
16.0860,0.07,0.12,-0.99,2.69,3.17,1.95
16.0930,0.07,0.12,-1.00,3.23,3.66,2.20
16.1170,0.07,0.13,-0.99,3.60,4.03,3.05
16.1270,0.07,0.13,-1.00,3.48,3.36,3.23
16.1420,0.07,0.12,-0.99,2.69,3.36,3.11
16.1620,0.07,0.12,-0.99,2.99,3.78,3.48
16.1780,0.07,0.12,-0.99,2.81,3.60,3.48
16.1920,0.07,0.12,-0.99,2.62,3.42,3.54
16.2080,0.06,0.13,-0.99,2.56,3.60,3.36
16.2220,0.07,0.13,-0.99,2.81,3.42,4.52
16.2310,0.07,0.12,-0.99,2.14,3.48,4.88
16.2480,0.07,0.12,-1.00,2.81,3.85,4.39
16.2640,0.07,0.12,-1.00,2.32,3.48,4.94
16.2810,0.05,0.13,-1.00,2.08,3.36,5.74
16.2970,0.08,0.11,-0.99,1.59,3.66,5.80
16.3130,0.08,0.12,-0.99,2.50,3.91,2.93
16.3280,0.06,0.11,-0.99,2.99,3.66,2.01
16.3440,0.06,0.12,-1.00,3.23,3.60,2.08
16.3590,0.07,0.11,-0.99,2.38,3.78,2.14
16.3640,0.08,0.12,-0.99,3.05,3.36,2.26
16.3810,0.07,0.12,-0.99,4.09,3.36,2.20
16.4030,0.07,0.13,-1.00,4.39,3.48,2.01
16.4140,0.07,0.13,-0.99,3.72,3.36,1.95
16.4310,0.07,0.12,-0.99,2.81,3.54,2.08
16.4480,0.06,0.11,-0.99,2.93,3.54,2.14
16.4650,0.07,0.12,-0.99,4.64,3.72,2.26
16.4800,0.07,0.13,-1.00,4.70,3.48,2.20
16.4960,0.07,0.13,-0.99,3.11,3.60,2.01
16.4990,0.08,0.14,-0.98,3.05,3.42,1.89
16.5300,0.05,0.11,-1.01,6.90,3.72,-1.34
16.5450,0.07,0.11,-0.99,3.85,3.66,1.40
16.5600,0.07,0.11,-0.99,3.72,3.54,1.59
16.5750,0.07,0.12,-1.00,3.78,3.66,1.89
16.5890,0.07,0.13,-1.00,4.15,3.48,2.26
16.6000,0.07,0.12,-0.99,2.93,3.54,1.95
16.6160,0.08,0.14,-0.98,3.66,3.60,0.61
16.6330,0.09,0.15,-0.99,3.97,3.72,0.98
16.6480,0.07,0.12,-1.00,4.46,3.66,1.34
16.6660,0.08,0.14,-0.99,3.36,3.60,1.65
16.6700,0.08,0.14,-0.99,3.66,3.23,2.75
16.6960,0.07,0.13,-0.99,3.23,3.42,3.72
16.7030,0.07,0.10,-1.00,3.11,3.42,3.30
16.7270,0.07,0.11,-0.99,2.44,3.54,2.20
16.7360,0.07,0.14,-0.98,4.58,3.30,0.00
16.7530,0.07,0.10,-1.00,3.36,3.66,2.50
16.7700,0.07,0.11,-0.99,3.78,3.23,2.01
16.7860,0.08,0.13,-0.99,4.09,3.23,1.65
16.8030,0.06,0.11,-1.00,4.70,3.54,2.01
16.8190,0.07,0.13,-1.00,3.05,3.72,1.83
16.8370,0.08,0.13,-0.99,2.75,3.54,1.89
16.8520,0.08,0.13,-0.99,3.11,3.85,1.10
16.8680,0.08,0.14,-0.99,3.11,3.78,1.16
16.8840,0.07,0.13,-0.99,2.93,3.60,2.99
16.8980,0.06,0.11,-0.99,3.66,3.42,3.17
16.9080,0.06,0.11,-0.99,3.54,3.72,2.20
16.9260,0.07,0.12,-0.99,3.85,3.78,1.34
16.9420,0.06,0.12,-1.00,3.05,3.85,1.46
16.9580,0.07,0.12,-1.00,2.87,3.72,1.95
16.9750,0.07,0.12,-0.99,2.75,3.60,1.95
16.9940,0.07,0.13,-0.99,3.17,3.60,2.44
17.0070,0.07,0.13,-0.99,2.20,3.54,3.30
17.0250,0.07,0.13,-0.99,2.01,4.03,3.97
17.0410,0.07,0.13,-0.99,2.44,3.66,3.91
17.0570,0.07,0.12,-0.99,2.62,3.78,3.91
17.0720,0.07,0.11,-1.00,2.99,3.30,3.85
17.0880,0.07,0.13,-0.99,2.93,3.72,2.99
17.1030,0.07,0.12,-0.99,2.87,3.66,3.48
17.1180,0.07,0.13,-1.00,3.17,3.23,3.42
17.1290,0.06,0.14,-0.99,2.81,3.78,5.86
17.1460,0.08,0.14,-0.99,2.08,3.23,7.08
17.1630,0.08,0.13,-0.99,2.69,2.99,7.26
17.1780,0.07,0.11,-0.99,1.71,3.54,4.82
17.1940,0.07,0.13,-0.99,2.20,3.54,3.72
17.1970,0.07,0.14,-0.99,2.93,3.48,5.00
17.2250,0.07,0.12,-0.99,3.30,3.30,5.92
17.2390,0.07,0.11,-0.99,2.62,3.78,5.31
17.2550,0.07,0.14,-0.99,2.81,3.66,4.27
17.2690,0.07,0.14,-0.99,2.81,3.23,5.98
17.2840,0.07,0.13,-0.99,3.05,2.81,6.84
17.2950,0.07,0.13,-1.00,2.44,3.11,7.14
17.3130,0.07,0.10,-0.99,2.20,3.05,6.47
17.3300,0.07,0.11,-1.00,3.36,3.23,5.25
17.3450,0.06,0.10,-0.99,2.99,2.93,4.21
17.3610,0.07,0.11,-0.99,2.81,3.54,3.48
17.3630,0.07,0.12,-0.99,2.87,3.66,3.42
17.3790,0.07,0.14,-0.99,2.99,2.87,4.52
17.4010,0.07,0.14,-0.99,2.14,3.48,7.69
17.4180,0.07,0.14,-0.99,2.87,2.99,7.87
17.4340,0.08,0.12,-1.00,2.44,3.36,7.69
17.4510,0.07,0.11,-0.99,2.14,3.23,7.08
17.4670,0.07,0.09,-1.00,2.69,2.93,5.43
17.4840,0.07,0.10,-0.99,2.75,3.36,3.42
17.5000,0.07,0.12,-0.99,3.97,3.48,2.20
17.5020,0.07,0.13,-1.00,3.91,3.72,2.08
17.5310,0.07,0.13,-0.99,3.97,3.66,3.23
17.5450,0.08,0.16,-0.99,4.64,3.60,4.15
17.5600,0.08,0.16,-0.99,5.62,2.75,6.59
17.5750,0.08,0.14,-0.99,3.17,2.69,7.69
17.5900,0.07,0.12,-0.99,2.44,2.69,7.45
17.6020,0.07,0.11,-1.00,2.93,2.81,7.45
17.6180,0.07,0.11,-1.00,3.11,2.99,6.65
17.6350,0.07,0.12,-0.99,3.30,3.05,5.86
17.6510,0.06,0.10,-1.00,2.75,3.17,5.80
17.6520,0.07,0.12,-0.99,2.87,3.48,4.94
17.6680,0.07,0.10,-1.00,3.11,3.48,4.33
17.6950,0.06,0.10,-1.00,3.23,3.42,2.50
17.7030,0.07,0.13,-0.99,3.17,3.48,2.08
17.7180,0.07,0.13,-0.99,2.99,3.60,1.95
17.7460,0.07,0.13,-0.99,2.32,3.85,2.08
17.7620,0.07,0.12,-0.99,1.59,3.78,1.89
17.7690,0.07,0.12,-0.99,2.44,3.97,2.08
17.7850,0.07,0.13,-0.99,3.17,3.85,2.01
17.8070,0.07,0.13,-0.99,2.32,3.66,2.32
17.8230,0.07,0.13,-0.98,2.01,3.36,3.66
17.8400,0.07,0.14,-0.99,3.30,3.48,4.76
17.8560,0.07,0.12,-0.99,2.26,3.30,5.62
17.8720,0.07,0.11,-1.00,1.83,3.54,5.74
17.8860,0.07,0.13,-0.99,1.71,3.36,4.70
17.9010,0.08,0.13,-0.99,2.75,3.54,4.76
17.9160,0.08,0.13,-0.99,3.42,3.23,5.43
17.9280,0.07,0.12,-0.99,3.17,2.99,5.49
17.9440,0.07,0.13,-0.99,2.08,2.99,6.65
17.9610,0.06,0.11,-1.00,2.01,2.99,7.14
17.9770,0.06,0.10,-1.00,1.77,3.11,6.41
17.9930,0.07,0.11,-1.00,2.01,3.48,5.07
18.0090,0.07,0.11,-0.99,2.50,3.60,4.21
18.0240,0.07,0.11,-0.99,2.44,3.78,4.21
18.0380,0.07,0.12,-1.00,3.11,3.17,3.42
18.0440,0.07,0.13,-0.99,2.14,3.42,2.75
18.0600,0.07,0.13,-0.99,1.65,3.48,3.78
18.0800,0.07,0.12,-0.99,1.83,3.42,4.21
18.0970,0.07,0.11,-0.99,2.81,3.54,3.48
18.1130,0.07,0.12,-1.00,2.81,3.60,2.14
18.1300,0.07,0.13,-0.99,3.30,3.17,2.20
18.1450,0.06,0.16,-0.99,3.36,3.66,4.15
18.1600,0.08,0.18,-0.99,2.93,3.23,7.45
18.1770,0.08,0.13,-1.00,2.87,3.36,9.64
18.1920,0.08,0.12,-1.00,2.81,3.05,10.13
18.2080,0.08,0.09,-0.99,2.50,3.11,8.97
18.2240,0.06,0.06,-1.00,4.03,2.93,5.86
18.2400,0.08,0.13,-1.01,5.80,3.30,2.20
18.2550,0.07,0.12,-0.99,3.17,3.30,1.89
18.2640,0.07,0.13,-0.99,2.69,3.60,1.83
18.2800,0.07,0.12,-0.99,3.17,3.60,2.14
18.2970,0.07,0.12,-0.99,3.72,3.54,2.20
18.3130,0.07,0.13,-0.99,3.54,3.36,2.26
18.3350,0.07,0.12,-0.99,2.62,3.66,2.44
18.3500,0.07,0.13,-1.00,2.87,3.42,2.81
18.3530,0.06,0.14,-0.99,2.01,3.78,3.23
18.3690,0.07,0.12,-0.98,2.56,3.54,5.62
18.3950,0.07,0.12,-1.00,3.54,3.36,4.88
18.4090,0.08,0.12,-0.99,3.36,3.36,4.39
18.4250,0.07,0.11,-0.99,3.30,3.48,2.87
18.4420,0.06,0.13,-0.98,3.72,3.78,2.14
18.4570,0.07,0.13,-1.00,5.13,3.23,3.91
18.4720,0.07,0.19,-0.99,3.23,3.36,6.04
18.4800,0.07,0.16,-0.98,2.81,3.48,7.51
18.5020,0.08,0.14,-0.99,3.05,2.62,10.50
18.5170,0.08,0.12,-0.99,2.44,2.44,10.01
18.5290,0.07,0.10,-1.00,3.30,2.62,7.39
18.5450,0.06,0.07,-1.00,3.05,3.36,4.58
18.5630,0.06,0.09,-0.99,3.23,3.48,2.50
18.5790,0.07,0.12,-0.99,4.21,3.60,2.08
18.5800,0.07,0.13,-1.00,4.52,3.60,2.08
18.6110,0.07,0.13,-0.99,2.32,4.15,2.01
18.6260,0.09,0.14,-0.98,3.54,4.09,1.34
18.6420,0.06,0.11,-0.99,4.70,3.78,1.04
18.6580,0.07,0.12,-0.99,4.64,3.72,2.01
18.6740,0.07,0.13,-0.99,4.33,3.36,2.26
18.6900,0.07,0.13,-0.99,4.09,3.60,2.14
18.7050,0.07,0.13,-0.99,3.60,3.66,1.77
18.7210,0.07,0.13,-0.99,3.11,3.54,2.01
18.7360,0.07,0.12,-0.99,3.05,3.85,1.77
18.7510,0.07,0.13,-0.99,3.42,3.91,1.77
18.7630,0.07,0.12,-0.99,3.48,3.66,1.77
18.7810,0.08,0.13,-0.99,4.15,3.78,1.40
18.7970,0.07,0.13,-1.00,4.52,3.85,0.49
18.8130,0.07,0.13,-0.99,3.72,3.97,0.06
18.8300,0.07,0.13,-0.99,4.58,4.03,0.49
18.8470,0.07,0.12,-0.99,3.72,4.46,0.92
18.8610,0.07,0.11,-0.99,4.76,3.54,0.43
18.8770,0.08,0.12,-0.99,4.33,3.60,-0.79
18.8920,0.07,0.14,-0.99,4.39,3.72,-0.55
18.9080,0.06,0.15,-0.98,3.05,3.85,0.73
18.9230,0.07,0.13,-0.99,3.17,4.03,1.89
18.9380,0.07,0.12,-0.99,2.69,3.91,1.89
18.9530,0.07,0.13,-0.99,4.09,3.85,2.20
18.9630,0.07,0.13,-0.99,4.27,4.03,2.20
18.9800,0.07,0.14,-0.99,4.39,3.97,1.71
18.9970,0.08,0.12,-1.00,3.78,3.42,1.40
19.0130,0.06,0.14,-0.99,2.26,3.78,0.98
19.0290,0.07,0.12,-0.99,1.89,3.85,1.89
19.0450,0.07,0.13,-0.99,3.78,3.17,2.14
19.0520,0.07,0.13,-0.99,4.82,3.17,2.20
19.0680,0.07,0.13,-0.99,4.33,3.60,1.71
19.0840,0.07,0.14,-1.00,3.23,3.78,1.34
19.1060,0.07,0.13,-0.99,2.14,4.09,2.08
19.1230,0.07,0.13,-0.99,2.69,3.66,1.83
19.1230,0.07,0.13,-0.99,3.54,3.78,2.20
19.1530,0.07,0.13,-1.00,3.23,3.85,2.20
19.1680,0.07,0.13,-0.99,3.60,3.48,2.08
19.1830,0.07,0.14,-0.99,3.23,3.48,2.01
19.1990,0.07,0.13,-0.99,2.08,3.97,1.95
19.2070,0.07,0.13,-0.99,2.20,4.15,2.14
19.2290,0.07,0.13,-0.99,3.23,4.09,2.01
19.2390,0.07,0.13,-0.99,3.42,4.09,2.14
19.2550,0.07,0.13,-0.99,3.85,3.97,2.20
19.2750,0.07,0.13,-0.99,3.11,3.85,2.26
19.2900,0.07,0.13,-0.99,2.26,4.15,1.77
19.3060,0.07,0.13,-0.99,2.32,3.91,2.01
19.3220,0.07,0.13,-0.99,2.93,3.60,2.01
19.3280,0.07,0.13,-0.99,2.99,3.23,1.89
19.3550,0.07,0.13,-0.99,2.50,3.17,1.95
19.3700,0.07,0.13,-1.00,2.08,3.85,2.01
19.3840,0.07,0.12,-0.99,3.05,3.85,2.14
19.3960,0.07,0.13,-0.99,2.44,3.78,1.77
19.4110,0.07,0.13,-0.99,2.32,3.97,1.89
19.4290,0.07,0.13,-0.99,2.81,4.15,2.08
19.4450,0.07,0.13,-1.00,2.93,3.91,2.01
19.4610,0.07,0.12,-0.99,2.75,3.91,2.08
19.4760,0.07,0.13,-0.99,2.75,3.97,2.01
19.4920,0.07,0.13,-0.99,2.81,3.60,2.01
19.5080,0.07,0.13,-0.99,2.99,3.42,1.83
19.5240,0.06,0.12,-0.98,3.97,3.36,2.01
19.5320,0.08,0.14,-1.00,4.64,3.17,2.08
19.5540,0.07,0.13,-1.00,2.38,3.66,2.01
19.5660,0.07,0.13,-0.99,2.62,3.78,2.01
19.5820,0.07,0.13,-0.99,3.30,3.72,2.14
19.6010,0.07,0.13,-0.99,4.09,3.66,2.01
19.6150,0.07,0.13,-0.99,3.66,3.42,2.08
19.6310,0.06,0.13,-0.99,4.09,3.23,2.01
19.6470,0.07,0.13,-1.00,4.88,2.44,2.01
19.6620,0.07,0.14,-0.99,4.94,2.87,2.08
19.6690,0.07,0.14,-0.99,3.91,3.17,2.14
19.6850,0.08,0.13,-1.00,2.69,3.48,1.95
19.7080,0.08,0.13,-0.98,3.48,3.60,2.08
19.7250,0.07,0.13,-0.99,3.17,3.54,2.08
19.7410,0.07,0.13,-1.00,3.30,2.99,2.01
19.7560,0.07,0.13,-0.99,3.48,2.44,1.89
19.7580,0.03,0.11,-0.96,3.97,2.99,2.08
19.7890,0.07,0.13,-0.99,3.78,2.62,1.89
19.8050,0.07,0.14,-1.00,4.15,2.50,1.95
19.8210,0.07,0.13,-0.99,4.03,1.89,2.01
19.8370,0.07,0.13,-0.99,3.60,2.93,1.83
19.8430,0.08,0.13,-0.99,3.36,3.30,1.83
19.8690,0.08,0.13,-0.99,3.23,4.03,2.01
19.8830,0.07,0.14,-1.00,3.42,4.15,1.89
19.8980,0.08,0.13,-0.99,2.75,4.82,1.95
19.9090,0.07,0.13,-0.99,2.69,4.76,2.01
19.9250,0.05,0.12,-0.97,2.56,5.92,2.26
19.9440,0.11,0.08,-0.95,1.28,7.57,2.38
19.9590,0.08,0.15,-1.02,3.36,4.70,2.26
19.9750,0.07,0.13,-0.99,2.14,5.00,2.14
19.9910,0.07,0.13,-0.99,2.93,3.97,2.08
20.0050,0.07,0.14,-1.00,2.81,3.66,2.08
20.0210,0.07,0.13,-0.99,2.62,3.78,1.83
20.0380,0.07,0.13,-0.99,2.93,3.30,1.71
20.0530,0.07,0.13,-0.99,3.30,3.60,2.08
20.0680,0.07,0.13,-0.99,3.48,3.30,2.01
20.0830,0.07,0.13,-0.99,2.99,3.85,2.01
20.0960,0.07,0.13,-0.99,2.81,3.30,2.08
20.1100,0.07,0.13,-0.99,3.17,3.66,2.01
20.1270,0.07,0.13,-0.99,3.54,3.54,2.08
20.1430,0.07,0.13,-0.99,2.99,3.42,2.01
20.1580,0.07,0.13,-0.99,2.99,3.54,2.01
20.1600,0.07,0.13,-0.99,3.05,3.78,2.08
20.1900,0.07,0.13,-0.99,3.17,3.54,2.08
20.2050,0.07,0.13,-0.99,3.36,3.78,2.20
20.2220,0.07,0.13,-0.99,3.72,3.91,2.26
20.2380,0.07,0.14,-1.00,3.72,3.91,2.32
20.2540,0.07,0.14,-0.99,3.60,3.48,2.08
20.2700,0.07,0.13,-0.99,2.87,3.85,2.08
20.2850,0.07,0.13,-0.99,2.87,3.85,2.08
20.3000,0.07,0.13,-0.99,3.54,3.91,2.20
20.3110,0.07,0.13,-0.99,3.72,3.85,2.20
20.3280,0.07,0.14,-0.99,3.72,3.72,2.20
20.3440,0.07,0.13,-0.99,3.11,3.66,2.01
20.3600,0.07,0.13,-0.99,3.05,3.48,2.01
20.3780,0.07,0.13,-0.99,2.93,3.60,2.08
20.3920,0.07,0.13,-0.99,3.23,3.72,1.95
20.4000,0.07,0.13,-0.99,2.99,4.03,2.08
20.4170,0.07,0.13,-0.99,2.93,3.97,2.08
20.4330,0.07,0.13,-0.99,3.36,3.23,2.14
20.4530,0.07,0.13,-0.99,3.30,3.54,2.08
20.4700,0.07,0.13,-0.99,2.99,3.60,2.08
20.4700,0.07,0.13,-0.99,3.05,4.03,2.01
20.4960,0.07,0.13,-1.00,2.62,3.97,2.08
20.5150,0.07,0.13,-0.99,2.32,3.85,1.89
20.5300,0.07,0.13,-0.99,2.38,3.54,1.89
20.5420,0.07,0.13,-0.99,2.08,3.42,1.28
20.5580,0.07,0.13,-1.00,2.38,3.30,1.83
20.5770,0.07,0.12,-0.99,1.10,3.17,1.77
20.5910,0.07,0.12,-0.99,2.56,3.23,1.71
20.6070,0.11,0.08,-0.99,1.10,3.54,0.00
20.6230,0.07,0.11,-0.99,3.54,5.49,-9.70
20.6380,0.01,0.08,-0.96,6.90,2.75,-15.63
20.6530,0.09,0.13,-0.97,3.42,7.69,-22.09
20.6680,0.08,0.18,-1.00,4.39,5.92,-11.60
20.6800,0.07,0.17,-0.97,2.81,5.25,-6.10
20.6970,0.07,0.12,-0.99,2.26,3.78,1.59
20.7130,0.07,0.13,-0.99,3.72,3.54,2.20
20.7280,0.07,0.14,-1.01,3.78,3.17,2.26
20.7360,0.07,0.13,-0.99,2.01,3.36,2.08
20.7520,0.08,0.14,-1.00,1.34,3.54,1.95
20.7690,0.04,0.00,-0.88,-14.77,5.31,0.18
20.7840,0.08,0.18,-1.04,7.81,2.87,2.38
20.8030,0.07,0.11,-0.99,0.43,3.85,1.83
20.8200,0.07,0.13,-0.99,2.87,3.42,1.95
20.8350,0.07,0.12,-0.99,1.95,3.54,1.77
20.8370,0.07,0.11,-0.99,0.49,3.66,1.71
20.8660,0.07,0.13,-1.00,2.81,3.42,2.01
20.8710,0.07,0.12,-0.99,1.83,3.48,1.89
20.8960,0.07,0.13,-1.00,2.99,3.78,1.71
20.9140,0.07,0.13,-0.99,1.34,3.97,1.77
20.9290,0.11,0.19,-0.96,3.05,3.91,0.67
20.9440,0.08,0.17,-1.01,6.47,4.09,-3.48
20.9550,0.05,0.13,-1.00,5.00,4.64,-3.48
20.9710,0.08,0.11,-0.98,3.11,4.15,1.28
20.9880,0.06,0.04,-1.03,3.36,4.09,3.30
21.0050,0.08,0.12,-1.00,4.64,3.66,1.89
21.0200,0.06,0.12,-0.99,3.48,4.09,2.08
21.0360,0.08,0.13,-1.00,3.78,3.85,2.08
21.0520,0.13,0.22,-0.95,3.48,3.85,0.55
21.0670,0.07,0.15,-1.00,7.20,4.70,-5.98
21.0820,0.07,0.11,-1.00,5.62,3.54,0.18
21.0960,0.05,0.09,-1.00,4.39,3.60,0.61
21.1090,0.06,0.11,-1.00,4.33,3.91,0.31
21.1260,0.07,0.12,-1.00,4.52,4.03,0.06
21.1420,0.06,0.08,-1.00,3.91,3.85,1.04
21.1580,0.07,0.13,-0.99,4.70,3.11,2.01
21.1730,0.07,0.14,-0.99,4.88,3.36,2.08
21.1890,0.07,0.13,-1.00,4.58,3.42,2.08
21.2040,0.08,0.13,-0.99,2.50,3.54,2.01
21.2190,0.07,0.12,-0.99,1.65,3.66,1.83
21.2340,0.07,0.13,-0.99,1.89,3.78,1.83
21.2490,0.07,0.13,-0.99,3.17,3.48,2.20
21.2640,0.07,0.13,-0.99,3.97,3.42,2.08
21.2760,0.07,0.12,-0.99,3.66,2.99,2.01
21.2920,0.07,0.12,-0.99,3.48,3.17,1.89
21.3080,0.08,0.13,-0.99,5.07,2.87,2.14
21.3160,0.05,0.10,-1.00,3.36,3.60,2.56
21.3400,0.05,0.09,-1.00,1.53,3.30,7.02
21.3550,0.07,0.12,-0.99,2.44,2.75,7.20
21.3670,0.08,0.14,-1.00,2.50,2.93,7.14
21.3840,0.10,0.17,-0.99,2.26,3.23,3.36
21.4000,0.07,0.12,-0.98,1.65,3.91,2.08
21.4150,0.07,0.13,-0.99,2.93,3.54,2.01
21.4290,0.07,0.13,-0.99,3.42,3.54,2.14
21.4330,0.07,0.12,-0.99,2.75,3.60,2.14
21.4590,0.07,0.12,-0.99,3.48,3.54,2.08
21.4670,0.07,0.13,-0.99,3.30,3.66,2.14
21.4900,0.07,0.13,-0.99,3.30,3.54,2.08
21.5000,0.07,0.13,-0.99,3.48,3.78,2.14
21.5160,0.07,0.13,-0.99,3.05,3.66,2.08
21.5330,0.07,0.13,-0.99,3.11,3.42,2.14
21.5500,0.07,0.12,-1.00,2.14,3.36,1.89
21.5660,0.07,0.13,-1.00,3.05,3.54,2.01
21.5820,0.07,0.12,-0.99,2.87,3.36,2.08
21.6000,0.07,0.14,-1.00,4.09,3.30,2.26
21.6020,0.04,0.13,-1.00,2.93,3.60,2.08
21.6300,0.05,0.11,-0.99,1.65,3.11,4.76
21.6360,0.05,0.10,-0.98,1.22,5.13,-0.55
21.6620,0.06,0.13,-0.99,3.60,3.97,-0.18
21.6690,0.07,0.12,-0.98,4.27,3.91,0.98
21.6850,0.07,0.14,-0.99,4.27,3.72,1.16
21.7010,0.07,0.13,-0.99,3.85,3.66,1.95
21.7230,0.07,0.12,-0.99,3.85,3.60,2.14
21.7390,0.07,0.12,-0.99,3.97,3.48,2.20
21.7550,0.07,0.13,-0.99,3.72,3.60,2.14
21.7710,0.07,0.12,-0.99,2.32,3.54,2.01
21.7870,0.07,0.13,-1.00,2.62,3.42,2.08
21.8020,0.07,0.12,-0.99,2.26,3.11,1.95
21.8170,0.07,0.12,-0.99,0.92,5.07,1.89
21.8240,0.05,0.09,-0.98,5.19,3.42,2.20
21.8400,0.07,0.16,-1.01,7.45,2.38,2.14
21.8610,0.07,0.10,-0.97,3.60,3.30,2.14
21.8780,0.09,0.14,-1.00,4.70,3.23,2.20
21.8780,0.07,0.13,-0.99,2.93,3.54,2.14
21.9080,0.09,0.12,-0.98,2.50,3.54,1.95
21.9240,0.04,0.12,-0.99,3.17,3.97,2.08
21.9400,0.05,0.12,-0.98,3.11,3.91,2.01
21.9560,0.09,0.13,-0.99,3.30,3.42,1.89
21.9710,0.05,0.14,-0.99,3.30,3.54,1.59
21.9790,0.06,0.14,-0.99,3.17,3.66,1.95
21.9970,0.11,0.12,-1.00,2.87,3.42,1.89
22.0130,0.08,0.11,-0.99,2.56,3.72,1.89
22.0300,0.06,0.13,-0.99,3.66,3.97,1.95
22.0460,0.07,0.13,-0.98,3.17,3.72,2.01
22.0610,0.07,0.14,-0.98,3.30,3.48,1.95
22.0770,0.06,0.13,-1.00,2.93,4.03,1.89
22.0850,0.06,0.12,-1.00,2.75,3.66,2.20
22.1030,0.08,0.12,-0.99,2.99,3.60,2.20
22.1190,0.08,0.12,-1.00,2.99,3.85,2.14
22.1340,0.07,0.14,-0.99,3.66,3.54,2.14
22.1530,0.07,0.13,-1.00,2.99,3.23,1.95
22.1690,0.08,0.13,-1.00,2.99,3.60,2.01
22.1850,0.07,0.13,-0.99,3.42,3.54,2.20
22.1990,0.06,0.13,-1.00,3.05,3.97,2.08
22.2050,0.06,0.13,-0.98,3.42,3.66,2.08
22.2200,0.07,0.13,-1.00,3.36,3.66,2.08
22.2440,0.07,0.13,-1.00,3.05,3.66,2.01
22.2590,0.08,0.13,-0.99,3.11,3.72,2.14
22.2750,0.07,0.13,-1.00,3.30,3.60,1.89
22.2910,0.08,0.13,-0.98,3.42,3.66,1.95
22.3070,0.08,0.13,-0.99,2.87,3.17,1.83
22.3230,0.07,0.13,-1.00,3.05,3.66,1.89
22.3390,0.07,0.14,-0.99,3.17,3.91,2.20
22.3550,0.07,0.13,-0.99,2.99,3.48,2.08
22.3710,0.08,0.12,-1.00,2.50,3.78,2.14
22.3870,0.08,0.13,-0.99,3.36,3.60,2.01
22.3970,0.07,0.13,-0.99,3.48,3.60,2.14
22.4100,0.07,0.12,-1.00,2.62,3.78,1.89
22.4340,0.08,0.13,-0.99,2.99,3.72,2.20
22.4490,0.07,0.13,-1.00,2.81,3.78,2.20
22.4600,0.07,0.13,-0.99,3.11,3.42,2.08
22.4770,0.07,0.13,-0.98,3.05,3.72,1.89
22.4940,0.08,0.12,-1.00,2.56,3.60,1.95
22.5110,0.07,0.13,-0.99,3.60,3.66,2.20
22.5110,0.07,0.12,-1.00,2.69,3.78,2.08
22.5270,0.07,0.13,-0.99,3.11,3.42,1.95
22.5480,0.08,0.13,-0.99,3.42,3.91,2.01
22.5650,0.07,0.13,-1.00,2.75,3.85,2.14
22.5810,0.07,0.13,-0.99,2.81,3.78,2.01
22.5990,0.07,0.13,-1.00,3.42,3.60,1.89
22.6150,0.07,0.13,-0.99,2.81,3.72,2.01
22.6330,0.08,0.13,-0.98,2.99,3.54,1.95
22.6490,0.07,0.13,-1.00,2.87,3.85,2.14
22.6650,0.07,0.13,-1.00,3.11,3.72,2.14
22.6820,0.07,0.13,-0.99,3.30,3.48,2.20
22.6980,0.07,0.13,-0.99,2.81,3.54,2.01
22.7140,0.08,0.13,-0.99,2.99,3.66,2.01
22.7290,0.07,0.13,-0.99,3.23,3.60,2.26
22.7310,0.07,0.13,-1.00,2.99,4.03,2.08
22.7620,0.07,0.13,-0.98,3.30,3.54,2.14
22.7780,0.07,0.13,-0.99,3.05,3.72,2.01
22.7820,0.07,0.13,-1.00,3.05,3.85,2.20
22.8090,0.07,0.13,-0.99,3.30,3.54,2.14
22.8250,0.08,0.13,-0.99,3.05,3.66,1.95
22.8400,0.07,0.13,-1.00,3.05,3.54,2.08
22.8490,0.08,0.13,-0.99,3.30,3.60,2.14
22.8650,0.08,0.13,-1.00,3.11,3.60,2.08
22.8860,0.07,0.13,-0.99,3.42,3.78,2.08
22.9020,0.07,0.13,-0.99,2.99,3.97,2.01
22.9180,0.07,0.13,-1.00,2.81,3.54,1.89
22.9200,0.08,0.13,-0.99,3.05,3.60,1.95
22.9500,0.07,0.13,-0.99,3.42,3.48,2.01
22.9660,0.07,0.13,-1.00,2.69,3.72,2.20
22.9820,0.08,0.13,-0.99,3.23,3.66,2.08
22.9980,0.07,0.13,-1.00,3.05,3.66,2.01
23.0140,0.07,0.12,-0.99,3.23,3.66,2.01
23.0300,0.07,0.13,-0.99,3.23,3.60,2.14
23.0370,0.08,0.13,-0.99,2.75,3.66,2.08
23.0530,0.07,0.13,-0.99,3.17,3.85,2.08
23.0690,0.07,0.13,-0.99,3.54,3.23,2.01
23.0910,0.08,0.12,-1.00,2.87,3.66,2.20
23.1070,0.07,0.13,-0.99,3.36,3.78,2.08
23.1230,0.07,0.12,-1.00,2.81,3.66,2.08
23.1240,0.08,0.13,-0.99,3.23,3.48,2.01
23.1550,0.07,0.14,-0.99,3.54,3.72,2.14
23.1710,0.07,0.13,-0.99,2.99,3.66,2.01
23.1860,0.07,0.12,-0.99,2.99,3.66,2.01
23.2010,0.08,0.12,-0.99,3.54,3.60,2.08
23.2160,0.07,0.12,-0.99,3.23,3.72,2.14
23.2310,0.06,0.13,-0.99,3.36,3.60,2.08
23.2420,0.08,0.13,-0.99,2.87,3.30,2.08
23.2590,0.08,0.13,-0.99,2.81,3.54,1.95
23.2750,0.08,0.13,-0.99,3.42,3.36,2.08
23.2910,0.12,0.12,-1.00,2.93,3.72,1.95
23.3000,0.10,0.12,-1.00,3.17,3.60,2.14
23.3150,0.09,0.13,-1.00,3.42,3.66,2.01
23.3310,0.10,0.13,-0.99,2.81,3.48,2.08
23.3530,0.06,0.13,-0.98,2.93,3.54,2.01
23.3660,0.05,0.13,-0.99,3.17,3.30,1.77
23.3820,0.06,0.13,-0.98,3.17,3.36,1.95
23.3980,0.06,0.13,-0.98,3.05,3.60,2.14
23.4140,0.09,0.12,-0.99,2.87,3.78,2.01
23.4300,0.06,0.13,-1.00,3.48,3.72,2.01
23.4460,0.08,0.13,-1.00,3.54,3.72,2.08
23.4610,0.09,0.13,-1.00,2.87,3.66,1.95
23.4760,0.07,0.14,-0.99,3.23,3.66,2.08
23.4820,0.07,0.13,-0.99,2.62,3.54,2.01
23.4990,0.07,0.12,-0.99,2.93,3.30,2.08
23.5200,0.07,0.13,-0.99,3.23,3.97,2.01
23.5360,0.07,0.13,-0.99,2.87,3.48,1.89
23.5520,0.07,0.13,-0.99,3.17,3.30,1.95
23.5670,0.07,0.13,-1.00,3.11,3.60,1.95
23.5720,0.08,0.13,-0.99,2.99,3.54,2.01
23.5890,0.07,0.13,-0.99,3.42,3.60,2.20
23.6060,0.07,0.13,-1.00,2.75,3.54,2.08
23.6220,0.07,0.13,-0.99,3.30,3.72,2.14
23.6390,0.07,0.13,-0.99,2.87,3.78,2.14
23.6550,0.07,0.13,-0.99,2.81,3.42,2.01
23.6730,0.07,0.13,-0.99,3.30,3.72,2.01
23.6890,0.07,0.15,-1.00,3.30,3.66,2.08
23.6990,0.08,0.13,-0.99,3.30,3.36,2.08
23.7220,0.07,0.13,-1.00,3.05,3.91,2.14
23.7380,0.07,0.13,-1.00,2.93,3.72,2.01
23.7540,0.08,0.13,-0.99,2.99,3.72,2.26
23.7700,0.08,0.13,-0.99,2.99,3.42,1.95
23.7850,0.07,0.12,-0.99,2.93,3.66,2.14
23.7990,0.07,0.13,-0.99,3.60,3.60,2.14
23.8150,0.07,0.13,-0.99,3.30,3.78,2.20
23.8300,0.07,0.13,-0.99,3.42,3.66,2.14
23.8430,0.07,0.13,-0.99,3.23,3.30,2.14
23.8580,0.08,0.13,-1.00,2.87,3.60,2.08
23.8760,0.08,0.12,-0.99,2.75,3.60,2.08
23.8830,0.07,0.13,-0.99,3.30,3.72,2.08
23.8990,0.07,0.12,-0.99,3.23,3.42,2.08
23.9150,0.08,0.13,-0.99,3.48,3.66,1.89
23.9360,0.07,0.13,-0.99,3.05,4.09,2.08
23.9520,0.07,0.13,-0.99,3.17,3.54,2.08
23.9520,0.07,0.13,-0.99,3.23,3.54,2.26
23.9820,0.07,0.12,-0.99,3.17,3.17,2.01
23.9970,0.07,0.13,-0.99,3.60,3.66,2.08
24.0130,0.07,0.13,-0.99,2.93,3.54,2.01
24.0280,0.08,0.13,-0.99,3.17,3.48,2.08
24.0430,0.07,0.13,-0.99,3.36,3.30,2.01
24.0580,0.07,0.13,-0.99,3.17,3.30,2.20
24.0690,0.07,0.13,-0.99,3.30,3.54,2.20
24.0850,0.07,0.13,-1.00,3.42,3.36,2.20
24.1040,0.07,0.13,-0.99,3.05,3.78,2.08
24.1200,0.07,0.13,-0.99,3.17,3.42,2.14
24.1220,0.08,0.13,-0.99,2.99,3.60,2.08
24.1380,0.08,0.13,-0.99,3.30,3.54,2.08
24.1610,0.07,0.12,-0.99,2.93,3.78,2.08
24.1770,0.07,0.13,-0.99,2.87,3.42,2.14
24.1930,0.07,0.13,-0.99,3.48,3.48,2.08
24.2110,0.07,0.13,-0.99,3.05,3.66,2.01
24.2260,0.07,0.13,-0.99,3.05,3.66,2.08
24.2410,0.07,0.13,-0.99,3.36,3.78,1.95
24.2560,0.07,0.13,-0.99,2.81,3.78,2.26
24.2720,0.08,0.13,-0.99,3.05,3.30,1.95
24.2880,0.07,0.13,-0.99,3.23,3.66,2.20
24.3030,0.07,0.13,-1.00,2.87,3.60,2.01
24.3100,0.07,0.13,-0.99,2.81,3.85,2.08
24.3350,0.08,0.13,-0.99,2.99,3.72,2.14
24.3500,0.07,0.13,-0.99,3.17,3.54,2.20
24.3650,0.07,0.13,-0.99,3.30,3.72,2.14
24.3770,0.07,0.13,-0.99,2.99,3.54,2.14
24.3930,0.07,0.13,-0.99,3.48,3.78,2.14
24.4090,0.07,0.13,-0.99,3.30,3.48,2.20
24.4250,0.07,0.13,-0.99,3.11,3.60,2.14
24.4340,0.07,0.13,-0.99,3.05,3.54,1.95
24.4510,0.07,0.12,-0.99,2.87,3.60,1.95
24.4670,0.07,0.13,-0.99,3.23,3.54,2.08
24.4850,0.07,0.13,-0.99,3.30,3.48,2.01
24.5020,0.07,0.13,-0.99,3.11,3.48,2.01
24.5180,0.07,0.13,-0.99,3.17,3.60,2.01
24.5340,0.08,0.13,-0.99,3.05,3.66,2.08
24.5500,0.07,0.13,-0.99,3.11,3.54,2.14
24.5650,0.07,0.13,-0.99,3.23,3.66,2.08
24.5680,0.08,0.13,-1.00,2.99,3.60,2.20
24.5840,0.07,0.13,-0.99,3.17,3.36,1.95
24.6010,0.07,0.12,-0.99,2.93,3.54,2.08
24.6180,0.08,0.13,-0.99,3.30,3.48,2.01
24.6340,0.07,0.13,-0.99,3.36,3.54,2.08
24.6500,0.08,0.13,-0.99,3.23,3.91,2.08
24.6690,0.08,0.13,-1.00,3.05,3.54,1.95
24.6860,0.08,0.13,-0.99,3.23,3.42,2.08
24.7020,0.07,0.12,-0.99,2.87,3.66,2.08
24.7190,0.07,0.13,-0.99,3.36,3.48,2.14
24.7370,0.07,0.13,-0.99,3.17,3.60,2.01
24.7520,0.07,0.13,-0.99,2.99,3.36,1.83
24.7700,0.07,0.13,-0.99,2.62,3.66,1.89
24.7860,0.08,0.14,-1.00,4.33,3.85,2.26
24.8020,0.07,0.12,-0.99,2.69,3.60,2.08
24.8180,0.07,0.12,-0.99,2.93,3.54,2.14
24.8360,0.08,0.13,-0.99,3.60,3.54,2.20
24.8520,0.07,0.13,-1.00,2.93,3.78,2.08
24.8670,0.07,0.13,-0.99,3.30,3.85,2.01
24.8710,0.08,0.13,-0.99,2.81,3.54,1.95
24.8980,0.07,0.13,-0.99,3.11,3.48,1.95
24.9130,0.07,0.13,-0.99,3.05,3.60,1.95
24.9280,0.07,0.12,-0.99,2.81,3.72,2.01
24.9380,0.08,0.13,-0.99,3.11,3.48,1.95
24.9540,0.07,0.13,-0.99,3.23,3.60,1.95
24.9730,0.06,0.13,-1.00,2.93,3.36,2.01
24.9880,0.08,0.12,-0.99,1.34,3.66,1.71
25.0040,0.07,0.12,-1.00,2.62,4.27,1.95
25.0190,0.07,0.12,-1.00,2.99,2.93,1.22
25.0280,0.08,0.14,-0.99,2.81,3.72,0.98
25.0440,0.07,0.13,-0.99,1.53,4.15,2.08
25.0660,0.04,0.13,-1.01,4.21,3.78,2.14
25.0820,0.07,0.14,-1.00,4.76,4.09,2.26
25.0840,0.08,0.13,-0.99,3.54,3.78,2.08
25.1010,0.07,0.11,-0.98,2.69,3.60,1.89
25.1200,0.08,0.13,-1.00,3.78,3.30,1.95
25.1370,0.08,0.13,-0.98,3.60,3.42,2.08
25.1530,0.07,0.14,-0.99,3.11,3.60,2.08
25.1760,0.07,0.13,-0.99,2.99,3.66,2.14
25.1920,0.08,0.12,-0.99,2.87,3.78,2.01
25.2080,0.08,0.13,-0.99,3.11,3.60,1.89
25.2240,0.07,0.14,-1.00,2.62,3.60,1.95
25.2390,0.07,0.12,-0.99,0.43,4.58,1.95
25.2540,0.07,0.13,-1.00,1.65,4.33,1.77
25.2690,0.07,0.11,-0.99,1.16,3.91,2.14
25.2840,0.07,0.13,-1.00,3.78,3.60,2.14
25.2980,0.07,0.13,-0.99,3.05,3.42,1.95
25.3100,0.07,0.12,-0.99,2.87,3.91,2.01
25.3270,0.07,0.13,-0.99,3.97,3.42,2.01
25.3420,0.07,0.13,-0.99,4.03,3.48,2.26
25.3590,0.07,0.14,-0.99,3.66,3.66,2.01
25.3740,0.07,0.13,-0.99,2.38,4.09,2.01
25.3830,0.07,0.12,-0.99,2.14,4.39,1.95
25.4040,0.07,0.13,-0.99,1.65,4.09,1.89
25.4160,0.07,0.12,-0.99,1.77,4.21,1.89
25.4330,0.07,0.12,-0.99,1.95,4.03,1.83
25.4500,0.07,0.12,-0.99,2.56,3.78,1.95
25.4660,0.07,0.12,-0.99,3.30,3.23,2.01
25.4820,0.08,0.12,-0.99,4.09,3.36,2.14
25.4890,0.07,0.14,-1.00,4.82,4.09,2.14
25.5070,0.07,0.12,-0.98,4.33,3.72,2.32
25.5240,0.07,0.13,-1.00,6.04,3.66,2.14
25.5400,0.07,0.13,-0.99,5.00,3.42,2.08
25.5550,0.08,0.13,-0.99,4.09,3.60,2.01
25.5710,0.07,0.12,-0.99,3.11,3.72,1.95
25.5800,0.07,0.12,-0.99,4.52,3.85,2.20
25.6020,0.07,0.14,-0.99,6.23,3.36,2.26
25.6130,0.06,0.06,-1.02,5.74,3.11,1.71
25.6290,0.08,0.17,-0.99,1.34,3.85,0.73
25.6450,0.07,0.15,-0.99,2.93,4.94,-3.05
25.6620,0.07,0.15,-1.01,3.11,4.46,-0.18
25.6790,0.08,0.13,-1.00,2.26,3.72,1.95
25.6960,0.07,0.13,-0.99,2.50,3.60,1.95
25.7100,0.07,0.14,-0.99,4.33,3.42,2.14
25.7130,0.07,0.12,-0.99,1.28,4.03,1.95
25.7280,0.07,0.12,-0.99,2.26,3.60,2.01
25.7500,0.07,0.12,-0.99,3.23,3.42,2.01
25.7710,0.07,0.13,-0.99,5.43,3.11,2.26
25.7830,0.07,0.14,-1.00,6.16,2.81,2.26
25.8020,0.07,0.14,-0.99,4.09,3.36,2.08
25.8160,0.08,0.13,-0.99,2.69,3.48,2.01
25.8330,0.07,0.13,-0.99,2.69,3.66,2.08
25.8490,0.07,0.13,-0.99,3.48,3.42,2.08
25.8660,0.07,0.12,-0.99,3.91,3.17,2.20
25.8820,0.07,0.13,-0.99,4.82,3.54,2.32
25.8890,0.06,0.10,-1.01,3.72,3.72,2.26
25.9130,0.08,0.15,-0.99,2.01,3.42,2.44
25.9220,0.07,0.13,-0.99,3.17,3.05,1.83
25.9440,0.08,0.14,-0.99,3.17,3.91,1.95
25.9550,0.07,0.14,-0.99,2.50,3.85,2.14
25.9730,0.07,0.13,-1.00,2.32,4.21,1.95
25.9880,0.07,0.13,-1.00,2.87,3.11,2.20
26.0050,0.08,0.13,-0.98,3.72,3.05,1.95
26.0120,0.07,0.13,-0.99,3.42,3.97,1.95
26.0350,0.07,0.13,-0.99,2.93,3.97,2.01
26.0500,0.07,0.13,-1.00,3.54,3.97,2.08
26.0620,0.07,0.13,-1.00,5.13,3.60,2.14
26.0790,0.06,0.11,-1.01,4.82,2.93,1.95
26.0940,0.08,0.17,-0.97,1.04,2.81,2.26
26.1030,0.08,0.17,-0.97,2.20,3.66,1.22
26.1170,0.07,0.13,-0.99,2.14,4.39,1.83
26.1340,0.07,0.13,-1.00,2.14,4.03,1.16
26.1500,0.08,0.13,-0.99,1.59,4.27,-1.34
26.1720,0.08,0.13,-0.99,2.62,4.46,-2.01
26.1880,0.07,0.13,-0.99,3.91,4.52,-1.46
26.2050,0.06,0.14,-0.99,4.09,4.15,0.00
26.2200,0.07,0.14,-0.99,3.78,4.15,0.98
26.2360,0.08,0.13,-0.99,2.56,3.42,1.34
26.2510,0.07,0.13,-0.99,1.16,4.46,-1.16
26.2570,0.07,0.15,-0.99,2.14,3.97,-0.92
26.2720,0.07,0.13,-0.99,2.08,3.91,2.01
26.2960,0.07,0.12,-0.99,2.93,3.60,2.14
26.3120,0.05,0.11,-1.00,2.56,3.48,2.01
26.3280,0.07,0.12,-0.97,2.14,5.19,-1.34
26.3290,0.07,0.15,-0.98,3.23,4.21,-1.04
26.3580,0.07,0.13,-0.99,1.10,4.64,1.89
26.3730,0.07,0.12,-0.99,0.49,4.76,1.95
26.3800,0.07,0.12,-0.99,1.53,4.27,2.26
26.3960,0.07,0.13,-1.00,3.42,4.03,2.20
26.4190,0.07,0.13,-0.99,2.32,3.60,1.95
26.4190,0.07,0.12,-0.98,1.34,4.27,1.95
26.4490,0.07,0.12,-0.99,2.93,3.97,2.38
26.4640,0.07,0.12,-0.99,5.00,3.42,2.14
26.4700,0.07,0.13,-1.00,4.70,3.17,2.08
26.4870,0.07,0.13,-0.99,3.91,2.99,1.95
26.5050,0.07,0.13,-0.99,3.42,3.11,1.89
26.5200,0.07,0.12,-0.99,3.11,3.48,2.14
26.5360,0.07,0.13,-0.99,4.27,3.54,2.20
26.5580,0.07,0.10,-0.98,3.17,3.72,2.14
26.5600,0.07,0.13,-1.00,3.97,3.60,1.95
26.5880,0.07,0.13,-0.99,2.75,3.48,1.89
26.6030,0.07,0.13,-0.99,3.91,3.23,1.89
26.6190,0.07,0.13,-0.99,4.46,3.48,2.14
26.6340,0.07,0.14,-0.99,4.70,3.91,2.20
26.6490,0.07,0.13,-0.99,3.11,3.66,2.08
26.6640,0.07,0.13,-0.99,2.38,3.97,2.08
26.6760,0.06,0.11,-0.96,1.89,4.46,2.20
26.6920,0.07,0.13,-0.99,2.69,3.66,2.26
26.7070,0.07,0.15,-0.98,2.20,3.23,4.15
26.7230,0.08,0.17,-0.98,2.14,3.60,5.68
26.7390,0.07,0.12,-0.99,3.97,3.91,6.96
26.7540,0.06,0.07,-1.01,4.39,3.72,5.92
26.7640,0.07,0.13,-1.00,5.13,2.99,2.32
26.7810,0.07,0.13,-0.99,3.66,3.36,2.32
26.7980,0.07,0.13,-0.99,3.97,2.93,2.20
26.8130,0.07,0.14,-0.99,2.87,3.11,2.14
26.8290,0.07,0.12,-0.99,1.65,3.66,2.20
26.8370,0.07,0.13,-0.99,3.60,3.66,2.32
26.8600,0.07,0.11,-1.00,3.85,4.15,2.50
26.8710,0.07,0.13,-1.00,4.58,4.09,2.08
26.8870,0.07,0.14,-0.99,4.27,3.23,2.20
26.9070,0.07,0.13,-0.99,3.42,3.78,2.08
26.9220,0.07,0.13,-0.99,3.42,3.78,2.08
26.9380,0.07,0.13,-0.99,3.42,3.85,1.95
26.9540,0.07,0.13,-0.99,3.11,3.66,2.14
26.9700,0.07,0.13,-0.99,3.72,3.30,1.95
26.9850,0.07,0.13,-0.99,3.42,3.54,2.14
26.9930,0.07,0.15,-1.01,5.00,2.56,2.14
27.0150,0.07,0.13,-0.99,2.56,2.87,1.83
27.0260,0.07,0.13,-0.99,2.62,3.78,2.14
27.0430,0.07,0.13,-0.99,3.05,3.05,2.08
27.0590,0.07,0.13,-0.99,3.60,3.42,2.08
27.0740,0.07,0.14,-0.99,3.54,3.30,2.01
27.0910,0.07,0.14,-0.99,3.60,3.48,2.08
27.1040,0.07,0.13,-0.99,2.75,3.97,2.20
27.1140,0.07,0.13,-1.00,2.93,3.54,2.08
27.1370,0.07,0.13,-0.99,3.54,3.48,2.01
27.1520,0.07,0.13,-0.99,3.36,3.66,1.95
27.1640,0.07,0.13,-0.99,3.23,3.60,2.08
27.1820,0.07,0.13,-0.99,3.30,3.54,1.89
27.1820,0.07,0.13,-0.99,2.87,3.66,2.14
27.2040,0.07,0.13,-0.99,2.62,3.36,2.20
27.2230,0.07,0.13,-0.99,2.56,3.72,1.95
27.2390,0.07,0.13,-0.99,3.11,3.48,2.20
27.2560,0.07,0.14,-0.99,3.66,3.36,2.01
27.2730,0.07,0.13,-0.99,3.17,3.78,2.01
27.2870,0.07,0.13,-0.99,2.99,3.91,1.89
27.3050,0.07,0.13,-0.99,2.20,3.72,2.01
27.3200,0.07,0.12,-0.99,2.32,3.85,2.01
27.3230,0.07,0.13,-0.99,2.44,3.48,2.14
27.3390,0.07,0.14,-0.99,4.15,3.05,1.95
27.3550,0.07,0.13,-0.99,2.75,3.11,2.08
27.3820,0.07,0.13,-0.99,2.69,3.85,2.32
27.3940,0.07,0.13,-0.99,2.81,4.52,2.26
27.4110,0.07,0.13,-0.99,3.42,3.72,2.20
27.4260,0.07,0.13,-0.99,3.23,3.66,2.08
27.4420,0.07,0.13,-0.99,3.42,3.54,2.08
27.4570,0.07,0.14,-0.99,2.87,3.91,2.08
27.4660,0.07,0.13,-0.99,2.50,3.91,2.01
27.4820,0.07,0.13,-0.99,2.87,4.27,2.08
27.5040,0.07,0.13,-0.99,3.72,3.60,2.08
27.5200,0.07,0.13,-0.99,3.54,3.42,1.95
27.5360,0.07,0.14,-1.00,3.11,3.23,2.01
27.5510,0.07,0.13,-0.99,2.81,3.85,2.20
27.5660,0.07,0.13,-0.99,3.05,3.97,2.14
27.5810,0.07,0.13,-0.99,3.60,3.48,2.20
27.5900,0.07,0.13,-0.99,3.30,3.54,2.08
27.6050,0.07,0.13,-1.00,2.81,3.54,2.08
27.6260,0.07,0.13,-0.99,2.87,3.54,2.01
27.6420,0.07,0.14,-0.99,3.05,3.30,1.89
27.6430,0.07,0.13,-0.99,2.81,3.66,1.95
27.6590,0.07,0.13,-0.99,2.62,4.03,2.08
27.6810,0.07,0.13,-0.99,2.69,3.60,1.95
27.6990,0.07,0.13,-0.99,2.75,3.72,2.08
27.7160,0.07,0.13,-0.99,2.75,3.78,2.14
27.7320,0.07,0.13,-0.99,2.81,3.85,2.08
27.7490,0.07,0.13,-0.99,2.69,3.66,2.01
27.7490,0.07,0.13,-0.99,3.42,3.85,2.08
27.7790,0.07,0.13,-0.99,3.11,3.78,2.14
27.7860,0.07,0.13,-0.99,2.99,3.36,2.14
27.8040,0.07,0.13,-0.99,3.05,3.60,2.01
27.8200,0.07,0.13,-0.99,3.11,3.72,2.08
27.8360,0.07,0.14,-0.99,3.17,3.85,2.08
27.8520,0.07,0.13,-0.99,3.36,3.60,1.95
27.8710,0.07,0.13,-0.99,2.81,3.85,2.08
27.8870,0.07,0.13,-0.99,2.44,3.72,2.08
27.8920,0.07,0.13,-0.99,2.87,3.72,1.95
27.9180,0.07,0.13,-0.99,3.30,3.85,2.14
27.9340,0.07,0.13,-0.99,3.05,3.91,2.14
27.9490,0.07,0.13,-0.99,3.11,4.03,1.89
27.9640,0.07,0.13,-1.00,3.78,3.30,2.01
27.9750,0.07,0.13,-0.99,2.93,3.66,2.08
27.9920,0.07,0.13,-0.99,3.30,3.11,2.01
28.0080,0.07,0.13,-0.99,3.36,3.72,2.01
28.0230,0.07,0.13,-0.99,3.11,3.72,2.08
28.0310,0.07,0.13,-0.99,2.93,3.48,1.89
28.0480,0.07,0.13,-0.99,2.93,3.60,1.95
28.0640,0.07,0.13,-0.99,3.30,3.60,1.95
28.0810,0.07,0.13,-0.99,3.30,3.60,2.14
28.0980,0.07,0.13,-0.99,3.42,3.97,2.08
28.1150,0.07,0.13,-0.99,3.30,3.85,1.95
28.1310,0.21,0.13,-0.98,3.60,3.42,1.16
28.1470,0.05,0.13,-0.97,3.48,3.48,-0.43
28.1620,0.09,0.13,-0.99,3.17,3.66,1.28
28.1720,0.09,0.15,-0.99,2.99,3.42,1.53
28.1880,0.06,0.13,-0.99,2.38,3.42,3.11
28.2050,0.06,0.13,-1.00,3.30,3.36,2.93
28.2220,0.06,0.12,-0.99,2.87,3.42,2.56
28.2380,0.05,0.12,-0.99,3.23,3.17,2.08
28.2540,0.04,0.12,-0.99,2.93,3.54,1.89
28.2690,0.06,0.13,-0.99,3.23,3.23,1.89
28.2840,0.07,0.13,-0.99,3.36,3.60,1.89
28.2990,0.07,0.13,-0.99,3.72,3.54,2.08
28.3120,0.07,0.13,-0.99,3.78,3.30,2.01
28.3270,0.08,0.13,-0.99,3.78,3.97,1.95
28.3440,0.06,0.13,-0.99,2.81,3.30,1.16
28.3510,0.08,0.13,-0.99,3.17,3.72,1.46
28.3690,0.08,0.13,-0.99,3.54,3.78,0.92
28.3840,0.08,0.13,-0.99,3.66,3.42,0.67
28.4040,0.07,0.13,-1.00,3.97,3.66,0.43
28.4180,0.07,0.13,-0.99,3.11,3.54,1.28
28.4350,0.08,0.14,-0.99,3.42,3.17,1.04
28.4350,0.07,0.13,-0.99,2.87,3.42,0.98
28.4510,0.07,0.14,-1.00,3.60,2.99,0.98
28.4680,0.08,0.12,-0.98,3.05,3.30,1.28
28.4830,0.06,0.13,-0.99,3.60,3.17,0.92
28.5050,0.06,0.14,-0.99,3.54,3.36,1.10
28.5180,0.05,0.14,-0.99,2.93,3.23,1.28
28.5340,0.06,0.13,-0.99,2.69,3.60,1.95
28.5500,0.06,0.14,-0.99,3.05,3.91,1.89
28.5680,0.07,0.13,-0.99,3.17,3.48,2.01
28.5850,0.07,0.13,-0.99,2.87,4.03,1.95
28.6040,0.07,0.13,-0.99,2.93,3.78,1.89
28.6180,0.10,0.13,-0.99,2.50,3.42,1.46
28.6350,0.04,0.14,-0.99,2.56,3.42,1.34
28.6510,0.07,0.13,-0.98,2.26,3.78,1.59
28.6660,0.06,0.13,-0.99,2.87,3.48,1.65
28.6810,0.08,0.13,-0.99,2.81,3.48,2.01
28.6960,0.07,0.13,-0.99,2.69,3.91,2.01
28.7120,0.07,0.13,-0.99,2.62,3.85,1.95
28.7190,0.12,0.13,-0.98,2.38,2.99,1.22
28.7350,0.05,0.13,-0.99,2.81,3.54,1.59
28.7570,0.07,0.13,-0.99,3.30,3.97,1.95
28.7730,0.07,0.13,-0.99,2.87,3.78,2.01
28.7740,0.07,0.13,-1.00,3.72,3.66,2.08
28.8040,0.07,0.13,-0.99,3.85,2.93,1.89
28.8210,0.07,0.13,-0.99,3.72,3.60,2.01
28.8360,0.08,0.13,-0.99,3.05,4.15,2.08
28.8510,0.07,0.13,-0.99,2.08,4.64,2.08
28.8660,0.09,0.13,-0.99,2.50,3.91,1.40
28.8810,0.03,0.12,-0.99,4.09,3.78,2.50
28.8930,0.06,0.13,-1.00,6.35,2.50,2.20
28.9090,0.07,0.14,-0.99,6.23,2.08,2.14
28.9250,0.08,0.14,-0.99,4.70,3.05,1.83
28.9410,0.08,0.14,-0.99,1.95,4.33,1.95
28.9560,0.11,0.13,-0.99,1.16,4.39,1.89
28.9720,0.13,0.14,-0.98,2.14,2.38,4.27
28.9880,0.02,0.11,-0.99,2.93,2.62,5.13
29.0030,0.07,0.14,-1.00,5.55,3.05,2.26
29.0190,0.08,0.14,-1.00,4.27,3.48,1.95
29.0360,0.07,0.13,-0.99,2.75,4.52,2.26
29.0420,0.08,0.13,-0.99,3.05,4.15,1.95
29.0680,0.07,0.13,-0.99,3.17,3.42,2.14
29.0830,0.07,0.13,-0.99,3.30,2.75,1.77
29.0920,0.07,0.13,-0.99,3.60,2.93,1.83
29.1080,0.08,0.14,-0.99,3.48,3.11,1.89
29.1280,0.07,0.13,-0.99,2.87,3.48,1.95
29.1450,0.07,0.13,-0.99,2.62,4.21,2.08
29.1600,0.07,0.13,-0.99,3.11,3.72,1.95
29.1750,0.07,0.13,-0.99,4.09,3.97,2.14
29.1910,0.10,0.13,-0.99,3.85,2.99,0.85
29.2070,0.03,0.14,-0.99,3.66,3.11,-0.49
29.2130,0.07,0.13,-0.99,4.09,3.66,1.59
29.2300,0.11,0.12,-0.99,3.30,3.85,1.46
29.2500,0.08,0.14,-0.99,2.87,3.66,0.18
29.2660,0.07,0.14,-0.99,2.56,3.48,0.67
29.2840,0.05,0.14,-0.99,2.87,3.23,0.85
29.3010,0.05,0.13,-0.99,3.42,3.78,1.46
29.3160,0.07,0.13,-0.99,3.30,3.42,1.89
29.3320,0.10,0.13,-0.99,3.66,3.85,1.83
29.3330,0.08,0.14,-0.99,3.36,3.30,-0.49
29.3500,0.08,0.14,-0.99,3.66,3.60,-0.55
29.3670,0.06,0.13,-0.99,2.87,3.72,0.37
29.3840,0.07,0.13,-0.99,2.81,3.66,1.40
29.4060,0.04,0.13,-0.99,3.17,3.36,1.53
29.4240,0.06,0.14,-0.99,3.54,3.78,1.95
29.4340,0.08,0.14,-0.99,4.03,3.23,1.89
29.4500,0.08,0.13,-0.99,3.23,3.60,1.71
29.4660,0.07,0.13,-0.99,2.93,3.72,1.65
29.4830,0.08,0.13,-0.99,3.23,3.48,1.77
29.4990,0.09,0.13,-1.00,3.36,3.23,1.95
29.5170,0.08,0.13,-0.99,3.42,2.93,1.89
29.5320,0.09,0.14,-1.00,2.75,3.72,1.53
29.5470,0.09,0.14,-1.00,2.56,4.09,1.65
29.5620,0.07,0.13,-0.99,3.05,3.54,2.20
29.5730,0.07,0.13,-0.99,3.30,3.23,2.26
29.5910,0.06,0.13,-1.00,3.23,3.66,2.08
29.6060,0.08,0.13,-0.99,2.81,3.78,1.65
29.6230,0.09,0.13,-0.99,2.87,3.48,1.53
29.6380,0.07,0.13,-0.99,2.50,3.42,1.71
29.6530,0.06,0.14,-0.99,3.54,3.42,1.71
29.6680,0.03,0.14,-1.00,3.30,3.78,1.77
29.6830,0.04,0.14,-0.99,3.36,3.66,2.01
29.6960,0.07,0.13,-0.99,3.05,3.36,2.08
29.7110,0.08,0.13,-0.99,2.99,3.48,2.08
29.7270,0.08,0.13,-0.99,2.81,3.23,2.08
29.7350,0.07,0.13,-0.99,3.42,3.30,2.08
29.7520,0.07,0.13,-0.99,3.91,3.60,1.95
29.7690,0.07,0.14,-0.99,3.30,3.54,1.95
29.7850,0.08,0.13,-0.99,2.87,3.85,2.08
29.8050,0.09,0.13,-0.99,2.93,3.60,1.95
29.8070,0.06,0.13,-1.00,2.69,3.17,1.89
29.8370,0.08,0.13,-0.99,2.99,3.60,1.95
29.8400,0.10,0.12,-0.98,3.42,3.60,2.01
29.8550,0.10,0.13,-0.98,2.99,3.42,1.83
29.8720,0.10,0.13,-0.99,3.48,3.30,2.20
29.9000,0.08,0.14,-0.99,2.69,3.72,1.95
29.9150,0.07,0.13,-0.99,2.56,3.42,1.77
29.9300,0.06,0.13,-0.99,2.56,3.54,1.65
29.9400,0.06,0.14,-0.99,3.05,3.23,1.65
29.9550,0.05,0.14,-0.99,2.93,3.60,1.83
29.9720,0.05,0.13,-0.99,2.99,3.42,2.20
29.9890,0.05,0.13,-0.99,2.93,3.91,2.62
30.0050,0.04,0.13,-0.99,3.66,3.78,2.26
30.0210,0.07,0.13,-0.99,3.85,3.36,2.08
30.0270,0.08,0.13,-0.99,3.17,3.54,2.01
30.0510,0.08,0.13,-0.99,2.69,3.85,1.95
30.0610,0.07,0.13,-0.99,2.44,4.15,2.08
30.0770,0.07,0.13,-0.99,2.81,4.09,1.95
30.0970,0.12,0.13,-0.99,2.81,4.15,2.08
30.1120,0.04,0.13,-0.99,2.62,3.23,1.83
30.1270,0.08,0.13,-0.99,3.78,3.66,1.95
30.1430,0.08,0.13,-0.99,3.97,3.54,1.77
30.1590,0.08,0.13,-0.99,4.03,3.48,1.65
30.1740,0.09,0.13,-1.00,3.78,3.23,1.16
30.1880,0.09,0.13,-0.98,2.81,3.42,1.16
30.1990,0.08,0.13,-0.98,2.32,3.48,1.16
30.2150,0.08,0.13,-0.99,3.11,3.48,1.34
30.2320,0.08,0.13,-0.99,3.17,3.42,1.28
30.2480,0.07,0.13,-0.99,3.11,3.48,1.53
30.2650,0.06,0.13,-0.99,2.87,3.78,1.65
30.2820,0.04,0.13,-0.99,2.81,3.30,1.59
30.2960,0.05,0.14,-0.99,3.17,3.48,1.89
30.3080,0.07,0.13,-0.99,3.17,3.42,1.95
30.3290,0.08,0.13,-0.99,4.46,3.17,2.14
30.3440,0.08,0.14,-0.99,5.07,3.66,2.14
30.3600,0.08,0.14,-0.99,3.11,3.23,2.20
30.3750,0.06,0.14,-0.99,2.32,3.42,2.14
30.3900,0.07,0.13,-0.99,2.26,3.66,2.20
30.4040,0.07,0.13,-0.99,2.44,3.78,2.20
30.4160,0.07,0.13,-0.99,2.32,3.66,1.95
30.4330,0.09,0.12,-0.98,3.23,3.48,1.89
30.4490,0.08,0.14,-1.00,3.85,3.48,1.65
30.4660,0.08,0.13,-0.99,3.72,3.66,1.77
30.4810,0.08,0.13,-0.99,3.23,3.60,2.14
30.4960,0.11,0.12,-0.98,3.23,3.42,2.01
30.5080,0.10,0.14,-1.00,2.38,3.17,1.65
30.5220,0.09,0.13,-1.00,3.11,3.42,1.46
30.5420,0.09,0.13,-0.99,2.69,3.48,1.40
30.5570,0.08,0.14,-0.99,2.50,3.54,1.59
30.5730,0.07,0.13,-0.99,2.44,3.72,2.08
30.5890,0.06,0.14,-0.99,2.99,3.72,2.20
30.6040,0.09,0.14,-0.99,2.93,3.42,1.95
30.6090,0.06,0.13,-0.99,2.93,3.66,2.20
30.6360,0.06,0.13,-0.99,3.05,3.60,2.32
30.6510,0.05,0.13,-1.00,3.11,3.48,2.01
30.6600,0.06,0.13,-0.99,3.23,3.54,1.83
30.6810,0.06,0.13,-0.99,3.05,3.42,2.26
30.6930,0.07,0.13,-0.99,2.93,3.54,2.20
30.7080,0.07,0.13,-0.99,2.62,3.66,2.32
30.7260,0.08,0.13,-0.99,3.05,4.03,2.26
30.7410,0.07,0.13,-0.99,3.05,3.78,2.20
30.7430,0.08,0.14,-1.00,3.30,4.09,1.89
30.7730,0.08,0.13,-0.99,2.32,3.91,1.83
30.7870,0.07,0.14,-1.00,3.05,3.72,2.14
30.8030,0.07,0.13,-0.98,2.26,3.85,2.32
30.8180,0.05,0.13,-0.99,2.56,3.72,2.62
30.8330,0.06,0.13,-1.00,2.75,3.78,2.38
30.8420,0.06,0.13,-0.99,3.42,3.60,2.08
30.8580,0.07,0.13,-0.99,3.60,3.72,2.01
30.8780,0.09,0.14,-0.99,3.30,3.97,2.14
30.8940,0.07,0.13,-0.99,2.26,3.60,1.77
30.9090,0.08,0.13,-0.99,2.69,3.97,1.77
30.9240,0.07,0.13,-0.99,3.36,3.85,1.71
30.9390,0.07,0.13,-0.99,3.72,3.60,1.65
30.9540,0.07,0.14,-0.99,3.30,3.23,1.40
30.9640,0.07,0.13,-0.99,2.69,3.66,1.28
30.9810,0.08,0.13,-0.99,2.56,3.78,1.40
30.9970,0.07,0.13,-1.00,3.91,3.66,1.28
31.0140,0.09,0.13,-0.99,3.30,3.78,1.46
31.0290,0.10,0.13,-0.99,3.54,3.30,1.40
31.0440,0.09,0.13,-0.98,3.05,3.23,0.98
31.0590,0.08,0.13,-0.98,3.54,3.17,0.79
31.0740,0.07,0.14,-1.01,3.54,3.23,0.61
31.0890,0.07,0.13,-0.99,3.05,3.17,1.28
31.1040,0.06,0.13,-1.00,3.11,3.23,1.46
31.1190,0.07,0.13,-0.99,3.05,3.48,1.71
31.1300,0.09,0.13,-0.99,3.17,3.97,2.01
31.1460,0.09,0.13,-0.99,3.23,3.97,2.14
31.1640,0.08,0.14,-1.00,2.87,3.78,2.44
31.1790,0.09,0.13,-0.99,2.14,3.91,2.44
31.1940,0.09,0.13,-0.99,2.62,4.03,2.26
31.2090,0.08,0.13,-0.99,3.17,3.54,1.46
31.2240,0.08,0.13,-0.99,3.23,3.97,0.98
31.2390,0.06,0.14,-0.99,2.75,3.91,0.85
31.2550,0.05,0.13,-0.99,2.62,3.72,1.53
31.2710,0.02,0.14,-0.99,2.50,3.48,2.14
31.2850,0.06,0.14,-0.99,2.69,3.72,1.95
31.2970,0.07,0.13,-0.99,2.87,3.54,1.89
31.3130,0.08,0.13,-0.99,3.11,2.87,2.14
31.3310,0.08,0.13,-0.99,4.21,3.30,2.01
31.3470,0.08,0.14,-1.00,2.99,4.21,2.01
31.3630,0.07,0.13,-0.99,1.95,4.39,2.01
31.3800,0.08,0.13,-0.99,2.38,3.91,2.14
31.3950,0.08,0.13,-0.99,2.99,3.97,2.01
31.4090,0.08,0.13,-0.99,3.23,3.66,2.08
31.4170,0.07,0.13,-0.99,2.75,3.91,2.01
31.4400,0.07,0.13,-0.99,2.08,3.97,1.95
31.4570,0.07,0.13,-0.99,2.62,3.78,2.08
31.4570,0.07,0.13,-0.99,3.54,3.78,2.14
31.4870,0.07,0.13,-0.99,3.72,3.23,2.20
31.5020,0.06,0.14,-0.99,4.09,4.03,3.72
31.5180,0.06,0.14,-0.99,2.93,3.72,4.03
31.5330,0.09,0.12,-0.99,3.91,3.91,5.25
31.5430,0.04,0.14,-1.00,3.60,2.87,5.00
31.5600,0.10,0.10,-0.98,3.72,3.36,6.29
31.5770,0.08,0.15,-1.00,6.23,2.75,2.87
31.5930,0.08,0.14,-1.00,3.66,3.23,3.36
31.6100,0.10,0.13,-0.99,2.81,3.36,2.81
31.6260,0.08,0.13,-0.99,3.11,3.54,2.01
31.6410,0.07,0.13,-0.99,3.91,3.66,2.01
31.6440,0.07,0.14,-1.00,3.85,3.48,2.14
31.6600,0.07,0.13,-0.99,3.42,3.54,1.89
31.6810,0.08,0.13,-0.99,3.17,3.54,1.83
31.6980,0.08,0.13,-0.99,2.99,3.85,2.14
31.7140,0.08,0.13,-0.99,3.78,3.36,1.95
31.7300,0.08,0.14,-0.99,3.36,3.54,2.01
31.7480,0.07,0.13,-0.99,3.42,3.78,2.08
31.7540,0.07,0.13,-0.99,3.42,3.78,2.14
31.7700,0.07,0.13,-0.99,3.05,3.54,2.14
31.7870,0.07,0.13,-0.99,2.75,2.93,1.95
31.8030,0.02,0.12,-1.00,2.69,3.42,2.32
31.8230,0.10,0.14,-0.99,4.27,3.17,2.56
31.8400,0.08,0.14,-0.99,3.91,3.17,2.14
31.8550,0.08,0.14,-0.99,3.54,3.11,2.20
31.8710,0.08,0.14,-0.99,3.23,3.48,2.32
31.8870,0.08,0.13,-0.99,2.56,3.66,2.08
31.9030,0.08,0.14,-0.99,3.17,3.97,2.08
31.9180,0.07,0.13,-0.99,3.30,3.60,2.20
31.9240,0.07,0.13,-0.99,3.23,3.78,2.20
31.9400,0.08,0.14,-0.99,3.36,3.78,1.89
31.9630,0.07,0.13,-0.99,3.17,3.42,1.95
31.9790,0.08,0.13,-0.99,3.78,3.48,2.01
31.9940,0.08,0.13,-0.99,4.03,3.05,1.95
31.9960,0.08,0.14,-0.99,4.09,3.30,1.89
32.0240,0.08,0.14,-0.99,3.97,2.93,1.83
32.0390,0.08,0.14,-0.99,3.36,3.17,1.83
32.0470,0.09,0.14,-0.99,2.62,3.54,1.83
32.0630,0.06,0.13,-0.99,3.66,2.50,1.95
32.0860,0.08,0.14,-0.99,4.70,2.50,1.89
32.0870,0.08,0.14,-0.99,4.52,2.26,2.01
32.1160,0.08,0.14,-0.99,4.03,2.38,2.08
32.1330,0.08,0.14,-1.00,3.36,2.75,1.95
32.1490,0.08,0.14,-0.99,2.38,4.39,1.89
32.1640,0.08,0.12,-1.00,1.34,5.55,2.32
32.1710,0.07,0.14,-0.98,0.12,5.62,4.27
32.1860,0.11,0.09,-0.96,2.44,5.62,2.56
32.2100,0.08,0.14,-1.00,3.36,4.52,2.14
32.2190,0.07,0.14,-0.99,3.23,4.21,2.08
32.2410,0.07,0.13,-0.99,2.93,4.52,2.20
32.2570,0.07,0.14,-0.99,2.93,4.46,2.26
32.2720,0.08,0.13,-0.99,2.87,3.85,2.01
32.2880,0.08,0.13,-0.99,2.87,3.72,2.14
32.3040,0.08,0.13,-0.99,2.75,4.52,2.26
32.3210,0.07,0.13,-0.99,3.05,4.09,2.01
32.3370,0.07,0.14,-0.99,3.36,3.72,2.20
32.3530,0.07,0.13,-0.99,3.54,3.91,2.14
32.3680,0.08,0.14,-0.99,3.48,3.72,2.01
32.3830,0.08,0.14,-0.99,3.17,3.85,1.89
32.3930,0.08,0.14,-0.99,2.50,3.91,1.95
32.4100,0.07,0.14,-0.99,2.75,3.78,2.01
32.4270,0.07,0.14,-0.99,2.56,3.48,2.01
32.4420,0.07,0.14,-0.99,2.81,3.54,2.08
32.4600,0.08,0.12,-0.98,2.32,4.27,2.14
32.4650,0.08,0.13,-0.99,4.39,3.78,2.14
32.4820,0.07,0.14,-0.99,3.85,3.60,2.08
32.4980,0.07,0.14,-0.99,2.62,3.91,1.95
32.5140,0.07,0.14,-0.99,2.26,3.72,1.89
32.5350,0.07,0.13,-0.99,2.69,3.97,1.95
32.5500,0.07,0.13,-0.99,2.87,3.66,2.01
32.5540,0.07,0.13,-0.99,3.05,4.09,2.08
32.5700,0.07,0.13,-0.99,2.81,3.72,2.14
32.5920,0.07,0.13,-0.99,3.78,3.42,2.01
32.6100,0.05,0.13,-0.99,3.85,3.54,2.32
32.6250,0.09,0.14,-0.99,3.72,3.97,2.50
32.6400,0.08,0.13,-0.99,2.44,4.09,2.08
32.6570,0.08,0.13,-0.99,2.38,4.76,2.14
32.6720,0.07,0.13,-0.99,2.38,4.52,2.14
32.6870,0.07,0.14,-0.99,2.75,4.27,2.20
32.6960,0.07,0.14,-0.99,2.81,4.03,2.20
32.7120,0.07,0.14,-1.00,3.05,3.48,1.89
32.7290,0.07,0.13,-0.99,2.62,3.42,1.83
32.7450,0.07,0.13,-1.00,3.23,3.54,1.95
32.7640,0.10,0.12,-0.99,3.05,3.97,2.14
32.7800,0.07,0.14,-1.00,3.17,4.82,2.08
32.7950,0.07,0.14,-1.00,3.05,4.70,2.44
32.8110,0.07,0.14,-0.99,2.87,4.39,2.14
32.8270,0.06,0.14,-1.00,2.26,3.85,1.89
32.8430,0.07,0.13,-0.99,1.95,3.05,1.77
32.8590,0.07,0.13,-0.99,2.69,3.36,1.83
32.8740,0.07,0.13,-0.99,2.75,3.11,1.89
32.8890,0.01,0.12,-1.00,3.23,3.60,1.83
32.8980,0.11,0.14,-0.99,3.23,4.09,1.22
32.9130,0.08,0.14,-0.99,3.60,4.03,1.83
32.9340,0.07,0.13,-0.99,3.05,3.78,2.20
32.9490,0.06,0.13,-0.99,3.11,3.54,2.14
32.9640,0.05,0.12,-1.00,3.11,2.87,1.83
32.9800,0.08,0.14,-0.99,2.50,3.60,1.22
32.9860,0.08,0.14,-0.99,2.93,3.60,0.92
33.0010,0.08,0.15,-0.99,2.50,3.36,1.53
33.0250,0.07,0.13,-0.99,2.01,3.42,1.77
33.0360,0.07,0.13,-0.99,1.22,3.91,1.71
33.0520,0.04,0.13,-0.99,0.98,3.66,1.53
33.0680,0.08,0.13,-0.99,2.26,4.15,0.67
33.0850,0.07,0.13,-0.99,3.66,3.66,0.79
33.1020,0.07,0.13,-0.99,4.21,3.78,0.43
33.1180,0.07,0.13,-0.99,4.76,4.03,0.31
33.1350,0.08,0.13,-0.99,4.21,4.27,-0.79
33.1500,0.08,0.13,-0.99,3.48,4.52,-0.92
33.1520,0.08,0.13,-0.99,3.36,4.03,0.12
33.1690,0.08,0.13,-0.99,2.56,4.33,-0.55
33.1850,0.08,0.14,-0.99,3.36,3.91,1.28
33.2130,0.08,0.13,-0.99,3.17,3.72,2.26
33.2190,0.07,0.13,-0.99,4.15,3.85,2.14
33.2450,0.07,0.13,-0.99,4.21,3.66,2.14
33.2600,0.07,0.13,-0.99,3.97,3.48,2.08
33.2750,0.07,0.13,-0.99,3.11,3.60,2.01
33.2850,0.07,0.13,-0.99,2.75,3.17,1.89
33.3030,0.07,0.13,-0.99,3.05,3.48,2.01
33.3200,0.07,0.13,-0.99,3.36,3.54,2.14
33.3350,0.07,0.13,-0.99,4.09,3.60,2.26
33.3510,0.07,0.13,-0.99,3.85,3.66,2.08
33.3670,0.07,0.14,-0.99,3.42,3.91,2.14
33.3830,0.07,0.14,-0.99,3.05,3.78,1.89
33.3870,0.07,0.13,-0.99,2.69,3.66,2.01
33.4140,0.07,0.13,-0.99,3.30,3.66,2.08
33.4290,0.08,0.12,-0.99,3.42,3.85,1.83
33.4450,0.10,0.11,-1.01,3.48,3.97,1.71
33.4600,0.05,0.15,-0.99,0.24,3.48,3.11
33.4710,0.07,0.14,-0.99,3.11,3.36,2.08
33.4870,0.07,0.14,-0.99,3.60,3.54,1.46
33.5030,0.07,0.14,-0.99,2.99,3.48,1.34
33.5220,0.07,0.14,-0.99,2.56,3.72,1.34
33.5370,0.07,0.13,-0.99,2.20,3.85,1.65
33.5450,0.07,0.13,-0.99,2.56,3.72,2.08
33.5610,0.07,0.13,-0.99,2.93,3.54,1.95
33.5820,0.07,0.13,-0.99,2.99,3.72,1.89
33.5960,0.07,0.13,-0.99,2.75,3.42,1.95
33.6110,0.07,0.13,-0.99,2.20,3.66,1.89
33.6170,0.07,0.13,-0.99,2.69,3.48,2.14
33.6390,0.07,0.14,-0.99,2.56,3.42,1.95
33.6560,0.07,0.13,-0.99,2.62,3.48,2.14
33.6720,0.07,0.13,-0.99,2.81,3.54,2.14
33.6870,0.07,0.13,-0.99,2.69,4.03,2.20
33.7030,0.07,0.13,-1.00,2.81,4.39,1.95
33.7180,0.07,0.13,-0.99,2.01,4.15,2.14
33.7330,0.07,0.13,-0.99,2.20,3.23,1.83
33.7480,0.07,0.13,-0.99,2.56,3.17,2.08
33.7570,0.07,0.13,-0.99,3.78,3.23,1.95
33.7790,0.08,0.13,-1.00,3.72,3.05,1.95
33.7900,0.07,0.13,-0.99,2.50,3.42,1.95
33.8060,0.07,0.13,-0.99,2.38,3.30,1.89
33.8250,0.07,0.13,-0.98,3.78,3.60,2.08
33.8410,0.08,0.15,-0.99,6.10,3.85,2.20
33.8560,0.08,0.13,-0.99,2.87,3.91,2.01
33.8710,0.07,0.13,-0.99,2.87,3.66,1.95
33.8870,0.08,0.13,-1.00,2.69,3.72,1.95
33.9030,0.07,0.13,-0.99,2.50,3.72,2.01
33.9180,0.07,0.13,-1.00,3.48,2.87,2.14
33.9330,0.08,-0.02,-0.92,-6.59,3.36,3.36
33.9440,0.08,0.19,-0.98,1.16,1.95,7.39
33.9600,0.07,0.11,-1.01,2.20,3.36,2.99
33.9770,0.07,0.11,-0.98,0.92,3.30,5.49
33.9930,0.09,0.08,-0.99,6.59,2.75,6.77
34.0090,0.07,0.14,-1.00,3.11,1.89,8.79
34.0250,0.06,0.12,-0.97,6.47,2.62,6.29
34.0400,0.06,0.11,-0.98,5.86,2.26,6.65
34.0560,0.08,0.25,-1.01,2.01,3.17,6.16
34.0590,0.06,0.08,-0.97,-1.16,4.15,1.71
34.0750,0.09,0.18,-1.01,8.48,2.81,2.01
34.0990,0.07,0.09,-0.98,-0.79,4.15,1.77
34.1150,0.08,0.15,-1.00,4.70,3.11,2.14
34.1310,0.07,0.13,-0.99,3.36,3.54,1.95
34.1470,0.07,0.12,-0.99,2.32,3.60,1.95
34.1560,0.07,0.12,-0.99,2.69,3.91,1.95
34.1720,0.07,0.13,-0.99,2.99,3.66,1.89
34.1890,0.07,0.13,-0.99,3.66,3.36,2.01
34.2050,0.07,0.12,-0.99,2.87,3.66,1.95
34.2240,0.07,0.13,-0.99,3.23,3.54,2.08
34.2390,0.08,0.13,-0.99,3.11,3.66,2.14
34.2540,0.07,0.13,-0.99,3.17,3.85,2.01
34.2630,0.07,0.13,-0.99,2.99,3.66,2.14
34.2780,0.07,0.13,-0.99,3.23,3.91,2.08
34.3000,0.07,0.13,-0.99,2.99,3.60,1.95
34.3150,0.07,0.13,-0.99,3.23,3.42,2.01
34.3300,0.07,0.13,-0.99,3.30,3.60,2.08
34.3450,0.07,0.13,-0.99,3.17,3.36,2.08
34.3530,0.07,0.13,-0.99,3.17,3.85,2.20
34.3750,0.07,0.13,-0.99,2.99,3.30,2.08
34.3860,0.08,0.13,-1.00,2.99,3.42,2.08
34.4020,0.08,0.12,-0.99,2.93,3.72,2.08
34.4190,0.07,0.13,-0.99,3.54,3.48,2.14
34.4240,0.08,0.13,-0.99,3.11,3.72,2.14
34.4420,0.07,0.13,-0.99,3.36,3.36,2.14
34.4570,0.07,0.13,-0.99,3.05,4.15,2.08
34.4730,0.07,0.13,-0.99,2.81,3.66,2.01
34.4950,0.08,0.13,-0.99,3.11,3.72,2.01
34.5100,0.07,0.12,-0.99,3.05,3.72,2.08
34.5130,0.08,0.12,-0.99,3.05,3.60,2.01
34.5430,0.07,0.12,-0.99,3.17,3.78,2.14
34.5580,0.07,0.12,-0.99,3.30,3.54,2.08
34.5630,0.07,0.14,-0.99,3.42,3.42,2.26
34.5900,0.07,0.15,-0.99,3.36,3.85,2.20
34.6050,0.08,0.14,-0.99,2.99,3.66,2.01
34.6200,0.07,0.12,-0.99,2.69,3.48,2.01
34.6300,0.07,0.11,-0.99,2.87,3.66,2.01
34.6460,0.07,0.11,-0.99,3.23,3.60,2.14
34.6650,0.07,0.13,-0.99,3.48,3.78,2.20
34.6810,0.08,0.14,-0.99,3.30,4.09,2.08
34.6970,0.08,0.14,-0.99,3.05,3.66,2.14
34.7120,0.07,0.12,-0.99,2.87,3.78,1.89
34.7270,0.07,0.12,-0.99,3.05,3.60,2.01
34.7420,0.07,0.12,-0.99,3.17,3.54,1.89
34.7490,0.07,0.13,-0.99,2.99,3.48,1.95
34.7640,0.07,0.14,-0.99,3.36,3.66,2.01
34.7880,0.07,0.14,-0.99,3.05,3.60,2.08
34.8040,0.07,0.12,-0.99,2.81,3.72,2.01
34.8200,0.07,0.12,-0.99,3.36,3.54,1.89
34.8360,0.08,0.13,-0.99,3.23,4.03,2.01
34.8530,0.08,0.14,-0.99,3.30,3.60,2.01
34.8690,0.08,0.14,-0.99,3.30,3.54,2.08
34.8720,0.07,0.13,-0.99,2.56,3.54,1.95
34.9030,0.07,0.12,-0.99,2.81,3.72,2.08
34.9130,0.07,0.12,-0.99,3.05,3.91,2.14
34.9360,0.07,0.13,-0.99,3.30,3.66,2.20
34.9380,0.07,0.13,-0.99,3.05,3.72,1.95
34.9670,0.07,0.13,-0.99,2.93,3.78,2.08
34.9820,0.07,0.12,-0.99,2.81,3.78,1.95
34.9970,0.07,0.12,-0.99,3.11,3.66,2.01
35.0050,0.07,0.12,-0.99,3.36,3.60,2.01
35.0210,0.07,0.13,-0.99,3.17,4.03,2.01
35.0420,0.07,0.14,-0.99,2.99,3.36,1.95
35.0580,0.07,0.13,-0.99,3.05,3.48,1.95
35.0730,0.07,0.12,-0.99,2.81,3.91,2.14
35.0890,0.07,0.12,-0.99,3.23,3.48,2.08
35.1040,0.07,0.13,-0.99,3.23,3.60,2.01
35.1200,0.07,0.13,-0.99,2.99,3.78,2.14
35.1360,0.07,0.13,-0.99,3.11,3.85,2.08
35.1520,0.07,0.13,-0.99,2.93,3.85,2.08
35.1670,0.07,0.12,-0.99,2.87,3.36,1.95
35.1770,0.07,0.12,-0.99,3.05,3.60,2.01
35.1940,0.07,0.13,-0.99,3.17,3.30,2.14
35.2100,0.07,0.13,-0.99,3.11,3.48,2.01
35.2270,0.07,0.13,-0.99,3.17,3.60,1.89
35.2430,0.07,0.13,-0.99,2.93,3.48,2.14
35.2580,0.07,0.13,-0.99,2.99,3.66,2.01
35.2650,0.07,0.13,-0.99,3.30,3.72,2.08
35.2810,0.07,0.13,-0.99,3.17,3.97,2.26
35.2980,0.07,0.13,-0.99,2.93,3.78,2.01
35.3160,0.07,0.13,-0.99,3.05,3.72,1.89
35.3320,0.07,0.13,-0.99,2.87,3.48,1.95
35.3490,0.07,0.13,-0.99,2.93,3.72,2.08
35.3650,0.08,0.13,-0.99,2.99,3.85,2.08
35.3650,0.07,0.13,-0.99,3.05,3.85,2.14
35.3810,0.08,0.13,-0.99,2.99,3.54,2.01
35.4060,0.08,0.13,-0.99,2.93,3.54,2.08
35.4230,0.07,0.13,-0.99,2.99,3.72,2.01
35.4390,0.07,0.13,-0.99,2.99,3.72,2.01
35.4560,0.07,0.13,-0.99,2.99,3.54,1.95
35.4720,0.07,0.13,-0.99,3.17,3.60,2.08
35.4890,0.07,0.13,-0.99,3.05,3.85,2.08
35.5050,0.07,0.13,-0.99,3.05,3.54,2.14
35.5210,0.08,0.13,-0.99,3.11,3.66,2.14
35.5370,0.08,0.13,-0.99,2.99,3.66,2.08
35.5530,0.07,0.13,-0.99,3.17,3.42,1.95
35.5600,0.07,0.13,-0.99,3.05,3.85,2.20
35.5760,0.08,0.12,-0.99,3.17,3.54,2.08
35.5980,0.07,0.13,-0.99,3.23,3.72,2.14
35.6130,0.07,0.13,-0.99,3.17,3.48,2.08
35.6290,0.08,0.13,-0.99,3.17,3.30,2.08
35.6440,0.07,0.13,-0.99,3.11,3.78,2.26
35.6600,0.07,0.13,-0.99,3.17,3.48,2.08
35.6750,0.07,0.13,-0.99,3.17,3.54,2.01
35.6830,0.07,0.13,-0.99,3.23,3.42,2.01
35.6990,0.07,0.13,-0.99,3.11,3.30,2.01
35.7150,0.07,0.13,-0.99,2.93,3.60,2.01
35.7380,0.07,0.12,-0.99,3.23,3.60,2.01
35.7540,0.08,0.12,-0.99,3.11,3.48,1.95
35.7550,0.07,0.13,-0.99,3.36,3.30,1.89
35.7850,0.07,0.13,-0.99,3.05,3.54,2.01
35.8000,0.08,0.13,-0.99,3.05,3.66,1.89
35.8160,0.07,0.13,-0.99,3.05,3.30,2.01
35.8230,0.07,0.12,-0.99,3.05,3.48,2.01
35.8460,0.07,0.12,-0.99,2.99,3.66,2.01
35.8560,0.08,0.13,-0.99,2.93,3.66,2.08
35.8710,0.07,0.13,-0.99,3.11,3.48,1.89
35.8910,0.07,0.13,-0.99,3.17,3.36,1.95
35.9060,0.07,0.13,-1.00,2.93,3.72,1.95
35.9210,0.07,0.13,-0.99,2.93,3.42,1.83
35.9360,0.07,0.13,-0.99,2.99,3.78,1.83
35.9440,0.07,0.13,-0.99,3.17,3.72,2.08
35.9600,0.07,0.13,-0.99,2.99,3.78,2.01
35.9810,0.07,0.13,-0.99,3.05,3.48,2.01
35.9960,0.07,0.13,-0.99,2.99,3.54,2.14
36.0120,0.07,0.13,-1.00,3.05,3.72,2.01
36.0290,0.08,0.13,-0.99,3.05,3.54,1.89
36.0450,0.08,0.13,-0.99,3.05,3.72,2.08
36.0600,0.07,0.13,-0.99,2.99,3.72,2.01
36.0760,0.08,0.13,-0.99,3.05,3.78,1.95
36.0920,0.08,0.13,-0.99,2.87,3.72,2.08
36.1070,0.07,0.13,-0.99,3.17,3.72,2.01
36.1160,0.07,0.13,-0.99,3.17,3.42,2.01
36.1310,0.07,0.13,-0.99,3.05,3.54,2.08
36.1530,0.07,0.13,-0.99,3.30,3.42,1.95
36.1680,0.08,0.13,-0.99,2.93,3.66,2.14
36.1840,0.07,0.13,-0.99,3.05,3.91,2.14
36.2000,0.08,0.13,-0.99,3.17,3.72,2.08
36.2160,0.08,0.13,-0.99,2.99,3.66,2.08
36.2330,0.07,0.13,-0.99,2.99,3.72,2.08
36.2480,0.07,0.13,-0.99,3.05,3.78,2.08
36.2630,0.07,0.12,-0.99,3.05,3.60,2.08
36.2730,0.09,0.12,-0.98,3.05,3.72,2.01
36.2900,0.07,0.13,-0.99,3.30,3.30,1.95
36.3060,0.07,0.13,-0.99,3.05,3.72,2.14
36.3230,0.07,0.13,-0.99,3.11,3.66,2.20
36.3390,0.08,0.13,-0.99,2.99,3.42,2.14
36.3540,0.07,0.13,-0.99,2.99,3.72,2.08
36.3610,0.08,0.13,-0.99,3.17,3.42,2.08
36.3790,0.07,0.13,-0.99,3.23,3.72,2.26
36.4010,0.08,0.13,-0.99,3.11,3.72,2.08
36.4160,0.07,0.13,-0.99,3.11,3.60,2.01
36.4270,0.07,0.13,-1.00,3.11,3.72,2.20
36.4480,0.07,0.13,-0.99,3.05,3.42,2.08
36.4640,0.07,0.13,-0.99,3.17,3.54,2.14
36.4790,0.07,0.13,-0.99,3.30,4.15,2.01
36.4950,0.07,0.13,-0.99,3.17,3.23,1.95
36.5110,0.09,0.13,-1.00,2.81,2.50,2.01
36.5260,0.07,0.11,-0.99,2.26,3.11,2.08
36.5410,0.07,0.13,-0.99,4.46,3.78,2.08
36.5480,0.07,0.12,-0.99,5.25,3.17,2.20
36.5640,0.07,0.12,-0.99,4.33,3.91,-0.85
36.5860,0.07,0.13,-0.99,2.32,4.21,-3.23
36.5890,0.05,0.13,-0.99,3.23,4.21,-2.44
36.6160,0.04,0.11,-0.99,2.62,4.70,-3.17
36.6330,0.10,0.11,-0.99,4.03,5.13,-4.21
36.6380,0.10,0.14,-0.99,5.80,4.21,-2.20
36.6550,0.07,0.12,-0.99,5.31,4.21,-0.67
36.6780,0.07,0.10,-1.00,3.05,4.15,1.16
36.6890,0.08,0.11,-1.00,2.62,4.09,2.32
36.7050,0.07,0.13,-0.99,3.17,4.21,2.14
36.7220,0.06,0.14,-1.00,3.60,4.58,-0.18
36.7380,0.07,0.16,-0.99,2.20,4.27,0.85
36.7380,0.08,0.17,-0.98,1.53,3.78,1.65
36.7550,0.09,0.16,-0.99,2.08,4.03,2.20
36.7830,0.08,0.12,-0.99,0.55,4.21,1.95
36.7880,0.07,0.12,-0.99,1.40,4.21,1.83
36.8050,0.07,0.12,-0.99,3.97,3.91,2.20
36.8250,0.07,0.13,-0.99,5.00,3.36,2.26
36.8410,0.08,0.14,-1.00,5.74,3.36,2.26
36.8570,0.07,0.14,-1.00,4.27,3.78,2.20
36.8750,0.07,0.12,-0.99,1.77,4.03,1.95
36.8910,0.07,0.13,-1.00,2.20,4.21,1.89
36.9060,0.07,0.13,-0.99,1.71,4.15,1.89
36.9210,0.07,0.12,-0.99,2.44,3.42,1.89
36.9370,0.07,0.12,-0.99,3.78,3.30,2.01
36.9440,0.07,0.13,-0.99,5.13,3.05,2.14
36.9690,0.07,0.13,-1.00,4.52,3.42,2.20
36.9840,0.07,0.13,-0.99,2.99,3.97,2.08
36.9940,0.07,0.13,-0.99,3.23,3.91,1.95
37.0100,0.07,0.13,-0.99,3.48,3.97,2.01
37.0290,0.07,0.13,-0.99,3.54,3.23,1.95
37.0340,0.07,0.13,-0.99,3.97,3.48,1.83
37.0500,0.07,0.13,-0.99,3.17,3.36,1.95
37.0750,0.07,0.13,-0.99,2.50,3.66,1.95
37.0840,0.07,0.13,-0.99,3.11,3.36,2.01
37.1000,0.07,0.13,-0.99,4.03,3.54,1.95
37.1170,0.08,0.13,-1.00,4.94,3.91,2.26
37.1330,0.07,0.13,-0.99,3.60,3.97,1.95
37.1500,0.07,0.13,-0.99,2.56,3.66,1.77
37.1660,0.07,0.13,-0.99,2.62,3.42,1.77
37.1820,0.07,0.13,-0.99,2.56,3.97,1.95
37.1980,0.08,0.15,-1.01,3.48,3.54,1.83
37.2130,0.07,0.13,-1.00,2.99,3.97,2.08
37.2240,0.07,0.13,-0.99,3.23,3.85,0.79
37.2400,0.08,0.13,-0.99,4.21,3.30,1.83
37.2560,0.09,0.12,-1.00,4.09,3.30,0.79
37.2720,0.09,0.12,-1.00,3.05,3.66,-0.18
37.2800,0.08,0.12,-0.99,3.48,3.72,-2.32
37.3030,0.06,0.14,-0.99,3.54,4.21,-2.69
37.3180,0.06,0.14,-0.99,4.09,3.91,0.06
37.3290,0.07,0.14,-0.99,3.97,3.72,1.28
37.3470,0.07,0.13,-0.99,2.99,3.48,2.56
37.3620,0.07,0.14,-0.99,2.26,3.23,2.93
37.3780,0.07,0.13,-0.99,2.81,3.42,2.26
37.3870,0.07,0.13,-0.99,3.17,3.60,2.01
37.4030,0.07,0.13,-0.99,3.97,3.60,2.08
37.4200,0.08,0.13,-1.00,5.13,3.91,1.95
37.4370,0.09,0.11,-1.00,4.39,3.91,0.31
37.4530,0.06,0.13,-1.00,2.99,3.11,0.49
37.4680,0.07,0.14,-0.99,2.20,3.36,0.79
37.4840,0.07,0.15,-0.99,2.26,3.23,1.40
37.4910,0.07,0.13,-0.99,2.38,3.78,2.62
37.5130,0.08,0.12,-0.99,2.20,3.42,3.42
37.5250,0.08,0.14,-0.99,3.30,3.97,2.93
37.5410,0.08,0.13,-0.99,3.60,3.48,1.59
37.5570,0.07,0.12,-0.99,2.99,3.97,1.40
37.5740,0.07,0.13,-0.99,2.62,3.78,1.10
37.5760,0.07,0.12,-0.99,2.99,3.60,1.83
37.6050,0.07,0.10,-1.00,3.11,3.97,1.22
37.6200,0.07,0.11,-1.00,2.81,4.39,0.18
37.6350,0.07,0.11,-0.99,2.44,4.15,0.79
37.6420,0.06,0.14,-0.99,3.48,3.36,1.77
37.6590,0.08,0.15,-0.99,3.05,3.30,2.75
37.6750,0.08,0.14,-0.99,3.54,3.48,1.89
37.6910,0.07,0.13,-1.00,3.78,3.78,1.46
37.7080,0.07,0.12,-0.99,3.48,3.78,1.04
37.7250,0.08,0.13,-0.99,2.26,3.85,0.37
37.7410,0.07,0.14,-0.99,2.62,3.91,1.22
37.7570,0.07,0.13,-0.99,2.99,3.36,1.77
37.7730,0.07,0.13,-0.99,2.56,3.48,0.85
37.7880,0.07,0.13,-0.99,2.56,3.66,0.24
37.8040,0.08,0.14,-0.99,2.87,3.66,0.18
37.8200,0.08,0.13,-0.99,3.85,3.85,0.92
37.8360,0.08,0.13,-1.00,4.15,4.03,0.92
37.8450,0.07,0.13,-0.99,3.48,3.72,0.18
37.8680,0.07,0.12,-0.99,3.11,4.03,-0.12
37.8770,0.07,0.13,-0.99,2.87,3.78,-0.43
37.8940,0.07,0.13,-0.99,3.23,3.85,-0.37
37.9100,0.07,0.13,-0.99,3.17,3.78,0.31
37.9270,0.08,0.12,-1.00,3.05,4.03,0.67
37.9440,0.08,0.11,-0.99,2.99,4.03,-1.16
37.9580,0.07,0.12,-0.99,3.72,4.15,-2.32
37.9750,0.06,0.14,-0.99,4.52,4.21,-1.77
37.9910,0.06,0.14,-0.99,3.78,3.78,-0.49
38.0060,0.07,0.14,-0.99,3.30,3.72,-0.18
38.0210,0.08,0.14,-0.99,2.99,3.85,0.43
38.0270,0.08,0.13,-0.99,3.11,4.21,0.00
38.0530,0.08,0.11,-0.99,3.30,4.70,-0.61
38.0700,0.08,0.12,-0.99,3.54,4.46,-2.01
38.0860,0.07,0.14,-0.99,4.39,3.66,-2.20
38.1010,0.07,0.14,-0.99,4.21,3.60,-1.10
38.1160,0.07,0.14,-0.99,3.54,4.15,-0.61
38.1270,0.07,0.14,-0.99,2.81,4.09,-0.31
38.1430,0.07,0.14,-0.99,2.87,3.60,1.28
38.1610,0.07,0.12,-0.99,2.62,3.54,1.83
38.1770,0.07,0.12,-0.99,2.75,3.66,1.59
38.1930,0.07,0.12,-1.00,3.05,3.72,0.98
38.2090,0.07,0.12,-1.00,3.23,4.03,-0.06
38.2240,0.06,0.13,-0.99,3.85,3.60,-0.18
38.2390,0.07,0.14,-0.99,2.20,3.60,1.22
38.2550,0.09,0.14,-0.99,2.26,3.78,1.34
38.2710,0.08,0.14,-0.99,2.99,3.78,0.61
38.2860,0.07,0.13,-0.99,2.44,4.03,0.85
38.2930,0.07,0.13,-1.00,2.56,3.97,1.28
38.3100,0.07,0.12,-0.99,3.42,3.54,1.59
38.3270,0.07,0.12,-0.99,4.33,3.48,0.43
38.3440,0.07,0.12,-1.00,3.42,3.85,-1.53
38.3600,0.07,0.14,-0.99,2.50,4.27,-1.77
38.3770,0.08,0.15,-0.99,3.17,4.03,-0.12
38.3840,0.07,0.14,-0.99,3.66,3.91,0.92
38.4000,0.07,0.13,-0.99,3.91,4.09,1.77
38.4240,0.07,0.12,-0.99,3.85,3.91,2.08
38.4340,0.07,0.11,-0.99,2.75,3.78,1.04
38.4500,0.07,0.12,-0.99,2.56,4.03,0.12
38.4690,0.08,0.13,-0.99,3.11,3.78,-0.43
38.4860,0.08,0.14,-0.99,4.33,3.91,-0.43
38.5010,0.07,0.14,-0.99,3.78,3.97,0.24
38.5160,0.08,0.14,-0.99,2.81,3.72,1.10
38.5310,0.07,0.13,-0.99,2.69,3.60,1.83
38.5390,0.07,0.12,-0.99,2.50,3.91,0.98
38.5540,0.06,0.11,-0.99,2.20,3.54,0.24
38.5760,0.07,0.12,-0.99,2.62,3.78,-0.49
38.5910,0.08,0.12,-0.99,4.21,3.91,-1.16
38.6060,0.07,0.13,-0.99,4.52,3.66,-1.65
38.6210,0.07,0.13,-0.99,4.09,3.97,-1.46
38.6360,0.08,0.14,-0.99,3.17,4.09,-0.67
38.6470,0.08,0.14,-0.99,2.81,4.03,1.16
38.6630,0.07,0.14,-0.99,2.50,3.60,1.53
38.6800,0.07,0.13,-0.99,2.44,3.97,1.59
38.6960,0.07,0.13,-0.99,2.99,3.54,1.59
38.7120,0.07,0.12,-0.99,3.17,3.91,1.22
38.7280,0.08,0.14,-0.99,3.48,4.03,0.18
38.7430,0.07,0.14,-0.99,3.91,3.72,0.06
38.7580,0.07,0.13,-0.99,3.72,3.72,1.53
38.7740,0.07,0.12,-0.99,3.30,3.85,1.65
38.7790,0.07,0.12,-1.00,2.81,3.54,1.46
38.7950,0.07,0.12,-1.00,2.01,3.48,1.16
38.8180,0.07,0.12,-0.99,2.50,3.60,0.98
38.8340,0.08,0.12,-1.00,3.48,4.03,1.10
38.8350,0.07,0.11,-1.00,3.36,4.21,0.06
38.8510,0.07,0.12,-0.99,3.36,4.46,-0.31
38.8680,0.06,0.14,-0.99,3.05,4.15,0.37
38.8850,0.08,0.14,-0.99,2.08,3.54,1.89
38.9020,0.09,0.14,-0.99,2.50,3.42,2.26
38.9260,0.08,0.13,-0.99,2.99,3.42,2.01
38.9410,0.08,0.13,-0.99,4.21,3.60,1.77
38.9510,0.07,0.13,-0.99,4.15,3.60,1.71
38.9670,0.07,0.12,-0.99,3.30,3.48,1.10
38.9850,0.08,0.13,-0.99,3.11,4.46,1.04
39.0020,0.07,0.13,-0.99,3.54,3.66,1.46
39.0170,0.07,0.13,-0.99,2.87,3.30,1.34
39.0350,0.07,0.13,-0.99,2.81,3.42,1.46
39.0360,0.07,0.12,-0.99,3.36,3.23,1.65
39.0520,0.07,0.12,-1.00,3.30,3.36,1.77
39.0750,0.08,0.12,-1.00,3.42,4.15,1.40
39.0920,0.08,0.13,-0.99,3.72,4.21,0.00
39.1090,0.07,0.14,-0.99,3.85,4.09,0.37
39.1260,0.07,0.13,-0.99,4.46,3.23,0.92
39.1420,0.07,0.12,-1.00,3.60,3.30,0.67
39.1580,0.07,0.13,-0.99,3.30,3.72,0.37
39.1740,0.07,0.13,-0.99,3.91,3.60,0.55
39.1900,0.07,0.13,-0.99,3.78,3.60,1.16
39.2040,0.07,0.13,-0.99,3.78,3.85,0.92
39.2190,0.07,0.13,-0.99,2.81,3.97,0.12
39.2350,0.07,0.12,-0.99,2.75,3.91,0.24
39.2420,0.07,0.13,-0.99,2.99,4.03,0.31
39.2660,0.07,0.13,-0.99,3.23,3.72,0.00
39.2820,0.07,0.14,-0.99,3.60,3.78,0.67
39.2920,0.07,0.13,-0.99,3.72,3.85,0.92
39.3080,0.07,0.13,-0.99,3.36,4.03,0.92
39.3260,0.08,0.14,-0.99,3.97,3.97,0.98
39.3410,0.08,0.14,-0.99,3.85,3.60,1.65
39.3570,0.07,0.13,-0.99,2.01,4.03,1.83
39.3660,0.07,0.13,-0.99,2.01,4.15,2.01
39.3820,0.07,0.13,-0.99,3.54,4.09,2.14
39.3990,0.07,0.13,-1.00,4.09,3.60,2.08
39.4160,0.08,0.12,-0.99,3.17,4.03,1.04
39.4320,0.07,0.13,-0.99,2.93,3.66,0.31
39.4470,0.07,0.12,-0.99,3.54,3.36,0.12
39.4520,0.07,0.13,-0.99,3.48,3.36,-0.18
39.4790,0.08,0.12,-1.00,3.48,3.36,-0.49
39.4950,0.07,0.13,-0.99,4.15,3.36,-0.49
39.5030,0.07,0.13,-0.99,4.09,3.54,-0.43
39.5250,0.07,0.14,-0.99,3.05,4.09,0.61
39.5350,0.07,0.13,-0.99,3.11,3.85,1.59
39.5530,0.07,0.13,-0.99,2.87,3.54,1.89
39.5680,0.07,0.13,-0.99,3.36,3.36,1.77
39.5840,0.08,0.13,-1.00,3.11,3.48,1.83
39.6000,0.08,0.13,-0.99,2.38,3.72,1.65
39.6160,0.07,0.13,-0.99,2.75,3.72,1.40
39.6310,0.06,0.13,-0.99,3.42,3.97,1.53
39.6410,0.07,0.13,-0.99,3.91,3.72,1.77
39.6580,0.07,0.13,-1.00,3.54,3.72,1.34
39.6740,0.07,0.13,-0.99,3.23,3.48,1.59
39.6910,0.07,0.12,-1.00,3.97,3.85,1.53
39.7060,0.07,0.12,-1.00,3.78,3.66,1.59
39.7210,0.07,0.13,-0.99,2.93,3.66,2.26
39.7290,0.07,0.13,-0.99,2.93,3.72,1.77
39.7460,0.07,0.14,-0.99,2.44,3.60,0.98
39.7630,0.07,0.13,-0.99,3.42,3.66,0.98
39.7800,0.07,0.12,-1.00,4.33,3.66,0.79
39.7960,0.07,0.11,-0.99,3.66,4.21,0.00
39.8120,0.07,0.13,-0.99,3.36,3.72,-0.92
39.8200,0.07,0.14,-0.99,3.42,3.97,-0.24
39.8350,0.08,0.14,-0.99,2.62,3.97,0.31
39.8530,0.08,0.14,-0.99,3.05,3.78,1.16
39.8690,0.07,0.14,-0.99,3.36,3.72,2.08
39.8880,0.07,0.13,-0.99,3.23,3.72,2.08
39.9030,0.08,0.13,-0.99,4.15,3.54,2.01
39.9190,0.07,0.12,-1.00,3.42,4.03,1.65
39.9350,0.08,0.11,-1.00,3.17,4.09,0.49
39.9420,0.08,0.12,-0.99,4.09,3.85,-0.85
39.9570,0.07,0.13,-0.99,4.15,4.03,-0.85
39.9800,0.07,0.14,-0.99,3.42,3.72,-0.61
39.9960,0.07,0.14,-0.99,2.81,3.54,-0.31
40.0110,0.07,0.14,-0.99,3.91,3.78,0.31
40.0260,0.07,0.13,-0.99,3.91,3.60,0.61
40.0410,0.07,0.13,-0.99,2.87,3.85,0.67
40.0470,0.07,0.13,-0.99,2.69,3.85,0.61
40.0710,0.07,0.13,-0.99,3.23,3.72,0.61
40.0800,0.08,0.14,-0.99,3.30,3.91,0.49
40.0970,0.08,0.14,-0.99,3.66,3.48,0.67
40.1120,0.07,0.13,-0.99,3.72,3.48,0.67
40.1310,0.07,0.12,-1.00,3.78,3.72,-0.79
40.1460,0.06,0.13,-1.00,4.39,3.72,-1.22
40.1520,0.07,0.13,-0.99,3.48,4.03,-1.10
40.1760,0.08,0.14,-0.99,2.81,4.03,-1.28
40.1860,0.08,0.14,-0.99,3.54,3.97,-0.79
40.2030,0.07,0.14,-0.99,3.91,3.97,0.24
40.2200,0.07,0.14,-0.99,3.36,3.78,0.49
40.2360,0.07,0.13,-0.99,3.66,3.85,1.16
40.2520,0.07,0.12,-0.99,3.17,3.97,0.67
40.2670,0.07,0.13,-0.99,2.26,4.27,0.24
40.2840,0.08,0.14,-0.99,3.05,4.09,-0.31
40.3010,0.07,0.15,-0.99,2.99,3.91,0.18
40.3170,0.07,0.14,-0.99,2.69,3.85,1.28
40.3220,0.07,0.13,-0.99,1.40,3.42,1.83
40.3490,0.07,0.13,-0.99,1.77,3.48,1.89
40.3650,0.08,0.13,-0.99,3.97,3.23,1.95
40.3800,0.07,0.13,-0.99,4.58,3.60,2.20
40.3960,0.07,0.13,-0.99,3.91,3.97,2.14
40.4110,0.07,0.13,-0.99,2.50,3.72,1.95
40.4220,0.08,0.13,-0.99,2.93,3.78,1.77
40.4390,0.08,0.12,-1.00,2.99,3.85,0.61
40.4560,0.08,0.12,-0.99,2.50,3.97,-0.49
40.4710,0.07,0.12,-0.99,2.99,4.09,-0.55
40.4870,0.07,0.13,-0.99,4.15,4.21,-0.18
40.4930,0.07,0.14,-0.99,3.85,3.54,0.37
40.5190,0.07,0.15,-0.99,3.42,3.66,0.79
40.5350,0.08,0.14,-0.99,2.01,4.09,1.22
40.5500,0.07,0.13,-0.99,0.92,4.21,1.71
40.5640,0.07,0.13,-0.99,1.95,3.72,1.83
40.5750,0.07,0.13,-0.99,3.17,3.60,1.89
40.5920,0.07,0.12,-0.99,3.48,3.85,0.49
40.6090,0.07,0.13,-0.99,3.85,4.21,-0.92
40.6250,0.07,0.13,-0.99,3.66,3.78,0.85
40.6420,0.07,0.13,-0.99,2.81,3.91,1.53
40.6420,0.07,0.12,-0.99,2.81,3.66,1.04
40.6720,0.07,0.11,-0.99,3.30,3.72,0.00
40.6880,0.07,0.12,-1.00,4.03,4.94,-3.48
40.7030,0.07,0.13,-0.99,3.78,4.33,-2.62
40.7180,0.08,0.12,-0.99,2.99,4.21,-2.44
40.7270,0.07,0.12,-0.99,3.85,4.82,-2.99
40.7500,0.07,0.12,-0.99,3.78,4.58,-3.23
40.7600,0.07,0.13,-1.00,4.03,4.03,-2.99
40.7760,0.07,0.14,-0.99,2.99,4.21,-3.23
40.7930,0.08,0.15,-0.99,3.78,4.39,-2.50
40.8090,0.08,0.15,-0.99,3.60,4.21,0.00
40.8260,0.08,0.15,-0.99,2.38,3.78,1.77
40.8420,0.08,0.13,-0.99,1.89,3.60,2.01
40.8570,0.08,0.13,-0.99,2.81,3.78,2.01
40.8590,0.07,0.12,-0.99,3.72,3.97,1.83
40.8890,0.07,0.11,-1.00,4.09,4.09,0.61
40.9040,0.07,0.11,-0.99,4.03,4.03,-0.98
40.9190,0.07,0.13,-0.99,2.99,4.58,-1.59
40.9340,0.07,0.14,-0.99,1.95,4.52,-1.40
40.9490,0.07,0.15,-0.99,2.99,3.97,0.06
40.9610,0.07,0.14,-0.99,2.20,3.48,0.73
40.9760,0.09,0.14,-0.99,2.32,3.42,1.59
40.9920,0.07,0.13,-0.99,2.62,3.54,2.08
41.0110,0.07,0.13,-0.99,2.44,3.42,1.95
41.0270,0.08,0.13,-0.99,2.62,3.78,1.95
41.0420,0.07,0.13,-0.99,2.81,3.60,1.77
41.0570,0.07,0.13,-0.99,3.23,3.48,1.71
41.0720,0.08,0.13,-0.99,3.11,3.66,2.14
41.0800,0.07,0.13,-0.99,2.44,4.15,2.14
41.0950,0.07,0.13,-0.99,2.81,3.66,2.01
41.1170,0.07,0.13,-0.99,3.30,3.36,2.08
41.1330,0.07,0.13,-0.99,3.54,3.36,2.08
41.1340,0.07,0.13,-0.99,2.38,3.78,2.08
41.1500,0.07,0.13,-0.99,2.08,2.99,1.83
41.1800,0.05,0.12,-1.00,1.83,4.03,1.53
41.1950,0.09,0.12,-0.98,2.44,4.15,1.28
41.2110,0.07,0.12,-0.99,3.60,3.54,1.65
41.2270,0.07,0.12,-1.00,4.39,3.85,1.71
41.2420,0.07,0.12,-1.00,4.46,4.27,0.92
41.2510,0.09,0.14,-0.99,3.54,3.60,0.43
41.2680,0.08,0.14,-0.99,3.54,3.54,1.22
41.2860,0.08,0.15,-0.99,3.17,3.72,1.40
41.3010,0.07,0.13,-0.99,1.95,3.72,1.95
41.3180,0.07,0.12,-0.99,2.26,3.72,1.95
41.3340,0.08,0.12,-0.99,3.78,3.78,2.14
41.3480,0.07,0.14,-0.99,5.49,3.91,2.32
41.3520,0.07,0.14,-0.99,4.94,4.03,2.14
41.3810,0.07,0.13,-0.99,0.67,3.72,1.71
41.3980,0.07,0.12,-0.99,0.67,3.60,1.65
41.4010,0.07,0.12,-0.99,2.99,3.54,1.95
41.4290,0.08,0.13,-0.99,3.72,3.54,2.20
41.4450,0.08,0.13,-0.99,2.87,4.09,1.89
41.4610,0.07,0.13,-0.99,2.56,3.97,1.95
41.4680,0.07,0.12,-0.99,3.91,3.91,2.26
41.4850,0.07,0.13,-0.99,5.49,3.91,2.20
41.5010,0.07,0.13,-0.99,4.46,3.97,2.38
41.5240,0.07,0.13,-0.99,2.50,3.60,1.95
41.5390,0.07,0.13,-0.99,1.89,3.72,1.95
41.5410,0.07,0.12,-0.99,2.08,3.48,1.95
41.5580,0.07,0.13,-0.99,3.23,2.81,1.89
41.5800,0.07,0.13,-1.00,2.62,3.36,1.89
41.5970,0.07,0.13,-0.99,2.50,3.36,1.89
41.6140,0.07,0.13,-0.99,2.56,3.42,1.89
41.6300,0.07,0.13,-0.99,3.42,2.99,1.83
41.6460,0.07,0.13,-0.99,2.81,3.42,2.01
41.6610,0.07,0.13,-0.99,2.81,3.60,2.01
41.6690,0.07,0.13,-0.99,3.23,3.48,2.01
41.6870,0.07,0.13,-0.99,3.11,3.36,1.77
41.7020,0.08,0.13,-0.99,3.11,3.42,2.01
41.7210,0.07,0.13,-0.99,3.30,3.60,2.08
41.7390,0.07,0.13,-0.99,4.52,3.78,2.08
41.7530,0.07,0.13,-0.99,4.64,3.78,1.95
41.7590,0.07,0.14,-0.99,3.11,3.78,1.89
41.7750,0.07,0.13,-0.99,1.40,3.97,1.59
41.7950,0.07,0.13,-0.99,2.20,3.66,0.92
41.8140,0.08,0.13,-0.99,3.42,3.48,0.79
41.8290,0.08,0.13,-0.99,3.11,3.60,1.04
41.8450,0.07,0.13,-0.99,3.66,3.78,1.28
41.8620,0.07,0.13,-0.99,3.30,3.48,0.49
41.8780,0.07,0.13,-0.99,3.42,3.85,0.73
41.8940,0.07,0.13,-0.99,3.66,3.48,0.92
41.9080,0.08,0.13,-0.99,3.66,3.48,1.04
41.9240,0.07,0.13,-0.99,3.11,3.91,1.28
41.9390,0.07,0.13,-0.99,3.54,3.85,1.71
41.9530,0.07,0.13,-0.99,3.30,3.91,1.46
41.9630,0.07,0.13,-0.99,3.23,3.66,1.10
41.9790,0.08,0.13,-0.99,3.30,3.78,1.10
41.9990,0.07,0.13,-0.99,3.30,3.78,2.01
42.0010,0.07,0.12,-0.99,2.50,4.15,2.14
42.0290,0.07,0.13,-0.99,3.66,3.54,2.01
42.0440,0.07,0.13,-0.99,3.42,3.36,2.01
42.0590,0.07,0.12,-0.99,2.56,3.54,1.65
42.0740,0.08,0.13,-0.99,2.50,3.78,1.89
42.0890,0.08,0.13,-0.99,3.30,4.15,1.71
42.1000,0.08,0.16,-0.99,3.17,3.78,0.92
42.1180,0.08,0.13,-0.99,3.48,3.60,0.85
42.1350,0.08,0.14,-0.99,4.09,3.78,1.10
42.1510,0.08,0.14,-0.99,3.72,3.85,1.28
42.1690,0.07,0.13,-0.99,2.93,3.85,1.95
42.1850,0.07,0.13,-0.99,2.81,3.30,1.83
42.1880,0.07,0.13,-0.99,2.81,3.23,1.77
42.2150,0.07,0.12,-0.99,2.38,3.72,1.65
42.2220,0.08,0.12,-1.00,2.93,4.33,1.65
42.2370,0.08,0.13,-0.99,2.69,4.52,1.40
42.2530,0.09,0.11,-1.00,3.54,4.27,1.22
42.2690,0.06,0.13,-0.99,3.36,3.85,0.55
42.2900,0.06,0.14,-0.99,4.03,3.72,0.24
42.3050,0.05,0.12,-0.99,3.85,3.23,0.61
42.3200,0.07,0.14,-0.99,1.10,3.36,0.55
42.3350,0.07,0.12,-0.99,2.50,3.72,1.46
42.3510,0.09,0.13,-0.99,4.03,3.97,1.34
42.3670,0.08,0.13,-0.99,3.97,4.33,0.85
42.3810,0.08,0.13,-0.99,3.72,4.21,0.73
42.3960,0.07,0.13,-0.99,2.99,4.03,1.10
42.4070,0.07,0.13,-0.99,3.11,3.48,0.73
42.4230,0.07,0.13,-0.99,2.81,3.42,0.24
42.4430,0.07,0.13,-0.99,2.69,3.54,0.92
42.4580,0.07,0.13,-0.99,2.08,3.91,1.53
42.4600,0.07,0.13,-0.99,2.14,3.91,1.89
42.4760,0.08,0.13,-0.99,3.23,3.42,2.01
42.5040,0.07,0.13,-0.99,3.66,3.66,1.22
42.5160,0.07,0.13,-0.99,3.54,4.09,1.16
42.5310,0.07,0.13,-0.99,3.91,3.42,0.85
42.5470,0.07,0.13,-0.99,3.54,3.36,1.28
42.5640,0.07,0.13,-0.99,3.36,3.66,1.04
42.5800,0.08,0.12,-0.99,2.87,4.15,0.67
42.5970,0.07,0.13,-0.99,3.48,4.15,0.37
42.5980,0.07,0.12,-1.00,4.09,3.97,0.67
42.6230,0.07,0.13,-0.99,2.81,4.03,-0.18
42.6350,0.07,0.13,-0.99,3.05,3.85,-0.49
42.6530,0.07,0.13,-0.99,3.48,4.03,-0.37
42.6680,0.08,0.13,-0.99,3.66,3.91,-0.49
42.6840,0.07,0.12,-0.99,3.30,4.58,-0.73
42.7040,0.07,0.14,-0.99,2.81,4.15,-1.04
42.7190,0.07,0.13,-0.99,2.81,3.85,-0.43
42.7350,0.07,0.13,-0.99,3.36,3.72,0.92
42.7500,0.07,0.13,-0.99,3.85,3.72,0.43
42.7650,0.08,0.14,-0.99,3.11,4.33,0.37
42.7790,0.07,0.13,-0.99,3.05,3.97,0.49
42.7940,0.07,0.11,-0.99,3.17,4.03,0.92
42.8050,0.07,0.11,-1.00,3.54,4.09,0.85
42.8230,0.07,0.11,-0.99,3.91,3.97,-0.67
42.8400,0.07,0.13,-0.99,3.54,4.03,-1.34
42.8550,0.07,0.14,-0.99,3.60,3.91,-1.28
42.8720,0.07,0.15,-0.99,2.26,4.21,-0.85
42.8880,0.07,0.14,-0.99,3.36,3.66,0.85
42.9020,0.07,0.13,-0.99,3.91,3.60,1.59
42.9180,0.07,0.13,-0.99,3.05,3.72,2.26
42.9240,0.07,0.12,-0.99,2.69,3.91,2.56
42.9480,0.07,0.13,-0.99,2.87,3.72,2.38
42.9630,0.07,0.12,-0.99,3.60,3.48,0.85
42.9740,0.07,0.12,-0.99,3.85,3.42,0.00
42.9900,0.07,0.13,-0.99,3.72,4.09,-0.31
43.0070,0.07,0.13,-0.99,3.48,3.85,-0.31
43.0230,0.07,0.13,-0.99,4.21,3.72,0.55
43.0380,0.07,0.13,-0.99,3.48,3.72,0.12
43.0480,0.07,0.14,-0.99,3.11,3.30,0.49
43.0690,0.08,0.14,-0.99,3.42,3.48,1.04
43.0810,0.08,0.13,-0.99,3.72,3.78,1.71
43.0980,0.07,0.12,-0.99,3.85,3.85,1.89
43.1130,0.07,0.10,-1.00,4.27,3.85,0.55
43.1310,0.07,0.11,-0.99,3.78,4.03,-2.38
43.1460,0.07,0.13,-0.99,3.91,4.15,-2.69
43.1550,0.07,0.14,-0.99,4.21,4.09,-2.01
43.1720,0.07,0.14,-0.99,3.17,4.39,-0.92
43.1870,0.08,0.14,-0.99,3.05,3.97,-0.12
43.2050,0.07,0.13,-0.99,3.48,3.91,0.24
43.2210,0.07,0.12,-1.00,3.54,4.21,-0.73
43.2370,0.08,0.14,-0.99,3.60,4.33,-0.61
43.2440,0.07,0.13,-0.99,4.27,3.97,-0.31
43.2610,0.07,0.12,-0.99,3.48,3.91,-0.55
43.2840,0.08,0.14,-0.99,3.17,3.85,-0.98
43.2950,0.08,0.15,-0.98,3.42,3.23,0.18
43.3110,0.08,0.15,-0.99,4.46,3.78,0.85
43.3280,0.08,0.13,-0.99,3.42,3.78,1.95
43.3440,0.07,0.13,-0.99,3.48,3.30,2.08
43.3460,0.07,0.12,-0.99,3.36,3.97,1.95
43.3750,0.08,0.12,-0.99,2.99,3.54,1.53
43.3810,0.07,0.13,-0.99,3.42,3.54,0.92
43.4050,0.07,0.14,-0.99,3.54,3.78,0.61
43.4200,0.08,0.15,-0.99,3.42,3.78,1.16
43.4310,0.07,0.14,-0.99,2.99,3.91,1.28
43.4480,0.07,0.13,-0.99,3.36,3.48,1.59
43.4630,0.07,0.09,-0.99,2.81,3.72,1.53
43.4830,0.07,0.12,-1.00,2.62,3.60,0.67
43.4990,0.07,0.12,-0.99,3.17,3.72,0.06
43.5130,0.07,0.13,-0.99,3.36,3.78,-0.18
43.5300,0.07,0.14,-0.99,3.05,3.66,0.18
43.5360,0.07,0.14,-0.99,2.32,3.72,-0.06
43.5600,0.08,0.14,-0.99,3.30,3.85,1.28
43.5750,0.08,0.13,-0.99,3.78,4.09,1.71
43.5850,0.07,0.12,-0.99,3.48,3.91,1.59
43.6020,0.07,0.12,-0.99,3.11,4.21,0.73
43.6190,0.07,0.12,-0.99,3.05,4.03,-1.10
43.6350,0.07,0.14,-0.99,2.87,4.03,-2.20
43.6530,0.07,0.14,-0.99,3.60,4.03,-0.98
43.6680,0.08,0.13,-1.00,3.60,4.03,-1.28
43.6700,0.07,0.13,-0.99,2.93,3.91,-1.65
43.6990,0.07,0.14,-0.99,3.54,3.78,-0.31
43.7020,0.08,0.15,-0.98,2.38,3.78,0.79
43.7290,0.07,0.14,-0.99,3.97,3.42,1.95
43.7350,0.07,0.13,-0.99,2.81,3.85,2.56
43.7510,0.08,0.13,-0.99,1.95,3.60,2.44
43.7740,0.07,0.13,-0.99,2.50,3.72,1.89
43.7900,0.08,0.13,-0.99,2.81,3.97,0.79
43.7920,0.08,0.13,-0.99,2.14,4.46,-0.61
43.8080,0.08,0.11,-0.99,2.62,4.27,-0.12
43.8360,0.07,0.10,-0.99,3.11,4.15,0.06
43.8480,0.06,0.12,-0.99,2.99,3.97,-1.46
43.8650,0.07,0.14,-0.99,3.72,4.09,-1.65
43.8810,0.07,0.16,-0.99,2.93,3.97,-1.28
43.8960,0.07,0.15,-0.99,2.69,4.21,0.55
43.9120,0.07,0.13,-0.99,2.87,4.15,1.65
43.9280,0.07,0.12,-0.99,2.56,4.15,1.53
43.9440,0.07,0.11,-1.00,3.11,3.97,1.16
43.9600,0.07,0.10,-1.00,3.54,3.72,-0.31
43.9760,0.07,0.13,-0.99,2.93,4.33,-2.20
43.9910,0.07,0.15,-0.99,3.72,3.85,-1.28
44.0050,0.08,0.16,-0.99,2.87,4.21,0.00
44.0140,0.08,0.15,-0.99,2.56,3.54,0.98
44.0310,0.07,0.13,-0.99,2.14,3.30,1.83
44.0490,0.06,0.11,-1.00,2.20,4.09,2.08
44.0650,0.07,0.11,-0.99,2.38,4.70,1.59
44.0800,0.07,0.11,-1.00,3.66,4.03,0.61
44.0970,0.07,0.12,-0.99,3.54,4.21,-2.01
44.1120,0.08,0.15,-0.99,3.36,4.33,-1.77
44.1240,0.08,0.15,-0.99,3.97,3.30,-0.98
44.1400,0.08,0.16,-0.99,4.03,3.66,0.00
44.1570,0.08,0.13,-0.99,3.05,4.09,1.77
44.1730,0.07,0.13,-0.99,2.56,3.54,2.01
44.1890,0.07,0.13,-0.99,3.36,3.30,2.08
44.2040,0.07,0.13,-0.99,3.42,3.36,1.34
44.2200,0.08,0.12,-0.99,3.36,3.60,0.49
44.2350,0.07,0.13,-0.99,3.54,4.21,-0.24
44.2400,0.07,0.13,-0.99,3.97,3.48,0.85
44.2680,0.07,0.13,-0.99,3.60,3.30,1.65
44.2840,0.08,0.13,-0.99,3.54,3.42,1.34
44.2990,0.08,0.13,-0.99,3.54,3.54,1.28
44.3070,0.07,0.12,-0.99,3.60,3.85,1.04
44.3300,0.08,0.11,-0.99,3.85,3.91,-0.18
44.3460,0.07,0.12,-0.99,3.36,3.97,-1.59
44.3570,0.07,0.13,-0.99,3.85,3.66,-1.53
44.3730,0.07,0.13,-0.99,3.72,4.21,-1.71
44.3890,0.08,0.13,-0.99,3.17,3.91,-1.65
44.4050,0.08,0.13,-0.99,3.66,3.97,-1.65
44.4210,0.07,0.15,-0.99,3.36,4.21,-0.61
44.4370,0.07,0.14,-0.99,4.15,3.72,1.53
44.4530,0.08,0.13,-0.99,2.38,4.27,2.01
44.4690,0.07,0.13,-0.99,2.56,4.09,1.77
44.4730,0.08,0.11,-1.00,2.93,4.15,1.16
44.5010,0.07,0.12,-0.99,3.60,3.66,0.61
44.5080,0.07,0.13,-0.99,3.72,3.85,-0.79
44.5310,0.07,0.14,-0.99,3.60,4.33,-0.61
44.5470,0.07,0.12,-0.99,2.99,4.15,-0.37
44.5570,0.07,0.12,-1.00,2.50,4.70,-1.40
44.5730,0.07,0.11,-0.99,2.75,4.46,-1.83
44.5900,0.07,0.10,-0.99,3.97,4.70,-2.99
44.6070,0.07,0.15,-0.97,2.20,4.76,-3.66
44.6080,0.08,0.16,-0.99,4.88,3.78,-2.38
44.6380,0.08,0.15,-0.99,2.26,3.97,-1.10
44.6530,0.08,0.16,-0.99,2.20,3.72,-0.43
44.6680,0.07,0.13,-0.99,3.05,3.66,1.89
44.6850,0.07,0.13,-0.99,2.81,3.72,2.01
44.6990,0.07,0.13,-0.99,2.56,3.60,1.95
44.7100,0.08,0.12,-0.99,2.81,3.72,1.95
44.7260,0.07,0.12,-0.99,3.17,3.42,0.67
44.7430,0.08,0.12,-0.99,3.11,3.72,0.24
44.7610,0.07,0.14,-0.99,3.66,4.03,0.31
44.7760,0.07,0.13,-0.99,4.39,3.11,1.46
44.7910,0.07,0.12,-0.99,2.62,3.54,0.55
44.8070,0.07,0.12,-0.99,2.87,3.78,-0.24
44.8230,0.07,0.12,-0.99,3.78,3.78,-1.04
44.8390,0.07,0.14,-0.99,3.36,3.91,-0.73
44.8550,0.07,0.15,-0.99,3.36,3.91,-0.37
44.8700,0.07,0.14,-0.99,2.93,3.85,1.04
44.8850,0.07,0.12,-0.99,2.69,3.91,1.83
44.9000,0.07,0.10,-1.00,3.54,3.48,0.85
44.9150,0.06,0.11,-0.99,3.48,4.70,-2.62
44.9270,0.06,0.13,-0.99,3.17,4.58,-2.93
44.9440,0.07,0.14,-0.99,4.27,4.03,-2.08
44.9600,0.07,0.14,-0.99,4.15,3.91,-1.71
44.9760,0.09,0.15,-0.99,2.62,3.54,-1.40
44.9930,0.08,0.14,-0.99,2.93,4.09,1.40
45.0090,0.07,0.13,-0.99,2.81,3.91,2.08
45.0110,0.07,0.11,-0.99,2.99,3.91,1.28
45.0390,0.07,0.12,-1.00,3.30,3.60,0.98
45.0560,0.07,0.12,-0.99,3.54,4.03,-0.18
45.0700,0.07,0.13,-0.99,3.23,3.91,0.06
45.0850,0.08,0.13,-0.99,2.75,4.09,-0.31
45.1000,0.07,0.13,-0.99,3.30,3.72,-0.37
45.1100,0.07,0.13,-0.99,3.42,3.78,-0.12
45.1280,0.07,0.13,-0.99,3.42,3.91,0.24
45.1440,0.08,0.14,-0.99,3.54,3.60,0.67
45.1600,0.07,0.12,-0.99,2.93,3.78,0.67
45.1770,0.07,0.11,-0.99,3.54,4.27,-0.79
45.1920,0.07,0.12,-0.99,4.33,4.27,-2.50
45.2080,0.07,0.13,-0.99,4.58,4.15,-1.95
45.2230,0.07,0.14,-0.99,4.39,3.97,-1.46
45.2380,0.08,0.15,-0.99,3.05,3.85,-0.37
45.2520,0.08,0.14,-0.99,2.26,4.03,0.67
45.2680,0.07,0.12,-1.00,2.56,3.72,1.34
45.2770,0.07,0.11,-0.99,2.99,3.97,-0.12
45.2930,0.07,0.12,-0.99,3.11,3.97,-0.85
45.3160,0.07,0.13,-0.99,3.60,3.97,-0.85
45.3270,0.08,0.12,-1.00,4.09,3.97,-0.73
45.3430,0.08,0.12,-0.99,3.78,4.39,-2.01
45.3600,0.07,0.12,-0.99,3.85,4.58,-2.08
45.3780,0.07,0.13,-0.98,2.75,4.15,-2.20
45.3930,0.06,0.14,-0.99,3.42,3.54,-1.77
45.4090,0.08,0.16,-0.99,3.72,3.54,-0.06
45.4240,0.08,0.14,-0.99,2.56,3.72,1.34
45.4280,0.07,0.13,-0.99,2.50,3.85,1.89
45.4430,0.07,0.12,-0.99,3.54,3.91,1.34
45.4630,0.07,0.12,-1.00,3.72,4.09,-0.06
45.4790,0.07,0.13,-0.99,4.21,3.91,-0.49
45.4960,0.08,0.15,-0.99,5.37,3.97,1.34
45.5130,0.07,0.14,-0.99,2.32,3.54,1.83
45.5290,0.07,0.12,-0.99,1.46,3.23,1.89
45.5460,0.07,0.12,-0.99,4.88,3.30,1.95
45.5640,0.07,0.11,-0.99,5.19,3.97,-0.73
45.5740,0.07,0.12,-0.99,5.19,4.58,-3.05
45.5920,0.07,0.14,-0.99,5.13,4.52,-2.32
45.6080,0.07,0.13,-0.99,3.72,4.46,-1.28
45.6240,0.07,0.13,-0.99,3.30,4.03,-0.98
45.6400,0.07,0.13,-0.99,3.05,3.97,-1.22
45.6560,0.07,0.13,-0.99,3.54,4.21,-0.73
45.6720,0.07,0.13,-0.99,3.85,3.54,-0.61
45.6880,0.07,0.12,-0.99,3.54,3.97,-1.28
45.7030,0.07,0.13,-0.99,2.99,3.97,-2.08
45.7180,0.07,0.11,-0.99,4.09,4.09,-1.65
45.7350,0.07,0.12,-1.00,3.60,4.15,-3.11
45.7500,0.07,0.15,-0.99,4.64,3.97,-3.60
45.7600,0.08,0.16,-0.99,3.72,4.09,-3.30
45.7750,0.08,0.16,-0.98,3.11,3.97,-0.92
45.7930,0.08,0.15,-0.99,3.97,3.66,0.92
45.8090,0.07,0.14,-0.99,2.75,3.42,1.95
45.8270,0.07,0.12,-0.99,2.50,3.60,1.95
45.8420,0.07,0.12,-1.00,4.33,3.30,2.01
45.8420,0.09,0.11,-0.99,2.32,3.97,1.22
45.8720,0.07,0.10,-1.00,2.50,4.33,-0.49
45.8870,0.07,0.11,-0.99,3.48,4.39,-2.38
45.9020,0.07,0.14,-0.99,3.36,4.15,-3.36
45.9170,0.07,0.14,-0.99,3.60,4.58,-2.32
45.9280,0.08,0.15,-0.99,2.81,3.78,-1.10
45.9440,0.08,0.14,-0.99,4.27,3.72,-0.43
45.9620,0.07,0.14,-0.99,3.36,4.15,-0.06
45.9770,0.07,0.15,-0.99,2.44,3.91,0.43
45.9940,0.07,0.13,-0.99,2.44,3.54,1.95
45.9950,0.07,0.12,-0.99,3.30,3.36,2.01
46.0260,0.07,0.12,-1.00,5.00,3.48,1.34
46.0410,0.08,0.11,-0.99,2.75,4.52,-1.46
46.0560,0.07,0.12,-0.99,2.81,4.58,-1.59
46.0630,0.07,0.13,-0.99,4.82,4.21,-1.53
46.0780,0.07,0.14,-0.99,2.99,4.21,-1.46
46.1010,0.07,0.13,-0.99,2.62,3.66,-0.37
46.1190,0.07,0.12,-0.99,3.42,4.03,-0.37
46.1280,0.07,0.12,-0.99,3.42,3.30,-0.67
46.1500,0.07,0.15,-0.99,3.42,3.36,-0.37
46.1650,0.07,0.12,-0.99,3.23,3.54,0.73
46.1700,0.08,0.10,-1.00,2.62,4.39,-1.40
46.1850,0.07,0.12,-0.99,2.87,4.46,-3.66
46.2070,0.07,0.13,-0.99,4.88,4.09,-2.75
46.2220,0.07,0.15,-1.00,5.13,3.66,-2.62
46.2400,0.08,0.17,-0.99,3.72,3.30,-0.85
46.2560,0.07,0.14,-0.99,2.87,4.03,0.37
46.2700,0.07,0.13,-0.99,1.95,4.03,0.43
46.2730,0.07,0.14,-0.99,3.60,3.66,1.34
46.3000,0.07,0.14,-0.99,4.21,3.36,1.65
46.3150,0.07,0.13,-0.99,3.30,3.54,2.20
46.3320,0.07,0.13,-0.99,2.81,3.85,2.01
46.3400,0.07,0.13,-0.99,2.75,3.48,2.14
46.3610,0.07,0.13,-0.99,3.42,3.36,2.01
46.3730,0.07,0.13,-0.99,3.30,3.60,2.14
46.3890,0.07,0.13,-0.99,2.62,3.36,1.83
46.4070,0.07,0.13,-0.99,2.56,3.48,2.08
46.4220,0.07,0.13,-0.99,2.38,3.85,2.01
46.4290,0.07,0.12,-0.99,3.05,3.42,2.01
46.4540,0.07,0.13,-0.99,3.23,3.54,2.08
46.4690,0.07,0.13,-0.99,3.85,3.72,2.08
46.4750,0.07,0.14,-0.99,3.05,3.72,1.89
46.4990,0.07,0.13,-0.99,3.23,3.42,1.89
46.5140,0.07,0.13,-0.99,2.50,3.23,1.95
46.5290,0.07,0.13,-1.00,2.08,2.75,1.83
46.5400,0.08,0.13,-1.00,2.08,3.11,1.71
46.5570,0.08,0.13,-0.99,2.87,3.66,1.89
46.5750,0.07,0.13,-0.99,2.99,3.54,2.01
46.5750,0.07,0.13,-0.99,2.87,3.60,1.83
46.6050,0.07,0.13,-0.99,2.50,3.23,1.95
46.6210,0.07,0.12,-0.99,2.93,3.36,1.89
46.6360,0.07,0.13,-0.99,3.23,3.78,2.01
46.6530,0.07,0.13,-0.99,3.05,3.66,1.95
46.6680,0.07,0.13,-1.00,2.87,3.36,1.83
46.6840,0.07,0.13,-0.99,4.27,3.78,2.08
46.6940,0.08,0.13,-0.99,5.07,2.99,2.01
46.7090,0.07,0.14,-0.99,2.44,2.50,1.89
46.7290,0.07,0.14,-1.01,1.83,2.87,1.89
46.7450,0.08,0.12,-0.98,0.37,3.78,1.83
46.7610,0.07,0.12,-1.00,2.87,3.17,1.83
46.7770,0.09,0.13,-0.98,4.33,2.62,2.08
46.7920,0.08,0.13,-0.99,4.33,2.75,2.08
46.8080,0.08,0.13,-0.99,3.85,2.99,1.95
46.8220,0.07,0.13,-0.99,3.66,3.48,1.95
46.8300,0.07,0.13,-0.99,3.36,3.30,1.89
46.8460,0.07,0.13,-0.99,3.05,3.54,1.95
46.8670,0.08,0.13,-0.99,3.60,3.66,1.83
46.8820,0.08,0.13,-1.00,2.93,4.21,2.08
46.8980,0.07,0.13,-0.99,2.32,4.70,2.14
46.9140,0.08,0.13,-0.99,2.32,4.39,2.08
46.9290,0.04,0.12,-0.98,1.77,4.64,2.08
46.9440,0.07,0.13,-0.99,2.93,3.97,2.14
46.9600,0.07,0.13,-1.00,3.30,3.91,1.83
46.9760,0.07,0.13,-0.99,2.62,3.72,2.08
46.9830,0.07,0.13,-0.99,2.44,3.60,2.01
47.0060,0.07,0.13,-0.99,2.62,3.60,2.08
47.0160,0.08,0.13,-0.99,3.48,3.05,2.14
47.0330,0.07,0.13,-0.99,3.60,3.42,2.01
47.0500,0.07,0.12,-0.99,3.30,3.54,1.95
47.0680,0.07,0.13,-1.00,3.78,3.42,1.95
47.0840,0.07,0.13,-0.99,3.05,3.05,1.89
47.0980,0.07,0.13,-0.99,3.54,2.93,1.89
47.1130,0.07,0.13,-0.99,3.17,3.60,1.77
47.1280,0.07,0.13,-0.99,3.42,3.54,1.59
47.1430,0.07,0.12,-1.00,3.42,3.66,1.65
47.1550,0.08,0.14,-0.99,2.81,3.48,1.83
47.1710,0.07,0.13,-0.99,3.17,3.54,2.01
47.1880,0.07,0.13,-0.99,3.60,3.42,2.08
47.2030,0.08,0.13,-0.99,3.23,3.30,2.01
47.2190,0.07,0.13,-0.99,2.93,3.11,1.83
47.2360,0.07,0.13,-0.99,2.99,2.93,2.01
47.2510,0.08,0.13,-0.99,3.78,3.30,1.89
47.2660,0.07,0.13,-0.99,3.54,3.11,1.95
47.2800,0.08,0.13,-0.99,2.75,3.42,2.14
47.2960,0.07,0.13,-0.99,2.69,3.30,1.95
47.3100,0.07,0.13,-0.99,2.75,3.42,1.89
47.3210,0.08,0.13,-0.99,2.87,3.30,2.01
47.3380,0.08,0.13,-0.99,3.48,3.36,1.95
47.3550,0.08,0.13,-0.99,3.60,3.36,1.95
47.3700,0.08,0.12,-0.99,3.42,3.42,2.01
47.3720,0.07,0.13,-0.99,3.60,3.48,2.14
47.4010,0.07,0.13,-0.99,3.36,3.36,2.01
47.4160,0.04,0.09,-1.01,3.66,3.42,1.89
