Timestamp, AccX, AccY, AccZ, GyroX, GyroY, GyroZ
0.0110,0.09,0.12,-0.99,1.83,2.56,1.65
0.0270,0.08,0.15,-1.01,2.56,2.50,1.53
0.0410,0.08,0.12,-1.00,2.62,1.83,1.65
0.0560,0.08,0.12,-0.99,3.72,2.26,1.83
0.0710,0.08,0.11,-0.99,4.09,1.95,1.89
0.0830,0.08,0.10,-0.97,3.17,2.44,1.71
0.1000,0.09,0.12,-1.00,3.36,2.32,1.77
0.1160,0.07,0.11,-0.98,3.54,1.95,1.83
0.1310,0.08,0.11,-0.99,3.30,1.83,1.65
0.1460,0.08,0.12,-1.01,3.36,1.89,1.65
0.1610,0.07,0.11,-0.97,3.23,2.26,1.65
0.1760,0.09,0.12,-1.01,3.23,2.20,1.59
0.1910,0.07,0.11,-0.98,3.23,2.14,1.59
0.2070,0.08,0.11,-0.96,3.17,1.71,1.59
0.2220,0.09,0.12,-1.01,3.48,1.95,1.65
0.2340,0.07,0.11,-0.97,3.23,2.14,1.71
0.2500,0.09,0.12,-1.01,3.30,2.14,1.71
0.2660,0.07,0.11,-0.98,3.36,1.95,1.65
0.2680,0.08,0.11,-0.97,3.36,2.08,1.77
0.2960,0.09,0.12,-1.00,3.30,2.20,1.59
0.3120,0.08,0.11,-0.98,3.11,2.38,1.65
0.3270,0.08,0.12,-0.99,3.11,2.26,1.59
0.3340,0.08,0.12,-0.99,3.30,1.71,1.77
0.3570,0.08,0.12,-0.99,3.23,1.95,1.77
0.3670,0.08,0.12,-0.99,3.23,2.26,1.71
0.3830,0.08,0.12,-0.99,3.30,2.01,1.53
0.4010,0.08,0.12,-0.99,3.30,1.83,1.65
0.4170,0.08,0.12,-1.00,3.60,1.89,1.71
0.4330,0.08,0.12,-0.99,3.36,2.08,1.65
0.4480,0.08,0.11,-0.99,3.48,1.77,1.65
0.4640,0.08,0.12,-0.99,3.36,2.32,1.65
0.4670,0.08,0.11,-0.99,3.36,2.01,1.83
0.4830,0.08,0.11,-0.99,3.48,1.95,1.83
0.5020,0.08,0.12,-0.98,3.42,2.38,1.71
0.5240,0.08,0.12,-0.99,3.36,2.01,1.71
0.5350,0.08,0.12,-0.99,3.36,2.01,1.65
0.5520,0.08,0.11,-0.99,3.36,1.59,1.71
0.5690,0.08,0.11,-0.97,3.30,2.01,1.59
0.5840,0.08,0.11,-0.98,3.23,2.14,1.53
0.5990,0.08,0.11,-0.98,3.30,2.14,1.71
0.6130,0.09,0.12,-1.01,3.36,2.20,1.77
0.6290,0.08,0.12,-1.00,3.54,1.53,1.59
0.6440,0.08,0.11,-0.97,3.36,1.83,1.59
0.6590,0.09,0.12,-1.01,3.17,2.20,1.77
0.6680,0.07,0.12,-0.99,3.17,2.26,1.77
0.6860,0.09,0.11,-0.98,3.36,2.14,1.65
0.7020,0.08,0.12,-1.01,3.23,2.08,1.71
0.7190,0.07,0.11,-0.98,3.11,2.14,1.83
0.7350,0.09,0.11,-0.99,3.48,1.89,1.65
0.7530,0.08,0.12,-1.00,3.48,2.01,1.65
0.7690,0.08,0.11,-0.98,3.54,2.01,1.71
0.7870,0.08,0.12,-1.00,3.30,1.95,1.59
0.8030,0.08,0.12,-0.98,3.23,2.08,1.71
0.8190,0.08,0.12,-1.00,3.30,2.38,1.59
0.8350,0.08,0.11,-0.98,3.36,2.01,1.71
0.8500,0.08,0.12,-0.99,3.30,1.89,1.53
0.8650,0.08,0.12,-0.99,3.30,1.71,1.46
0.8810,0.08,0.12,-0.99,3.36,2.14,1.59
0.8960,0.08,0.12,-1.00,3.30,2.08,1.65
0.9110,0.08,0.12,-1.00,3.11,2.26,1.65
0.9270,0.07,0.12,-1.00,3.23,2.20,1.71
0.9420,0.07,0.12,-1.00,3.23,2.08,1.59
0.9570,0.08,0.12,-1.00,3.23,2.20,1.53
0.9690,0.07,0.12,-1.00,3.17,1.95,1.77
0.9850,0.08,0.12,-1.00,3.36,1.95,1.65
1.0020,0.08,0.12,-0.99,3.36,1.71,1.65
1.0180,0.08,0.12,-0.99,3.54,1.89,1.65
1.0340,0.08,0.11,-0.99,3.48,1.83,1.71
1.0490,0.08,0.12,-0.98,3.30,1.65,1.77
1.0640,0.08,0.11,-0.97,3.36,1.59,1.71
1.0680,0.09,0.11,-0.98,3.30,2.08,1.83
1.0840,0.08,0.11,-0.98,3.48,2.32,1.65
1.1100,0.08,0.11,-0.98,3.30,2.14,1.77
1.1250,0.09,0.11,-0.99,3.17,1.83,1.59
1.1360,0.09,0.11,-0.98,3.17,2.01,1.71
1.1530,0.08,0.11,-0.98,3.42,1.83,1.71
1.1690,0.09,0.11,-0.98,3.23,2.26,1.65
1.1860,0.09,0.12,-0.99,3.36,2.08,1.77
1.2030,0.08,0.12,-0.99,3.17,2.32,1.71
1.2180,0.08,0.12,-0.99,3.23,2.50,1.71
1.2340,0.08,0.12,-0.99,3.23,1.83,1.71
1.2500,0.08,0.12,-0.99,3.30,2.26,1.83
1.2650,0.08,0.12,-0.99,3.42,2.20,1.77
1.2700,0.08,0.12,-0.99,3.42,2.26,1.83
1.2860,0.08,0.12,-0.99,3.23,1.71,1.71
1.3110,0.08,0.11,-0.99,3.48,2.20,1.71
1.3230,0.08,0.12,-0.99,3.42,1.71,1.71
1.3390,0.08,0.12,-0.99,3.54,1.71,1.53
1.3560,0.08,0.12,-0.99,3.30,1.40,1.59
1.3720,0.08,0.11,-0.98,3.42,1.59,1.77
1.3890,0.08,0.12,-0.99,3.48,1.65,1.65
1.4050,0.08,0.11,-0.99,3.30,2.32,1.71
1.4200,0.08,0.11,-0.98,3.36,1.95,1.53
1.4300,0.08,0.11,-0.99,3.48,2.01,1.59
1.4520,0.08,0.11,-0.99,3.42,1.77,1.59
1.4670,0.08,0.12,-0.99,3.36,1.65,1.65
1.4820,0.08,0.12,-0.99,3.17,1.40,1.71
1.4910,0.08,0.12,-0.99,3.36,2.26,1.77
1.5070,0.08,0.12,-0.99,3.36,2.32,1.77
1.5250,0.08,0.11,-0.99,3.36,2.08,1.83
1.5430,0.08,0.12,-0.99,3.30,1.95,1.71
1.5590,0.08,0.11,-0.99,3.36,2.01,1.71
1.5750,0.08,0.12,-0.99,3.30,1.89,1.59
1.5910,0.08,0.11,-0.99,3.42,2.20,1.65
1.5930,0.08,0.12,-0.99,3.23,2.08,1.65
1.6080,0.08,0.12,-0.99,3.30,1.53,1.59
1.6300,0.08,0.12,-0.99,3.42,2.01,1.59
1.6430,0.08,0.12,-0.99,3.30,2.32,1.71
1.6590,0.08,0.12,-0.99,3.36,1.59,1.77
1.6760,0.08,0.12,-0.99,3.42,1.77,1.65
1.6910,0.08,0.12,-0.99,3.48,2.01,1.65
1.7190,0.08,0.12,-0.99,3.42,1.95,1.77
1.7340,0.08,0.11,-0.99,3.36,2.01,1.71
1.7490,0.08,0.12,-0.99,3.30,1.77,1.65
1.7590,0.08,0.12,-0.99,3.36,1.89,1.65
1.7760,0.08,0.12,-0.99,3.54,1.77,1.65
1.7930,0.08,0.12,-0.99,3.36,1.95,1.65
1.8090,0.08,0.12,-0.99,3.42,2.32,1.65
1.8260,0.08,0.12,-0.99,3.42,2.08,1.65
1.8430,0.08,0.12,-1.00,3.54,1.83,1.65
1.8590,0.08,0.11,-0.97,3.36,1.59,1.65
1.8750,0.08,0.11,-0.99,3.48,2.01,1.65
1.8900,0.08,0.11,-0.96,3.30,1.89,1.59
1.9060,0.09,0.11,-0.98,3.36,2.20,1.53
1.9100,0.09,0.11,-0.98,3.36,2.44,1.71
1.9310,0.09,0.11,-0.98,3.30,1.83,1.53
1.9530,0.08,0.12,-1.00,3.60,1.46,1.65
1.9680,0.08,0.11,-0.98,3.23,1.89,1.65
1.9800,0.09,0.12,-0.99,3.48,1.95,1.65
1.9970,0.08,0.12,-0.99,3.30,2.08,1.59
2.0130,0.08,0.12,-0.99,3.42,1.77,1.65
2.0290,0.08,0.12,-0.99,3.30,2.14,1.65
2.0450,0.08,0.11,-0.98,3.36,2.08,1.71
2.0610,0.08,0.11,-0.99,3.30,1.89,1.71
2.0770,0.08,0.12,-1.00,3.36,2.01,1.59
2.0930,0.08,0.12,-0.99,3.30,1.65,1.59
2.1080,0.08,0.12,-0.99,3.42,1.65,1.71
2.1140,0.08,0.11,-0.98,3.23,1.95,1.59
2.1310,0.08,0.12,-1.00,3.42,1.89,1.59
2.1510,0.08,0.12,-0.99,3.42,2.08,1.71
2.1670,0.08,0.12,-0.99,3.17,2.08,1.65
2.1840,0.08,0.11,-0.98,3.30,1.71,1.46
2.2010,0.08,0.12,-0.99,3.42,1.71,1.59
2.2160,0.08,0.11,-0.98,3.42,1.59,1.77
2.2310,0.08,0.11,-0.98,3.54,1.83,1.65
2.2470,0.08,0.11,-0.99,3.23,1.71,1.59
2.2630,0.09,0.12,-0.99,3.11,2.32,1.71
2.2680,0.08,0.11,-0.98,3.23,1.77,1.59
2.2950,0.08,0.11,-0.99,3.42,1.95,1.59
2.3100,0.08,0.11,-0.98,3.42,1.59,1.65
2.3240,0.08,0.11,-0.99,3.42,2.01,1.83
2.3370,0.08,0.12,-1.00,3.17,1.83,1.65
2.3520,0.08,0.12,-0.99,3.36,1.95,1.65
2.3690,0.08,0.11,-0.98,3.48,1.77,1.71
2.3860,0.08,0.12,-0.99,3.23,2.32,1.59
2.4030,0.08,0.11,-0.99,3.36,2.20,1.59
2.4190,0.08,0.11,-0.99,3.30,2.20,1.71
2.4360,0.08,0.12,-1.00,3.17,2.08,1.65
2.4510,0.08,0.11,-0.99,3.30,2.32,1.83
2.4660,0.08,0.12,-0.99,3.42,2.32,1.89
2.4700,0.08,0.11,-0.99,3.42,1.95,1.77
2.4850,0.08,0.11,-0.99,3.30,1.71,1.65
2.5120,0.08,0.12,-0.99,3.54,1.71,1.59
2.5250,0.08,0.12,-0.99,3.17,1.89,1.59
2.5400,0.08,0.11,-0.99,3.30,1.83,1.71
2.5570,0.08,0.11,-0.99,3.36,2.01,1.65
2.5730,0.08,0.12,-0.99,3.42,2.01,1.65
2.5900,0.08,0.12,-0.99,3.30,2.20,1.77
2.6050,0.08,0.12,-0.99,3.36,2.14,1.71
2.6200,0.08,0.11,-0.98,3.42,1.95,1.65
2.6310,0.08,0.11,-0.99,3.42,2.01,1.59
2.6390,0.08,0.11,-0.99,3.05,2.20,1.65
2.6660,0.08,0.12,-1.00,3.36,2.32,1.71
2.6760,0.08,0.12,-0.99,3.36,2.14,1.65
2.6910,0.08,0.12,-0.99,3.11,2.01,1.59
2.7130,0.08,0.11,-0.98,3.30,1.83,1.53
2.7290,0.08,0.11,-0.99,3.42,1.65,1.71
2.7460,0.08,0.12,-0.99,3.11,1.46,1.65
2.7620,0.08,0.12,-0.99,3.48,1.77,1.65
2.7780,0.08,0.11,-0.98,3.17,2.08,1.53
2.7940,0.08,0.12,-1.00,3.30,1.83,1.77
2.8100,0.08,0.12,-0.99,3.36,2.01,1.71
2.8250,0.08,0.12,-0.99,3.36,1.83,1.71
2.8410,0.08,0.12,-0.99,3.17,1.71,1.65
2.8460,0.08,0.12,-0.99,3.17,2.20,1.71
2.8620,0.08,0.12,-0.99,3.30,1.95,1.65
2.8780,0.08,0.12,-0.99,3.30,1.89,1.59
2.8970,0.08,0.11,-0.99,3.23,1.95,1.59
2.9150,0.08,0.11,-0.98,3.30,1.83,1.59
2.9320,0.08,0.11,-0.98,3.36,1.83,1.59
2.9470,0.08,0.11,-0.98,3.48,1.65,1.53
2.9630,0.09,0.11,-0.98,3.23,2.14,1.71
2.9790,0.09,0.11,-0.98,3.54,1.83,1.59
2.9950,0.09,0.11,-0.99,3.17,2.01,1.77
3.0110,0.09,0.12,-0.99,3.30,2.26,1.59
3.0270,0.08,0.12,-1.00,3.23,1.95,1.65
3.0430,0.08,0.12,-1.00,3.48,2.26,1.83
3.0590,0.08,0.12,-1.00,3.48,1.59,1.65
3.0640,0.08,0.12,-1.00,3.48,1.95,1.71
3.0800,0.07,0.12,-1.01,3.30,1.89,1.65
3.1020,0.07,0.12,-1.00,3.42,2.14,1.77
3.1200,0.07,0.12,-1.00,3.36,1.89,1.59
3.1360,0.07,0.12,-1.00,3.17,2.08,1.59
3.1530,0.08,0.12,-0.99,3.23,1.95,1.53
3.1690,0.08,0.12,-0.99,3.48,1.71,1.65
3.1850,0.08,0.11,-0.97,3.48,1.95,1.65
3.2010,0.08,0.12,-1.01,3.48,2.14,1.71
3.2160,0.08,0.11,-0.97,3.36,1.65,1.59
3.2320,0.09,0.12,-1.00,3.17,2.08,1.71
3.2360,0.08,0.11,-0.97,3.17,1.89,1.65
3.2570,0.08,0.11,-0.99,3.42,2.08,1.65
3.2740,0.08,0.11,-0.97,3.23,1.95,1.71
3.2900,0.09,0.12,-1.00,3.30,2.20,1.65
3.3070,0.08,0.11,-0.97,3.42,2.08,1.53
3.3230,0.08,0.12,-1.00,3.42,1.71,1.59
3.3400,0.08,0.11,-0.98,3.42,1.89,1.59
3.3560,0.08,0.12,-1.00,3.30,2.01,1.71
3.3720,0.08,0.12,-0.99,3.23,1.89,1.83
3.3880,0.08,0.12,-1.00,3.60,1.95,1.59
3.4040,0.08,0.12,-0.99,3.54,1.89,1.59
3.4190,0.08,0.12,-0.99,3.42,1.89,1.65
3.4340,0.08,0.12,-0.99,3.36,1.59,1.53
3.4500,0.08,0.11,-0.98,3.42,1.95,1.53
3.4650,0.08,0.11,-0.98,3.54,1.77,1.65
3.4740,0.08,0.11,-0.98,3.54,2.08,1.71
3.4900,0.08,0.11,-0.98,3.54,2.08,1.71
3.5110,0.09,0.11,-0.98,3.60,1.89,1.65
3.5270,0.09,0.12,-0.98,3.48,2.01,1.71
3.5430,0.08,0.12,-0.99,3.23,1.95,1.71
3.5590,0.08,0.12,-0.99,3.11,2.20,1.59
3.5640,0.08,0.12,-0.99,3.36,2.01,1.77
3.5800,0.08,0.12,-0.99,3.42,2.32,1.59
3.6030,0.08,0.12,-1.00,3.17,2.20,1.53
3.6190,0.08,0.12,-1.00,3.23,2.01,1.65
3.6360,0.08,0.12,-1.00,3.17,2.44,1.59
3.6520,0.08,0.12,-0.99,3.11,1.53,1.65
3.6680,0.08,0.12,-0.99,3.30,1.77,1.71
3.6830,0.08,0.11,-0.99,3.48,2.08,1.77
3.6980,0.08,0.12,-1.00,3.66,1.59,1.59
3.7030,0.08,0.11,-0.98,3.30,1.89,1.77
3.7180,0.08,0.12,-1.01,3.17,1.95,1.59
3.7410,0.08,0.11,-0.98,3.36,2.01,1.77
3.7570,0.08,0.12,-1.01,3.23,2.14,1.65
3.7580,0.08,0.11,-0.98,3.11,2.32,1.71
3.7890,0.08,0.12,-1.00,3.36,1.65,1.71
3.8050,0.08,0.11,-0.98,3.23,1.65,1.59
3.8210,0.08,0.12,-1.00,3.05,2.14,1.71
3.8320,0.08,0.11,-0.97,3.17,2.08,1.89
3.8390,0.08,0.12,-0.99,2.93,2.01,2.14
3.8680,0.08,0.11,-0.99,2.99,1.95,2.44
3.8800,0.08,0.11,-0.98,2.93,2.14,2.32
3.8970,0.08,0.12,-0.99,3.23,2.08,1.89
3.9130,0.08,0.11,-0.99,3.36,1.77,2.01
3.9290,0.08,0.12,-0.98,3.30,1.95,2.14
3.9440,0.08,0.12,-0.99,2.75,1.89,2.38
3.9620,0.08,0.11,-0.99,2.93,1.83,2.26
3.9770,0.08,0.11,-0.99,2.99,1.95,1.83
3.9940,0.08,0.11,-0.99,3.11,2.14,1.71
4.0090,0.08,0.11,-0.99,3.05,2.01,1.65
4.0250,0.08,0.11,-1.00,3.23,1.77,1.53
4.0410,0.08,0.11,-0.98,3.17,2.01,1.71
4.0470,0.08,0.12,-0.99,3.30,1.71,1.53
4.0720,0.08,0.13,-0.98,3.36,2.08,1.40
4.0820,0.09,0.12,-0.98,3.54,2.26,0.79
4.0980,0.09,0.12,-0.99,3.54,2.01,0.24
4.1160,0.08,0.12,-0.98,3.30,2.26,-0.24
4.1340,0.08,0.10,-0.99,3.23,2.08,-0.55
4.1490,0.08,0.10,-0.99,3.11,1.65,0.43
4.1640,0.08,0.12,-0.99,3.11,2.14,0.92
4.1800,0.08,0.12,-0.98,3.30,2.20,0.85
4.1830,0.07,0.10,-1.01,3.36,1.95,1.04
4.1990,0.07,0.10,-1.00,3.17,1.95,1.16
4.2220,0.08,0.12,-0.98,3.42,2.01,1.77
4.2380,0.08,0.11,-1.01,3.23,1.89,1.83
4.2540,0.08,0.12,-0.97,3.36,1.71,1.71
4.2710,0.08,0.12,-1.00,3.30,1.77,2.20
4.2880,0.09,0.13,-0.97,3.11,2.20,2.44
4.3050,0.09,0.12,-1.00,3.66,2.20,0.61
4.3210,0.07,0.12,-1.00,3.91,1.77,2.62
4.3370,0.09,0.12,-0.97,3.23,1.59,3.11
4.3530,0.08,0.11,-1.00,3.48,2.26,1.53
4.3690,0.08,0.12,-0.98,3.30,2.38,1.40
4.3850,0.08,0.12,-1.00,3.11,2.01,1.83
4.4010,0.07,0.11,-0.99,3.36,1.40,3.36
4.4160,0.08,0.10,-0.99,3.42,1.89,3.42
4.4310,0.09,0.11,-0.99,3.11,1.77,2.44
4.4460,0.08,0.12,-0.99,3.66,1.89,1.53
4.4610,0.08,0.12,-0.98,3.72,2.01,1.46
4.4710,0.08,0.12,-0.99,3.23,1.71,2.32
4.4880,0.08,0.12,-0.99,3.11,1.71,3.85
4.5040,0.08,0.12,-0.99,2.99,1.77,4.21
4.5210,0.08,0.11,-1.00,3.05,1.34,4.33
4.5390,0.08,0.11,-0.99,3.05,1.65,4.09
4.5530,0.08,0.12,-0.99,2.99,1.34,5.19
4.5690,0.08,0.11,-0.99,3.54,1.65,5.19
4.5850,0.09,0.10,-0.99,3.36,1.46,5.62
4.6010,0.08,0.10,-0.99,3.30,1.65,2.62
4.6160,0.08,0.11,-0.99,3.23,1.59,2.69
4.6300,0.08,0.11,-0.99,3.48,1.46,2.26
4.6460,0.08,0.12,-0.99,3.48,1.46,2.26
4.6610,0.08,0.12,-0.99,3.17,1.59,1.59
4.6710,0.08,0.12,-0.99,3.48,1.89,1.83
4.6880,0.08,0.12,-0.99,3.42,1.46,2.99
4.7040,0.08,0.12,-0.98,3.54,1.34,3.30
4.7210,0.08,0.11,-1.00,3.42,1.83,2.56
4.7370,0.08,0.11,-0.97,3.30,2.01,2.38
4.7540,0.08,0.12,-1.00,3.11,2.01,2.08
4.7690,0.08,0.12,-0.97,3.54,2.14,1.89
4.7850,0.09,0.12,-0.99,3.23,2.01,1.83
4.8010,0.08,0.12,-1.00,3.48,1.83,1.53
4.8050,0.08,0.12,-0.97,3.48,1.95,2.20
4.8210,0.08,0.12,-1.00,3.17,2.14,3.36
4.8420,0.08,0.12,-0.97,2.99,1.77,3.78
4.8590,0.08,0.12,-1.00,3.30,1.46,5.07
4.8760,0.08,0.12,-0.98,3.30,1.40,4.15
4.8920,0.07,0.10,-0.98,3.23,1.83,3.72
4.9090,0.08,0.11,-1.00,2.99,1.59,4.27
4.9250,0.08,0.11,-0.98,2.93,1.59,4.64
4.9410,0.08,0.12,-0.99,2.81,1.59,4.70
4.9570,0.08,0.12,-0.99,2.93,1.53,4.52
4.9730,0.08,0.11,-0.99,3.30,1.95,4.03
4.9880,0.08,0.11,-0.99,3.11,1.40,4.58
5.0040,0.08,0.10,-0.99,3.36,1.77,2.44
5.0190,0.08,0.11,-0.99,3.17,2.14,2.69
5.0340,0.08,0.12,-0.99,2.81,2.01,3.23
5.0480,0.08,0.12,-0.98,3.11,1.77,3.78
5.0600,0.08,0.12,-0.98,2.99,2.01,3.72
5.0750,0.08,0.12,-0.98,3.05,1.95,3.97
5.0940,0.08,0.11,-0.98,3.11,1.53,3.72
5.1100,0.08,0.11,-0.99,3.17,1.71,3.23
5.1250,0.08,0.11,-0.99,3.05,2.01,3.48
5.1410,0.08,0.12,-0.99,2.81,2.08,5.00
5.1570,0.08,0.12,-0.99,2.87,2.08,5.80
5.1650,0.08,0.11,-0.99,3.05,1.46,6.16
5.1810,0.08,0.10,-1.00,2.87,1.59,4.58
5.2040,0.08,0.10,-1.00,3.11,1.59,3.78
5.2180,0.08,0.11,-1.00,2.87,2.01,3.97
5.2330,0.08,0.12,-0.99,2.81,1.83,4.33
5.2490,0.08,0.12,-0.99,2.81,1.95,3.72
5.2640,0.08,0.12,-1.00,3.36,1.59,2.75
5.2800,0.08,0.11,-0.99,3.23,2.01,2.69
5.2940,0.08,0.11,-0.99,3.17,2.50,3.11
5.3110,0.08,0.11,-0.99,3.17,2.08,3.30
5.3260,0.08,0.12,-0.99,3.11,1.46,3.97
5.3370,0.08,0.12,-0.99,2.87,2.08,4.52
5.3550,0.08,0.12,-0.99,2.69,1.83,4.94
5.3710,0.08,0.12,-0.99,2.93,2.14,4.46
5.3860,0.08,0.12,-0.99,2.99,1.89,3.78
5.4030,0.07,0.11,-0.99,3.30,1.89,4.03
5.4190,0.08,0.11,-0.99,3.30,1.65,4.82
5.4350,0.08,0.11,-0.99,3.23,1.77,4.82
5.4510,0.08,0.12,-0.99,3.05,1.83,4.58
5.4670,0.08,0.12,-0.99,3.17,1.83,4.46
5.4830,0.08,0.11,-0.99,3.42,1.95,3.66
5.4980,0.08,0.11,-0.99,3.17,1.77,3.66
5.5130,0.08,0.12,-0.99,2.99,2.08,4.15
5.5290,0.08,0.13,-0.99,3.23,1.34,5.00
5.5440,0.08,0.12,-0.99,3.36,1.46,5.68
5.5540,0.08,0.12,-0.99,2.69,1.77,6.10
5.5710,0.08,0.12,-0.99,3.11,1.65,5.49
5.5880,0.08,0.10,-0.99,3.05,1.34,4.03
5.6030,0.08,0.11,-0.99,3.05,1.83,3.66
5.6200,0.08,0.12,-0.98,3.23,1.46,3.91
5.6330,0.08,0.12,-0.99,3.30,1.53,4.52
5.6500,0.08,0.12,-0.99,3.23,1.46,5.37
5.6650,0.08,0.12,-0.99,3.23,1.65,5.55
5.6760,0.08,0.11,-0.99,3.05,1.71,6.29
5.6920,0.08,0.11,-0.99,3.30,1.22,5.86
5.7110,0.08,0.11,-0.99,3.11,1.53,5.68
5.7270,0.08,0.11,-0.99,3.05,1.65,5.07
5.7430,0.08,0.11,-0.99,3.17,1.71,4.27
5.7580,0.08,0.11,-0.99,3.30,1.46,3.72
5.7740,0.08,0.11,-0.99,3.30,1.40,2.93
5.7890,0.08,0.11,-0.99,3.30,1.83,2.69
5.8050,0.08,0.12,-0.99,3.23,1.71,2.81
5.8210,0.08,0.12,-0.99,2.87,1.95,3.36
5.8330,0.09,0.12,-0.99,3.05,1.65,3.42
5.8520,0.08,0.11,-0.99,3.23,1.89,2.56
5.8630,0.08,0.11,-0.99,3.60,2.08,2.26
5.8800,0.08,0.12,-0.99,3.11,2.01,2.01
5.8950,0.08,0.12,-0.99,3.05,1.95,2.20
5.9110,0.08,0.12,-0.99,3.42,1.65,2.44
5.9270,0.08,0.11,-0.99,3.42,2.01,2.69
5.9420,0.08,0.11,-0.99,3.11,2.01,2.62
5.9530,0.08,0.12,-0.99,3.17,1.71,2.26
5.9690,0.08,0.12,-0.99,3.23,2.01,2.26
5.9860,0.08,0.12,-0.99,3.48,2.26,2.44
6.0030,0.08,0.11,-1.00,3.30,2.08,2.14
6.0190,0.08,0.12,-0.98,3.17,2.08,2.44
6.0350,0.08,0.12,-0.99,3.17,2.14,2.87
6.0510,0.08,0.12,-0.98,3.30,2.14,2.93
6.0660,0.08,0.11,-0.99,3.11,1.89,3.17
6.0800,0.08,0.12,-0.99,2.93,2.08,3.48
6.0960,0.08,0.12,-0.98,3.05,2.01,3.54
6.1110,0.08,0.12,-0.99,3.05,1.77,3.85
6.1260,0.08,0.12,-0.99,3.23,1.83,4.46
6.1410,0.08,0.11,-0.99,3.23,1.77,4.39
6.1520,0.08,0.11,-0.99,3.30,1.71,3.72
6.1700,0.08,0.11,-0.99,3.30,1.65,3.36
6.1850,0.08,0.11,-0.99,3.42,1.83,3.36
6.2020,0.08,0.11,-0.99,3.36,2.38,2.93
6.2190,0.08,0.12,-0.99,3.30,1.77,3.42
6.2350,0.08,0.12,-0.99,3.30,1.89,3.48
6.2500,0.08,0.11,-0.99,3.42,2.14,3.17
6.2650,0.08,0.11,-0.99,3.11,1.95,2.99
6.2800,0.08,0.11,-0.99,3.11,1.95,2.69
6.2960,0.08,0.12,-0.99,3.05,1.77,2.99
6.3110,0.08,0.13,-1.00,2.99,1.65,4.09
6.3250,0.08,0.13,-0.97,3.48,1.65,4.70
6.3360,0.08,0.12,-0.98,3.42,1.28,5.98
6.3540,0.09,0.12,-0.99,3.23,1.34,6.16
6.3690,0.08,0.11,-0.98,3.17,1.95,5.19
6.3860,0.08,0.11,-1.00,3.11,1.65,5.07
6.4010,0.08,0.11,-0.99,3.11,1.71,4.46
6.4160,0.08,0.12,-0.98,3.36,1.59,4.27
6.4310,0.08,0.12,-0.99,3.36,1.95,4.15
6.4460,0.08,0.12,-0.98,3.30,1.83,3.91
6.4620,0.08,0.12,-0.99,2.99,1.83,4.82
6.4780,0.08,0.11,-1.00,2.75,1.65,4.88
6.4930,0.08,0.11,-0.99,2.93,1.46,3.78
6.5090,0.08,0.11,-0.99,3.11,1.89,3.66
6.5180,0.08,0.11,-0.99,3.36,1.83,3.54
6.5360,0.07,0.11,-0.99,3.60,1.65,3.42
6.5520,0.08,0.12,-0.99,2.99,1.77,4.58
6.5690,0.08,0.12,-0.99,2.93,1.71,4.33
6.5840,0.08,0.11,-0.99,3.17,1.71,3.85
6.6010,0.08,0.11,-0.99,3.05,1.83,3.30
6.6160,0.08,0.12,-0.99,3.17,1.77,2.99
6.6310,0.08,0.11,-0.99,3.30,2.08,2.75
6.6460,0.08,0.11,-0.99,3.42,1.95,2.32
6.6530,0.08,0.11,-0.99,3.30,1.71,2.01
6.6680,0.08,0.12,-0.99,3.42,2.01,2.62
6.6920,0.09,0.13,-0.99,3.42,1.46,3.11
6.7070,0.08,0.12,-0.99,3.54,1.59,3.36
6.7230,0.08,0.12,-1.00,3.36,1.65,3.60
6.7340,0.08,0.12,-0.99,3.23,1.46,4.52
6.7540,0.08,0.12,-0.99,3.23,1.71,4.58
6.7700,0.08,0.12,-0.99,2.87,1.65,5.25
6.7850,0.08,0.12,-0.99,2.99,1.77,5.25
6.8010,0.08,0.11,-0.99,3.36,1.28,4.76
6.8080,0.08,0.11,-0.99,3.23,1.77,3.72
6.8240,0.08,0.12,-1.00,3.05,2.20,3.85
6.8450,0.08,0.13,-0.99,2.93,1.89,4.58
6.8610,0.08,0.12,-0.98,3.23,1.46,4.82
6.8780,0.08,0.12,-0.99,3.23,1.59,4.64
6.8950,0.08,0.11,-0.99,3.30,1.89,4.46
6.9100,0.08,0.12,-0.99,2.99,1.77,4.64
6.9270,0.08,0.11,-1.00,3.05,1.53,4.94
6.9420,0.08,0.11,-0.99,3.11,1.71,4.27
6.9570,0.08,0.11,-0.99,3.30,1.77,3.36
6.9730,0.08,0.11,-1.00,3.11,2.14,2.81
6.9780,0.08,0.12,-0.99,3.30,1.89,2.20
6.9930,0.08,0.12,-0.99,3.36,1.77,2.32
7.0140,0.08,0.12,-0.99,3.60,1.46,3.23
7.0340,0.08,0.12,-0.99,3.30,2.26,3.78
7.0470,0.08,0.12,-0.99,3.23,1.71,4.27
7.0630,0.08,0.12,-0.99,3.17,1.34,4.76
7.0790,0.08,0.12,-0.99,2.87,1.89,5.13
7.0950,0.08,0.11,-1.00,3.17,1.77,4.03
7.1110,0.08,0.11,-0.99,3.11,2.01,3.66
7.1270,0.08,0.11,-0.99,3.36,1.89,3.05
7.1430,0.08,0.11,-0.99,3.30,1.89,3.66
7.1590,0.08,0.11,-0.99,3.23,1.34,3.48
7.1750,0.08,0.12,-0.98,3.17,1.77,3.30
7.1910,0.08,0.12,-0.98,3.30,1.77,3.85
7.2080,0.08,0.12,-0.98,2.93,1.34,4.64
7.2140,0.08,0.13,-0.98,2.81,1.16,5.68
7.2350,0.08,0.13,-0.98,2.87,1.65,5.49
7.2520,0.08,0.12,-0.99,3.05,1.53,5.31
7.2680,0.08,0.11,-0.99,3.30,1.46,5.37
7.2850,0.08,0.11,-0.99,3.11,1.59,5.25
7.3010,0.08,0.12,-0.99,2.93,1.53,4.94
7.3170,0.08,0.12,-0.99,2.81,1.71,4.76
7.3320,0.08,0.12,-0.99,3.05,2.01,4.64
7.3360,0.08,0.11,-0.99,3.05,1.83,4.09
7.3630,0.08,0.11,-1.01,3.05,1.77,3.54
7.3780,0.08,0.11,-0.98,3.17,2.50,3.17
7.3930,0.08,0.12,-1.00,3.36,1.83,2.81
7.4080,0.08,0.12,-0.99,3.17,2.01,3.48
7.4230,0.08,0.12,-0.99,3.36,2.14,3.42
7.4350,0.08,0.13,-0.98,3.05,2.20,3.78
7.4510,0.08,0.12,-1.00,3.36,1.77,3.78
7.4670,0.08,0.12,-0.97,2.87,1.95,4.21
7.4830,0.09,0.12,-0.99,2.87,1.65,4.70
7.4980,0.08,0.11,-0.98,2.93,1.83,4.52
7.5140,0.08,0.11,-1.00,3.42,1.77,4.03
7.5290,0.08,0.11,-0.98,3.48,1.77,3.42
7.5350,0.08,0.12,-1.00,3.42,1.28,3.85
7.5520,0.08,0.12,-0.99,3.30,1.34,3.85
7.5740,0.08,0.11,-0.99,3.30,1.71,3.85
7.5850,0.08,0.12,-0.99,2.87,2.01,4.27
7.6020,0.08,0.11,-0.99,2.87,1.71,4.58
7.6180,0.08,0.12,-0.99,2.93,1.71,4.21
7.6360,0.08,0.12,-0.99,3.05,1.77,3.72
7.6510,0.08,0.12,-0.99,3.17,1.77,3.48
7.6680,0.08,0.12,-0.99,3.42,1.65,3.91
7.6840,0.08,0.13,-0.99,3.23,1.34,4.94
7.6980,0.08,0.12,-0.99,3.17,1.22,5.43
7.7140,0.08,0.13,-0.99,2.93,1.65,5.98
7.7290,0.08,0.12,-0.99,3.05,1.46,5.80
7.7440,0.08,0.12,-0.99,2.93,1.40,5.74
7.7600,0.08,0.11,-0.99,2.75,1.40,6.04
7.7740,0.08,0.10,-1.00,2.87,0.98,5.55
7.7850,0.08,0.11,-0.99,2.81,1.40,5.31
7.8010,0.08,0.12,-0.99,3.17,1.83,4.70
7.8200,0.09,0.12,-0.99,3.30,1.59,4.33
7.8350,0.08,0.12,-0.99,3.42,1.65,3.54
7.8510,0.09,0.13,-0.97,3.05,1.46,4.76
7.8660,0.08,0.13,-1.00,2.93,1.83,5.31
7.8830,0.08,0.12,-0.98,2.81,1.34,5.98
7.8980,0.09,0.13,-1.00,2.62,1.40,5.74
7.9120,0.08,0.12,-0.97,2.75,1.53,5.62
7.9280,0.08,0.12,-1.00,3.66,1.83,5.74
7.9390,0.08,0.11,-0.98,2.99,1.65,6.23
7.9540,0.08,0.11,-1.00,2.62,1.40,5.74
7.9730,0.08,0.11,-0.99,2.69,1.71,4.94
7.9880,0.09,0.12,-1.00,2.62,1.34,5.49
7.9950,0.08,0.11,-0.99,3.23,1.59,4.46
8.0110,0.07,0.10,-0.99,2.99,1.71,4.27
8.0290,0.08,0.11,-0.99,2.75,1.46,3.97
8.0460,0.08,0.11,-0.99,2.62,1.95,3.11
8.0630,0.08,0.11,-0.99,3.05,1.89,2.93
8.0780,0.08,0.11,-0.99,3.11,2.01,2.69
8.0940,0.08,0.12,-1.00,2.81,2.01,2.08
8.1110,0.08,0.13,-1.00,3.05,2.14,2.38
8.1270,0.08,0.12,-1.00,3.36,1.65,2.99
8.1430,0.08,0.12,-0.99,2.75,1.77,3.54
8.1590,0.08,0.12,-0.99,3.17,1.65,3.30
8.1750,0.08,0.11,-0.99,3.11,2.20,2.93
8.1910,0.08,0.11,-0.99,3.23,1.77,3.48
8.2070,0.08,0.12,-0.99,2.81,2.14,3.54
8.2230,0.09,0.13,-0.99,3.17,1.77,4.03
8.2370,0.08,0.12,-0.99,3.23,2.20,3.91
8.2450,0.08,0.12,-0.99,3.11,1.34,4.46
8.2680,0.08,0.12,-0.99,3.05,1.83,4.76
8.2850,0.08,0.11,-1.00,2.87,1.83,5.37
8.3010,0.08,0.11,-0.98,2.81,1.83,4.03
8.3170,0.08,0.11,-0.98,2.87,1.71,3.17
8.3320,0.08,0.12,-0.98,2.75,2.01,3.54
8.3470,0.08,0.12,-1.00,3.11,1.71,4.27
8.3630,0.08,0.11,-0.98,3.17,1.83,3.66
8.3780,0.08,0.12,-1.00,3.17,1.71,3.36
8.3950,0.08,0.12,-0.98,2.99,1.65,3.66
8.4020,0.08,0.11,-1.00,3.11,1.83,2.99
8.4180,0.08,0.11,-1.01,3.23,2.08,2.81
8.4390,0.09,0.12,-0.97,3.05,2.26,2.75
8.4550,0.08,0.13,-1.00,3.11,2.01,3.85
8.4720,0.08,0.13,-0.98,3.23,1.59,4.82
8.4890,0.08,0.12,-0.99,2.87,1.46,5.62
8.5050,0.08,0.12,-0.99,2.50,1.53,5.62
8.5210,0.08,0.11,-0.99,2.93,1.95,4.76
8.5360,0.08,0.10,-1.00,3.05,2.20,3.91
8.5510,0.08,0.10,-0.98,2.99,2.14,3.78
8.5550,0.08,0.11,-1.00,2.81,1.95,3.60
8.5710,0.08,0.11,-0.99,3.11,1.89,3.11
8.5980,0.08,0.11,-0.99,3.05,2.20,2.81
8.6080,0.08,0.11,-0.99,3.11,2.14,2.14
8.6250,0.08,0.12,-0.99,3.30,1.77,1.83
8.6420,0.08,0.12,-0.99,3.11,2.20,2.01
8.6580,0.08,0.13,-0.99,3.11,1.53,2.99
8.6750,0.08,0.12,-0.99,2.99,2.20,3.11
8.6910,0.08,0.12,-0.99,2.93,2.08,4.03
8.7080,0.08,0.11,-0.99,2.81,1.53,4.70
8.7230,0.08,0.11,-0.99,3.17,1.77,3.78
8.7400,0.08,0.12,-0.99,2.69,1.65,4.39
8.7560,0.08,0.11,-0.99,2.81,1.46,4.70
8.7730,0.08,0.11,-0.99,2.62,1.83,4.27
8.7880,0.08,0.11,-0.99,2.62,1.65,3.91
8.8030,0.08,0.12,-0.99,2.99,1.59,3.78
8.8180,0.08,0.12,-0.99,3.30,1.53,3.54
8.8330,0.08,0.12,-1.00,2.99,1.71,4.09
8.8410,0.08,0.12,-0.99,3.17,1.46,4.15
8.8580,0.09,0.12,-0.98,2.87,1.71,4.46
8.8750,0.08,0.12,-0.99,2.50,2.32,4.88
8.8910,0.09,0.12,-0.99,2.87,2.32,5.00
8.9080,0.08,0.12,-1.00,2.93,1.59,5.19
8.9230,0.08,0.10,-0.99,3.36,1.71,4.52
8.9370,0.08,0.09,-0.99,3.36,2.20,3.78
8.9530,0.08,0.10,-0.99,3.11,2.08,3.05
8.9680,0.08,0.12,-0.99,3.11,2.14,3.17
8.9830,0.08,0.12,-0.99,3.17,1.83,3.72
8.9990,0.08,0.11,-0.98,3.05,1.83,3.78
9.0080,0.08,0.11,-1.00,2.81,2.01,3.66
9.0240,0.08,0.12,-0.98,2.87,1.95,3.72
9.0430,0.09,0.13,-0.99,3.17,1.89,4.27
9.0590,0.09,0.12,-0.99,3.23,1.40,4.76
9.0750,0.08,0.12,-0.98,2.87,1.83,4.03
9.0910,0.08,0.12,-0.99,2.99,1.77,3.60
9.1070,0.08,0.13,-0.99,2.87,1.71,3.78
9.1230,0.08,0.12,-0.99,3.17,1.46,4.70
9.1390,0.08,0.11,-0.99,3.17,1.53,5.49
9.1550,0.08,0.12,-0.99,2.87,1.40,5.86
9.1620,0.08,0.12,-0.99,2.75,1.59,5.31
9.1870,0.08,0.11,-1.00,2.81,1.65,4.09
9.2030,0.08,0.10,-1.00,3.30,1.65,3.60
9.2120,0.08,0.10,-1.00,3.11,1.83,3.05
9.2300,0.08,0.11,-1.00,3.23,2.14,3.17
9.2460,0.08,0.12,-0.99,3.23,1.71,4.03
9.2640,0.08,0.13,-0.99,2.81,2.20,5.07
9.2790,0.08,0.12,-0.99,2.87,1.89,4.76
9.2950,0.08,0.11,-1.00,3.05,1.95,4.21
9.3100,0.08,0.11,-0.99,3.17,1.71,4.15
9.3260,0.08,0.11,-0.99,2.99,1.95,4.15
9.3420,0.08,0.11,-0.99,2.26,1.89,4.52
9.3570,0.08,0.12,-0.99,2.81,1.83,3.78
9.3730,0.08,0.13,-0.99,2.75,1.71,4.58
9.3800,0.08,0.12,-0.99,2.87,1.83,5.00
9.3970,0.08,0.11,-0.99,2.87,1.95,5.13
9.4130,0.08,0.11,-0.99,3.05,1.59,4.46
9.4340,0.08,0.11,-0.99,2.87,1.46,4.27
9.4510,0.08,0.11,-0.98,2.93,1.71,4.21
9.4670,0.08,0.11,-0.99,2.99,2.14,3.66
9.4830,0.08,0.12,-0.99,2.81,2.01,2.81
9.4970,0.08,0.13,-0.99,2.87,2.26,2.99
9.5130,0.08,0.12,-0.99,3.11,1.89,3.17
9.5290,0.08,0.12,-0.99,3.17,2.14,3.72
9.5440,0.08,0.11,-0.99,3.17,1.83,3.91
9.5600,0.08,0.11,-0.99,3.17,1.89,4.09
9.5770,0.08,0.11,-0.99,2.99,1.89,3.91
9.5930,0.08,0.11,-0.99,3.05,1.77,3.11
9.6080,0.08,0.11,-0.97,2.99,2.01,2.69
9.6190,0.08,0.12,-1.00,2.93,2.20,3.48
9.6390,0.08,0.12,-0.98,2.87,1.89,3.85
9.6520,0.08,0.12,-0.99,2.87,1.77,4.46
9.6680,0.08,0.12,-1.00,2.81,1.95,4.70
9.6860,0.08,0.11,-0.99,3.05,1.71,3.91
9.7000,0.08,0.10,-0.99,2.87,1.95,3.54
9.7160,0.08,0.11,-1.00,3.17,2.14,2.93
9.7250,0.08,0.12,-0.99,2.87,2.14,3.72
9.7400,0.09,0.14,-0.99,2.93,1.89,4.64
9.7600,0.09,0.14,-0.98,2.38,1.71,7.20
9.7760,0.09,0.12,-0.99,2.93,1.95,6.84
9.7820,0.07,0.10,-1.00,2.87,1.65,5.00
9.8110,0.08,0.10,-0.99,2.69,1.46,5.62
9.8260,0.08,0.09,-0.99,3.30,1.59,4.64
9.8390,0.08,0.09,-1.00,2.99,1.83,3.11
9.8540,0.08,0.09,-1.00,2.99,2.14,1.40
9.8710,0.08,0.11,-0.99,3.54,1.83,1.59
9.8870,0.08,0.11,-0.99,3.72,2.20,1.71
9.9040,0.08,0.12,-0.99,3.48,2.20,1.65
9.9210,0.08,0.11,-0.99,3.23,2.08,1.65
9.9370,0.08,0.11,-0.99,3.30,2.14,1.65
9.9530,0.08,0.11,-0.99,3.17,2.32,1.71
9.9690,0.08,0.11,-0.99,3.23,2.14,1.53
9.9860,0.08,0.11,-0.99,3.36,2.38,1.71
9.9870,0.08,0.11,-0.99,3.36,2.26,1.71
10.0030,0.08,0.11,-0.99,3.23,2.44,1.77
10.0250,0.08,0.11,-0.99,3.42,2.08,1.65
10.0420,0.08,0.11,-0.99,3.36,2.32,1.77
10.0590,0.08,0.12,-0.99,3.17,2.08,1.71
10.0750,0.08,0.11,-0.99,3.48,2.26,1.77
10.0920,0.08,0.11,-0.99,3.48,2.08,1.77
10.1070,0.08,0.11,-0.99,3.66,1.95,1.46
10.1220,0.08,0.11,-0.99,3.54,2.38,1.83
10.1250,0.08,0.11,-0.99,3.30,1.83,1.59
10.1410,0.09,0.11,-0.98,3.42,1.83,1.59
10.1640,0.09,0.11,-0.98,3.23,2.14,1.59
10.1810,0.09,0.11,-0.98,3.17,2.08,1.59
10.1980,0.09,0.11,-0.99,3.42,2.26,1.59
10.2140,0.08,0.11,-0.99,3.30,2.20,1.77
10.2300,0.09,0.11,-0.99,3.17,2.38,1.65
10.2460,0.08,0.11,-0.99,3.54,2.26,1.65
10.2630,0.08,0.11,-0.99,3.60,1.95,1.65
10.2780,0.08,0.12,-0.99,2.99,2.01,1.46
10.2940,0.08,0.11,-0.99,2.93,2.01,1.71
10.3100,0.08,0.11,-0.99,3.30,2.08,1.65
10.3260,0.08,0.11,-0.99,3.36,1.89,1.71
10.3400,0.08,0.12,-0.99,3.23,1.89,1.59
10.3560,0.08,0.12,-0.99,3.30,2.26,1.53
10.3650,0.08,0.11,-0.99,2.99,1.77,1.65
10.3800,0.08,0.11,-0.99,2.93,2.01,1.65
10.4020,0.08,0.11,-0.99,3.05,2.01,1.71
10.4190,0.08,0.11,-0.99,3.23,2.50,1.71
10.4350,0.08,0.12,-1.00,3.60,2.08,1.65
10.4510,0.08,0.11,-0.99,3.66,1.83,1.65
10.4670,0.08,0.11,-0.99,3.11,2.20,1.59
10.4830,0.08,0.12,-1.00,3.48,1.89,1.53
10.4860,0.08,0.11,-0.98,3.78,2.20,1.71
10.5020,0.08,0.12,-1.00,3.78,1.89,1.65
10.5240,0.08,0.11,-0.99,3.66,2.08,1.71
10.5410,0.08,0.11,-0.98,3.60,2.26,1.65
10.5570,0.08,0.12,-0.99,3.48,2.20,1.53
10.5730,0.08,0.11,-0.99,3.60,2.01,1.71
10.5900,0.08,0.11,-0.99,3.42,2.26,1.59
10.6060,0.08,0.11,-0.99,3.66,2.20,1.71
10.6230,0.08,0.12,-0.99,3.72,2.32,1.77
10.6240,0.08,0.12,-0.99,3.36,2.32,1.59
10.6410,0.08,0.12,-0.99,3.78,1.89,1.71
10.6580,0.08,0.11,-0.99,3.36,2.26,1.83
10.6730,0.08,0.12,-0.99,3.66,1.95,1.71
10.6900,0.08,0.12,-0.99,3.42,2.26,1.71
10.7060,0.08,0.12,-0.99,3.36,2.20,1.71
10.7270,0.08,0.12,-0.99,3.48,1.59,1.53
10.7440,0.08,0.12,-0.99,3.66,1.53,1.22
10.7610,0.08,0.12,-0.99,3.54,1.89,0.98
10.7770,0.08,0.12,-0.99,3.91,2.14,0.61
10.7940,0.08,0.11,-0.99,4.09,1.83,0.98
10.7950,0.08,0.11,-0.99,3.91,2.08,0.92
10.8260,0.08,0.12,-0.99,3.66,1.71,1.10
10.8420,0.08,0.12,-0.99,3.85,2.26,0.79
10.8580,0.08,0.12,-0.99,4.21,1.77,0.67
10.8600,0.08,0.11,-0.99,3.60,1.95,0.73
10.8760,0.08,0.12,-0.99,3.42,2.01,1.59
10.8990,0.08,0.12,-0.99,3.30,1.89,1.46
10.9160,0.08,0.11,-0.99,3.05,2.08,1.59
10.9320,0.08,0.12,-0.99,3.48,2.44,1.65
10.9490,0.08,0.12,-0.98,3.17,2.56,1.53
10.9640,0.08,0.12,-1.00,2.87,2.20,1.59
10.9800,0.08,0.12,-0.99,2.50,2.56,1.71
10.9960,0.08,0.11,-0.98,3.05,2.38,1.71
11.0120,0.08,0.12,-0.99,3.05,2.50,1.77
11.0150,0.08,0.12,-0.99,3.36,2.56,1.77
11.0410,0.09,0.12,-0.99,3.54,2.32,1.65
11.0540,0.08,0.12,-0.99,3.60,2.32,1.65
11.0710,0.08,0.11,-0.98,3.23,2.14,1.71
11.0870,0.08,0.12,-0.99,3.17,2.38,1.71
11.1050,0.08,0.11,-0.99,3.23,2.26,1.65
11.1200,0.08,0.12,-0.99,3.42,2.14,1.65
11.1370,0.08,0.12,-0.99,3.23,2.38,1.77
11.1530,0.08,0.12,-0.99,3.23,2.38,1.71
11.1690,0.08,0.11,-0.99,3.17,2.26,1.65
11.1850,0.08,0.12,-0.99,3.42,2.14,1.71
11.2010,0.08,0.12,-1.00,3.48,1.95,1.71
11.2170,0.08,0.12,-0.99,3.42,2.32,1.83
11.2320,0.09,0.12,-0.99,3.48,2.26,1.65
11.2410,0.09,0.12,-0.99,3.17,2.14,1.77
11.2530,0.09,0.11,-0.98,3.30,1.95,1.59
11.2740,0.09,0.11,-0.98,3.17,2.56,1.77
11.2910,0.09,0.11,-0.98,3.30,2.38,1.77
11.3090,0.09,0.11,-0.98,3.36,2.38,1.71
11.3240,0.09,0.11,-0.98,3.23,2.38,1.71
11.3400,0.08,0.11,-0.98,3.30,2.44,1.71
11.3570,0.08,0.11,-0.98,3.17,2.44,1.71
11.3720,0.08,0.11,-0.99,3.17,2.14,1.53
11.3740,0.08,0.12,-0.99,3.11,2.56,1.71
11.3900,0.08,0.11,-0.99,3.36,2.32,1.71
11.4220,0.08,0.12,-1.00,3.36,2.81,1.89
11.4240,0.08,0.12,-0.99,2.99,2.32,1.77
11.4410,0.08,0.12,-1.00,3.11,2.32,1.65
11.4670,0.08,0.11,-0.98,3.11,2.56,1.71
11.4780,0.09,0.14,-1.01,3.17,2.38,1.59
11.4950,0.08,0.10,-0.98,2.81,2.44,1.65
11.5120,0.08,0.12,-1.00,3.60,2.14,1.71
11.5280,0.08,0.11,-0.98,3.30,2.08,1.65
11.5430,0.08,0.12,-1.00,3.30,2.20,1.77
11.5600,0.08,0.11,-0.98,3.23,2.38,1.71
11.5760,0.08,0.12,-1.00,3.30,2.69,1.83
11.5920,0.08,0.11,-0.98,3.23,2.38,1.65
11.6080,0.08,0.12,-0.99,3.30,2.38,1.77
11.6120,0.08,0.11,-0.98,3.30,2.01,1.77
11.6280,0.08,0.11,-0.99,3.36,2.26,1.65
11.6500,0.08,0.11,-0.98,3.30,2.32,1.46
11.6670,0.08,0.12,-0.99,3.30,2.14,1.46
11.6830,0.08,0.12,-0.99,3.23,2.26,1.65
11.7000,0.08,0.11,-0.99,3.42,1.95,1.34
11.7170,0.08,0.12,-0.99,3.60,2.32,1.04
11.7330,0.08,0.12,-0.99,3.54,2.01,1.22
11.7490,0.08,0.11,-0.99,3.36,2.38,1.04
11.7650,0.08,0.12,-0.99,3.36,2.56,0.73
11.7810,0.08,0.12,-0.98,3.17,2.20,1.04
11.7840,0.09,0.11,-0.98,3.17,1.83,1.34
11.8000,0.08,0.11,-0.98,3.23,2.01,1.28
11.8230,0.08,0.11,-0.98,3.23,2.38,0.92
11.8420,0.08,0.11,-0.98,3.30,2.32,1.10
11.8560,0.08,0.11,-0.98,3.17,2.50,1.46
11.8730,0.08,0.11,-0.98,3.23,2.44,1.71
11.8890,0.09,0.11,-0.98,3.05,2.44,1.65
11.9060,0.08,0.11,-0.99,3.17,2.20,1.65
11.9230,0.08,0.11,-0.99,3.23,1.53,1.59
11.9380,0.08,0.11,-0.99,3.05,2.08,1.53
11.9540,0.07,0.08,-0.97,1.40,2.50,0.85
11.9700,0.08,0.11,-0.99,3.36,2.26,1.10
11.9870,0.08,0.12,-0.98,3.17,1.71,1.71
12.0020,0.08,0.11,-0.98,3.23,2.20,1.59
12.0170,0.08,0.12,-1.00,3.05,2.14,1.71
12.0220,0.08,0.11,-0.98,3.23,2.38,1.77
12.0430,0.08,0.12,-1.00,3.48,2.44,1.71
12.0600,0.08,0.11,-0.99,2.93,2.01,1.71
12.0750,0.08,0.12,-1.01,3.23,2.20,1.65
12.0920,0.08,0.11,-0.98,3.36,2.08,1.65
12.1090,0.08,0.12,-1.00,3.30,2.08,1.53
12.1260,0.08,0.11,-0.99,3.48,2.08,1.65
12.1410,0.08,0.12,-0.99,3.30,2.14,1.65
12.1440,0.08,0.11,-0.99,3.36,1.95,1.59
12.1590,0.08,0.11,-0.99,3.17,2.20,1.71
12.1750,0.08,0.11,-0.98,3.05,2.38,1.71
12.1970,0.08,0.11,-0.98,3.36,2.20,1.53
12.2140,0.09,0.11,-0.97,3.36,2.20,1.65
12.2300,0.09,0.10,-0.96,3.05,2.14,1.53
12.2460,0.09,0.11,-0.98,2.87,2.38,1.59
12.2640,0.08,0.11,-0.98,3.23,2.44,1.65
12.2790,0.08,0.11,-0.98,3.30,1.95,1.59
12.2960,0.09,0.11,-0.98,3.23,1.71,1.65
12.3120,0.08,0.11,-0.98,3.30,2.14,1.65
12.3280,0.09,0.11,-0.99,3.23,2.26,1.65
12.3440,0.08,0.11,-0.99,3.30,1.65,1.65
12.3600,0.09,0.11,-0.97,3.36,2.38,1.65
12.3760,0.09,0.12,-1.00,3.36,2.14,1.59
12.3920,0.08,0.11,-0.98,3.30,2.14,1.65
12.4070,0.09,0.11,-0.99,3.30,1.59,1.71
12.4230,0.09,0.11,-0.99,3.42,1.83,1.53
12.4380,0.08,0.11,-0.98,3.23,1.89,1.71
12.4470,0.09,0.11,-1.00,3.23,2.44,1.77
12.4620,0.08,0.11,-0.98,3.23,2.26,1.71
12.4840,0.08,0.12,-1.00,3.30,2.14,1.65
12.4990,0.08,0.12,-1.00,3.17,2.14,1.53
12.5150,0.08,0.11,-0.97,3.17,2.08,1.53
12.5300,0.09,0.12,-1.01,3.30,2.08,1.65
12.5460,0.08,0.11,-0.97,3.23,2.44,1.65
12.5630,0.09,0.12,-1.00,3.30,2.26,1.71
12.5780,0.08,0.11,-0.98,3.36,2.44,1.71
12.5850,0.09,0.11,-0.99,3.42,1.77,1.59
12.6010,0.07,0.12,-0.99,3.30,2.14,1.53
12.6240,0.08,0.11,-0.97,3.11,2.14,1.59
12.6240,0.09,0.12,-1.01,3.30,1.95,1.65
12.6430,0.07,0.11,-0.98,3.17,2.38,1.77
12.6580,0.09,0.11,-0.99,3.54,1.89,1.71
12.6740,0.08,0.11,-0.99,3.30,2.08,1.77
12.6890,0.08,0.11,-0.98,3.54,1.53,1.71
12.7140,0.08,0.12,-1.00,3.42,2.14,1.71
12.7260,0.08,0.12,-1.00,3.23,2.14,1.65
12.7430,0.08,0.11,-0.99,3.36,2.14,1.71
12.7590,0.08,0.12,-1.00,3.17,2.44,1.83
12.7760,0.08,0.11,-1.00,3.17,2.32,1.77
12.7910,0.08,0.12,-0.99,3.30,2.32,1.77
12.8090,0.08,0.12,-0.99,3.30,2.56,1.83
12.8240,0.08,0.11,-0.99,3.36,2.20,1.71
12.8410,0.08,0.11,-0.99,3.17,2.56,1.77
12.8570,0.08,0.11,-0.99,3.36,2.26,1.77
12.8730,0.08,0.11,-0.99,3.30,2.26,1.71
12.8870,0.08,0.11,-0.99,3.36,2.32,1.65
12.8930,0.08,0.11,-0.98,3.42,2.20,1.65
12.9080,0.09,0.11,-0.99,3.23,2.32,1.59
12.9310,0.08,0.11,-0.98,3.36,2.26,1.77
12.9480,0.09,0.11,-0.98,3.11,2.44,1.71
12.9640,0.09,0.11,-0.99,3.36,2.01,1.65
12.9800,0.08,0.11,-0.99,3.17,2.32,1.65
12.9960,0.09,0.11,-0.97,3.17,2.44,1.71
13.0120,0.09,0.11,-1.00,3.17,2.62,1.71
13.0150,0.08,0.10,-0.96,3.30,2.26,1.71
13.0310,0.09,0.12,-1.00,3.23,2.20,1.53
13.0530,0.08,0.11,-0.97,3.36,2.20,1.83
13.0690,0.09,0.11,-0.99,3.23,2.38,1.65
13.0850,0.08,0.12,-1.02,3.36,2.08,1.71
13.1020,0.08,0.11,-0.96,3.11,2.14,1.65
13.1190,0.09,0.12,-1.01,3.23,2.62,1.71
13.1350,0.07,0.11,-0.98,3.42,2.01,1.71
13.1520,0.09,0.12,-0.99,3.36,2.20,1.77
13.1670,0.08,0.11,-0.98,3.11,2.20,1.71
13.1840,0.08,0.11,-0.99,3.42,2.38,1.71
13.2000,0.08,0.11,-0.99,3.23,2.26,1.83
13.2150,0.08,0.11,-0.98,3.42,2.20,1.77
13.2300,0.08,0.12,-0.99,3.30,2.14,1.71
13.2460,0.08,0.11,-0.99,3.48,1.83,1.83
13.2620,0.08,0.11,-0.98,3.54,2.01,1.83
13.2780,0.08,0.11,-0.99,3.30,2.44,1.77
13.2930,0.08,0.11,-0.99,3.42,2.75,1.77
13.3080,0.08,0.11,-0.99,3.36,2.50,1.77
13.3190,0.08,0.12,-1.00,3.54,2.32,1.83
13.3360,0.08,0.11,-0.99,3.30,2.20,1.65
13.3520,0.08,0.11,-0.99,3.42,2.20,1.83
13.3690,0.08,0.11,-0.98,3.42,2.08,1.65
13.3850,0.09,0.11,-0.98,3.42,1.95,1.65
13.4020,0.09,0.11,-0.98,3.30,2.32,1.77
13.4180,0.09,0.11,-0.98,3.42,2.26,1.77
13.4340,0.09,0.11,-0.98,3.36,2.32,1.77
13.4500,0.09,0.11,-0.98,3.48,2.01,1.71
13.4640,0.09,0.11,-0.98,3.36,2.50,1.71
13.4800,0.09,0.11,-0.98,3.42,2.26,1.77
13.4850,0.09,0.11,-0.98,3.42,2.08,1.59
13.5010,0.09,0.11,-0.98,3.36,2.01,1.77
13.5230,0.09,0.11,-0.99,3.36,1.95,1.71
13.5410,0.08,0.11,-0.99,3.48,2.01,1.71
13.5570,0.08,0.12,-0.99,3.42,2.20,1.59
13.5570,0.08,0.12,-1.00,3.36,2.38,1.83
13.5730,0.08,0.12,-1.00,3.17,2.32,1.83
13.5910,0.08,0.11,-0.99,3.48,2.01,1.65
13.6200,0.08,0.11,-0.98,3.42,2.32,1.71
13.6240,0.08,0.11,-0.98,3.11,2.56,1.65
13.6440,0.08,0.11,-0.99,3.48,2.20,1.77
13.6630,0.08,0.11,-0.99,3.42,2.01,1.59
13.6790,0.08,0.11,-0.99,3.36,2.01,1.59
13.6950,0.08,0.11,-0.99,3.23,2.01,1.77
13.7120,0.08,0.11,-0.99,3.23,2.50,1.77
13.7280,0.08,0.12,-0.99,3.30,1.83,1.77
13.7430,0.08,0.11,-0.99,3.36,1.89,1.77
13.7600,0.08,0.11,-0.99,3.36,1.83,1.71
13.7750,0.08,0.11,-0.99,3.23,2.38,1.71
13.7910,0.08,0.11,-0.99,3.36,2.32,1.71
13.8070,0.08,0.11,-1.00,3.42,2.08,1.65
13.8210,0.08,0.11,-0.99,3.30,2.38,1.65
13.8280,0.08,0.11,-0.99,3.60,2.20,1.77
13.8440,0.08,0.11,-1.00,3.36,2.32,1.89
13.8660,0.08,0.11,-0.99,3.23,2.01,1.71
13.8830,0.09,0.11,-0.99,3.30,2.08,1.71
13.8990,0.08,0.11,-0.99,3.48,2.01,1.71
13.9150,0.08,0.11,-0.98,3.30,2.26,1.65
13.9300,0.08,0.12,-0.99,3.23,2.56,1.77
13.9460,0.08,0.11,-0.99,3.42,2.01,1.77
13.9610,0.08,0.11,-0.99,3.54,1.95,1.71
13.9660,0.08,0.11,-0.99,3.30,2.38,1.89
13.9810,0.08,0.11,-0.99,3.42,1.89,1.89
14.0020,0.08,0.11,-0.98,3.60,1.53,1.53
14.0190,0.08,0.11,-0.99,3.48,1.65,1.71
14.0350,0.08,0.11,-0.99,3.48,1.71,1.83
14.0520,0.08,0.12,-0.99,3.60,1.71,1.59
14.0690,0.08,0.11,-0.99,3.48,2.14,1.77
14.0840,0.08,0.11,-0.99,3.42,2.44,1.77
14.0990,0.08,0.11,-0.99,3.42,2.08,1.71
14.1150,0.08,0.11,-0.99,3.42,1.95,1.53
14.1300,0.08,0.11,-0.99,3.30,2.14,1.77
14.1460,0.08,0.11,-0.99,3.36,2.01,1.71
14.1620,0.08,0.11,-0.99,3.11,2.26,1.77
14.1700,0.08,0.11,-0.99,3.48,2.26,1.83
14.1850,0.08,0.11,-0.99,3.23,1.95,1.59
14.2080,0.08,0.11,-0.99,3.48,2.08,1.71
14.2220,0.08,0.11,-0.99,3.48,2.38,1.77
14.2390,0.08,0.11,-0.99,3.42,2.01,1.71
14.2550,0.08,0.11,-0.97,3.42,2.32,1.77
14.2700,0.08,0.11,-0.99,3.23,1.95,1.83
14.2740,0.09,0.11,-0.97,3.30,2.32,1.77
14.2900,0.09,0.11,-0.98,3.30,2.62,1.71
14.3160,0.08,0.11,-0.99,3.42,2.26,1.71
14.3290,0.08,0.11,-0.99,3.23,1.83,1.71
14.3450,0.08,0.12,-1.00,3.23,1.89,1.65
14.3610,0.08,0.11,-0.98,3.54,2.08,1.71
14.3770,0.08,0.11,-1.00,3.48,2.08,1.71
14.3930,0.08,0.11,-0.98,3.36,2.08,1.59
14.4090,0.08,0.11,-0.99,3.23,1.77,1.71
14.4240,0.08,0.12,-1.00,3.11,2.01,1.71
14.4280,0.08,0.11,-0.99,3.48,1.83,1.59
14.4450,0.08,0.11,-0.99,3.36,2.08,1.65
14.4660,0.08,0.11,-0.99,3.42,1.95,1.71
14.4830,0.08,0.12,-0.99,3.48,2.01,1.65
14.4990,0.08,0.12,-1.00,3.36,1.95,1.71
14.5140,0.08,0.11,-0.99,3.42,1.77,1.77
14.5300,0.08,0.11,-0.98,3.23,2.44,1.71
14.5460,0.08,0.11,-0.99,3.48,2.14,1.77
14.5610,0.08,0.11,-0.98,3.36,2.26,1.65
14.5660,0.08,0.12,-1.00,3.30,2.08,1.71
14.5820,0.08,0.11,-0.98,3.30,2.08,1.77
14.6050,0.08,0.11,-0.99,3.17,2.01,1.77
14.6210,0.08,0.12,-1.00,3.23,2.38,1.71
14.6380,0.08,0.11,-0.98,3.11,1.83,1.77
14.6540,0.08,0.11,-0.98,3.30,2.08,1.65
14.6700,0.08,0.12,-1.00,3.17,2.38,1.71
14.6860,0.08,0.11,-0.98,3.48,1.77,1.65
14.7020,0.08,0.12,-1.00,3.23,1.83,1.65
14.7180,0.08,0.12,-0.99,3.36,2.14,1.71
14.7220,0.08,0.11,-0.98,3.60,1.95,1.65
14.7460,0.08,0.11,-0.99,3.42,1.95,1.53
14.7640,0.08,0.12,-1.00,3.42,1.83,1.59
14.7750,0.08,0.11,-0.99,3.23,2.08,1.53
14.7930,0.08,0.11,-0.99,3.30,2.01,1.59
14.8080,0.08,0.11,-0.99,3.36,2.14,1.71
14.8250,0.08,0.11,-0.99,3.23,2.01,1.59
14.8420,0.08,0.12,-0.99,3.17,2.08,1.71
14.8580,0.08,0.11,-0.99,3.11,1.95,1.77
14.8740,0.08,0.11,-0.99,3.17,1.77,1.65
14.8900,0.08,0.11,-0.99,3.30,1.89,1.59
14.9060,0.08,0.11,-0.99,3.36,1.95,2.01
14.9210,0.08,0.11,-0.99,3.23,2.20,1.77
14.9250,0.08,0.11,-0.99,3.42,2.01,1.71
14.9460,0.08,0.12,-0.99,3.48,1.77,1.59
14.9650,0.08,0.11,-0.99,3.42,2.20,1.59
14.9810,0.08,0.11,-0.99,3.60,1.71,1.77
14.9960,0.08,0.11,-0.98,3.60,1.65,1.71
15.0120,0.08,0.12,-0.99,3.72,1.83,1.83
15.0280,0.08,0.11,-0.99,3.66,2.01,1.65
15.0440,0.08,0.12,-1.00,3.54,1.95,1.59
15.0590,0.08,0.11,-0.99,3.66,2.20,1.59
15.0750,0.08,0.11,-0.99,3.91,1.59,1.77
15.0900,0.08,0.11,-0.99,4.33,1.77,1.83
15.1050,0.08,0.12,-0.99,4.09,1.89,1.71
15.1150,0.08,0.12,-1.00,4.21,1.59,1.65
15.1310,0.08,0.12,-0.99,4.09,2.01,1.65
15.1510,0.08,0.11,-0.98,3.97,1.89,1.77
15.1660,0.08,0.12,-0.99,3.78,1.83,1.59
15.1820,0.09,0.12,-0.99,3.78,1.89,1.59
15.1970,0.08,0.11,-0.98,4.15,1.65,1.89
15.2120,0.08,0.12,-0.99,3.91,2.14,1.59
15.2280,0.08,0.11,-0.99,3.42,2.14,1.71
15.2430,0.08,0.11,-0.99,3.23,2.38,1.65
15.2570,0.08,0.12,-0.99,3.36,1.89,1.46
15.2680,0.08,0.12,-0.99,3.05,2.38,1.65
15.2850,0.08,0.12,-0.99,2.75,2.44,1.65
15.3010,0.10,0.12,-0.99,2.38,2.56,1.46
15.3180,0.08,0.12,-0.99,1.89,2.75,1.53
15.3340,0.08,0.12,-0.99,1.95,2.56,1.53
15.3490,0.08,0.11,-0.99,1.89,2.32,1.71
15.3640,0.07,0.08,-0.95,0.98,3.66,1.46
15.3800,0.08,0.11,-0.99,3.23,2.08,1.40
15.3850,0.08,0.12,-1.00,3.05,2.14,1.53
15.4000,0.07,0.12,-1.00,3.11,2.01,1.53
15.4220,0.07,0.12,-1.01,3.23,1.95,1.59
15.4380,0.07,0.12,-1.00,3.30,2.26,1.65
15.4550,0.07,0.12,-1.00,3.48,1.89,1.71
15.4720,0.08,0.12,-1.00,3.23,2.08,1.59
15.4880,0.08,0.12,-0.99,3.17,1.71,1.65
15.5030,0.08,0.11,-0.99,3.23,2.20,1.53
15.5190,0.08,0.11,-0.98,3.17,2.01,1.53
15.5210,0.08,0.11,-0.98,3.11,2.26,1.71
15.5470,0.08,0.11,-0.98,3.23,2.01,1.59
15.5590,0.09,0.11,-0.98,3.11,2.20,1.71
15.5760,0.09,0.11,-0.98,3.30,2.32,1.65
15.5920,0.09,0.11,-0.98,3.23,2.08,1.59
15.6090,0.09,0.11,-0.98,3.42,2.01,1.59
15.6250,0.09,0.12,-1.00,3.17,2.08,1.71
15.6420,0.08,0.11,-0.96,3.42,1.83,1.53
15.6580,0.09,0.12,-1.01,3.30,2.01,1.83
15.6740,0.08,0.11,-0.97,3.48,2.26,1.83
15.6900,0.08,0.12,-1.01,3.36,2.32,1.83
15.7050,0.08,0.11,-0.99,3.48,1.89,1.65
15.7090,0.08,0.12,-1.01,3.11,2.01,1.83
15.7250,0.08,0.11,-0.98,3.23,2.01,1.77
15.7500,0.08,0.12,-1.01,3.11,2.01,1.89
15.7660,0.08,0.11,-0.98,3.42,2.14,1.83
15.7810,0.08,0.12,-1.00,3.54,1.83,1.53
15.7970,0.08,0.11,-0.98,3.42,2.08,1.71
15.8130,0.08,0.12,-1.00,3.36,2.14,1.77
15.8330,0.08,0.11,-0.98,3.30,2.08,1.83
15.8480,0.08,0.11,-0.99,3.42,1.71,1.77
15.8630,0.08,0.11,-0.98,3.48,2.44,1.77
15.8650,0.08,0.12,-0.99,3.42,2.56,1.77
15.8810,0.08,0.11,-0.99,3.30,2.20,1.71
15.9040,0.08,0.11,-0.98,3.42,2.26,1.77
15.9200,0.08,0.11,-0.98,3.30,2.01,1.71
15.9370,0.08,0.11,-0.98,3.17,2.32,1.71
15.9540,0.09,0.11,-0.98,3.42,1.83,1.83
15.9690,0.09,0.11,-0.98,3.23,2.26,1.65
15.9860,0.09,0.11,-0.98,3.23,2.08,1.77
16.0030,0.09,0.11,-0.98,3.23,2.14,1.89
16.0190,0.09,0.11,-0.98,3.11,2.32,1.77
16.0350,0.09,0.11,-0.98,3.17,2.14,1.77
16.0510,0.08,0.11,-0.99,3.36,2.08,1.77
16.0530,0.08,0.11,-0.99,3.54,2.14,1.77
16.0690,0.08,0.11,-0.99,3.36,2.20,1.89
16.0920,0.08,0.12,-0.99,3.36,1.95,1.71
16.1070,0.08,0.11,-0.98,3.36,1.95,1.71
16.1250,0.08,0.12,-1.00,3.17,1.95,1.71
16.1410,0.08,0.11,-0.98,3.30,1.95,1.59
16.1570,0.09,0.12,-1.00,3.11,1.89,1.59
16.1740,0.08,0.11,-0.97,3.48,2.01,1.46
16.1900,0.09,0.12,-1.00,3.36,1.77,1.65
16.2070,0.08,0.11,-0.97,3.17,1.83,1.65
16.2230,0.08,0.12,-1.00,3.23,1.59,1.53
16.2390,0.08,0.11,-0.98,3.23,1.89,1.71
16.2550,0.08,0.11,-0.99,3.42,2.01,1.59
16.2690,0.08,0.11,-0.99,3.36,1.59,1.65
16.2850,0.08,0.12,-0.99,3.23,2.26,1.59
16.3010,0.08,0.11,-0.99,3.17,2.20,1.71
16.3170,0.08,0.11,-1.00,3.17,2.20,1.77
16.3320,0.08,0.11,-0.99,3.05,2.32,1.77
16.3470,0.08,0.11,-0.99,3.11,2.38,1.65
16.3580,0.08,0.11,-0.98,3.17,2.38,1.83
16.3730,0.08,0.11,-0.99,3.23,2.01,1.77
16.3930,0.08,0.11,-0.98,3.30,1.89,1.59
16.4090,0.09,0.11,-0.98,3.54,1.83,1.65
16.4250,0.08,0.11,-0.98,3.30,1.53,1.71
16.4390,0.08,0.11,-0.99,2.99,2.01,1.71
16.4480,0.08,0.11,-0.99,3.05,2.20,1.65
16.4620,0.08,0.11,-0.99,3.11,2.20,1.65
16.4840,0.08,0.12,-1.00,3.42,2.01,1.59
16.5000,0.08,0.12,-1.00,3.42,1.77,1.77
16.5160,0.08,0.12,-1.00,3.36,1.71,1.71
16.5320,0.08,0.11,-0.99,3.23,2.08,1.65
16.5350,0.08,0.11,-1.00,3.42,1.95,1.71
16.5620,0.08,0.11,-0.99,3.23,2.20,1.59
16.5770,0.08,0.12,-1.00,3.23,2.14,1.71
16.5930,0.08,0.12,-1.00,3.17,1.95,1.65
16.6080,0.08,0.12,-1.00,3.30,2.50,1.71
16.6200,0.08,0.11,-0.98,3.17,2.14,1.77
16.6370,0.08,0.12,-1.00,3.23,2.38,1.65
16.6530,0.08,0.12,-1.00,3.30,1.89,1.71
16.6690,0.08,0.11,-0.97,3.42,1.77,1.65
16.6860,0.08,0.12,-1.01,3.30,2.14,1.59
16.7020,0.08,0.11,-0.97,3.30,1.89,1.77
16.7190,0.09,0.12,-1.01,3.30,2.20,1.77
16.7340,0.08,0.11,-0.97,3.36,2.32,1.71
16.7490,0.09,0.12,-1.00,3.17,1.89,1.59
16.7650,0.08,0.11,-0.98,3.30,2.08,1.77
16.7790,0.08,0.11,-0.97,3.23,2.08,1.65
16.7940,0.09,0.12,-1.01,3.17,2.44,1.65
16.8030,0.08,0.11,-0.97,3.17,2.38,1.71
16.8180,0.08,0.12,-1.00,3.36,2.08,1.65
16.8400,0.08,0.12,-1.00,3.36,1.95,1.71
16.8570,0.08,0.11,-0.98,3.17,1.83,1.77
16.8730,0.08,0.11,-0.99,3.36,2.14,1.65
16.8750,0.08,0.11,-0.99,3.42,2.14,1.65
16.8910,0.08,0.11,-0.98,3.36,1.77,1.71
16.9150,0.08,0.11,-0.99,3.30,2.38,1.83
16.9310,0.08,0.11,-0.98,3.23,2.20,1.71
16.9490,0.08,0.11,-0.99,3.11,2.26,1.77
16.9640,0.08,0.11,-0.99,3.23,2.14,1.65
16.9800,0.08,0.11,-0.99,3.30,1.95,1.71
16.9960,0.08,0.11,-0.99,3.36,2.14,1.71
17.0120,0.08,0.11,-0.99,3.42,2.56,1.83
17.0280,0.08,0.11,-0.99,3.48,2.20,1.59
17.0420,0.08,0.11,-0.99,3.11,2.14,1.77
17.0570,0.08,0.12,-0.99,3.17,2.26,1.83
17.0640,0.08,0.11,-0.99,3.42,1.83,1.89
17.0800,0.08,0.11,-0.99,3.36,2.08,1.83
17.1030,0.08,0.11,-0.99,3.60,2.20,1.65
17.1190,0.08,0.12,-1.01,3.42,2.32,1.71
17.1360,0.08,0.12,-1.00,3.30,2.26,1.77
17.1520,0.08,0.12,-1.01,3.23,2.38,1.83
17.1690,0.07,0.12,-1.00,3.36,2.26,1.71
17.1850,0.08,0.11,-0.99,3.36,2.20,1.65
17.2010,0.08,0.12,-1.02,3.30,2.26,1.65
17.2170,0.08,0.11,-0.97,3.72,2.08,1.65
17.2320,0.09,0.11,-1.00,3.30,2.26,1.46
17.2460,0.07,0.12,-0.99,3.23,2.01,1.22
17.2520,0.09,0.10,-0.98,3.30,2.08,1.59
17.2680,0.09,0.11,-1.00,2.93,2.32,1.65
17.2910,0.07,0.12,-0.98,3.30,2.32,1.65
17.3070,0.09,0.11,-0.99,3.23,2.44,1.83
17.3240,0.08,0.12,-0.99,3.30,2.38,1.77
17.3410,0.08,0.11,-0.98,3.30,2.38,1.83
17.3570,0.08,0.11,-1.00,3.30,2.20,1.65
17.3740,0.08,0.11,-0.98,3.30,2.56,1.83
17.3890,0.08,0.11,-0.99,3.36,2.20,1.65
17.4060,0.08,0.11,-0.99,3.23,2.56,1.59
17.4220,0.08,0.11,-0.99,3.30,2.20,1.65
17.4390,0.08,0.11,-0.99,3.42,2.01,1.65
17.4550,0.08,0.11,-0.98,3.30,1.95,1.53
17.4570,0.09,0.11,-0.98,3.17,2.38,1.22
17.4730,0.08,0.11,-0.98,3.30,2.38,0.98
17.4960,0.09,0.11,-0.98,3.54,1.89,0.98
17.5130,0.08,0.11,-0.98,3.23,2.01,1.59
17.5300,0.09,0.11,-0.98,3.05,2.20,1.65
17.5460,0.09,0.11,-0.98,3.23,2.14,1.77
17.5620,0.09,0.11,-0.99,3.30,1.65,1.65
17.5780,0.08,0.11,-0.99,3.11,2.01,1.77
17.5930,0.08,0.11,-0.99,3.66,1.83,1.59
17.6090,0.08,0.12,-1.00,3.48,1.83,1.65
17.6250,0.08,0.12,-1.00,3.42,2.26,1.83
17.6410,0.08,0.12,-1.00,3.11,2.56,1.77
17.6500,0.08,0.11,-0.99,3.54,1.77,1.65
17.6730,0.08,0.11,-1.00,3.54,1.83,1.77
17.6890,0.08,0.11,-1.00,3.48,1.89,1.71
17.6960,0.08,0.12,-1.00,3.17,2.08,1.65
17.7120,0.08,0.11,-1.00,3.05,1.89,1.71
17.7330,0.08,0.11,-0.99,3.17,1.83,1.77
17.7500,0.08,0.11,-0.99,3.36,2.20,1.83
17.7650,0.08,0.11,-0.99,3.30,2.26,1.65
17.7820,0.08,0.11,-0.99,3.36,2.32,1.71
17.7990,0.08,0.11,-0.99,3.17,2.32,1.71
17.8140,0.08,0.11,-0.99,3.11,2.50,1.83
17.8290,0.08,0.11,-0.99,3.30,2.26,1.65
17.8440,0.08,0.11,-0.99,3.48,2.32,1.71
17.8600,0.08,0.11,-0.99,3.30,2.26,1.71
17.8750,0.08,0.11,-1.00,3.05,2.20,1.53
17.8900,0.08,0.11,-0.99,3.23,2.26,1.59
17.9050,0.08,0.11,-0.99,3.23,2.20,1.59
17.9150,0.08,0.12,-0.99,3.30,2.69,1.53
17.9330,0.09,0.12,-0.99,4.27,2.38,-0.37
17.9500,0.08,0.11,-0.99,3.78,2.26,-2.62
17.9650,0.08,0.11,-1.00,3.91,2.81,-2.69
17.9820,0.08,0.11,-0.99,3.66,2.50,-1.71
18.0000,0.08,0.11,-0.99,3.60,2.69,-2.01
18.0150,0.08,0.11,-0.99,3.85,2.81,-1.77
18.0310,0.07,0.11,-0.99,4.21,2.87,-2.50
18.0450,0.07,0.11,-0.99,3.78,2.08,-0.85
18.0610,0.08,0.11,-0.99,3.48,2.26,0.31
18.0660,0.08,0.11,-0.99,3.48,2.08,1.34
18.0820,0.08,0.11,-0.99,3.42,2.32,1.59
18.1050,0.09,0.12,-0.99,3.48,2.56,1.28
18.1220,0.09,0.12,-0.99,3.48,2.75,-0.73
18.1380,0.07,0.11,-0.99,3.48,2.56,-0.92
18.1540,0.08,0.11,-0.99,3.17,2.44,0.73
18.1700,0.08,0.11,-0.99,3.11,1.89,1.40
18.1860,0.08,0.12,-0.99,3.05,2.26,1.28
18.1880,0.09,0.11,-0.99,3.48,2.44,1.28
18.2040,0.08,0.11,-0.99,3.42,2.32,0.55
18.2270,0.08,0.11,-0.99,3.66,2.20,1.28
18.2430,0.08,0.11,-0.99,3.54,1.71,1.65
18.2600,0.09,0.11,-0.99,3.54,2.08,1.46
18.2770,0.09,0.11,-0.99,3.48,2.32,0.85
18.2930,0.08,0.11,-0.99,3.60,2.32,0.49
18.3100,0.08,0.11,-0.99,3.60,2.38,0.85
18.3250,0.08,0.11,-0.99,3.72,2.01,0.92
18.3270,0.09,0.11,-0.99,3.66,2.50,0.12
18.3570,0.08,0.12,-0.99,4.03,2.38,-0.73
18.3720,0.08,0.12,-0.99,3.72,2.14,-0.49
18.3880,0.08,0.11,-0.99,3.72,2.50,-0.49
18.4040,0.08,0.12,-0.99,3.97,2.56,-0.79
18.4200,0.08,0.12,-0.99,3.91,2.69,-1.83
18.4270,0.07,0.13,-1.00,3.72,2.87,-0.79
18.4470,0.08,0.12,-1.00,3.23,2.56,1.40
18.4630,0.08,0.12,-1.00,3.17,2.38,1.65
18.4800,0.08,0.11,-1.00,3.30,2.38,1.22
18.4830,0.08,0.12,-0.99,3.11,2.87,0.98
18.5100,0.08,0.11,-0.99,3.05,2.38,1.28
18.5260,0.08,0.11,-1.00,3.23,2.50,1.53
18.5410,0.09,0.11,-0.99,3.60,2.26,0.85
18.5560,0.08,0.12,-0.99,3.54,2.32,-0.12
18.5670,0.08,0.12,-0.99,3.23,2.50,0.79
18.5840,0.08,0.11,-0.99,3.11,2.26,1.77
18.6000,0.09,0.11,-0.99,2.81,2.38,1.59
18.6170,0.09,0.12,-0.99,3.17,2.26,0.61
18.6330,0.09,0.11,-0.99,3.05,2.56,0.00
18.6490,0.07,0.11,-0.99,3.72,2.38,-0.06
18.6640,0.08,0.11,-0.99,3.72,2.44,0.18
18.6790,0.08,0.11,-0.99,3.54,2.38,0.49
18.6840,0.08,0.12,-0.98,3.05,2.62,0.73
18.6990,0.08,0.11,-0.99,3.30,2.08,1.22
18.7250,0.09,0.11,-0.98,3.05,2.26,0.79
18.7380,0.09,0.12,-0.99,3.17,2.38,0.00
18.7550,0.09,0.11,-0.99,3.91,2.50,-0.61
18.7700,0.08,0.11,-0.99,3.85,2.44,-1.22
18.7870,0.07,0.11,-1.00,3.66,2.20,-0.92
18.8030,0.08,0.11,-0.99,3.42,2.38,0.24
18.8200,0.07,0.11,-0.99,3.54,2.01,0.79
18.8350,0.08,0.11,-0.99,3.66,2.32,1.10
18.8520,0.08,0.11,-0.98,3.54,2.26,0.79
18.8680,0.08,0.12,-0.98,3.66,1.83,0.73
18.8820,0.08,0.12,-0.99,3.48,2.44,0.92
18.8980,0.08,0.11,-0.99,3.78,1.95,0.98
18.9130,0.08,0.11,-0.98,3.30,2.32,0.92
18.9280,0.08,0.11,-0.99,3.42,2.32,0.98
18.9370,0.08,0.11,-0.99,3.60,2.50,0.73
18.9540,0.08,0.12,-0.99,3.54,2.20,0.61
18.9710,0.08,0.12,-0.99,3.30,2.20,0.85
18.9870,0.08,0.11,-0.99,3.11,2.01,1.04
19.0040,0.08,0.11,-0.99,3.42,2.01,0.98
19.0200,0.08,0.11,-0.99,3.36,2.14,1.04
19.0360,0.09,0.11,-0.99,3.60,1.77,0.79
19.0520,0.09,0.12,-0.99,3.42,2.14,0.24
19.0670,0.08,0.12,-0.99,3.48,2.08,0.00
19.0700,0.08,0.12,-0.99,3.48,2.14,0.24
19.0860,0.08,0.11,-0.99,3.17,2.44,0.43
19.1080,0.08,0.11,-0.99,3.36,2.69,0.12
19.1250,0.08,0.11,-0.99,3.48,2.32,0.18
19.1430,0.08,0.11,-0.99,3.60,2.38,0.31
19.1580,0.08,0.12,-0.99,4.03,2.44,0.37
19.1740,0.08,0.11,-0.99,3.48,2.50,0.43
19.1900,0.08,0.12,-0.99,3.54,2.62,0.37
19.2060,0.08,0.12,-0.99,3.11,2.44,0.73
19.2080,0.09,0.11,-0.99,3.17,2.38,0.73
19.2240,0.08,0.11,-0.99,3.48,2.26,0.73
19.2510,0.08,0.11,-0.98,3.42,2.26,0.67
19.2630,0.08,0.12,-0.99,3.48,2.56,0.85
19.2800,0.08,0.12,-1.00,3.30,2.20,0.67
19.2960,0.08,0.11,-0.98,3.30,2.38,0.73
19.3120,0.08,0.12,-0.99,3.36,2.26,0.61
19.3280,0.08,0.11,-0.99,3.30,2.38,0.67
19.3440,0.09,0.11,-0.99,3.60,2.14,0.67
19.3590,0.08,0.12,-0.99,3.42,2.32,0.24
19.3630,0.08,0.12,-0.99,3.60,2.26,0.06
19.3790,0.08,0.11,-0.99,3.60,2.32,0.12
19.4010,0.08,0.11,-0.99,3.72,2.32,-0.24
19.4170,0.09,0.11,-0.99,3.85,2.32,-0.43
19.4350,0.09,0.12,-0.99,3.42,2.56,-0.85
19.4510,0.08,0.11,-0.99,3.30,2.56,-1.04
19.4670,0.08,0.12,-1.00,3.66,2.81,-0.61
19.4830,0.08,0.11,-1.00,3.78,2.50,-0.12
19.4990,0.08,0.12,-1.00,3.91,2.69,0.18
19.5140,0.09,0.12,-1.00,3.66,2.14,0.18
19.5290,0.08,0.12,-1.00,3.30,2.32,0.06
19.5440,0.08,0.12,-1.00,3.05,2.38,0.67
19.5590,0.08,0.11,-0.99,3.36,2.44,1.22
19.5760,0.08,0.12,-0.99,3.54,2.26,1.16
19.5910,0.09,0.12,-0.98,3.54,2.44,1.10
19.6060,0.09,0.11,-0.98,3.60,2.56,1.22
19.6180,0.08,0.11,-0.98,3.23,2.32,0.79
19.6340,0.07,0.11,-0.98,3.60,2.14,0.49
19.6530,0.09,0.11,-0.98,3.30,1.77,0.92
19.6680,0.08,0.11,-0.98,3.30,2.01,0.98
19.6840,0.08,0.12,-0.99,2.99,2.26,0.98
19.7000,0.08,0.12,-0.99,3.23,2.14,1.22
19.7160,0.07,0.11,-0.99,3.11,2.08,1.34
19.7320,0.07,0.12,-0.99,3.66,1.89,1.40
19.7470,0.08,0.11,-0.97,3.54,2.08,1.46
19.7630,0.08,0.12,-1.00,3.42,2.14,1.59
19.7790,0.09,0.11,-0.98,3.11,2.08,1.46
19.7950,0.08,0.12,-1.01,3.17,2.20,1.04
19.8110,0.08,0.11,-0.98,3.11,2.14,1.10
19.8260,0.08,0.12,-1.00,3.36,2.14,1.22
19.8420,0.08,0.11,-0.98,3.36,2.62,1.40
19.8570,0.08,0.12,-1.00,3.36,2.44,1.46
19.8680,0.09,0.12,-0.98,3.11,2.44,1.10
19.8840,0.08,0.12,-1.00,3.30,2.38,0.85
19.9010,0.08,0.11,-0.98,3.54,2.26,0.98
19.9170,0.08,0.11,-0.99,3.30,2.50,1.46
19.9340,0.08,0.11,-0.99,3.11,2.56,1.65
19.9490,0.08,0.11,-0.99,3.17,1.95,1.53
19.9640,0.08,0.11,-0.99,3.23,2.14,1.53
19.9690,0.08,0.11,-0.99,3.05,2.26,1.59
19.9950,0.08,0.11,-0.99,3.48,1.77,1.71
20.0110,0.08,0.12,-0.99,3.42,1.77,1.83
20.0270,0.08,0.11,-1.00,3.30,2.20,1.71
20.0420,0.09,0.12,-0.99,3.30,2.32,1.71
20.0570,0.08,0.12,-0.99,3.05,2.38,1.89
20.0720,0.08,0.11,-0.99,3.05,2.14,1.95
20.0840,0.08,0.11,-0.99,3.48,2.14,1.83
20.1000,0.08,0.12,-0.99,3.54,2.26,1.83
20.1170,0.09,0.11,-0.99,3.54,2.50,1.59
20.1330,0.09,0.11,-0.99,3.66,1.77,1.40
20.1490,0.08,0.11,-0.98,3.30,2.50,1.04
20.1640,0.08,0.11,-0.99,3.48,1.83,0.92
20.1790,0.08,0.11,-0.98,3.42,2.81,1.16
20.1840,0.08,0.11,-0.99,3.66,2.56,1.16
20.2000,0.09,0.12,-0.99,3.66,2.62,1.40
20.2210,0.09,0.12,-0.99,3.23,2.75,1.16
20.2380,0.09,0.11,-0.99,3.66,2.69,0.98
20.2550,0.09,0.11,-0.97,3.66,2.62,0.85
20.2700,0.09,0.12,-1.00,3.36,2.62,0.79
20.2870,0.08,0.11,-0.98,3.54,2.50,0.67
20.3020,0.08,0.11,-0.99,3.48,2.32,0.92
20.3170,0.09,0.11,-0.99,3.60,2.56,0.98
20.3320,0.08,0.11,-0.98,3.48,2.50,0.85
20.3380,0.08,0.11,-0.98,3.60,2.69,0.85
20.3610,0.08,0.12,-1.00,3.54,2.75,0.98
20.3710,0.08,0.11,-0.99,3.60,2.32,0.73
20.3880,0.08,0.11,-0.99,3.97,2.87,0.43
20.4040,0.08,0.12,-1.00,3.78,2.81,0.31
20.4220,0.08,0.11,-0.99,3.85,2.87,0.12
20.4370,0.07,0.12,-0.99,3.91,2.20,0.49
20.4520,0.09,0.12,-0.99,3.48,2.44,0.49
20.4670,0.08,0.12,-0.99,3.42,2.44,-0.06
20.4820,0.08,0.12,-0.99,3.48,2.44,-0.37
20.4970,0.07,0.11,-0.99,3.42,2.26,-0.24
20.5120,0.08,0.12,-1.00,3.54,2.50,0.00
20.5210,0.08,0.12,-1.00,3.54,2.81,-0.06
20.5370,0.07,0.12,-1.00,3.97,2.26,0.06
20.5580,0.08,0.12,-0.99,3.85,2.38,0.43
20.5610,0.08,0.12,-0.99,3.66,2.01,0.79
20.5870,0.08,0.12,-1.00,3.72,2.32,0.79
20.6020,0.08,0.12,-0.99,3.78,2.14,0.49
20.6170,0.08,0.12,-0.99,3.78,1.89,0.49
20.6280,0.08,0.12,-1.00,3.60,2.14,0.43
20.6440,0.08,0.12,-0.99,3.42,2.32,0.49
20.6610,0.08,0.12,-1.00,3.60,2.69,0.73
20.6780,0.08,0.12,-0.99,3.36,2.20,0.92
20.6930,0.08,0.12,-0.99,3.23,2.08,1.16
20.7090,0.08,0.12,-0.99,3.36,2.20,1.22
20.7250,0.08,0.11,-0.99,3.54,1.77,1.10
20.7410,0.08,0.12,-1.00,3.54,2.14,1.04
20.7570,0.08,0.11,-0.98,3.54,2.01,1.10
20.7730,0.08,0.12,-1.00,3.60,2.20,1.22
20.7880,0.08,0.11,-0.97,3.23,2.56,1.34
20.8030,0.08,0.12,-1.00,3.23,2.50,1.40
20.8110,0.09,0.12,-1.00,3.36,2.38,1.16
20.8270,0.08,0.11,-0.97,3.72,2.44,0.85
20.8490,0.08,0.13,-1.00,3.54,2.50,0.92
20.8640,0.08,0.11,-0.98,3.17,2.32,1.16
20.8790,0.08,0.12,-1.00,3.36,2.26,1.40
20.8960,0.08,0.11,-0.98,3.72,2.20,1.34
20.9110,0.08,0.11,-0.98,3.48,2.14,1.28
20.9270,0.08,0.12,-1.00,3.23,2.14,1.28
20.9350,0.08,0.11,-0.98,2.99,2.08,1.40
20.9540,0.09,0.11,-0.99,3.23,2.01,1.40
20.9710,0.08,0.12,-0.99,3.85,1.95,1.22
20.9880,0.08,0.12,-0.99,3.48,2.20,0.92
21.0050,0.09,0.12,-1.00,3.36,2.26,0.92
21.0200,0.09,0.12,-1.00,3.30,2.38,0.43
21.0360,0.08,0.12,-0.99,3.42,2.62,0.55
21.0510,0.08,0.12,-0.99,3.42,2.26,0.49
21.0550,0.08,0.12,-0.99,3.36,2.56,0.67
21.0710,0.08,0.11,-0.99,3.36,2.32,0.92
21.0930,0.09,0.11,-0.98,3.23,2.26,0.92
21.1090,0.09,0.11,-0.98,3.42,1.83,0.92
21.1270,0.08,0.11,-0.99,3.48,2.14,1.10
21.1430,0.08,0.11,-0.99,3.23,2.20,0.92
21.1590,0.08,0.12,-0.99,3.54,2.01,1.04
21.1750,0.08,0.12,-0.99,3.48,2.69,1.22
21.1910,0.08,0.12,-0.99,3.36,2.20,1.16
21.2070,0.08,0.12,-0.99,3.36,2.20,1.10
21.2230,0.08,0.12,-0.99,3.36,2.32,1.28
21.2270,0.08,0.12,-0.99,3.11,2.38,1.22
21.2550,0.08,0.12,-0.99,3.23,2.26,1.22
21.2710,0.08,0.12,-0.99,3.05,2.26,1.10
21.2870,0.08,0.12,-1.01,3.42,2.38,1.16
21.3030,0.08,0.11,-0.98,3.36,2.14,1.34
21.3180,0.08,0.12,-1.00,3.17,2.38,1.40
21.3330,0.08,0.12,-0.99,3.05,2.20,1.22
21.3440,0.08,0.11,-0.98,2.93,2.26,1.28
21.3600,0.07,0.12,-1.01,3.48,2.14,1.22
21.3770,0.08,0.11,-0.98,3.48,2.20,1.40
21.3940,0.08,0.12,-0.99,3.11,2.44,1.46
21.4090,0.09,0.12,-0.99,3.17,1.95,1.16
21.4260,0.09,0.12,-0.99,2.99,1.89,1.34
21.4410,0.08,0.12,-1.00,3.11,2.14,1.28
21.4570,0.08,0.11,-0.98,3.17,2.14,1.22
21.4720,0.08,0.12,-1.00,3.48,2.38,0.92
21.4870,0.08,0.11,-0.99,3.30,2.14,0.85
21.5020,0.08,0.12,-0.99,2.75,2.20,1.10
21.5180,0.08,0.11,-0.99,2.81,2.44,1.28
21.5270,0.08,0.11,-0.99,3.11,2.38,1.28
21.5420,0.07,0.11,-0.99,3.30,2.32,1.34
21.5610,0.08,0.12,-0.99,3.17,1.95,1.34
21.5760,0.09,0.12,-0.99,3.30,2.14,1.46
21.5930,0.09,0.12,-0.99,2.93,2.56,1.46
21.6090,0.08,0.12,-1.00,3.54,1.83,0.98
21.6270,0.08,0.11,-0.99,3.54,2.26,1.04
21.6430,0.08,0.12,-1.00,3.48,2.08,1.04
21.6590,0.08,0.12,-1.00,3.30,2.56,1.04
21.6750,0.08,0.12,-0.99,3.17,2.62,1.16
21.6900,0.08,0.11,-0.99,3.23,2.20,1.28
21.7070,0.08,0.11,-0.99,3.23,2.32,1.34
21.7220,0.08,0.11,-0.99,3.30,2.69,1.53
21.7370,0.08,0.11,-0.99,3.23,1.77,1.53
21.7420,0.08,0.11,-0.99,3.17,2.38,1.59
21.7580,0.09,0.11,-0.98,3.17,2.08,1.71
21.7820,0.08,0.11,-0.99,3.05,2.08,1.65
21.7980,0.08,0.11,-0.98,2.99,2.14,1.71
21.8140,0.08,0.11,-0.99,3.30,2.01,1.71
21.8320,0.08,0.11,-0.99,3.36,2.38,1.65
21.8470,0.08,0.11,-0.99,2.75,1.95,1.77
21.8640,0.08,0.11,-0.99,3.30,2.08,1.71
21.8790,0.08,0.12,-1.00,3.60,2.26,1.65
21.8950,0.08,0.12,-0.99,3.42,2.32,1.77
21.8980,0.08,0.11,-0.98,3.36,2.14,1.59
21.9140,0.08,0.11,-0.98,3.60,2.08,1.53
21.9410,0.08,0.11,-0.99,3.23,2.26,1.59
21.9550,0.08,0.11,-0.99,3.11,2.81,1.28
21.9690,0.08,0.12,-0.99,3.17,2.56,1.40
21.9850,0.08,0.11,-0.99,3.11,2.69,1.46
22.0030,0.08,0.11,-0.99,3.30,2.20,1.46
22.0070,0.08,0.11,-0.99,3.36,2.26,1.46
22.0330,0.08,0.11,-0.99,3.17,2.32,1.40
22.0410,0.08,0.12,-0.99,3.30,2.08,1.34
22.0560,0.08,0.11,-0.99,3.17,2.50,1.22
22.0790,0.09,0.11,-0.99,3.17,2.38,1.28
22.0940,0.08,0.12,-0.99,3.17,2.38,1.34
22.1090,0.08,0.11,-0.99,3.30,2.44,1.28
22.1250,0.09,0.12,-0.99,3.36,2.01,1.04
22.1410,0.08,0.12,-0.99,3.42,2.56,0.37
22.1570,0.08,0.11,-0.99,3.42,2.26,0.18
22.1720,0.08,0.11,-0.99,3.42,2.32,0.06
22.1790,0.08,0.11,-0.99,3.54,2.50,0.43
22.1950,0.08,0.11,-0.99,3.54,2.32,0.61
22.2190,0.08,0.11,-0.99,3.36,2.01,0.85
22.2340,0.07,0.11,-0.99,3.54,2.26,0.92
22.2510,0.08,0.11,-0.99,3.36,2.38,1.34
22.2650,0.08,0.12,-0.99,3.42,2.08,1.40
22.2810,0.08,0.12,-0.99,3.30,2.38,1.53
22.2960,0.09,0.11,-0.99,3.11,2.32,1.34
22.3110,0.09,0.11,-0.99,3.60,1.77,0.73
22.3250,0.08,0.11,-0.99,3.42,2.08,0.31
22.3370,0.08,0.11,-0.99,3.48,2.32,0.43
22.3550,0.08,0.11,-0.99,3.48,2.38,0.31
22.3690,0.08,0.12,-0.99,3.36,2.38,0.61
22.3850,0.09,0.11,-0.99,3.30,2.44,0.43
22.4010,0.08,0.11,-0.99,3.36,2.50,0.43
22.4160,0.07,0.12,-0.99,3.42,2.14,0.49
22.4190,0.08,0.12,-0.99,3.36,2.44,0.85
22.4350,0.08,0.11,-0.99,3.30,2.32,1.10
22.4590,0.09,0.12,-0.99,3.17,2.32,1.04
22.4760,0.08,0.12,-0.99,3.05,2.50,0.43
22.4920,0.08,0.11,-0.99,3.17,2.69,0.24
22.5080,0.08,0.11,-0.99,3.42,2.20,0.24
22.5240,0.08,0.11,-0.99,3.66,2.14,0.49
22.5300,0.08,0.12,-0.99,3.42,1.95,0.67
22.5460,0.09,0.11,-0.98,2.99,2.50,0.92
22.5620,0.09,0.11,-0.99,2.81,2.44,0.55
22.5850,0.08,0.11,-0.98,3.17,2.14,0.24
22.6010,0.08,0.11,-0.99,3.30,2.01,0.37
22.6180,0.09,0.11,-0.98,3.30,2.08,0.37
22.6340,0.08,0.11,-0.97,3.30,2.44,0.55
22.6500,0.09,0.12,-0.99,3.11,2.69,0.18
22.6650,0.08,0.11,-0.99,3.48,2.26,-0.06
22.6810,0.09,0.12,-0.99,3.60,2.56,-0.18
22.6960,0.08,0.11,-0.99,3.42,2.56,-0.31
22.7120,0.08,0.11,-0.99,3.66,2.50,-0.18
22.7270,0.08,0.11,-0.99,3.66,2.50,-0.37
22.7420,0.08,0.11,-0.99,3.60,2.32,-0.37
22.7570,0.08,0.11,-0.99,3.36,2.26,-0.12
22.7690,0.08,0.11,-0.99,3.91,2.50,0.18
22.7850,0.08,0.11,-0.99,3.97,2.38,0.24
22.8020,0.08,0.11,-0.99,3.78,2.14,0.49
22.8190,0.08,0.11,-0.99,3.66,2.01,0.43
22.8340,0.09,0.12,-0.99,3.42,2.26,0.61
22.8500,0.09,0.12,-0.99,3.48,2.32,0.31
22.8650,0.08,0.11,-0.97,3.42,2.44,0.06
22.8800,0.07,0.11,-0.97,3.48,2.38,0.43
22.8960,0.08,0.11,-0.98,3.78,2.44,0.67
22.9110,0.08,0.11,-0.98,3.66,2.50,0.79
22.9250,0.08,0.12,-1.00,3.78,2.14,1.10
22.9350,0.08,0.11,-0.99,3.48,2.62,0.92
22.9560,0.08,0.11,-0.98,3.66,2.44,0.85
22.9710,0.08,0.11,-0.99,3.54,2.38,0.61
22.9870,0.08,0.11,-0.98,3.97,2.14,0.49
23.0020,0.09,0.12,-1.00,3.48,2.26,0.37
23.0170,0.08,0.12,-1.00,3.72,2.56,0.00
23.0230,0.08,0.11,-0.98,3.54,2.69,0.43
23.0390,0.08,0.11,-0.99,3.66,2.44,0.18
23.0620,0.08,0.11,-0.99,4.03,2.26,0.18
23.0790,0.09,0.12,-0.99,3.97,2.69,-0.12
23.0940,0.09,0.11,-0.99,3.60,2.56,-0.67
23.1090,0.07,0.12,-1.00,3.42,2.93,-0.24
23.1250,0.08,0.11,-0.99,3.66,2.32,-0.06
23.1410,0.08,0.12,-0.99,3.54,2.01,0.18
23.1570,0.08,0.12,-0.99,3.36,2.20,0.06
23.1730,0.09,0.12,-0.99,3.23,2.20,0.24
23.1890,0.08,0.11,-0.99,3.11,2.26,-0.18
23.2050,0.08,0.11,-0.99,3.66,2.26,-0.24
23.2130,0.08,0.11,-0.99,3.78,2.32,-0.06
23.2290,0.08,0.11,-0.99,3.66,2.26,-0.12
23.2510,0.08,0.12,-0.99,3.60,2.32,-0.06
23.2670,0.08,0.12,-0.99,3.30,2.44,0.24
23.2840,0.08,0.11,-0.98,3.48,2.20,0.18
23.2990,0.09,0.12,-0.99,3.30,2.62,0.00
23.3140,0.08,0.11,-0.99,3.66,2.26,-0.55
23.3290,0.07,0.11,-0.99,3.36,2.81,-0.49
23.3350,0.08,0.11,-0.99,3.60,2.69,0.06
23.3560,0.08,0.11,-0.99,3.60,2.50,0.31
23.3740,0.08,0.12,-0.99,3.72,2.01,0.49
23.3890,0.08,0.11,-0.99,3.48,2.26,0.55
23.4050,0.08,0.11,-0.98,3.48,2.26,0.61
23.4070,0.09,0.12,-0.99,3.30,2.32,0.85
23.4230,0.08,0.12,-1.00,3.48,2.32,0.43
23.4510,0.09,0.11,-0.99,3.54,2.20,0.18
23.4620,0.08,0.12,-1.00,3.48,2.32,-0.12
23.4800,0.08,0.11,-0.99,3.85,2.38,0.12
23.4950,0.08,0.11,-0.99,3.42,2.44,0.61
23.5140,0.08,0.12,-1.00,3.60,2.50,0.61
23.5290,0.08,0.11,-0.99,3.60,2.50,0.85
23.5350,0.09,0.12,-0.99,3.91,2.26,0.67
23.5560,0.09,0.12,-0.99,3.85,2.69,0.49
23.5710,0.08,0.12,-0.99,3.48,2.50,0.18
23.5870,0.07,0.11,-0.99,3.36,2.38,0.43
23.6040,0.08,0.11,-0.99,3.30,2.50,1.10
23.6210,0.08,0.11,-0.99,3.66,2.26,1.16
23.6360,0.08,0.11,-0.99,3.72,1.95,0.92
23.6520,0.08,0.12,-0.99,3.54,2.50,0.79
23.6570,0.08,0.12,-0.99,3.05,2.56,0.85
23.6700,0.08,0.12,-0.99,3.48,2.08,0.98
23.6990,0.08,0.11,-0.99,3.66,2.26,1.16
23.7100,0.08,0.12,-0.99,3.48,2.38,1.16
23.7260,0.09,0.12,-0.99,3.42,2.14,0.92
23.7430,0.08,0.12,-0.99,3.36,2.14,0.92
23.7590,0.07,0.12,-0.99,3.30,2.01,1.16
23.7600,0.08,0.12,-0.99,3.30,2.26,1.40
23.7900,0.08,0.12,-0.99,3.48,2.26,1.28
23.8070,0.08,0.12,-0.99,3.66,1.59,1.28
23.8100,0.08,0.12,-0.99,3.48,1.95,1.16
23.8260,0.07,0.12,-0.99,3.60,2.20,1.40
23.8420,0.08,0.12,-0.99,3.72,1.89,1.46
23.8580,0.08,0.12,-0.99,3.42,2.01,1.53
23.8860,0.09,0.11,-0.99,3.42,2.20,1.53
23.8970,0.08,0.12,-1.00,3.85,2.26,1.71
23.9140,0.08,0.11,-0.97,3.60,2.01,1.59
23.9300,0.08,0.12,-1.00,3.42,2.14,1.83
23.9460,0.08,0.11,-0.98,3.54,2.20,1.83
23.9640,0.08,0.12,-1.00,3.42,2.20,1.65
23.9790,0.08,0.11,-0.97,3.42,2.32,1.77
23.9940,0.08,0.13,-1.01,3.60,1.77,1.65
24.0100,0.08,0.11,-0.97,3.23,1.95,1.65
24.0260,0.08,0.13,-1.01,3.17,2.50,1.71
24.0410,0.08,0.11,-0.98,3.36,2.14,1.59
24.0560,0.08,0.12,-1.00,3.48,2.14,1.59
24.0680,0.08,0.11,-0.98,3.66,2.08,1.59
24.0840,0.08,0.13,-1.00,3.17,1.77,1.46
24.1000,0.08,0.11,-0.98,3.36,2.14,1.83
24.1170,0.08,0.12,-0.99,3.23,1.89,1.65
24.1340,0.08,0.11,-0.99,3.30,2.20,1.71
24.1500,0.08,0.12,-0.99,3.36,1.59,1.65
24.1660,0.08,0.12,-0.99,3.36,1.77,1.65
24.1830,0.08,0.11,-0.99,3.42,2.01,1.59
24.1980,0.08,0.12,-0.99,3.42,1.89,1.77
24.2130,0.09,0.12,-0.99,3.23,2.01,1.65
24.2280,0.08,0.11,-0.99,3.23,2.01,1.77
24.2440,0.08,0.11,-0.99,3.36,1.71,1.83
24.2590,0.09,0.11,-0.99,3.42,1.95,1.77
24.2750,0.09,0.11,-0.99,3.48,2.26,1.83
24.2850,0.09,0.11,-0.99,3.36,2.44,1.77
24.3010,0.08,0.11,-0.99,3.42,2.08,1.71
24.3180,0.08,0.11,-0.98,3.36,2.01,1.71
24.3350,0.08,0.12,-0.99,3.36,2.01,1.59
24.3500,0.08,0.12,-0.99,3.36,2.14,1.65
24.3660,0.08,0.12,-0.99,3.42,2.44,1.59
24.3830,0.08,0.12,-0.99,3.23,2.01,1.71
24.3980,0.08,0.12,-0.99,3.30,1.95,1.65
24.4130,0.08,0.11,-0.98,3.30,2.26,1.65
24.4290,0.08,0.12,-1.00,3.60,1.77,1.77
24.4440,0.08,0.13,-1.00,3.54,2.08,1.83
24.4570,0.08,0.11,-0.98,3.48,2.26,1.71
24.4680,0.08,0.12,-0.99,3.36,1.77,1.71
24.4900,0.08,0.11,-0.99,3.54,1.95,1.59
24.5060,0.08,0.12,-0.98,3.72,2.08,1.83
24.5220,0.08,0.12,-1.00,3.72,2.08,1.77
24.5380,0.08,0.11,-0.98,3.36,2.08,1.77
24.5550,0.08,0.12,-0.99,3.78,2.01,1.71
24.5710,0.08,0.12,-1.01,3.85,1.59,1.77
24.5870,0.08,0.11,-0.98,3.78,1.77,1.89
24.6020,0.08,0.12,-0.99,3.66,1.83,1.59
24.6170,0.08,0.12,-0.99,3.78,1.65,1.77
24.6230,0.08,0.12,-0.99,3.66,2.14,1.77
24.6380,0.09,0.12,-0.99,3.60,2.14,1.65
24.6620,0.09,0.11,-0.98,3.36,2.32,1.77
24.6790,0.09,0.12,-0.99,3.48,2.38,1.71
24.6940,0.09,0.13,-1.00,3.23,1.89,1.59
24.7100,0.08,0.12,-1.00,2.99,2.26,1.65
24.7270,0.08,0.12,-1.00,2.93,2.01,1.65
24.7420,0.08,0.12,-0.99,2.93,2.01,1.53
24.7580,0.07,0.11,-0.97,2.87,2.75,1.71
24.7630,0.08,0.11,-0.99,3.30,2.62,1.83
24.7880,0.08,0.12,-0.99,3.11,2.38,1.71
24.7960,0.08,0.12,-0.99,2.99,2.56,1.71
24.8130,0.08,0.12,-0.99,3.11,2.32,1.65
24.8340,0.08,0.12,-0.99,3.05,2.44,1.83
24.8510,0.08,0.12,-1.00,3.42,2.20,1.65
24.8680,0.08,0.12,-1.00,3.30,2.56,1.83
24.8790,0.08,0.12,-1.00,3.05,2.32,1.77
24.8950,0.08,0.12,-0.99,3.23,2.26,1.71
24.9110,0.08,0.11,-0.98,3.17,2.20,1.65
24.9290,0.08,0.13,-1.00,3.23,2.56,1.71
24.9440,0.08,0.10,-0.97,3.30,2.69,1.65
24.9610,0.08,0.13,-1.01,2.99,2.50,1.71
24.9760,0.08,0.10,-0.97,3.30,2.32,1.77
24.9910,0.08,0.11,-0.98,3.36,2.26,1.65
25.0070,0.08,0.13,-1.01,3.11,2.32,1.77
25.0230,0.08,0.10,-0.97,3.48,2.08,1.71
25.0400,0.08,0.13,-1.01,3.23,2.26,1.77
25.0550,0.08,0.10,-0.97,3.36,2.01,1.89
25.0700,0.08,0.13,-1.01,3.36,2.62,1.77
25.0850,0.08,0.11,-0.98,3.36,2.20,1.65
25.0950,0.08,0.11,-0.98,3.48,1.89,1.53
25.1120,0.08,0.12,-1.00,3.72,1.83,1.71
25.1280,0.08,0.11,-0.98,3.48,2.32,1.71
25.1450,0.08,0.12,-0.99,3.23,2.01,1.65
25.1600,0.08,0.12,-0.99,3.17,2.14,1.77
25.1760,0.08,0.12,-0.99,2.87,2.20,1.59
25.1910,0.08,0.12,-0.99,3.17,2.26,1.71
25.2070,0.08,0.12,-0.99,3.42,2.44,1.77
25.2230,0.08,0.12,-0.99,3.48,1.95,1.77
25.2280,0.08,0.12,-0.99,3.30,2.20,1.71
25.2440,0.08,0.12,-0.99,3.42,2.08,1.71
25.2650,0.08,0.12,-0.99,3.42,1.83,1.71
25.2820,0.08,0.12,-0.99,3.42,2.32,1.71
25.2970,0.08,0.12,-0.99,3.17,2.20,1.71
25.3130,0.08,0.12,-0.99,3.05,2.38,1.83
25.3280,0.08,0.12,-0.99,3.05,1.95,1.59
25.3450,0.08,0.12,-0.99,3.36,2.01,1.77
25.3600,0.08,0.12,-0.99,3.54,2.26,1.59
25.3760,0.08,0.13,-1.00,3.48,2.14,1.83
25.3910,0.08,0.11,-0.99,3.54,1.77,1.65
25.4070,0.07,0.12,-1.00,3.30,2.20,1.71
25.4230,0.08,0.10,-0.96,3.17,2.26,1.71
25.4380,0.08,0.13,-1.00,3.17,2.62,1.77
25.4480,0.08,0.12,-0.99,3.36,2.38,1.71
25.4640,0.08,0.11,-0.97,3.48,2.08,1.65
25.4850,0.08,0.12,-1.00,3.54,1.89,1.77
25.5010,0.08,0.11,-0.98,3.36,2.38,1.77
25.5160,0.08,0.12,-1.00,3.36,2.14,1.65
25.5320,0.08,0.11,-0.98,3.42,2.20,1.10
25.5480,0.08,0.13,-1.00,3.54,2.32,0.67
25.5620,0.08,0.12,-0.99,3.36,2.44,1.28
25.5780,0.08,0.11,-0.98,3.23,1.83,1.40
25.5880,0.08,0.13,-1.00,3.23,2.20,1.65
25.6040,0.08,0.11,-0.98,3.30,1.77,1.53
25.6200,0.08,0.12,-1.00,3.17,2.08,1.34
25.6380,0.08,0.12,-0.99,3.48,2.32,0.98
25.6530,0.08,0.12,-0.99,3.42,2.20,1.04
25.6640,0.08,0.12,-0.99,3.36,2.20,1.71
25.6800,0.08,0.12,-0.99,3.36,1.71,1.71
25.6960,0.08,0.12,-0.99,3.48,2.08,1.59
25.7130,0.08,0.11,-0.99,3.30,2.44,1.53
25.7280,0.08,0.12,-0.99,3.60,2.14,0.92
25.7450,0.09,0.12,-0.98,3.85,2.20,1.34
25.7600,0.09,0.12,-0.99,3.36,1.95,1.53
25.7750,0.09,0.11,-0.99,3.11,2.32,1.59
25.7920,0.08,0.11,-0.98,3.36,2.44,0.98
25.8070,0.08,0.11,-0.98,3.30,2.62,1.04
25.8230,0.07,0.10,-0.99,2.99,2.50,0.31
25.8380,0.09,0.12,-0.98,3.78,2.69,-0.49
25.8530,0.08,0.12,-0.98,3.66,2.44,0.00
25.8640,0.08,0.12,-0.99,3.05,1.89,0.98
25.8800,0.08,0.11,-0.99,3.36,1.83,1.71
25.8960,0.08,0.11,-0.99,3.17,2.38,1.65
25.9140,0.08,0.11,-0.99,3.60,2.01,1.28
25.9300,0.08,0.12,-0.99,3.54,2.44,0.85
25.9450,0.08,0.12,-0.99,3.54,2.38,1.10
25.9600,0.08,0.11,-0.99,3.54,2.08,1.04
25.9760,0.08,0.12,-0.99,3.60,2.50,0.55
25.9910,0.08,0.12,-0.99,3.30,2.38,0.31
26.0080,0.08,0.12,-1.00,3.30,2.14,0.49
26.0230,0.08,0.11,-0.99,2.99,2.75,0.67
26.0380,0.08,0.11,-0.99,3.30,2.44,0.37
26.0530,0.08,0.11,-0.99,3.48,2.32,-0.67
26.0640,0.08,0.11,-0.99,3.54,2.32,-0.49
26.0800,0.08,0.13,-0.99,3.36,2.38,0.06
26.0970,0.08,0.12,-0.99,3.36,2.38,0.92
26.1140,0.08,0.11,-0.99,3.42,2.14,1.46
26.1300,0.08,0.11,-0.99,3.30,2.26,1.16
26.1450,0.08,0.11,-0.98,3.11,2.81,1.04
26.1600,0.08,0.12,-1.00,3.48,2.56,0.49
26.1750,0.08,0.11,-0.98,3.54,2.56,0.98
26.1800,0.08,0.12,-0.99,3.42,2.38,1.04
26.1960,0.08,0.11,-0.99,3.17,2.62,0.92
26.2200,0.08,0.11,-0.98,3.48,2.01,1.16
26.2360,0.08,0.12,-1.00,3.23,2.38,1.53
26.2530,0.08,0.11,-0.99,3.78,2.08,0.92
26.2700,0.08,0.11,-0.98,3.60,1.89,0.79
26.2850,0.08,0.12,-0.99,3.23,2.08,0.79
26.3010,0.08,0.11,-0.99,3.23,2.32,1.04
26.3160,0.08,0.11,-0.99,3.23,2.14,1.53
26.3200,0.08,0.12,-0.99,3.11,2.08,1.22
26.3360,0.08,0.12,-0.99,3.23,2.38,1.59
26.3610,0.08,0.11,-0.99,3.36,2.56,1.53
26.3770,0.08,0.12,-0.99,3.11,2.38,1.65
26.3920,0.08,0.12,-0.99,3.36,1.95,0.92
26.4070,0.08,0.12,-0.99,3.42,2.14,0.73
26.4230,0.08,0.12,-0.99,3.30,2.38,0.67
26.4380,0.08,0.11,-0.99,3.48,2.32,0.73
26.4450,0.08,0.12,-0.99,3.42,2.08,0.61
26.4610,0.08,0.11,-0.99,3.36,2.26,0.67
26.4840,0.08,0.12,-0.99,3.23,2.56,1.22
26.5000,0.08,0.11,-0.99,3.30,2.26,1.53
26.5160,0.08,0.12,-0.99,2.87,1.83,2.26
26.5310,0.08,0.12,-0.99,3.42,2.20,1.59
26.5460,0.08,0.12,-0.99,3.30,2.26,0.92
26.5580,0.08,0.12,-0.99,3.42,2.38,1.46
26.5660,0.08,0.11,-0.99,3.48,2.50,1.40
26.5910,0.08,0.11,-0.99,3.23,2.20,0.92
26.6070,0.08,0.11,-0.99,3.30,2.01,0.67
26.6230,0.08,0.11,-0.99,3.48,2.14,-0.06
26.6390,0.08,0.12,-0.99,3.97,2.32,-0.43
26.6550,0.08,0.12,-1.00,3.85,2.62,0.43
26.6700,0.08,0.12,-0.98,3.30,2.38,0.79
26.6850,0.08,0.12,-1.00,3.17,2.08,2.26
26.6890,0.08,0.12,-0.99,3.23,2.44,2.08
26.7050,0.08,0.11,-0.99,3.91,2.62,1.28
26.7300,0.08,0.10,-1.00,3.72,2.62,0.79
26.7460,0.08,0.11,-1.00,3.17,2.81,0.92
26.7630,0.08,0.13,-0.99,3.23,2.56,0.55
26.7780,0.08,0.12,-0.98,3.54,2.38,0.43
26.7930,0.08,0.12,-0.98,3.60,2.38,1.22
26.7970,0.08,0.12,-0.99,3.66,1.59,0.92
26.8120,0.08,0.11,-0.99,3.48,2.14,0.79
26.8350,0.08,0.11,-0.99,3.48,2.62,0.37
26.8510,0.08,0.11,-0.98,3.97,2.08,-0.31
26.8680,0.08,0.11,-0.99,3.72,2.20,-0.43
26.8840,0.08,0.13,-0.99,3.48,2.32,0.43
26.9010,0.08,0.13,-0.99,3.42,1.89,1.40
26.9170,0.08,0.12,-0.99,3.54,2.32,1.34
26.9330,0.08,0.11,-0.99,3.54,2.44,1.10
26.9480,0.08,0.11,-0.99,3.54,2.56,0.43
26.9630,0.08,0.12,-0.99,3.60,2.38,-0.31
26.9780,0.08,0.11,-0.99,3.91,2.01,0.61
26.9840,0.08,0.11,-0.99,3.30,2.32,1.10
27.0000,0.08,0.12,-0.99,3.17,2.50,0.61
27.0230,0.08,0.13,-0.99,3.42,2.20,0.67
27.0400,0.08,0.12,-0.99,3.78,2.08,0.92
27.0550,0.08,0.11,-0.99,3.66,2.38,0.73
27.0720,0.08,0.11,-0.99,3.48,2.38,-0.12
27.0880,0.08,0.11,-0.99,3.48,2.14,0.43
27.1040,0.08,0.12,-1.01,3.48,2.38,1.71
27.1190,0.08,0.12,-0.99,3.42,2.01,1.34
27.1240,0.08,0.12,-1.00,3.54,2.38,0.79
27.1390,0.08,0.11,-1.00,3.66,2.44,-0.43
27.1610,0.08,0.12,-0.99,3.36,2.75,-1.40
27.1790,0.08,0.12,-0.99,3.42,2.50,0.61
27.1950,0.08,0.13,-0.99,3.36,2.14,1.65
27.2100,0.08,0.11,-0.99,3.85,2.14,1.10
27.2260,0.08,0.13,-1.00,3.48,2.38,0.37
27.2410,0.08,0.12,-0.98,3.91,2.32,0.24
27.2570,0.08,0.12,-0.99,3.60,2.50,0.92
27.2620,0.08,0.12,-0.99,3.54,1.83,1.34
27.2890,0.08,0.12,-0.99,3.54,2.08,1.46
27.2940,0.08,0.11,-0.99,3.72,1.77,1.40
27.3100,0.08,0.10,-0.99,3.60,2.32,1.40
27.3310,0.08,0.09,-1.00,3.23,2.69,1.10
27.3490,0.08,0.10,-0.99,2.93,2.62,0.55
27.3640,0.09,0.13,-0.99,2.87,2.32,0.85
27.3800,0.08,0.12,-0.99,3.72,2.38,0.73
27.3950,0.08,0.12,-0.99,3.17,2.01,1.16
27.4100,0.08,0.13,-0.99,3.05,2.44,0.67
27.4150,0.08,0.11,-0.99,3.72,1.89,0.92
27.4300,0.08,0.11,-0.98,3.17,2.08,0.79
27.4550,0.08,0.12,-1.00,3.23,2.14,0.67
27.4710,0.08,0.11,-0.97,3.36,2.14,0.79
27.4720,0.08,0.11,-0.97,3.36,2.08,1.04
27.5030,0.08,0.10,-0.99,3.17,2.26,0.24
27.5060,0.08,0.11,-0.99,2.99,2.38,0.85
27.5210,0.08,0.13,-0.99,3.48,2.14,1.04
27.5500,0.08,0.12,-1.00,3.91,1.89,0.31
27.5600,0.08,0.12,-0.99,3.54,1.89,0.49
27.5780,0.08,0.12,-0.99,4.03,2.32,-0.55
27.5940,0.08,0.12,-0.98,3.66,1.89,-0.06
27.6100,0.08,0.12,-0.99,3.66,2.38,1.04
27.6250,0.08,0.12,-0.99,3.91,2.08,0.67
27.6410,0.08,0.11,-1.00,3.97,1.83,0.61
27.6570,0.08,0.11,-0.99,3.42,2.20,0.18
27.6730,0.08,0.12,-0.99,3.30,2.38,0.79
27.6890,0.08,0.11,-0.98,3.72,2.62,0.43
27.7030,0.08,0.11,-0.99,3.72,2.26,0.31
27.7110,0.08,0.11,-0.97,3.30,2.32,0.31
27.7260,0.08,0.13,-1.00,3.91,2.20,-0.06
27.7490,0.08,0.12,-0.98,4.03,2.08,-0.06
27.7660,0.08,0.12,-0.99,3.78,2.38,0.43
27.7810,0.08,0.11,-0.99,3.85,2.50,0.55
27.7960,0.08,0.11,-0.99,3.23,2.14,1.16
27.7990,0.08,0.12,-0.99,2.87,2.01,0.98
27.8140,0.09,0.12,-0.98,3.66,2.38,-0.31
27.8410,0.08,0.11,-0.99,4.21,2.50,-1.59
27.8520,0.08,0.12,-0.98,3.30,2.50,-0.92
27.8680,0.08,0.13,-0.98,3.48,2.20,0.31
27.8850,0.08,0.12,-0.98,3.72,2.14,0.79
27.9010,0.08,0.12,-0.98,3.66,2.01,1.28
27.9180,0.08,0.11,-0.98,3.66,1.83,0.61
27.9330,0.08,0.11,-0.99,3.66,2.56,0.24
27.9500,0.08,0.11,-0.99,3.30,2.38,0.49
27.9660,0.08,0.12,-0.99,2.99,2.32,1.65
27.9690,0.08,0.12,-0.99,3.48,2.44,0.92
27.9840,0.08,0.12,-0.99,3.66,2.56,0.43
28.0070,0.08,0.12,-0.99,3.66,2.44,0.06
28.0240,0.08,0.12,-0.99,3.78,2.32,-0.24
28.0400,0.08,0.11,-0.99,3.54,2.26,0.31
28.0570,0.08,0.12,-0.99,3.23,2.69,0.12
28.0730,0.08,0.11,-0.99,3.30,2.69,0.49
28.0880,0.08,0.11,-0.99,3.66,1.89,0.98
28.1030,0.08,0.11,-0.99,3.42,2.20,0.55
28.1190,0.09,0.13,-0.99,3.48,2.26,0.61
28.1240,0.08,0.11,-0.99,3.72,2.75,-0.67
28.1490,0.08,0.12,-0.99,3.23,2.56,0.00
28.1640,0.08,0.12,-0.99,3.11,2.50,0.98
28.1740,0.08,0.13,-0.99,3.30,2.20,0.85
28.1910,0.08,0.13,-0.99,3.42,2.20,0.98
28.2070,0.08,0.11,-0.99,3.60,2.50,1.16
28.2240,0.08,0.12,-0.99,3.72,2.20,1.28
28.2400,0.08,0.11,-0.99,3.72,2.14,0.98
28.2570,0.08,0.10,-0.99,3.54,2.32,0.79
28.2730,0.08,0.12,-0.99,3.05,2.26,1.28
28.2880,0.08,0.12,-0.99,3.05,2.32,1.65
28.2910,0.08,0.12,-0.99,3.36,2.26,2.56
28.3060,0.08,0.12,-0.99,3.30,2.01,2.38
28.3310,0.08,0.12,-0.99,3.30,2.38,2.26
28.3480,0.08,0.12,-0.99,3.36,2.01,1.83
28.3650,0.08,0.11,-0.99,3.42,2.26,1.40
28.3810,0.08,0.12,-0.99,3.42,2.26,1.10
28.3960,0.08,0.12,-0.99,3.30,2.08,1.22
28.4110,0.08,0.12,-0.99,3.36,2.32,1.95
28.4140,0.08,0.12,-0.99,3.23,2.50,2.26
28.4300,0.08,0.12,-0.99,3.36,2.08,2.14
28.4520,0.08,0.12,-0.99,3.54,1.89,1.46
28.4690,0.08,0.11,-0.99,3.48,2.14,1.46
28.4870,0.08,0.11,-0.99,3.36,2.56,1.28
28.5020,0.08,0.12,-0.99,3.42,2.26,1.34
28.5180,0.08,0.12,-0.99,3.36,2.50,1.40
28.5340,0.08,0.12,-0.99,3.17,2.44,1.59
28.5490,0.08,0.12,-0.99,3.36,2.50,1.40
28.5640,0.08,0.12,-0.99,3.60,2.32,1.16
28.5790,0.08,0.11,-0.99,3.60,2.69,0.85
28.5940,0.08,0.11,-0.99,3.42,2.50,0.92
28.6090,0.08,0.10,-0.99,3.11,2.38,1.04
28.6190,0.08,0.13,-0.99,3.17,2.32,1.16
28.6360,0.08,0.13,-0.99,3.48,2.38,1.22
28.6520,0.08,0.12,-0.99,3.42,2.38,1.22
28.6680,0.08,0.11,-0.99,3.48,2.20,1.16
28.6860,0.08,0.11,-0.99,3.30,2.50,1.04
28.7010,0.08,0.11,-0.99,3.23,2.32,1.28
28.7170,0.08,0.11,-0.99,3.11,2.62,1.22
28.7330,0.08,0.12,-0.98,2.87,2.44,0.85
28.7490,0.08,0.13,-1.00,3.36,2.50,0.37
28.7580,0.08,0.11,-0.97,3.48,2.69,0.37
28.7670,0.08,0.13,-1.00,3.42,2.38,1.10
28.7910,0.08,0.12,-1.00,3.48,2.38,1.59
28.8060,0.08,0.12,-0.99,3.48,2.38,1.59
28.8240,0.08,0.11,-0.99,3.36,2.26,1.34
28.8410,0.08,0.12,-0.99,3.42,2.50,1.04
28.8570,0.08,0.12,-1.00,3.72,2.26,1.10
28.8730,0.08,0.12,-0.99,3.54,2.38,1.22
28.8900,0.08,0.11,-0.99,3.17,2.32,1.10
28.9050,0.08,0.11,-0.99,3.11,2.38,0.67
28.9200,0.08,0.12,-0.99,3.23,2.50,0.06
28.9350,0.08,0.12,-0.99,3.60,2.69,0.00
28.9510,0.08,0.12,-0.99,3.91,2.62,-0.49
28.9650,0.08,0.12,-0.98,3.66,2.93,-0.73
28.9810,0.08,0.12,-0.99,3.54,2.32,0.18
28.9950,0.08,0.11,-0.99,3.30,2.56,-0.24
29.0060,0.08,0.12,-0.99,2.75,2.38,0.43
29.0240,0.08,0.12,-0.99,3.30,2.87,0.37
29.0400,0.08,0.12,-0.99,3.48,2.69,0.37
29.0560,0.08,0.10,-0.99,3.85,2.08,-0.31
29.0710,0.08,0.10,-0.99,3.54,2.44,-0.43
29.0870,0.08,0.13,-0.99,3.36,2.38,-0.55
29.1040,0.08,0.12,-0.99,3.66,2.93,-0.06
29.1200,0.08,0.11,-0.99,3.36,2.50,0.49
29.1360,0.08,0.12,-0.99,2.87,2.56,0.85
29.1520,0.08,0.12,-0.99,3.54,2.75,0.24
29.1590,0.08,0.12,-1.00,3.30,2.62,0.37
29.1820,0.08,0.12,-0.99,3.42,2.69,0.18
29.1910,0.08,0.13,-1.01,3.36,2.87,-0.06
29.2060,0.08,0.12,-0.99,3.85,3.17,-0.24
29.2240,0.08,0.11,-0.97,3.78,2.38,0.43
29.2390,0.08,0.12,-0.99,3.72,2.44,0.67
29.2580,0.08,0.11,-0.98,3.11,2.75,-0.37
29.2730,0.08,0.12,-0.99,3.17,2.81,-0.67
29.2900,0.08,0.12,-0.99,3.54,2.56,-1.22
29.3050,0.08,0.12,-0.98,3.36,2.56,1.28
29.3210,0.08,0.11,-0.99,3.23,2.62,0.49
29.3300,0.08,0.12,-1.00,3.05,2.62,-0.12
29.3460,0.08,0.12,-0.99,3.48,2.69,-0.85
29.3660,0.08,0.11,-1.00,3.36,2.69,0.12
29.3810,0.08,0.13,-0.99,3.11,2.44,0.73
29.3860,0.08,0.12,-0.99,3.66,2.69,0.67
29.4010,0.08,0.13,-0.99,3.30,2.32,1.04
29.4240,0.08,0.12,-0.99,3.54,2.50,1.28
29.4400,0.08,0.11,-0.99,3.42,2.20,0.85
29.4570,0.08,0.10,-0.99,3.54,2.32,0.31
29.4730,0.08,0.10,-0.99,3.42,2.50,-0.61
29.4890,0.08,0.12,-0.98,3.23,3.05,-0.43
29.4900,0.08,0.11,-0.99,3.85,2.62,-0.12
29.5210,0.08,0.11,-0.98,3.11,2.62,0.67
29.5360,0.08,0.13,-1.00,3.36,2.38,0.24
29.5530,0.08,0.12,-1.01,3.48,2.56,0.18
29.5690,0.08,0.11,-1.00,3.42,2.62,-0.24
29.5740,0.08,0.11,-0.99,3.23,2.44,0.49
29.5890,0.08,0.12,-1.00,3.17,2.26,0.55
29.6120,0.08,0.12,-0.99,3.23,2.87,-0.06
29.6290,0.08,0.12,-0.99,3.72,2.62,0.61
29.6450,0.08,0.11,-0.99,3.17,2.75,0.55
29.6600,0.08,0.12,-0.99,3.48,2.62,0.73
29.6760,0.08,0.12,-1.00,3.48,2.69,0.31
29.6910,0.08,0.12,-0.99,3.66,2.38,0.24
29.7070,0.08,0.11,-0.99,3.42,2.26,-0.18
29.7230,0.08,0.11,-0.99,3.78,2.56,0.31
29.7390,0.08,0.10,-0.99,3.54,2.56,0.06
29.7550,0.08,0.12,-0.98,3.42,2.50,-0.61
29.7700,0.08,0.11,-0.98,3.60,2.44,-0.43
29.7850,0.08,0.12,-1.00,3.48,2.32,-0.61
29.7950,0.08,0.13,-0.99,3.36,2.44,-1.59
29.8110,0.07,0.12,-1.00,4.03,2.26,-0.43
29.8290,0.08,0.13,-0.98,3.11,2.20,0.37
29.8450,0.08,0.13,-1.00,3.36,2.56,0.06
29.8600,0.08,0.13,-1.00,3.60,1.83,0.73
29.8770,0.08,0.13,-0.99,3.30,1.95,1.59
29.8780,0.08,0.12,-0.99,3.66,1.95,1.59
29.8940,0.08,0.11,-0.99,3.72,1.71,1.40
29.9180,0.08,0.11,-0.99,3.36,2.38,0.92
29.9350,0.08,0.11,-0.99,3.42,2.32,0.67
29.9510,0.08,0.11,-0.99,3.54,2.50,0.18
29.9670,0.08,0.11,-0.99,3.54,1.89,0.24
29.9830,0.08,0.12,-0.99,3.60,2.20,0.73
29.9990,0.08,0.13,-0.99,3.30,1.89,1.10
30.0140,0.08,0.12,-0.99,3.42,2.14,0.67
30.0290,0.08,0.11,-0.99,3.60,2.20,0.12
30.0440,0.08,0.12,-0.99,3.60,2.14,-0.06
30.0600,0.08,0.12,-0.99,3.48,2.99,-0.12
30.0740,0.08,0.12,-0.99,3.66,2.62,0.18
30.0900,0.08,0.13,-0.98,3.17,2.50,0.85
30.1010,0.08,0.13,-0.99,3.23,2.14,1.04
30.1170,0.08,0.12,-1.00,3.42,2.56,1.34
30.1340,0.08,0.11,-0.98,3.23,2.75,1.28
30.1500,0.08,0.12,-0.99,3.42,2.38,1.22
30.1650,0.08,0.11,-1.00,3.85,2.26,0.67
30.1810,0.08,0.11,-0.99,3.78,2.01,0.37
30.1970,0.08,0.13,-1.00,3.30,2.62,0.31
30.2120,0.08,0.13,-0.98,3.42,2.50,0.37
30.2180,0.08,0.11,-0.99,3.72,2.38,0.67
30.2330,0.08,0.12,-1.00,3.54,2.14,0.55
30.2570,0.08,0.12,-0.99,3.66,2.26,0.98
30.2730,0.08,0.12,-0.99,3.60,2.08,1.28
30.2880,0.08,0.12,-1.00,3.42,2.08,1.22
30.2910,0.08,0.11,-0.97,3.05,2.32,0.98
30.3060,0.08,0.12,-1.00,3.23,2.62,1.46
30.3220,0.08,0.12,-1.01,3.48,2.38,1.65
30.3460,0.08,0.11,-0.99,3.54,2.20,0.98
30.3620,0.08,0.12,-1.00,3.42,2.26,0.61
30.3780,0.08,0.12,-1.00,3.60,2.44,-0.06
30.3940,0.08,0.13,-1.00,3.42,2.56,-0.12
30.4100,0.08,0.13,-0.99,3.48,2.44,0.79
30.4260,0.08,0.12,-1.00,3.60,2.32,0.98
30.4410,0.08,0.12,-0.99,3.48,2.50,0.92
30.4570,0.08,0.11,-0.99,3.30,2.81,1.16
30.4730,0.08,0.12,-0.99,3.36,2.69,1.22
30.4890,0.08,0.12,-0.99,3.42,2.69,0.98
30.5050,0.08,0.12,-0.99,3.48,2.26,0.61
30.5210,0.08,0.11,-0.99,3.54,2.26,1.34
30.5280,0.08,0.12,-0.98,3.30,1.83,1.40
30.5440,0.08,0.12,-0.98,3.42,2.08,1.46
30.5650,0.08,0.12,-0.99,3.42,2.08,1.40
30.5820,0.08,0.11,-0.99,3.23,2.14,1.40
30.5980,0.08,0.11,-0.99,2.99,2.50,1.83
30.6150,0.08,0.11,-0.99,3.30,2.50,1.71
30.6320,0.08,0.11,-0.99,3.05,2.14,1.28
30.6470,0.08,0.11,-0.99,3.05,2.26,0.37
30.6620,0.08,0.11,-0.99,3.36,2.50,0.18
30.6650,0.08,0.12,-0.99,3.30,2.44,-0.24
30.6810,0.08,0.13,-0.99,2.99,2.38,0.12
30.7050,0.08,0.13,-0.99,3.30,2.44,0.73
30.7230,0.08,0.12,-0.99,3.66,2.26,0.79
30.7380,0.08,0.12,-0.99,3.48,2.56,0.49
30.7550,0.08,0.12,-0.99,3.17,2.44,0.98
30.7590,0.08,0.11,-0.99,3.42,2.38,0.00
30.7870,0.08,0.11,-0.99,3.48,2.26,-0.18
30.7890,0.08,0.12,-1.00,3.54,2.81,0.18
30.8190,0.08,0.12,-0.98,3.91,2.44,0.24
30.8220,0.08,0.13,-0.98,3.54,2.32,0.37
30.8380,0.08,0.11,-0.98,3.48,2.38,0.85
30.8670,0.08,0.10,-1.00,3.66,2.38,0.24
30.8720,0.08,0.12,-1.00,3.36,2.26,-0.12
30.8880,0.08,0.12,-0.99,3.42,2.50,-0.92
30.9050,0.08,0.12,-0.98,3.48,2.14,0.00
30.9220,0.08,0.13,-0.99,3.42,2.44,0.00
30.9370,0.08,0.11,-0.99,3.36,2.69,-0.37
30.9590,0.08,0.12,-0.99,3.23,2.62,-0.18
30.9750,0.08,0.12,-0.99,3.23,2.56,0.31
30.9930,0.08,0.12,-0.99,3.42,2.01,1.10
31.0090,0.08,0.12,-0.99,3.36,2.56,1.34
31.0250,0.08,0.12,-0.99,3.17,2.14,0.37
31.0410,0.08,0.12,-0.99,3.30,2.81,0.24
31.0430,0.08,0.12,-0.99,3.30,2.44,0.49
31.0730,0.08,0.11,-0.99,3.85,2.20,0.43
31.0900,0.08,0.12,-0.99,3.54,2.69,0.37
31.1060,0.08,0.12,-0.99,3.42,2.26,-0.37
31.1210,0.08,0.12,-0.99,3.17,2.50,0.31
31.1260,0.08,0.12,-0.99,3.23,2.32,0.37
31.1530,0.08,0.12,-0.99,3.48,2.32,0.37
31.1590,0.08,0.12,-0.99,3.42,2.26,0.31
31.1740,0.08,0.12,-0.99,3.36,2.20,0.24
31.1970,0.08,0.12,-0.99,3.23,2.01,0.31
31.2130,0.08,0.12,-0.98,3.23,2.08,0.06
31.2310,0.08,0.12,-0.99,3.42,2.56,-0.18
31.2450,0.08,0.12,-1.00,3.85,2.20,0.67
31.2610,0.08,0.12,-0.99,3.60,2.32,0.67
31.2760,0.08,0.12,-1.01,3.23,2.01,0.61
31.2920,0.08,0.11,-0.99,3.30,2.20,0.49
31.3080,0.08,0.12,-0.99,3.42,2.14,-0.18
31.3240,0.08,0.12,-0.99,3.60,2.75,-0.73
31.3400,0.08,0.13,-0.98,3.05,2.08,0.43
31.3560,0.08,0.12,-0.99,3.42,2.38,1.10
31.3720,0.08,0.12,-1.00,3.17,2.20,1.34
31.3880,0.08,0.11,-0.99,3.23,2.14,1.28
31.4030,0.08,0.11,-0.99,3.30,2.44,0.92
31.4130,0.08,0.11,-0.99,3.30,2.44,0.85
31.4300,0.08,0.12,-0.99,3.23,2.08,1.10
31.4460,0.08,0.12,-0.99,3.11,2.62,0.73
31.4620,0.08,0.11,-0.99,3.42,2.56,0.24
31.4780,0.08,0.11,-0.99,3.60,2.26,0.00
31.4930,0.08,0.12,-0.99,3.48,2.50,0.06
31.4960,0.08,0.12,-0.99,3.42,2.26,0.79
31.5120,0.08,0.12,-0.99,3.17,2.50,1.16
31.5400,0.08,0.12,-0.99,3.17,2.01,0.85
31.5510,0.08,0.12,-0.99,3.30,2.08,0.92
31.5680,0.08,0.12,-0.99,3.05,2.26,1.40
31.5830,0.08,0.11,-0.98,3.42,2.20,1.53
31.5990,0.08,0.12,-0.99,3.11,2.56,0.85
31.6070,0.08,0.12,-0.99,3.54,1.95,1.10
31.6240,0.08,0.11,-0.99,3.36,2.50,0.31
31.6400,0.08,0.11,-0.99,3.42,2.56,0.31
31.6630,0.08,0.11,-0.99,3.11,2.20,0.73
31.6780,0.08,0.12,-0.99,3.11,2.01,0.67
31.6930,0.08,0.12,-0.99,3.54,2.38,-0.18
31.7090,0.08,0.12,-0.99,3.42,2.56,-0.18
31.7260,0.08,0.12,-0.99,3.42,2.62,0.18
31.7410,0.08,0.12,-0.99,3.17,2.26,0.67
31.7470,0.08,0.11,-0.99,3.30,2.20,1.16
31.7630,0.08,0.11,-0.99,3.48,2.32,1.10
31.7790,0.08,0.12,-0.99,3.17,2.50,0.24
31.8010,0.08,0.11,-0.99,3.36,2.44,-0.18
31.8180,0.08,0.12,-0.99,3.30,2.20,0.31
31.8340,0.08,0.12,-0.98,3.48,2.44,1.22
31.8500,0.08,0.11,-1.00,3.36,2.56,0.79
31.8660,0.08,0.11,-0.98,3.36,2.32,0.24
31.8730,0.08,0.12,-0.97,3.11,2.38,1.22
31.8970,0.08,0.12,-1.00,3.05,2.56,1.59
31.9070,0.08,0.13,-0.99,3.11,2.38,1.40
31.9240,0.08,0.12,-0.99,3.36,2.32,0.61
31.9390,0.08,0.11,-0.99,3.66,2.56,0.37
31.9580,0.08,0.12,-0.99,3.66,2.20,0.24
31.9740,0.08,0.12,-0.99,3.60,1.77,1.22
31.9900,0.08,0.13,-0.99,3.17,1.65,1.77
32.0060,0.08,0.12,-0.99,3.17,2.26,1.71
32.0220,0.08,0.10,-0.99,3.60,2.08,1.71
32.0380,0.08,0.11,-0.99,3.42,2.26,1.59
32.0530,0.08,0.11,-0.99,3.42,2.26,0.43
32.0680,0.08,0.12,-0.98,3.30,2.56,1.22
32.0800,0.08,0.12,-0.99,3.42,2.44,1.22
32.0960,0.08,0.12,-0.99,3.23,2.38,1.28
32.1130,0.08,0.11,-0.99,3.30,2.44,1.28
32.1280,0.08,0.11,-0.99,3.42,2.26,0.79
32.1440,0.08,0.11,-0.99,3.23,2.56,0.98
32.1590,0.08,0.11,-0.99,3.48,2.26,1.04
32.1620,0.08,0.12,-0.99,3.11,2.62,1.04
32.1780,0.08,0.13,-0.99,3.11,2.14,2.01
32.2060,0.08,0.12,-0.99,2.99,2.38,2.14
32.2170,0.08,0.11,-0.99,3.11,2.20,2.01
32.2340,0.08,0.12,-0.99,3.42,2.44,1.95
32.2500,0.08,0.11,-0.99,3.48,1.95,1.65
32.2670,0.08,0.11,-0.99,3.30,2.32,1.65
32.2840,0.08,0.11,-0.99,3.05,2.20,1.77
32.3000,0.08,0.12,-0.99,3.66,2.08,1.10
32.3160,0.08,0.11,-0.99,3.36,2.38,1.16
32.3320,0.08,0.11,-0.99,3.17,2.93,0.37
32.3480,0.08,0.12,-0.99,3.36,2.08,0.49
32.3600,0.08,0.12,-0.99,3.36,2.26,1.34
32.3660,0.08,0.12,-0.99,3.17,2.81,1.53
32.3900,0.08,0.11,-0.99,3.05,2.32,1.34
32.4080,0.08,0.11,-0.99,3.54,1.95,0.06
32.4230,0.08,0.11,-0.99,3.48,2.50,-0.24
32.4390,0.08,0.12,-0.99,3.42,1.89,0.85
32.4550,0.08,0.12,-0.99,3.30,2.14,1.34
32.4710,0.08,0.12,-0.99,3.05,2.69,0.61
32.4870,0.08,0.11,-0.99,3.23,2.75,0.61
32.5020,0.08,0.11,-0.99,3.05,2.50,0.55
32.5160,0.08,0.12,-0.99,2.87,2.32,0.73
32.5230,0.08,0.13,-0.99,3.17,2.20,-0.12
32.5470,0.08,0.13,-0.99,3.54,2.20,0.43
32.5600,0.08,0.12,-0.99,3.42,1.83,0.85
32.5720,0.08,0.12,-0.99,3.48,2.69,1.59
32.5890,0.08,0.11,-0.99,3.42,2.26,0.92
32.6070,0.08,0.12,-0.99,3.17,2.38,0.61
32.6070,0.08,0.11,-0.99,3.48,2.26,0.43
32.6230,0.08,0.12,-0.99,3.60,2.01,0.92
32.6460,0.08,0.11,-0.99,3.54,2.20,0.85
32.6630,0.08,0.12,-0.99,3.23,2.26,1.65
32.6790,0.08,0.11,-0.99,3.42,2.32,0.98
32.6960,0.08,0.11,-0.99,3.36,2.32,0.37
32.7120,0.08,0.11,-0.99,3.30,2.14,0.24
32.7290,0.08,0.12,-0.99,3.30,2.44,0.06
32.7450,0.08,0.12,-0.99,3.36,2.44,0.85
32.7610,0.08,0.12,-0.99,3.48,2.20,1.77
32.7750,0.08,0.11,-0.99,3.60,1.83,1.59
32.7920,0.08,0.10,-0.99,3.48,2.26,1.40
32.7960,0.08,0.10,-0.99,3.54,2.08,0.67
32.8120,0.08,0.10,-0.99,3.48,2.38,-0.12
32.8350,0.08,0.12,-0.99,3.23,2.38,0.00
32.8510,0.08,0.13,-0.99,3.60,2.44,0.18
32.8680,0.08,0.11,-0.98,3.85,2.44,0.49
32.8850,0.08,0.11,-0.99,3.42,2.32,0.12
32.9010,0.08,0.11,-0.97,3.11,2.01,0.67
32.9180,0.08,0.12,-1.00,3.48,2.01,1.40
32.9340,0.08,0.11,-1.00,3.30,2.38,-0.37
32.9510,0.08,0.11,-0.98,3.17,2.50,-0.55
32.9660,0.08,0.11,-0.99,3.78,2.26,-0.37
32.9820,0.08,0.11,-0.99,3.42,2.44,0.06
32.9980,0.08,0.14,-0.99,3.11,2.14,1.16
33.0130,0.08,0.12,-0.99,3.48,2.32,1.04
33.0180,0.08,0.11,-0.99,3.54,2.14,0.18
33.0340,0.08,0.10,-0.99,3.42,2.01,0.55
33.0590,0.08,0.11,-0.99,3.66,2.50,0.67
33.0750,0.08,0.12,-0.99,3.48,2.38,0.55
33.0920,0.08,0.12,-0.99,3.11,2.26,0.85
33.1080,0.08,0.12,-0.98,3.11,1.95,1.28
33.1240,0.08,0.11,-0.99,3.36,2.32,1.22
33.1400,0.08,0.11,-0.99,3.48,2.44,0.79
33.1420,0.08,0.12,-0.99,3.17,2.08,0.85
33.1710,0.08,0.11,-0.99,3.42,2.26,1.22
33.1870,0.08,0.12,-0.99,2.75,2.38,1.34
33.2020,0.08,0.12,-0.99,2.81,2.26,1.22
33.2090,0.08,0.11,-0.99,3.48,1.89,1.04
33.2340,0.08,0.11,-0.99,3.23,2.62,0.67
33.2500,0.08,0.11,-0.99,3.54,2.50,1.04
33.2640,0.08,0.11,-0.99,3.17,2.20,0.98
33.2750,0.08,0.11,-0.99,3.36,2.44,0.55
33.2930,0.08,0.12,-1.00,3.11,2.50,0.73
33.3070,0.08,0.12,-1.00,3.30,2.69,1.04
33.3250,0.08,0.12,-0.99,2.87,2.38,1.28
33.3410,0.08,0.11,-0.98,3.42,2.14,1.16
33.3570,0.08,0.11,-1.00,3.36,2.38,0.49
33.3730,0.08,0.10,-1.00,3.60,2.56,0.49
33.3890,0.08,0.11,-0.99,3.11,2.38,0.49
33.3920,0.08,0.13,-0.99,3.42,2.56,0.55
33.4210,0.08,0.12,-0.98,3.48,2.32,1.46
33.4250,0.08,0.11,-0.99,3.66,2.38,0.79
33.4540,0.09,0.12,-0.99,2.87,2.50,0.79
33.4690,0.08,0.11,-0.98,3.66,2.14,0.24
33.4750,0.08,0.11,-0.99,3.23,2.44,0.73
33.5010,0.08,0.12,-0.99,3.23,2.08,0.67
33.5080,0.08,0.12,-0.99,3.66,2.56,0.31
33.5320,0.08,0.12,-0.99,3.54,1.95,1.22
33.5410,0.08,0.11,-0.99,3.54,2.14,1.53
33.5610,0.08,0.11,-0.99,3.60,2.01,1.40
33.5740,0.08,0.11,-0.99,3.60,2.62,0.31
33.5930,0.08,0.11,-0.99,3.72,2.50,0.18
33.6070,0.08,0.12,-0.99,3.48,2.56,0.37
33.6230,0.08,0.12,-0.99,3.48,2.69,0.67
33.6390,0.08,0.11,-0.98,3.54,2.81,0.79
33.6550,0.07,0.10,-1.00,3.48,2.56,0.31
33.6640,0.08,0.11,-0.98,3.23,2.26,-0.18
33.6800,0.08,0.11,-0.99,3.42,2.62,-0.18
33.7020,0.08,0.10,-0.99,3.48,2.50,0.00
33.7170,0.09,0.13,-0.99,2.93,2.75,0.85
33.7340,0.08,0.13,-1.00,3.54,2.62,0.61
33.7490,0.08,0.13,-0.98,3.72,2.01,2.08
33.7610,0.09,0.12,-0.99,3.54,1.95,1.95
33.7680,0.08,0.11,-0.99,3.23,2.62,0.55
33.7930,0.08,0.12,-0.99,3.60,2.20,1.22
33.8100,0.08,0.11,-0.99,3.60,2.62,1.22
33.8260,0.08,0.12,-0.99,3.66,2.01,1.04
33.8270,0.08,0.12,-0.99,3.54,2.08,1.65
33.8580,0.08,0.11,-0.99,3.66,1.83,1.34
33.8610,0.08,0.10,-0.99,3.42,1.89,1.22
33.8900,0.07,0.11,-0.99,3.05,2.69,-0.06
33.9060,0.08,0.12,-0.98,3.91,2.20,1.53
33.9220,0.08,0.13,-1.00,3.36,2.14,1.83
33.9380,0.08,0.11,-0.99,3.54,2.08,1.95
33.9540,0.08,0.11,-0.99,3.30,2.44,1.71
33.9690,0.08,0.11,-0.99,3.42,2.26,1.34
33.9850,0.08,0.11,-1.00,3.11,2.50,1.28
34.0030,0.07,0.11,-1.00,2.81,1.95,1.89
34.0180,0.08,0.13,-0.99,2.87,2.26,1.83
34.0260,0.08,0.12,-0.99,3.60,2.38,1.65
34.0420,0.08,0.11,-1.00,3.48,2.38,1.65
34.0620,0.08,0.11,-0.99,3.48,1.95,1.65
34.0770,0.08,0.10,-0.99,3.11,2.38,1.46
34.0930,0.08,0.11,-0.99,3.05,2.44,1.53
34.1070,0.08,0.12,-0.99,3.17,2.26,1.46
34.1230,0.08,0.11,-0.99,3.78,2.38,0.61
34.1380,0.08,0.10,-0.99,3.30,2.26,0.98
34.1430,0.08,0.11,-0.99,3.11,2.38,0.43
34.1620,0.08,0.12,-0.99,3.66,2.56,0.43
34.1830,0.08,0.11,-0.99,3.05,2.56,-0.12
34.1990,0.08,0.11,-0.99,3.30,2.14,-0.24
34.2160,0.08,0.11,-0.99,3.72,2.62,-0.67
34.2310,0.08,0.12,-0.99,3.66,3.05,-0.43
34.2460,0.08,0.12,-1.00,3.48,2.62,0.00
34.2600,0.08,0.12,-0.99,3.17,2.26,0.49
34.2760,0.08,0.11,-0.98,3.48,2.44,0.55
34.2920,0.08,0.11,-0.99,3.66,2.38,1.04
34.3070,0.08,0.12,-1.00,3.48,2.44,0.85
34.3160,0.08,0.11,-0.98,3.36,2.50,0.85
34.3310,0.08,0.12,-0.99,3.42,2.01,1.95
34.3550,0.08,0.12,-0.98,3.42,2.56,1.71
34.3710,0.08,0.11,-0.99,3.17,2.38,0.92
34.3860,0.08,0.11,-1.00,3.30,2.26,1.53
34.4020,0.08,0.11,-0.99,3.36,1.65,1.95
34.4170,0.07,0.10,-0.98,3.17,2.81,0.55
34.4330,0.08,0.13,-1.00,3.23,1.95,1.22
34.4390,0.08,0.12,-0.99,3.78,2.20,0.73
34.4620,0.08,0.12,-0.99,3.72,2.20,0.24
34.4770,0.07,0.12,-1.00,3.54,2.01,0.98
34.4930,0.08,0.12,-0.99,3.48,2.01,1.71
34.5090,0.07,0.11,-1.00,3.66,2.20,1.71
34.5250,0.08,0.10,-1.00,3.30,1.89,1.83
34.5400,0.07,0.10,-1.00,2.93,2.08,1.53
34.5440,0.08,0.12,-1.00,2.99,1.77,2.75
34.5730,0.08,0.12,-1.00,3.11,2.08,2.50
34.5890,0.08,0.11,-1.00,3.05,1.83,2.01
34.6050,0.08,0.11,-1.00,3.05,2.38,2.38
34.6210,0.08,0.12,-1.00,3.11,2.38,3.48
34.6360,0.08,0.12,-0.99,3.11,2.08,2.62
34.6520,0.08,0.13,-0.99,3.11,2.38,1.40
34.6620,0.08,0.13,-0.99,3.42,2.38,0.61
34.6760,0.08,0.12,-0.99,3.42,2.14,0.67
34.6970,0.08,0.10,-0.99,3.36,2.26,1.04
34.7120,0.08,0.09,-0.99,3.42,1.77,1.53
34.7270,0.08,0.10,-0.99,2.87,2.44,0.67
34.7430,0.08,0.13,-0.98,3.11,1.77,1.53
34.7580,0.08,0.12,-0.99,3.42,2.26,1.16
34.7740,0.08,0.10,-0.99,3.23,2.14,0.61
34.7840,0.08,0.12,-0.99,3.42,2.32,0.67
34.8000,0.08,0.09,-0.99,3.66,2.44,0.67
34.8160,0.08,0.12,-0.99,2.93,1.95,1.28
34.8260,0.08,0.12,-0.99,2.99,2.20,0.98
34.8440,0.08,0.13,-0.99,3.42,2.50,0.73
34.8620,0.08,0.11,-0.99,3.78,2.26,-0.12
34.8770,0.08,0.12,-0.99,3.36,2.32,0.49
34.8920,0.08,0.12,-0.99,3.60,2.44,1.10
34.9090,0.08,0.11,-0.99,3.36,2.32,1.16
34.9250,0.08,0.10,-0.99,3.36,2.50,0.43
34.9400,0.07,0.11,-1.00,3.42,1.77,0.92
34.9570,0.08,0.13,-0.97,3.30,1.77,2.69
34.9720,0.08,0.12,-1.00,3.48,2.01,1.65
34.9880,0.08,0.11,-0.99,3.23,2.56,1.59
35.0030,0.08,0.11,-0.98,3.42,1.95,1.34
35.0190,0.08,0.11,-0.98,3.36,1.89,0.92
35.0330,0.08,0.12,-0.99,3.42,2.32,2.08
35.0480,0.08,0.11,-0.99,3.85,1.83,1.77
35.0620,0.08,0.12,-0.99,3.60,1.65,1.71
35.0750,0.08,0.11,-0.98,3.36,1.89,1.59
35.0950,0.08,0.11,-0.99,3.36,1.83,1.59
35.1010,0.08,0.11,-1.00,3.60,2.14,1.77
35.1240,0.08,0.10,-0.99,3.48,2.08,1.71
35.1350,0.08,0.12,-0.99,2.99,2.08,2.32
35.1510,0.08,0.11,-0.99,3.42,2.08,1.65
35.1680,0.08,0.12,-0.99,3.36,2.26,1.83
35.1840,0.08,0.12,-0.99,3.66,1.83,2.08
35.2000,0.08,0.11,-0.99,3.72,1.83,1.71
35.2160,0.08,0.10,-0.99,3.85,1.89,2.20
35.2320,0.08,0.09,-0.99,3.60,2.01,3.17
35.2490,0.08,0.11,-0.99,3.11,1.71,4.39
35.2650,0.08,0.11,-0.99,3.42,1.46,4.52
35.2800,0.08,0.12,-0.99,3.36,1.83,4.70
35.2960,0.08,0.12,-0.99,3.42,1.95,4.33
35.3010,0.07,0.10,-0.99,3.05,2.08,4.09
35.3170,0.08,0.11,-0.99,2.99,1.95,4.94
35.3390,0.08,0.12,-0.97,2.99,2.01,4.70
35.3550,0.08,0.13,-0.98,3.42,2.20,3.48
35.3720,0.08,0.13,-1.00,3.42,1.89,2.26
35.3890,0.08,0.11,-0.98,3.23,2.38,2.01
35.4050,0.08,0.11,-0.98,3.48,2.14,1.83
35.4200,0.08,0.12,-1.00,3.42,1.89,1.95
35.4370,0.08,0.11,-0.99,3.11,2.26,1.59
35.4530,0.08,0.11,-0.99,3.30,2.32,1.77
35.4690,0.08,0.11,-0.99,3.23,1.89,1.83
35.4850,0.08,0.11,-0.99,3.42,1.83,1.83
35.5010,0.08,0.11,-0.98,3.66,1.65,1.77
35.5060,0.08,0.12,-1.00,3.60,1.89,1.71
35.5210,0.08,0.11,-0.99,3.30,2.20,1.77
35.5450,0.08,0.11,-0.99,3.42,1.95,1.65
35.5620,0.08,0.12,-1.00,3.48,2.20,1.59
35.5770,0.08,0.11,-0.99,3.23,2.38,1.77
35.5930,0.08,0.11,-0.99,3.36,2.01,1.77
35.6090,0.08,0.11,-0.99,3.36,2.08,1.59
35.6250,0.08,0.11,-0.99,3.48,2.01,1.71
35.6400,0.08,0.11,-0.99,3.66,2.20,1.65
35.6560,0.08,0.11,-0.99,3.42,2.26,1.71
35.6720,0.08,0.11,-0.99,3.23,2.38,1.77
35.6870,0.08,0.11,-0.99,3.36,2.14,1.71
35.6950,0.08,0.12,-1.01,3.30,2.01,1.77
35.7100,0.08,0.12,-1.01,3.23,1.95,1.71
35.7330,0.08,0.12,-1.00,3.11,2.38,1.83
35.7490,0.08,0.11,-0.99,3.23,2.44,1.77
35.7650,0.08,0.11,-0.98,3.36,2.14,1.71
35.7810,0.08,0.11,-0.98,3.05,2.32,1.77
35.7840,0.08,0.11,-0.98,3.23,2.44,1.77
35.8000,0.08,0.11,-0.98,3.36,2.26,1.83
35.8230,0.08,0.11,-0.98,3.54,2.14,1.83
35.8400,0.08,0.11,-0.99,3.42,2.01,1.83
35.8560,0.08,0.12,-1.00,3.48,2.08,1.65
35.8740,0.08,0.12,-1.00,3.54,2.14,1.89
35.8890,0.08,0.11,-0.99,3.78,2.01,1.65
35.9050,0.08,0.11,-0.99,3.48,1.89,1.83
35.9210,0.08,0.11,-0.99,3.48,1.89,1.83
35.9370,0.08,0.11,-0.99,3.72,1.95,1.83
35.9530,0.08,0.11,-0.99,3.78,1.95,1.89
35.9690,0.09,0.11,-0.98,4.52,1.40,1.83
35.9840,0.08,0.11,-0.97,4.39,1.95,1.89
35.9890,0.08,0.12,-1.00,4.33,1.89,1.77
36.0050,0.08,0.12,-0.99,4.21,1.83,1.77
36.0280,0.08,0.11,-0.97,3.72,2.01,1.89
36.0440,0.08,0.12,-1.00,3.30,2.08,1.71
36.0590,0.08,0.12,-1.00,3.17,2.56,1.65
36.0740,0.08,0.12,-1.00,2.75,2.50,1.65
36.0900,0.08,0.12,-1.00,2.81,2.38,1.65
36.1060,0.11,0.12,-1.03,2.81,2.56,1.65
36.1220,0.08,0.11,-0.99,2.32,2.62,1.71
36.1370,0.08,0.12,-1.00,2.32,2.69,1.71
36.1520,0.07,0.12,-0.99,2.01,2.69,2.38
36.1670,0.08,0.11,-0.99,2.14,2.75,2.75
36.1800,0.09,0.15,-1.00,5.00,2.26,1.53
36.1950,0.08,0.10,-0.99,2.01,2.62,1.65
36.2120,0.08,0.11,-0.98,2.99,2.44,1.65
36.2130,0.08,0.11,-0.98,3.17,2.62,1.71
36.2430,0.08,0.11,-0.98,3.23,2.20,1.71
36.2590,0.08,0.11,-0.98,3.36,2.20,1.77
36.2650,0.08,0.11,-0.98,3.11,2.20,1.65
36.2780,0.08,0.11,-0.98,3.05,2.20,1.71
36.3010,0.08,0.11,-0.98,2.99,2.44,1.83
36.3170,0.08,0.11,-0.99,3.23,2.08,1.83
36.3330,0.08,0.11,-0.99,2.99,2.56,1.89
36.3500,0.08,0.11,-0.99,3.17,2.14,1.77
36.3650,0.08,0.11,-0.99,3.17,2.14,1.65
36.3820,0.08,0.11,-0.99,3.17,2.14,1.71
36.3980,0.08,0.11,-0.99,3.17,2.32,1.71
36.4140,0.08,0.11,-0.99,3.60,2.44,1.77
36.4290,0.08,0.11,-0.99,3.91,2.26,1.77
36.4440,0.08,0.12,-0.99,4.15,1.83,2.44
36.4600,0.08,0.11,-0.99,3.36,2.01,3.60
36.4750,0.04,0.13,-0.98,3.17,1.40,6.77
36.4890,0.09,0.09,-0.99,2.56,1.53,7.14
36.5000,0.09,0.11,-1.00,3.54,1.89,2.87
36.5180,0.07,0.13,-1.00,3.36,2.08,2.69
36.5340,0.08,0.13,-0.99,3.05,1.59,4.76
36.5490,0.08,0.11,-0.99,2.93,1.83,5.43
36.5640,0.08,0.08,-0.98,1.95,1.77,3.72
36.5790,0.08,0.11,-0.99,2.69,2.26,1.83
36.5940,0.08,0.09,-1.01,0.79,2.62,1.59
36.6020,0.08,0.11,-0.99,3.72,2.26,1.71
36.6180,0.08,0.11,-0.99,2.62,2.08,1.71
36.6350,0.08,0.11,-0.99,2.99,2.38,1.77
36.6510,0.08,0.11,-0.99,3.23,2.20,1.71
36.6680,0.08,0.11,-0.99,3.23,1.95,1.65
36.6840,0.08,0.11,-0.99,3.23,2.08,1.83
36.7000,0.08,0.11,-0.99,3.36,2.08,1.89
36.7170,0.08,0.11,-0.99,3.23,2.56,1.65
36.7330,0.08,0.11,-0.99,3.17,2.08,1.71
36.7490,0.08,0.11,-0.99,3.30,2.26,1.89
36.7640,0.08,0.11,-0.99,3.36,2.56,1.77
36.7810,0.08,0.11,-0.99,3.23,2.20,1.77
36.7840,0.08,0.11,-0.99,3.42,2.01,1.83
36.8000,0.08,0.11,-0.99,3.36,2.26,1.77
36.8230,0.08,0.11,-0.99,3.36,2.20,1.83
36.8400,0.08,0.11,-0.99,3.60,2.20,1.77
36.8570,0.08,0.11,-0.99,3.42,2.32,1.89
36.8730,0.08,0.11,-0.99,3.60,2.08,1.83
36.8900,0.08,0.11,-0.99,3.42,1.95,1.89
36.9060,0.08,0.11,-0.99,3.36,2.26,1.83
36.9220,0.08,0.11,-0.99,3.30,2.20,1.83
36.9380,0.08,0.11,-0.99,3.23,2.44,1.89
36.9540,0.08,0.11,-0.99,3.23,2.26,1.77
36.9700,0.08,0.11,-0.99,3.36,2.38,1.77
36.9740,0.08,0.11,-0.99,3.23,2.20,1.77
36.9890,0.08,0.11,-0.99,3.60,2.32,1.89
37.0050,0.08,0.11,-0.97,3.30,2.26,1.89
37.0310,0.09,0.11,-1.01,3.42,1.95,1.77
37.0460,0.08,0.11,-0.96,3.48,2.08,1.95
37.0630,0.09,0.11,-1.00,3.36,2.32,1.77
37.0790,0.08,0.11,-0.99,3.36,2.08,1.83
37.0940,0.08,0.11,-0.99,3.30,2.14,1.71
37.1090,0.08,0.11,-0.97,3.48,2.08,1.83
37.1130,0.08,0.11,-0.99,3.42,2.01,1.77
37.1290,0.08,0.11,-1.00,3.60,2.26,1.89
37.1540,0.08,0.11,-0.99,3.72,1.89,1.83
37.1700,0.08,0.11,-0.98,3.42,2.26,1.83
37.1860,0.08,0.11,-0.99,3.30,2.32,1.83
37.2030,0.08,0.11,-1.00,3.48,2.14,1.71
37.2040,0.08,0.11,-1.00,3.30,2.44,1.71
37.2200,0.08,0.11,-0.98,3.42,2.20,1.71
37.2510,0.08,0.11,-0.99,3.78,2.44,1.89
37.2660,0.08,0.12,-0.99,3.91,2.26,2.08
37.2710,0.08,0.11,-0.99,3.60,2.32,2.50
37.2870,0.08,0.11,-0.99,3.72,2.08,2.20
37.3030,0.08,0.12,-0.99,4.03,2.26,2.20
37.3260,0.08,0.11,-0.99,3.91,2.50,2.62
37.3430,0.08,0.11,-0.99,3.60,2.08,2.20
37.3600,0.08,0.11,-0.99,3.23,2.20,1.95
37.3760,0.08,0.11,-0.99,3.30,2.50,1.89
37.3920,0.08,0.11,-0.99,3.48,2.20,1.83
37.4080,0.08,0.11,-0.99,3.72,2.01,1.89
37.4230,0.08,0.11,-0.99,3.60,2.32,2.08
37.4400,0.08,0.11,-0.98,3.60,2.08,2.08
37.4560,0.07,0.12,-1.00,3.36,2.14,2.38
37.4720,0.08,0.11,-1.01,3.11,2.08,2.75
37.4870,0.09,0.11,-0.99,3.17,1.95,2.56
37.5020,0.09,0.11,-0.98,3.60,1.71,2.14
37.5090,0.08,0.11,-0.99,3.85,1.77,1.83
37.5320,0.08,0.12,-1.00,3.60,2.56,1.89
37.5430,0.08,0.11,-0.99,3.05,1.95,1.77
37.5590,0.08,0.11,-0.99,3.23,2.26,1.89
37.5760,0.08,0.11,-0.99,3.36,1.95,1.89
37.5930,0.07,0.12,-0.99,3.36,2.08,2.08
37.6080,0.08,0.11,-0.99,3.11,1.95,2.38
37.6250,0.08,0.11,-0.99,2.26,2.32,1.77
37.6400,0.08,0.11,-0.99,3.91,2.01,1.83
37.6570,0.08,0.11,-0.99,3.85,2.20,1.83
37.6730,0.08,0.12,-0.99,3.54,2.14,1.65
37.6890,0.08,0.11,-0.99,2.99,2.14,1.71
37.7050,0.07,0.12,-0.99,3.23,2.08,1.65
37.7210,0.07,0.12,-0.99,3.23,2.20,1.59
37.7280,0.07,0.12,-0.99,3.42,2.20,1.22
37.7430,0.08,0.11,-0.99,4.21,2.26,0.79
37.7650,0.08,0.11,-1.00,4.09,2.01,0.73
37.7840,0.08,0.11,-0.98,3.60,2.56,0.79
37.8000,0.08,0.12,-1.00,3.60,2.32,1.04
37.8160,0.08,0.11,-0.99,3.54,2.56,1.16
37.8190,0.09,0.11,-1.00,3.66,2.32,1.04
37.8340,0.09,0.11,-0.99,3.60,2.44,1.28
37.8580,0.07,0.12,-0.99,3.72,2.08,1.16
37.8750,0.07,0.12,-0.98,3.72,2.20,0.85
37.8910,0.08,0.11,-0.98,3.42,2.32,0.55
37.8920,0.08,0.11,-0.99,2.99,2.69,1.10
37.9230,0.08,0.11,-0.99,3.23,2.14,1.46
37.9380,0.09,0.11,-1.00,3.42,2.38,1.40
37.9530,0.09,0.11,-1.00,3.42,2.44,1.46
37.9700,0.08,0.11,-0.99,3.36,2.01,1.71
37.9850,0.08,0.11,-0.99,3.36,2.01,1.71
37.9910,0.08,0.11,-0.98,3.48,2.01,1.53
38.0070,0.08,0.11,-0.98,3.78,2.01,1.53
38.0310,0.08,0.11,-0.98,3.78,2.20,1.46
38.0450,0.07,0.12,-0.98,3.48,2.81,1.28
38.0610,0.08,0.12,-1.00,3.36,2.44,1.04
38.0680,0.08,0.11,-0.97,3.78,2.69,0.79
38.0840,0.09,0.11,-0.99,4.03,2.56,0.55
38.1050,0.08,0.11,-1.00,4.15,2.26,0.37
38.1230,0.08,0.12,-1.00,3.91,2.38,-0.24
38.1390,0.08,0.12,-0.99,3.48,2.38,0.43
38.1540,0.08,0.12,-1.00,3.42,2.26,0.61
38.1710,0.08,0.12,-1.00,3.54,2.26,0.43
38.1740,0.08,0.12,-0.99,3.60,2.26,0.67
38.2000,0.08,0.12,-0.99,3.30,2.44,1.10
38.2060,0.07,0.12,-0.99,3.23,2.26,1.28
38.2230,0.07,0.11,-0.98,2.99,2.32,1.46
38.2410,0.08,0.11,-0.98,3.30,2.62,1.53
38.2560,0.09,0.11,-0.99,3.97,2.14,1.53
38.2730,0.08,0.11,-0.99,4.09,2.44,1.40
38.2900,0.07,0.11,-0.99,3.72,2.56,1.10
38.2910,0.07,0.12,-0.99,3.66,2.50,0.24
38.3220,0.08,0.12,-0.99,3.36,2.81,0.06
38.3380,0.08,0.12,-0.99,3.48,2.26,0.67
38.3400,0.08,0.11,-0.99,3.42,2.56,0.73
38.3670,0.08,0.11,-0.98,3.42,2.99,0.67
38.3730,0.08,0.12,-1.00,3.54,2.32,0.61
38.3900,0.08,0.11,-0.98,3.48,2.44,0.55
38.4060,0.08,0.12,-0.99,3.66,2.01,0.43
38.4280,0.08,0.12,-1.00,3.78,2.75,0.18
38.4460,0.07,0.11,-0.99,3.72,2.62,0.24
38.4620,0.08,0.12,-0.99,3.54,2.62,0.37
38.4770,0.09,0.11,-1.00,3.48,2.56,0.61
38.4790,0.08,0.12,-0.99,3.48,2.32,0.73
38.5090,0.08,0.12,-1.00,3.48,2.32,0.79
38.5240,0.08,0.11,-0.99,3.48,2.32,1.22
38.5410,0.08,0.11,-0.98,3.36,2.38,0.85
38.5570,0.08,0.11,-0.98,3.66,2.56,0.92
38.5680,0.08,0.12,-1.00,3.72,2.56,0.31
38.5770,0.07,0.11,-0.97,3.72,2.38,0.12
38.6010,0.08,0.12,-0.99,3.36,2.20,0.73
38.6180,0.08,0.12,-1.00,3.11,2.38,0.79
38.6340,0.08,0.12,-1.00,3.66,1.89,0.85
38.6500,0.08,0.12,-0.99,3.36,2.44,0.67
38.6670,0.08,0.12,-1.00,3.17,2.14,1.04
38.6830,0.08,0.12,-1.00,2.93,2.56,1.65
38.6990,0.09,0.12,-1.00,3.42,2.38,1.77
38.7150,0.09,0.11,-1.00,3.36,2.75,1.77
38.7180,0.08,0.12,-1.00,3.72,2.56,1.46
38.7340,0.08,0.12,-0.99,3.42,1.95,1.28
38.7590,0.08,0.12,-0.99,3.17,2.32,1.22
38.7760,0.08,0.11,-0.99,3.17,2.99,1.59
38.7920,0.08,0.11,-0.99,3.36,2.50,1.40
38.8090,0.08,0.12,-0.99,3.85,2.08,1.40
38.8250,0.08,0.12,-0.99,3.17,2.44,1.46
38.8260,0.07,0.12,-0.99,3.05,2.62,1.65
38.8570,0.08,0.12,-1.00,3.11,2.62,1.77
38.8730,0.08,0.12,-0.99,3.36,1.95,1.77
38.8890,0.08,0.12,-1.00,3.48,2.14,1.71
38.9050,0.07,0.12,-0.99,3.66,2.26,1.53
38.9210,0.08,0.11,-0.98,3.54,2.20,1.16
38.9370,0.08,0.12,-0.98,3.48,2.32,1.10
38.9530,0.08,0.12,-0.99,3.30,2.81,1.34
38.9680,0.08,0.12,-0.99,3.36,2.38,1.65
38.9750,0.09,0.12,-0.99,3.54,2.38,1.53
39.0000,0.09,0.11,-0.99,3.36,2.62,1.65
39.0150,0.09,0.12,-0.99,3.42,2.50,1.53
39.0310,0.08,0.12,-0.99,3.30,2.26,1.40
39.0470,0.08,0.11,-0.99,3.48,2.08,1.65
39.0620,0.08,0.11,-0.98,3.54,2.26,1.65
39.0790,0.07,0.12,-0.99,3.30,2.14,1.34
39.0950,0.08,0.11,-0.97,3.30,2.38,1.40
39.1100,0.08,0.12,-1.00,3.54,2.38,1.04
39.1260,0.08,0.12,-1.00,3.48,2.26,1.22
39.1360,0.07,0.11,-0.98,3.36,2.44,1.22
39.1520,0.08,0.12,-0.98,3.30,2.44,1.28
39.1690,0.08,0.12,-1.00,3.60,2.56,1.22
39.1850,0.08,0.12,-0.99,3.42,2.44,0.98
39.2020,0.08,0.12,-1.00,3.72,2.50,0.55
39.2190,0.07,0.12,-0.99,3.36,2.38,0.98
39.2350,0.08,0.11,-0.99,3.42,2.62,1.28
39.2510,0.08,0.11,-0.99,3.36,2.81,1.16
39.2670,0.08,0.12,-0.99,3.42,2.75,1.34
39.2830,0.08,0.12,-0.99,3.30,2.26,1.34
39.2990,0.08,0.11,-0.99,3.42,2.44,1.53
39.3150,0.08,0.12,-0.99,3.66,2.32,1.46
39.3310,0.08,0.12,-0.99,2.93,2.56,1.83
39.3470,0.09,0.11,-0.99,3.36,2.01,1.95
39.3630,0.08,0.12,-0.99,3.17,2.32,1.89
39.3780,0.08,0.12,-0.99,2.93,2.01,1.83
39.3930,0.08,0.12,-0.99,2.87,2.26,1.89
39.4020,0.08,0.12,-0.99,3.05,2.32,2.08
39.4170,0.08,0.11,-0.99,3.60,2.69,1.83
39.4390,0.07,0.12,-0.99,3.66,2.26,1.59
39.4420,0.08,0.12,-0.99,3.30,2.26,1.65
39.4700,0.09,0.11,-0.99,3.36,2.38,1.46
39.4750,0.07,0.12,-0.99,2.93,2.38,1.65
39.5020,0.07,0.11,-0.98,3.11,2.69,1.95
39.5170,0.08,0.12,-0.98,3.30,1.83,1.77
39.5320,0.09,0.12,-0.99,3.72,2.26,1.53
39.5420,0.08,0.12,-1.00,3.72,2.32,1.22
39.5580,0.08,0.12,-0.99,3.54,2.81,1.40
39.5770,0.08,0.12,-0.99,3.30,2.69,1.40
39.5920,0.08,0.12,-0.99,2.93,2.56,1.53
39.6070,0.08,0.12,-0.99,3.05,2.44,1.71
39.6140,0.08,0.12,-0.99,3.42,2.56,1.53
39.6320,0.08,0.12,-0.99,3.54,2.20,1.77
39.6480,0.09,0.11,-0.99,3.60,2.20,1.53
39.6690,0.08,0.11,-0.99,3.91,2.50,1.28
39.6840,0.08,0.12,-0.99,3.60,2.32,1.34
39.6990,0.07,0.12,-0.99,3.11,2.44,1.53
39.7150,0.07,0.12,-0.99,3.23,2.75,1.83
39.7310,0.07,0.11,-0.99,3.42,2.56,1.77
39.7470,0.07,0.12,-0.99,4.03,2.20,1.71
39.7630,0.08,0.12,-0.99,3.36,2.56,1.59
39.7780,0.08,0.12,-0.99,2.69,2.32,1.89
39.7940,0.08,0.12,-0.99,2.99,2.32,1.83
39.8020,0.08,0.12,-0.99,3.05,1.71,1.89
39.8180,0.08,0.12,-0.99,3.30,1.89,2.08
39.8340,0.08,0.11,-0.99,3.48,2.14,2.26
39.8500,0.09,0.12,-1.00,3.48,2.20,2.20
39.8610,0.09,0.11,-0.99,3.23,2.44,1.95
39.8830,0.08,0.12,-0.99,3.36,2.50,1.71
39.8950,0.08,0.12,-1.00,3.36,2.20,1.59
39.9110,0.07,0.12,-0.99,3.23,2.26,1.77
39.9280,0.08,0.12,-0.99,3.42,2.50,1.71
39.9440,0.07,0.12,-0.98,3.48,2.26,1.77
39.9600,0.08,0.11,-0.98,3.60,2.38,1.59
39.9750,0.08,0.12,-0.99,3.54,2.26,1.77
39.9900,0.08,0.12,-0.99,3.42,2.14,1.59
40.0060,0.08,0.12,-0.99,3.60,2.32,1.59
40.0220,0.08,0.12,-0.99,3.54,2.32,1.71
40.0380,0.08,0.12,-0.99,3.54,2.62,1.46
40.0540,0.08,0.12,-0.99,3.23,2.50,1.34
40.0700,0.08,0.11,-0.99,3.30,2.26,1.59
40.0850,0.08,0.12,-0.99,3.78,2.26,1.53
40.1000,0.08,0.12,-0.99,3.60,2.20,1.40
40.1110,0.08,0.12,-1.00,3.48,2.44,1.40
40.1270,0.08,0.12,-1.00,3.30,2.14,1.71
40.1440,0.08,0.11,-0.97,3.23,2.01,2.01
40.1600,0.07,0.12,-0.98,3.48,1.95,1.71
40.1760,0.07,0.12,-0.98,3.30,2.32,1.71
40.1930,0.08,0.12,-0.99,3.48,2.26,1.77
40.2090,0.08,0.11,-0.99,3.42,2.62,1.65
40.2240,0.08,0.12,-1.00,3.85,2.56,1.34
40.2400,0.08,0.12,-1.00,3.42,2.50,1.34
40.2560,0.08,0.12,-0.99,3.30,2.75,1.53
40.2720,0.08,0.12,-1.00,3.30,2.32,1.59
40.2880,0.08,0.12,-1.00,3.42,2.14,1.53
40.3020,0.08,0.12,-1.00,3.30,2.44,1.77
40.3170,0.08,0.12,-0.99,3.23,2.44,1.95
40.3280,0.09,0.11,-0.99,3.48,2.32,1.89
40.3440,0.08,0.12,-0.99,3.66,2.26,1.65
40.3620,0.08,0.12,-0.99,3.66,2.56,1.46
40.3780,0.08,0.12,-0.99,3.23,2.14,1.83
40.3930,0.07,0.12,-0.99,2.81,2.56,2.14
40.4090,0.07,0.12,-0.99,3.11,2.20,2.20
40.4250,0.08,0.12,-0.99,3.11,2.08,2.32
40.4390,0.08,0.12,-0.99,3.72,2.14,2.01
40.4550,0.08,0.12,-0.99,3.30,2.38,1.89
40.4690,0.08,0.12,-0.99,3.30,2.50,1.95
40.4840,0.08,0.11,-0.99,3.17,2.44,2.01
40.4940,0.08,0.12,-0.99,3.42,2.32,2.01
40.5110,0.09,0.12,-0.99,2.69,2.50,2.20
40.5270,0.08,0.12,-0.99,3.11,2.14,2.08
40.5430,0.08,0.12,-0.99,3.42,2.08,2.01
40.5610,0.08,0.11,-0.99,3.54,2.56,1.89
40.5690,0.08,0.12,-0.99,3.66,2.01,1.65
40.5930,0.07,0.12,-0.99,3.36,2.32,1.46
40.6080,0.08,0.12,-0.99,3.42,2.50,1.53
40.6240,0.08,0.12,-0.99,3.42,2.08,1.53
40.6320,0.08,0.12,-0.99,3.72,2.08,1.40
40.6480,0.08,0.12,-0.99,3.66,2.14,1.46
40.6680,0.08,0.12,-0.99,3.48,2.14,1.59
40.6860,0.08,0.12,-0.99,3.36,2.69,1.34
40.7010,0.08,0.12,-0.99,3.36,2.26,1.40
40.7060,0.08,0.12,-0.99,3.11,2.69,1.40
40.7220,0.07,0.12,-0.99,3.23,2.69,1.16
40.7430,0.07,0.12,-0.99,3.23,2.62,0.92
40.7590,0.08,0.12,-0.99,3.42,2.50,0.49
40.7750,0.08,0.12,-0.99,3.42,2.56,0.61
40.7910,0.08,0.12,-0.99,3.30,2.44,0.73
40.8060,0.09,0.11,-0.99,3.60,2.26,0.85
40.8220,0.09,0.12,-0.99,3.85,2.50,0.98
40.8370,0.09,0.12,-0.99,3.48,1.83,1.16
40.8530,0.08,0.12,-0.99,3.23,2.50,1.53
40.8590,0.08,0.12,-0.99,2.87,2.26,1.71
40.8830,0.08,0.12,-0.99,2.87,2.44,1.95
40.8980,0.08,0.12,-0.99,3.11,2.26,1.95
40.9100,0.09,0.11,-0.99,3.72,2.14,1.89
40.9250,0.08,0.12,-0.99,3.48,2.75,1.71
40.9430,0.07,0.12,-0.99,2.99,2.38,1.89
40.9510,0.07,0.12,-0.99,2.75,2.44,2.14
40.9730,0.07,0.12,-0.99,2.87,2.26,2.14
40.9850,0.08,0.11,-0.99,3.36,2.62,2.32
41.0000,0.08,0.12,-0.99,4.09,2.26,1.83
41.0200,0.07,0.12,-0.99,3.72,2.32,1.34
41.0350,0.08,0.12,-0.99,3.23,2.69,0.92
41.0500,0.08,0.12,-0.99,3.05,2.69,1.28
41.0660,0.07,0.12,-0.99,2.93,2.50,1.40
41.0730,0.08,0.12,-0.99,3.23,2.20,1.53
41.0960,0.08,0.11,-0.99,3.72,2.38,1.53
41.1070,0.08,0.12,-0.99,3.91,1.95,1.28
41.1220,0.08,0.12,-0.99,3.97,2.38,1.22
41.1420,0.08,0.12,-0.99,3.17,2.50,1.34
41.1580,0.08,0.12,-0.99,2.87,2.32,1.65
41.1730,0.08,0.12,-1.00,3.54,2.26,1.89
41.1890,0.07,0.11,-0.97,3.42,2.81,1.71
41.2050,0.08,0.11,-0.98,3.42,2.14,1.71
41.2120,0.07,0.12,-0.99,3.48,2.01,1.71
41.2280,0.08,0.12,-1.00,3.48,2.08,1.46
41.2500,0.08,0.12,-0.98,3.48,1.95,1.40
41.2520,0.08,0.12,-0.99,3.54,1.95,1.34
41.2800,0.08,0.12,-0.99,3.30,2.26,1.59
41.2950,0.08,0.12,-0.99,3.48,1.77,1.65
41.3020,0.08,0.12,-0.99,3.48,1.71,1.71
41.3180,0.07,0.12,-0.99,3.54,2.01,1.83
41.3420,0.08,0.12,-0.99,3.42,1.89,1.77
41.3570,0.08,0.12,-0.99,3.60,2.08,1.77
41.3730,0.08,0.12,-0.99,3.60,1.59,1.40
41.3760,0.07,0.12,-0.99,3.48,2.08,1.34
41.4050,0.07,0.12,-0.99,3.42,2.14,1.16
41.4080,0.07,0.12,-0.99,3.23,2.20,1.04
41.4380,0.07,0.12,-0.99,3.05,2.14,0.98
41.4530,0.09,0.12,-0.99,3.54,2.20,0.43
41.4580,0.09,0.12,-0.99,3.42,2.14,0.43
41.4740,0.08,0.12,-0.99,3.54,2.01,0.67
41.4990,0.09,0.12,-0.99,3.17,1.95,0.98
41.5150,0.08,0.11,-0.99,3.30,1.89,1.28
41.5160,0.08,0.12,-0.99,3.66,2.20,1.46
41.5320,0.09,0.12,-0.99,3.54,2.50,1.53
41.5560,0.08,0.12,-0.99,3.42,2.44,1.28
41.5720,0.08,0.11,-0.97,3.66,2.20,1.10
41.5880,0.08,0.12,-1.00,3.48,2.38,1.22
41.6060,0.07,0.11,-0.97,3.11,2.44,1.53
41.6210,0.08,0.12,-1.00,3.54,2.20,1.46
41.6380,0.08,0.12,-1.01,3.72,2.32,1.40
41.6530,0.08,0.12,-0.98,3.54,1.83,1.34
41.6690,0.12,0.12,-0.99,3.54,2.01,0.92
41.6840,0.08,0.12,-1.00,3.17,2.01,1.59
41.6880,0.07,0.12,-0.99,3.17,1.95,1.46
41.7040,0.07,0.12,-0.99,3.30,2.32,0.55
41.7290,0.08,0.12,-0.99,3.30,2.38,0.37
41.7460,0.08,0.12,-0.99,3.91,2.20,0.24
41.7610,0.08,0.12,-0.99,3.66,2.62,0.12
41.7770,0.08,0.12,-0.99,3.66,2.50,0.24
41.7920,0.08,0.12,-0.99,3.23,2.56,0.55
41.8080,0.07,0.12,-0.99,2.93,2.75,0.98
41.8230,0.08,0.12,-0.99,3.36,2.62,0.85
41.8380,0.08,0.12,-0.99,3.72,2.26,0.73
41.8530,0.08,0.12,-0.99,3.42,2.20,0.79
41.8630,0.08,0.12,-0.99,3.05,2.38,0.55
41.8790,0.08,0.12,-0.99,3.36,2.50,0.49
41.9000,0.08,0.12,-0.99,3.30,2.44,0.67
41.9150,0.08,0.12,-1.00,3.30,2.62,0.73
41.9290,0.08,0.12,-0.99,3.42,2.56,0.67
41.9450,0.07,0.12,-0.98,3.05,2.62,0.92
41.9600,0.08,0.12,-1.00,3.42,2.26,1.28
41.9740,0.08,0.12,-0.99,3.23,2.20,1.28
41.9850,0.07,0.12,-0.99,3.30,2.56,1.04
42.0020,0.07,0.11,-0.98,3.66,1.89,0.67
42.0170,0.08,0.12,-0.99,3.54,2.75,0.55
42.0340,0.09,0.12,-0.98,3.30,2.38,0.98
42.0510,0.08,0.12,-0.98,3.23,2.26,1.10
42.0670,0.08,0.11,-0.99,3.48,2.20,1.10
42.0710,0.06,0.12,-1.00,3.42,2.26,0.67
42.0980,0.08,0.12,-1.00,3.36,2.69,0.12
42.1020,0.09,0.12,-0.99,3.23,2.38,0.24
42.1170,0.09,0.12,-0.99,3.30,2.26,0.92
42.1390,0.07,0.12,-0.99,2.93,2.50,0.98
42.1560,0.07,0.12,-0.99,3.36,2.26,1.10
42.1740,0.08,0.12,-1.00,3.17,2.26,0.92
42.1890,0.08,0.12,-0.98,3.30,2.08,0.67
42.2040,0.08,0.12,-1.00,3.42,2.56,1.34
42.2060,0.08,0.11,-0.97,3.60,2.32,1.22
42.2240,0.08,0.11,-0.98,3.60,2.38,0.67
42.2400,0.08,0.12,-1.00,3.48,2.38,0.55
42.2640,0.08,0.12,-0.99,3.30,2.01,0.61
42.2730,0.09,0.12,-0.99,3.23,2.01,1.10
42.2890,0.09,0.12,-0.99,3.36,1.89,1.22
42.3040,0.09,0.12,-1.00,3.36,1.95,1.59
42.3270,0.09,0.11,-1.00,3.42,2.20,1.71
42.3420,0.08,0.12,-1.00,3.72,2.38,1.83
42.3590,0.08,0.12,-0.99,3.48,1.95,1.65
42.3740,0.08,0.12,-0.99,3.17,2.50,1.77
42.3900,0.08,0.12,-0.99,3.30,2.20,1.89
42.3930,0.08,0.12,-0.99,3.17,2.38,1.95
42.4080,0.08,0.12,-0.99,3.42,2.14,1.77
42.4320,0.08,0.12,-0.99,3.78,2.14,1.71
42.4480,0.08,0.12,-0.99,3.72,2.56,1.83
42.4640,0.08,0.12,-0.98,3.91,2.08,1.77
42.4810,0.08,0.12,-0.99,3.97,2.14,1.77
42.4960,0.08,0.11,-0.98,3.54,1.89,1.71
42.4980,0.08,0.12,-0.98,3.78,2.26,1.77
42.5140,0.08,0.12,-0.99,3.23,2.56,1.71
42.5380,0.08,0.11,-0.99,3.17,2.20,1.71
42.5540,0.08,0.12,-0.99,3.72,2.38,1.77
42.5710,0.08,0.12,-0.99,3.60,2.20,1.83
42.5870,0.08,0.12,-0.98,3.66,2.26,1.77
42.6040,0.08,0.12,-0.99,3.36,2.38,1.83
42.6200,0.08,0.12,-1.00,3.30,2.20,1.77
42.6370,0.08,0.12,-0.99,3.66,1.71,1.77
42.6540,0.08,0.12,-0.99,3.42,2.01,1.89
42.6690,0.08,0.12,-0.99,3.48,2.50,1.77
42.6720,0.08,0.12,-0.99,3.48,1.89,1.71
42.6870,0.08,0.12,-0.98,3.42,1.71,1.71
42.7030,0.08,0.12,-0.98,3.30,1.95,1.77
42.7260,0.08,0.12,-0.99,3.54,1.77,1.83
42.7430,0.08,0.12,-0.99,3.23,1.89,1.83
42.7590,0.08,0.12,-0.99,3.05,1.95,1.71
42.7760,0.08,0.12,-0.99,2.87,1.59,1.65
42.7920,0.08,0.12,-0.99,3.23,1.59,1.83
42.8080,0.08,0.12,-1.01,3.42,1.83,1.83
42.8240,0.08,0.12,-1.00,3.48,1.89,1.65
42.8410,0.08,0.12,-1.00,3.36,1.95,1.89
42.8560,0.08,0.12,-1.00,3.30,1.89,1.89
42.8700,0.08,0.12,-1.00,3.42,2.26,1.95
42.8890,0.08,0.12,-1.00,3.60,2.08,1.83
42.9050,0.08,0.12,-1.00,3.30,2.75,1.77
42.9210,0.08,0.12,-1.00,3.23,2.32,1.71
42.9270,0.08,0.12,-0.99,2.99,2.26,1.65
42.9420,0.08,0.12,-0.99,2.87,3.05,1.65
42.9590,0.08,0.12,-0.99,2.99,2.93,1.83
42.9760,0.08,0.12,-0.99,3.05,3.05,1.71
42.9920,0.08,0.12,-0.99,3.11,2.50,1.65
43.0090,0.08,0.12,-0.99,3.23,2.69,1.77
43.0250,0.08,0.12,-1.00,3.17,2.87,1.83
43.0400,0.08,0.12,-1.00,3.54,2.69,1.83
43.0420,0.08,0.12,-0.99,3.36,2.32,1.83
43.0700,0.08,0.12,-0.98,3.30,2.14,1.71
43.0850,0.08,0.11,-0.98,3.30,2.26,1.83
43.0920,0.08,0.11,-0.98,3.54,2.50,1.89
43.1100,0.08,0.12,-0.99,3.42,2.08,1.71
43.1250,0.08,0.12,-0.99,3.30,2.26,1.71
43.1420,0.08,0.12,-1.00,3.30,1.89,1.65
43.1600,0.08,0.12,-0.99,2.99,1.89,1.71
43.1750,0.08,0.12,-0.99,3.36,1.71,1.77
43.1900,0.08,0.12,-0.99,3.11,1.95,1.77
43.1930,0.08,0.11,-0.98,2.99,1.77,1.77
43.2210,0.08,0.11,-0.98,2.93,1.77,1.71
43.2370,0.08,0.12,-0.98,2.99,2.01,1.71
43.2530,0.09,0.12,-0.99,2.87,1.71,1.77
43.2590,0.07,0.11,-1.01,1.83,2.44,1.71
43.2750,0.08,0.11,-0.98,2.75,1.95,1.89
43.2990,0.08,0.12,-0.98,3.11,2.14,1.77
43.3150,0.08,0.12,-1.00,3.42,2.14,1.71
43.3310,0.08,0.12,-0.99,3.17,2.20,1.89
43.3450,0.08,0.12,-1.00,3.48,2.50,1.83
43.3490,0.08,0.11,-0.99,3.48,2.69,1.83
43.3720,0.08,0.10,-0.97,3.66,2.44,1.77
43.3900,0.08,0.12,-0.99,3.36,2.08,1.59
43.3930,0.08,0.12,-0.99,3.42,2.08,1.65
43.4220,0.08,0.12,-0.99,3.36,2.14,1.83
43.4380,0.08,0.12,-0.99,3.48,2.14,1.89
43.4540,0.08,0.11,-0.98,3.30,1.77,1.71
43.4700,0.08,0.12,-0.99,3.30,2.14,1.77
43.4760,0.08,0.12,-0.99,3.36,1.89,1.59
43.4920,0.08,0.12,-0.99,3.30,1.95,1.77
43.5140,0.08,0.12,-0.99,3.23,2.14,1.77
43.5310,0.08,0.12,-1.00,3.23,2.26,1.77
43.5470,0.08,0.12,-0.99,3.23,2.08,1.77
43.5640,0.08,0.12,-0.99,3.48,1.83,1.71
43.5800,0.08,0.12,-0.99,3.36,2.08,1.71
43.5940,0.08,0.12,-0.99,3.42,1.89,1.65
43.6090,0.08,0.12,-0.99,3.48,1.89,1.77
43.6250,0.08,0.12,-1.00,3.36,1.83,1.71
43.6390,0.08,0.11,-0.97,3.30,1.83,1.71
43.6540,0.08,0.12,-1.00,3.23,2.01,1.77
43.6640,0.09,0.12,-0.99,3.36,2.01,1.71
43.6800,0.08,0.11,-0.97,3.42,2.08,1.65
43.6960,0.09,0.11,-1.00,3.42,1.83,1.59
43.7150,0.08,0.11,-0.99,3.42,2.38,1.71
43.7310,0.08,0.12,-1.00,2.99,2.26,1.71
43.7360,0.08,0.12,-0.99,3.23,2.26,1.71
43.7530,0.08,0.11,-0.99,3.42,2.08,1.65
43.7720,0.08,0.12,-0.99,3.42,2.08,1.65
43.7860,0.08,0.11,-0.98,3.30,2.01,1.77
43.8010,0.08,0.11,-0.99,3.48,1.95,1.71
43.8220,0.08,0.12,-1.00,3.23,2.01,1.71
43.8230,0.08,0.11,-0.98,3.36,2.01,1.65
43.8390,0.08,0.12,-1.00,3.30,2.14,1.71
43.8700,0.08,0.12,-0.99,3.36,2.08,1.71
43.8730,0.08,0.12,-0.99,3.42,2.26,1.71
43.8890,0.08,0.12,-0.99,3.48,1.77,1.83
43.9130,0.08,0.12,-0.99,3.54,2.01,1.83
43.9300,0.08,0.12,-0.99,3.54,2.08,1.89
43.9460,0.08,0.12,-0.99,3.42,2.01,1.83
43.9620,0.08,0.12,-0.99,3.48,2.44,1.83
43.9800,0.08,0.12,-0.99,3.42,2.26,1.77
43.9950,0.08,0.12,-1.01,3.60,2.38,1.77
44.0110,0.07,0.11,-0.98,3.23,2.14,1.77
44.0250,0.07,0.12,-1.01,3.42,2.14,1.83
44.0410,0.08,0.12,-1.00,3.17,2.44,1.89
44.0460,0.08,0.11,-0.98,3.36,2.14,1.77
44.0730,0.08,0.12,-1.00,3.36,2.14,1.77
44.0780,0.08,0.11,-0.99,3.48,2.20,1.95
44.1030,0.08,0.11,-1.00,3.48,2.38,1.89
44.1200,0.07,0.12,-1.00,3.30,2.44,1.83
44.1360,0.08,0.12,-0.99,3.23,1.89,1.89
44.1520,0.08,0.12,-0.98,3.42,2.56,1.71
44.1680,0.08,0.11,-0.98,3.36,2.20,1.71
44.1730,0.08,0.12,-0.99,3.30,2.14,1.77
44.1860,0.08,0.11,-0.99,3.36,2.38,1.77
44.2110,0.08,0.11,-0.99,3.36,2.32,1.71
44.2280,0.08,0.12,-0.99,3.36,2.50,1.83
44.2440,0.08,0.12,-1.01,3.23,2.26,1.83
44.2600,0.07,0.11,-0.99,3.42,2.62,1.83
44.2750,0.08,0.12,-1.02,3.42,2.26,1.71
44.2920,0.08,0.12,-0.99,3.36,2.20,1.83
44.3080,0.08,0.11,-0.98,3.54,1.83,1.77
44.3230,0.09,0.12,-0.99,3.23,2.26,1.65
44.3390,0.08,0.12,-0.99,3.42,2.20,1.83
44.3540,0.08,0.11,-0.98,3.17,2.26,1.77
44.3610,0.08,0.12,-0.99,3.36,2.50,1.95
44.3760,0.08,0.12,-1.00,3.36,1.95,1.71
44.3990,0.08,0.12,-0.99,3.11,2.26,1.71
44.4150,0.07,0.12,-1.00,3.54,2.32,1.77
44.4310,0.07,0.12,-1.00,3.42,1.89,1.83
44.4340,0.07,0.12,-1.00,3.42,2.32,1.83
44.4490,0.07,0.12,-1.00,3.30,2.32,1.83
44.4730,0.07,0.12,-1.00,3.42,2.26,1.59
44.4910,0.07,0.12,-1.01,3.42,2.38,1.71
44.5060,0.07,0.12,-1.00,3.23,2.20,1.89
44.5240,0.07,0.12,-1.00,3.36,1.89,1.77
44.5390,0.07,0.12,-1.00,3.42,2.38,1.77
44.5560,0.08,0.12,-1.00,3.30,2.01,1.77
44.5720,0.08,0.12,-0.99,3.42,2.38,1.77
44.5730,0.08,0.11,-0.99,3.30,2.50,1.77
44.6040,0.08,0.12,-0.99,3.30,2.38,1.89
44.6060,0.08,0.12,-0.99,3.48,2.20,1.77
44.6230,0.08,0.11,-0.98,3.42,2.32,1.77
44.6410,0.08,0.11,-0.99,3.36,2.20,1.71
44.6570,0.08,0.12,-0.98,3.36,2.20,1.83
44.6800,0.08,0.11,-0.98,3.23,2.26,1.77
44.6960,0.08,0.11,-0.99,3.54,2.38,1.89
44.7130,0.08,0.12,-0.99,3.23,2.26,1.77
44.7290,0.08,0.12,-0.99,3.42,2.14,1.71
44.7430,0.08,0.11,-0.99,3.42,1.77,1.71
44.7590,0.08,0.12,-0.99,3.36,2.32,1.71
44.7750,0.08,0.12,-0.99,3.48,2.20,1.77
44.7910,0.08,0.12,-0.99,3.42,1.95,1.65
44.7980,0.08,0.12,-0.99,3.36,2.26,1.71
44.8130,0.08,0.11,-0.99,3.36,2.14,1.77
44.8370,0.08,0.12,-0.99,3.48,1.95,1.71
44.8540,0.08,0.12,-0.99,3.17,2.38,1.77
44.8550,0.08,0.12,-0.99,3.30,2.01,1.83
44.8840,0.08,0.12,-0.99,3.54,2.20,1.77
44.8940,0.08,0.12,-0.99,3.66,2.26,1.83
44.9110,0.08,0.12,-0.99,3.48,1.89,1.83
44.9280,0.08,0.12,-0.99,3.54,2.01,1.95
44.9440,0.08,0.12,-0.99,3.48,1.77,1.83
44.9600,0.08,0.12,-0.99,3.17,2.50,1.77
44.9760,0.08,0.11,-0.99,3.11,2.44,1.77
44.9780,0.08,0.12,-0.99,2.81,2.26,1.65
44.9940,0.08,0.12,-0.99,3.17,2.14,1.89
45.0180,0.08,0.12,-0.99,2.99,1.83,1.71
45.0340,0.08,0.12,-0.99,2.69,1.95,1.83
45.0510,0.08,0.12,-0.99,2.75,2.20,1.59
45.0680,0.08,0.11,-0.99,2.14,2.32,1.65
45.0840,0.08,0.11,-0.99,2.75,2.08,1.65
45.0990,0.08,0.11,-0.99,3.30,1.77,1.71
45.1150,0.08,0.11,-0.99,3.36,2.50,1.71
45.1180,0.08,0.12,-0.99,3.78,1.95,1.65
45.1330,0.08,0.12,-0.99,3.48,2.20,1.71
45.1570,0.08,0.11,-0.99,2.99,2.20,1.71
45.1750,0.08,0.11,-0.99,3.17,2.08,1.77
45.1910,0.08,0.11,-0.99,3.36,2.20,1.77
45.2070,0.08,0.11,-0.99,3.72,2.38,1.59
45.2240,0.08,0.12,-0.99,4.03,2.14,1.77
45.2410,0.08,0.12,-0.99,3.60,1.89,1.53
45.2420,0.09,0.12,-0.99,3.36,2.32,1.77
45.2730,0.08,0.12,-0.99,3.36,2.08,1.16
45.2750,0.07,0.11,-1.01,3.36,2.20,1.40
45.2910,0.08,0.12,-0.98,2.93,2.56,1.89
45.3210,0.08,0.11,-1.01,3.60,2.08,2.14
45.3250,0.08,0.11,-0.99,3.66,2.38,1.53
45.3410,0.08,0.11,-0.99,3.85,2.20,1.59
45.3570,0.08,0.11,-0.99,3.48,2.01,1.46
45.3810,0.08,0.11,-0.99,3.48,2.01,1.53
45.3980,0.08,0.11,-0.99,3.48,2.01,1.59
45.4140,0.08,0.12,-0.98,3.54,2.26,1.46
45.4310,0.09,0.12,-0.99,3.72,1.95,1.10
45.4460,0.08,0.12,-0.99,3.72,2.14,0.98
45.4620,0.08,0.11,-0.99,3.66,2.32,1.04
45.4760,0.08,0.11,-0.99,3.85,2.69,0.85
45.4920,0.08,0.11,-0.99,3.54,2.38,0.92
45.5070,0.09,0.12,-0.99,3.42,2.32,1.04
45.5150,0.08,0.13,-0.99,3.17,2.32,1.10
45.5300,0.08,0.12,-0.99,2.75,2.32,1.22
45.5530,0.07,0.11,-0.99,3.36,2.01,1.53
45.5550,0.07,0.09,-0.99,3.54,1.95,1.46
45.5820,0.08,0.12,-0.99,3.54,2.01,2.81
45.5970,0.08,0.12,-0.99,3.60,1.83,2.08
45.6060,0.08,0.12,-0.99,3.42,2.20,2.32
45.6230,0.08,0.12,-0.99,3.23,2.20,3.11
45.6380,0.08,0.11,-0.99,3.11,1.95,3.42
45.6580,0.08,0.11,-0.99,3.42,2.01,2.50
45.6720,0.08,0.11,-0.99,3.54,2.50,1.59
45.6890,0.08,0.12,-0.99,3.30,2.44,1.59
45.6960,0.08,0.12,-0.98,2.81,2.26,1.89
45.7120,0.08,0.12,-0.97,2.99,1.89,2.14
45.7270,0.08,0.12,-1.00,3.11,2.44,3.36
45.7430,0.08,0.10,-0.99,3.23,2.01,2.38
45.7650,0.08,0.11,-0.98,3.48,2.01,1.59
45.7810,0.08,0.12,-1.00,3.60,2.08,1.59
45.7980,0.08,0.12,-0.99,3.30,2.44,1.65
45.8150,0.08,0.12,-0.99,2.99,2.26,1.59
45.8300,0.08,0.12,-0.99,3.42,2.32,1.53
45.8460,0.08,0.11,-0.99,3.48,2.32,1.71
45.8600,0.08,0.12,-0.99,3.36,2.14,1.71
45.8760,0.08,0.12,-1.00,3.36,2.08,2.14
45.8810,0.08,0.12,-0.99,3.36,2.20,2.75
45.8980,0.08,0.12,-0.99,3.30,1.95,2.93
45.9200,0.08,0.11,-0.99,3.48,2.20,2.20
45.9360,0.08,0.11,-0.99,3.60,2.26,1.77
45.9530,0.08,0.11,-0.99,3.72,1.95,1.71
45.9710,0.07,0.11,-0.99,3.72,2.08,1.65
45.9860,0.08,0.12,-0.99,3.48,2.32,1.40
46.0030,0.08,0.12,-0.99,3.30,1.95,1.65
46.0190,0.08,0.12,-0.99,3.36,2.20,2.08
46.0200,0.08,0.11,-1.00,3.42,1.89,2.81
46.0500,0.08,0.11,-1.00,3.91,1.89,1.77
46.0650,0.08,0.12,-0.99,3.72,2.20,1.53
46.0740,0.08,0.12,-1.01,3.54,2.20,1.34
46.0850,0.08,0.12,-0.99,3.05,2.44,1.65
46.1090,0.08,0.11,-0.98,3.17,2.62,1.83
46.1250,0.08,0.11,-0.98,3.78,2.26,1.83
46.1410,0.08,0.11,-0.98,3.85,2.08,1.59
46.1580,0.08,0.12,-0.98,3.85,1.95,1.59
46.1730,0.08,0.12,-0.99,3.48,2.32,1.59
46.1890,0.08,0.12,-0.99,2.93,2.44,1.65
46.2050,0.08,0.12,-0.99,3.42,2.26,1.89
46.2190,0.08,0.12,-0.99,3.23,1.83,2.50
46.2250,0.08,0.11,-0.99,3.36,2.32,2.44
46.2410,0.08,0.11,-0.99,3.48,2.32,2.14
46.2640,0.08,0.12,-0.99,3.30,2.26,1.53
46.2750,0.08,0.12,-0.99,3.17,2.56,1.34
46.2940,0.08,0.11,-0.99,3.42,2.26,1.46
46.3010,0.08,0.11,-0.99,3.66,2.20,1.53
46.3190,0.08,0.12,-1.00,3.66,2.44,1.59
46.3350,0.08,0.12,-0.99,3.30,2.26,1.71
46.3560,0.08,0.12,-0.98,3.17,2.38,1.95
46.3710,0.08,0.11,-0.98,3.30,2.14,2.01
46.3750,0.08,0.12,-0.99,3.54,2.08,2.38
46.3880,0.08,0.11,-0.98,3.48,2.14,2.32
46.4180,0.08,0.11,-0.98,3.54,2.26,2.26
46.4230,0.09,0.12,-0.99,3.30,2.08,2.14
46.4490,0.08,0.11,-0.99,3.36,2.14,2.08
46.4650,0.08,0.12,-0.98,3.42,2.26,2.20
46.4800,0.07,0.11,-0.99,3.60,2.20,1.46
46.4880,0.07,0.11,-0.99,3.66,1.89,1.40
46.5040,0.07,0.12,-0.99,3.72,2.01,1.40
46.5200,0.08,0.12,-0.99,3.17,2.50,1.53
46.5310,0.08,0.12,-0.99,3.17,2.01,1.59
46.5490,0.08,0.11,-0.99,3.17,1.89,1.89
46.5650,0.08,0.12,-0.99,3.30,1.89,2.01
46.5840,0.08,0.12,-0.99,3.23,2.32,2.01
46.6010,0.08,0.12,-0.99,3.42,1.95,1.71
46.6010,0.08,0.12,-0.99,2.99,2.20,1.89
46.6310,0.08,0.12,-0.99,2.99,2.87,1.95
46.6450,0.08,0.12,-0.99,3.23,2.01,2.14
46.6610,0.08,0.12,-0.99,3.42,1.77,2.44
46.6750,0.09,0.12,-0.98,3.05,1.95,2.62
46.6840,0.08,0.12,-0.99,3.11,1.77,3.30
46.7010,0.08,0.11,-0.99,2.81,2.32,3.36
46.7170,0.08,0.11,-0.99,2.93,2.14,3.11
46.7350,0.08,0.11,-1.00,3.05,2.38,3.23
46.7500,0.07,0.11,-0.98,3.30,1.95,3.23
46.7670,0.08,0.11,-0.99,3.05,2.14,3.11
46.7820,0.08,0.11,-1.00,2.99,2.81,2.32
46.7970,0.08,0.11,-0.99,3.11,2.26,2.08
46.8000,0.08,0.12,-0.99,3.30,1.95,2.08
46.8160,0.08,0.12,-1.00,3.11,1.95,2.20
46.8410,0.08,0.12,-0.98,2.99,2.01,2.87
46.8570,0.08,0.12,-1.00,3.30,2.14,3.60
46.8720,0.08,0.11,-0.98,3.48,1.95,3.48
46.8890,0.08,0.11,-0.98,3.36,2.32,2.62
46.9060,0.08,0.11,-0.99,3.36,2.50,2.01
46.9210,0.09,0.12,-0.98,2.93,2.81,1.77
46.9360,0.08,0.12,-0.98,2.87,2.20,2.14
46.9430,0.08,0.12,-0.98,3.17,2.01,2.99
46.9600,0.08,0.11,-0.98,3.17,2.50,3.54
46.9760,0.08,0.11,-0.98,3.30,2.14,3.23
46.9930,0.08,0.11,-0.99,2.93,2.08,2.75
47.0110,0.08,0.12,-0.98,2.81,2.32,3.23
47.0260,0.08,0.11,-0.99,2.93,2.44,3.17
47.0440,0.08,0.11,-0.99,2.62,2.08,3.42
47.0590,0.08,0.11,-0.99,2.93,2.50,3.48
47.0740,0.08,0.11,-0.99,3.11,2.32,3.05
47.0890,0.08,0.12,-0.99,3.36,2.01,2.81
47.1000,0.08,0.12,-0.99,3.36,2.08,3.17
47.1170,0.08,0.12,-0.99,2.81,1.89,3.72
47.1330,0.08,0.12,-0.99,2.81,2.01,3.66
47.1500,0.08,0.11,-0.99,3.17,1.83,3.36
47.1650,0.08,0.11,-0.99,3.54,2.20,2.32
47.1810,0.08,0.11,-0.99,3.48,2.20,1.71
47.1970,0.08,0.12,-0.99,3.30,1.95,1.71
47.1990,0.08,0.12,-0.99,3.17,1.95,2.01
47.2150,0.08,0.11,-0.99,3.54,2.14,1.83
47.2390,0.08,0.11,-0.99,3.54,2.38,1.77
47.2560,0.08,0.11,-0.99,3.42,2.38,1.59
47.2720,0.09,0.12,-0.99,3.30,2.01,1.59
47.2900,0.08,0.11,-0.99,3.48,2.20,1.71
47.3060,0.08,0.12,-0.99,3.42,2.38,1.95
47.3060,0.08,0.12,-0.99,3.36,1.89,2.01
47.3360,0.08,0.12,-0.98,3.36,2.20,2.14
47.3390,0.08,0.11,-0.98,3.54,2.14,2.14
47.3560,0.08,0.11,-1.00,3.72,2.26,1.95
47.3760,0.08,0.11,-0.98,3.48,2.56,1.46
47.3960,0.08,0.12,-0.98,3.66,2.14,1.40
47.4120,0.08,0.12,-0.99,3.23,2.32,1.83
47.4290,0.08,0.12,-0.99,3.48,2.44,2.44
47.4440,0.08,0.12,-0.98,3.42,2.01,3.05
47.4600,0.08,0.11,-0.98,3.42,1.77,3.17
47.4750,0.08,0.11,-0.99,3.66,1.89,2.32
47.4790,0.08,0.12,-1.00,3.17,2.32,2.01
47.4940,0.08,0.11,-0.99,3.11,2.20,2.01
47.5180,0.08,0.11,-0.99,3.42,2.08,1.83
47.5350,0.08,0.11,-0.99,3.48,1.95,1.89
47.5510,0.08,0.12,-0.99,3.17,2.26,1.83
47.5680,0.08,0.12,-0.99,3.36,2.14,2.08
47.5840,0.08,0.12,-0.99,3.42,2.14,2.75
47.6010,0.08,0.12,-0.99,2.93,1.77,2.56
47.6160,0.07,0.11,-0.99,2.87,2.08,2.44
47.6330,0.08,0.11,-0.99,3.05,1.95,2.56
47.6490,0.08,0.11,-0.99,3.42,2.14,2.32
47.6510,0.08,0.11,-0.99,3.30,2.08,2.32
47.6770,0.08,0.11,-0.99,3.17,2.32,2.20
47.6900,0.08,0.12,-0.99,2.99,2.50,2.20
47.7070,0.08,0.12,-0.99,3.11,2.44,2.81
47.7250,0.08,0.12,-0.99,3.05,2.32,3.30
47.7410,0.08,0.12,-0.99,2.93,1.89,3.60
47.7560,0.08,0.12,-1.00,2.87,2.14,3.54
47.7570,0.08,0.12,-1.00,2.99,2.08,3.42
47.7770,0.08,0.12,-0.99,2.44,1.89,4.09
47.7910,0.08,0.12,-0.98,2.69,2.20,5.00
47.8180,0.08,0.11,-0.98,2.93,1.71,5.07
47.8250,0.08,0.10,-1.00,3.30,1.53,4.15
