Timestamp, AccX, AccY, AccZ, GyroX, GyroY, GyroZ
0.0100,0.08,0.11,-0.99,2.87,3.36,2.01
0.0250,0.07,0.11,-0.99,3.11,3.23,1.95
0.0400,0.07,0.11,-0.99,3.05,3.36,1.95
0.0540,0.07,0.11,-0.99,2.93,3.66,1.95
0.0650,0.07,0.11,-0.99,3.11,2.93,1.95
0.0820,0.07,0.11,-0.99,3.11,2.99,1.95
0.1000,0.07,0.11,-0.99,3.11,2.93,1.77
0.1150,0.07,0.11,-0.99,3.05,3.17,2.08
0.1170,0.07,0.11,-0.99,2.99,3.30,2.01
0.1320,0.08,0.11,-0.99,3.11,3.05,2.08
0.1500,0.07,0.11,-0.99,3.11,3.11,2.01
0.1750,0.07,0.11,-0.99,3.17,3.11,2.08
0.1900,0.07,0.11,-0.99,3.23,3.23,1.95
0.2050,0.07,0.11,-0.99,3.30,3.11,2.08
0.2150,0.07,0.11,-0.99,3.42,2.93,2.01
0.2320,0.07,0.11,-0.99,3.05,2.93,1.95
0.2490,0.07,0.11,-0.99,2.99,2.99,2.01
0.2650,0.07,0.11,-0.99,3.17,2.50,2.01
0.2810,0.07,0.11,-0.99,3.17,2.93,2.08
0.2960,0.07,0.11,-0.99,3.11,2.81,2.01
0.3000,0.07,0.11,-0.99,2.99,2.87,2.08
0.3260,0.07,0.11,-0.99,3.23,2.99,2.08
0.3330,0.07,0.11,-0.99,3.23,2.81,2.01
0.3500,0.07,0.11,-0.99,2.93,3.11,1.83
0.3660,0.07,0.11,-0.99,3.30,3.23,1.95
0.3830,0.07,0.11,-0.99,3.36,3.05,1.95
0.4000,0.07,0.11,-0.99,3.48,3.17,2.01
0.4160,0.07,0.11,-0.99,3.17,3.42,2.08
0.4320,0.07,0.11,-0.99,2.99,2.87,1.95
0.4480,0.07,0.11,-0.99,3.17,2.99,2.01
0.4640,0.07,0.11,-0.99,3.11,2.75,1.95
0.4800,0.07,0.11,-0.99,2.99,2.62,1.95
0.4950,0.07,0.11,-0.99,3.11,3.17,2.01
0.5000,0.07,0.11,-0.99,2.87,3.23,1.95
0.5250,0.07,0.11,-0.99,3.11,2.93,2.01
0.5330,0.07,0.11,-0.99,3.11,2.69,1.95
0.5490,0.07,0.11,-0.99,3.17,2.75,1.89
0.5660,0.07,0.11,-0.99,3.17,2.99,2.01
0.5810,0.07,0.11,-0.99,3.17,2.81,1.89
0.6000,0.07,0.11,-0.99,2.93,3.36,2.01
0.6150,0.07,0.11,-0.99,2.99,2.56,2.08
0.6310,0.07,0.11,-0.99,3.42,2.93,2.01
0.6460,0.07,0.11,-0.99,3.42,3.05,1.89
0.6610,0.07,0.11,-0.99,3.36,3.36,2.01
0.6760,0.07,0.11,-0.99,2.99,2.99,2.01
0.6910,0.07,0.11,-0.99,3.05,2.99,1.95
0.7060,0.07,0.11,-0.99,3.30,3.11,1.95
0.7160,0.07,0.11,-0.99,3.36,2.99,2.01
0.7330,0.07,0.11,-0.99,3.23,2.87,1.95
0.7490,0.07,0.11,-0.99,2.81,3.36,1.89
0.7650,0.07,0.11,-0.99,2.75,3.05,1.95
0.7820,0.07,0.11,-0.99,3.36,2.75,1.95
0.7980,0.07,0.11,-0.99,3.23,3.36,1.95
0.8140,0.07,0.11,-0.99,3.17,3.30,1.95
0.8310,0.07,0.11,-0.99,3.36,2.99,2.01
0.8470,0.07,0.11,-0.99,3.36,3.05,2.01
0.8630,0.07,0.11,-0.99,3.05,3.17,2.14
0.8790,0.06,0.12,-0.99,3.36,3.05,2.50
0.8950,0.08,0.11,-0.99,2.93,2.56,5.37
0.9000,0.07,0.11,-0.99,2.56,2.69,4.46
0.9260,0.07,0.10,-0.99,2.87,2.56,3.17
0.9410,0.07,0.11,-0.99,3.30,3.30,2.26
0.9560,0.07,0.11,-0.99,3.11,3.11,1.95
0.9660,0.07,0.11,-0.99,3.17,2.87,1.89
0.9820,0.07,0.11,-0.99,2.87,2.99,1.95
1.0030,0.07,0.11,-0.99,3.11,2.69,2.01
1.0190,0.07,0.11,-0.99,2.99,3.11,2.08
1.0330,0.07,0.11,-0.99,2.99,2.81,1.95
1.0490,0.07,0.11,-0.99,3.23,2.93,1.95
1.0650,0.07,0.11,-0.99,3.54,2.75,2.32
1.0720,0.07,0.11,-0.99,2.93,3.11,3.42
1.0870,0.07,0.11,-0.99,2.99,2.69,3.91
1.1090,0.07,0.11,-0.99,2.93,2.87,3.66
1.1270,0.07,0.11,-0.99,2.93,2.75,3.91
1.1420,0.07,0.10,-0.99,2.87,2.87,3.54
1.1580,0.07,0.10,-0.99,2.99,2.81,3.05
1.1730,0.07,0.11,-0.99,3.23,3.30,2.62
1.1880,0.07,0.11,-0.99,3.05,2.93,3.05
1.2030,0.07,0.11,-0.99,2.99,2.50,2.93
1.2190,0.07,0.11,-0.99,2.93,2.62,3.66
1.2260,0.07,0.11,-0.99,2.93,2.44,4.03
1.2430,0.07,0.11,-0.99,2.87,2.50,4.33
1.2610,0.07,0.11,-0.99,2.62,2.93,3.48
1.2760,0.07,0.11,-0.99,2.87,2.93,3.23
1.2930,0.07,0.11,-0.99,3.17,2.75,3.85
1.3090,0.07,0.11,-0.99,2.69,2.87,2.93
1.3270,0.07,0.11,-0.99,2.93,2.87,3.05
1.3420,0.07,0.11,-0.99,3.17,2.81,3.17
1.3590,0.07,0.11,-0.99,3.05,2.87,3.36
1.3750,0.07,0.11,-0.99,3.11,3.11,3.72
1.3890,0.07,0.12,-0.99,3.05,2.87,3.66
1.4040,0.07,0.12,-0.99,3.17,2.69,4.82
1.4200,0.07,0.11,-0.99,2.93,2.50,5.37
1.4350,0.07,0.10,-0.99,2.75,2.62,4.70
1.4430,0.07,0.10,-0.99,2.93,2.81,3.54
1.4600,0.07,0.11,-0.99,3.36,2.99,3.54
1.4770,0.07,0.11,-0.99,3.42,2.87,3.97
1.4940,0.07,0.11,-0.99,3.17,2.32,4.52
1.5090,0.07,0.10,-0.99,2.56,2.87,4.21
1.5250,0.07,0.11,-0.99,2.50,2.75,2.38
1.5270,0.07,0.11,-0.99,3.11,2.99,2.44
1.5550,0.07,0.12,-0.99,3.05,2.93,2.75
1.5700,0.07,0.12,-0.99,3.11,2.99,3.23
1.5850,0.07,0.11,-0.99,2.99,2.75,4.33
1.6000,0.07,0.11,-0.99,2.87,2.50,4.46
1.6090,0.07,0.11,-0.99,2.62,2.99,3.48
1.6270,0.07,0.11,-0.99,2.87,2.87,3.78
1.6420,0.07,0.11,-0.99,3.36,2.93,4.09
1.6600,0.07,0.11,-0.99,3.17,2.62,4.15
1.6750,0.07,0.12,-0.99,2.93,2.99,4.76
1.6900,0.07,0.10,-0.99,2.62,2.62,4.82
1.7020,0.07,0.10,-0.99,2.50,2.93,4.39
1.7200,0.07,0.10,-0.99,3.05,2.75,3.85
1.7340,0.07,0.11,-0.99,3.17,2.75,3.36
1.7500,0.07,0.11,-0.99,3.42,3.17,3.05
1.7600,0.07,0.11,-0.99,3.17,2.69,3.23
1.7760,0.07,0.11,-0.99,2.87,2.99,3.36
1.7930,0.07,0.11,-0.99,2.93,2.75,3.11
1.8100,0.07,0.11,-0.99,2.99,2.81,3.05
1.8250,0.07,0.11,-0.99,3.11,3.23,3.54
1.8260,0.07,0.11,-0.99,3.11,2.93,3.60
1.8550,0.07,0.11,-0.99,2.81,3.17,3.78
1.8700,0.07,0.11,-0.99,2.69,3.05,3.97
1.8860,0.07,0.11,-0.99,2.93,2.62,3.78
1.8930,0.07,0.11,-0.99,3.23,2.44,4.33
1.9100,0.07,0.11,-0.99,3.23,2.75,4.33
1.9270,0.07,0.10,-0.99,3.05,2.93,4.21
1.9430,0.07,0.11,-0.99,3.05,2.75,3.23
1.9600,0.07,0.11,-0.99,2.93,2.87,3.05
1.9750,0.07,0.11,-0.99,3.36,3.11,3.66
1.9910,0.07,0.11,-0.99,3.30,2.99,3.91
2.0060,0.07,0.11,-0.99,2.99,2.56,4.21
2.0100,0.07,0.11,-0.99,2.75,2.56,4.58
2.0350,0.07,0.10,-0.99,2.81,2.75,4.64
2.0510,0.07,0.10,-0.99,2.93,2.75,3.78
2.0660,0.07,0.10,-0.99,3.11,2.62,3.42
2.0760,0.07,0.11,-0.99,3.11,2.93,2.99
2.0920,0.07,0.12,-0.99,2.87,2.87,3.48
2.1090,0.07,0.12,-0.99,2.93,2.87,4.70
2.1270,0.07,0.12,-0.99,2.62,2.75,5.74
2.1420,0.07,0.10,-0.99,2.50,2.99,5.55
2.1570,0.07,0.10,-0.99,2.75,2.69,4.39
2.1670,0.07,0.11,-0.99,2.81,2.87,3.36
2.1820,0.07,0.11,-0.99,3.05,3.05,3.91
2.2000,0.07,0.12,-0.99,3.17,2.75,5.00
2.2160,0.07,0.11,-0.99,2.93,2.62,5.49
2.2310,0.07,0.10,-0.99,2.75,2.81,5.00
2.2330,0.07,0.11,-0.99,2.69,2.93,3.36
2.2620,0.07,0.11,-0.99,2.93,2.75,3.05
2.2780,0.07,0.11,-0.99,2.99,3.11,2.99
2.2920,0.07,0.12,-0.99,2.87,2.99,3.72
2.3080,0.07,0.11,-0.99,2.62,2.99,4.82
2.3230,0.07,0.10,-0.99,2.26,2.75,4.09
2.3330,0.07,0.10,-0.99,3.11,2.87,2.93
2.3510,0.07,0.11,-0.99,3.23,2.69,2.99
2.3660,0.07,0.11,-0.99,3.11,3.23,3.17
2.3830,0.07,0.11,-0.99,2.99,3.36,3.30
2.3980,0.07,0.11,-0.99,2.75,3.11,3.11
2.4130,0.07,0.11,-0.99,2.87,2.75,3.23
2.4280,0.07,0.11,-0.99,2.93,2.99,3.60
2.4430,0.07,0.11,-0.99,2.93,2.81,3.85
2.4580,0.07,0.11,-0.99,3.11,2.62,4.33
2.4730,0.07,0.11,-0.99,2.75,2.93,4.21
2.4880,0.07,0.11,-0.99,2.75,2.81,4.33
2.5000,0.07,0.11,-0.99,2.87,3.05,4.27
2.5160,0.07,0.10,-0.99,2.99,2.93,3.85
2.5320,0.07,0.10,-0.99,2.87,2.99,3.05
2.5480,0.07,0.11,-0.99,2.81,2.81,2.62
2.5630,0.07,0.12,-0.99,2.93,2.56,2.75
2.5780,0.07,0.12,-0.99,2.75,3.05,3.97
2.5940,0.07,0.11,-0.99,2.69,2.81,4.27
2.6090,0.07,0.11,-0.99,2.81,2.75,4.70
2.6230,0.07,0.11,-0.99,2.69,2.75,4.21
2.6390,0.07,0.11,-0.99,2.62,2.93,4.15
2.6490,0.07,0.11,-0.99,2.93,2.93,4.15
2.6660,0.07,0.11,-0.99,2.62,2.87,3.91
2.6830,0.07,0.11,-0.99,2.69,3.05,4.09
2.6990,0.07,0.11,-0.99,2.99,3.17,4.09
2.7140,0.07,0.10,-0.99,3.05,2.81,3.97
2.7170,0.07,0.10,-0.99,3.11,2.81,3.60
2.7440,0.07,0.10,-0.99,2.75,3.05,3.05
2.7590,0.07,0.11,-0.99,3.05,3.11,2.81
2.7740,0.07,0.11,-0.99,3.17,3.54,3.05
2.7820,0.07,0.11,-0.99,2.87,3.17,3.23
2.8040,0.07,0.11,-0.99,2.69,3.05,3.17
2.8160,0.07,0.11,-0.99,3.05,2.56,3.11
2.8330,0.07,0.11,-0.99,3.11,2.87,3.05
2.8480,0.07,0.10,-0.99,2.99,3.17,2.99
2.8640,0.07,0.11,-0.99,2.93,3.30,2.38
2.8800,0.07,0.11,-0.99,2.87,3.30,2.56
2.8830,0.07,0.11,-0.99,2.87,3.05,2.56
2.9090,0.07,0.11,-0.99,2.81,3.11,2.69
2.9170,0.07,0.11,-0.99,2.87,3.30,2.69
2.9400,0.07,0.11,-0.99,3.05,3.11,3.11
2.9510,0.07,0.11,-0.99,2.99,2.69,2.87
2.9670,0.07,0.11,-0.99,3.11,2.81,3.42
2.9830,0.07,0.11,-0.99,3.05,3.05,4.27
3.0000,0.07,0.11,-0.99,3.11,2.87,4.27
3.0150,0.07,0.10,-0.99,2.99,3.17,3.48
3.0300,0.07,0.11,-0.99,2.99,3.17,2.62
3.0470,0.07,0.11,-0.99,3.17,2.69,2.87
3.0630,0.07,0.11,-0.99,2.99,2.93,3.17
3.0790,0.07,0.11,-0.99,2.75,2.81,3.48
3.0950,0.07,0.11,-0.99,2.93,2.69,3.60
3.1110,0.07,0.11,-0.99,2.99,3.05,3.42
3.1270,0.07,0.11,-0.99,2.81,2.62,2.75
3.1340,0.07,0.12,-0.99,2.81,2.99,3.17
3.1490,0.07,0.11,-0.99,3.05,2.87,3.85
3.1710,0.07,0.10,-0.99,3.23,2.99,3.30
3.1880,0.07,0.11,-0.99,2.99,3.11,2.81
3.2050,0.07,0.11,-0.99,3.11,2.75,3.36
3.2210,0.07,0.11,-0.99,2.87,3.05,3.72
3.2370,0.07,0.11,-0.99,3.23,2.81,3.91
3.2520,0.07,0.11,-0.99,2.99,2.62,4.15
3.2670,0.07,0.11,-0.99,2.87,2.56,4.27
3.2830,0.07,0.11,-0.99,3.05,2.81,4.52
3.2990,0.07,0.11,-0.99,2.93,2.56,5.00
3.3150,0.07,0.11,-0.99,2.87,2.50,4.88
3.3220,0.07,0.11,-0.99,2.81,2.44,4.64
3.3380,0.07,0.09,-0.99,2.87,2.93,2.99
3.3600,0.07,0.10,-0.99,2.75,2.93,2.38
3.3770,0.07,0.11,-0.99,3.42,3.05,2.14
3.3780,0.07,0.12,-0.99,3.23,2.99,2.69
3.4040,0.07,0.12,-0.99,2.93,2.75,3.91
3.4110,0.08,0.11,-0.99,2.87,3.17,4.09
3.4260,0.07,0.11,-0.99,2.75,3.05,4.09
3.4430,0.07,0.10,-0.99,2.81,2.69,3.30
3.4590,0.07,0.10,-0.99,2.93,3.11,2.75
3.4860,0.07,0.11,-0.99,3.05,2.81,2.38
3.4960,0.07,0.12,-0.99,3.11,2.81,3.17
3.5130,0.07,0.12,-0.99,2.62,3.05,4.03
3.5290,0.07,0.12,-0.99,2.93,2.75,4.82
3.5460,0.07,0.10,-0.99,2.87,2.56,4.52
3.5480,0.07,0.10,-0.99,2.87,2.87,3.05
3.5770,0.07,0.10,-0.99,3.05,2.99,2.38
3.5930,0.08,0.12,-0.99,3.23,3.36,2.44
3.6080,0.07,0.12,-0.99,3.30,3.05,3.97
3.6140,0.08,0.12,-0.99,3.30,2.99,4.64
3.6380,0.07,0.11,-0.99,3.05,2.81,5.49
3.6530,0.07,0.10,-0.99,2.81,3.11,4.39
3.6630,0.07,0.10,-0.99,2.87,3.05,3.05
3.6800,0.07,0.10,-0.99,3.48,3.23,2.93
3.6970,0.07,0.10,-0.99,3.42,2.99,2.93
3.7130,0.07,0.11,-0.99,3.23,3.30,2.69
3.7290,0.07,0.12,-0.99,2.99,3.11,3.60
3.7460,0.07,0.11,-0.99,3.05,2.75,4.70
3.7620,0.07,0.10,-0.99,2.99,2.69,4.27
3.7640,0.07,0.11,-0.99,3.05,3.11,3.72
3.7940,0.07,0.11,-0.99,2.99,2.87,4.03
3.8100,0.07,0.11,-0.99,2.99,2.99,4.21
3.8140,0.07,0.11,-0.99,2.75,2.99,4.15
3.8310,0.07,0.11,-0.99,2.75,2.99,4.15
3.8570,0.07,0.11,-0.99,2.87,2.69,4.27
3.8640,0.07,0.11,-0.99,2.69,2.87,4.21
3.8870,0.07,0.10,-0.99,2.87,2.93,3.91
3.8970,0.07,0.10,-0.99,2.87,3.05,3.36
3.9130,0.07,0.11,-0.99,2.93,2.99,3.36
3.9300,0.07,0.11,-0.99,2.87,2.93,3.91
3.9460,0.07,0.12,-0.99,3.05,2.93,4.58
3.9630,0.07,0.11,-0.99,2.93,2.62,5.25
3.9790,0.07,0.09,-0.99,2.62,2.75,4.58
3.9950,0.07,0.09,-0.99,2.62,3.11,2.38
4.0100,0.07,0.11,-0.99,3.17,3.05,2.01
4.0260,0.07,0.11,-0.99,3.11,2.99,1.95
4.0410,0.08,0.13,-0.98,3.17,3.11,2.69
4.0500,0.08,0.12,-0.99,3.30,2.44,6.10
4.0670,0.07,0.11,-0.99,2.75,2.14,5.98
4.0890,0.07,0.09,-0.99,2.87,2.62,4.70
4.1050,0.07,0.10,-0.99,3.05,2.75,3.23
4.1210,0.07,0.11,-0.99,3.05,2.93,3.11
4.1360,0.07,0.11,-0.99,3.11,2.93,3.30
4.1390,0.07,0.11,-0.99,2.93,2.75,4.15
4.1540,0.07,0.11,-0.99,2.87,2.75,4.64
4.1760,0.07,0.10,-0.99,2.81,3.05,3.72
4.1940,0.07,0.10,-0.99,2.87,2.99,2.56
4.2100,0.07,0.11,-0.99,3.30,2.69,2.75
4.2270,0.08,0.11,-0.99,2.93,2.75,3.78
4.2430,0.07,0.11,-0.99,2.69,2.81,4.21
4.2600,0.07,0.11,-0.99,2.99,2.87,3.85
4.2610,0.07,0.11,-0.99,2.93,2.75,4.39
4.2910,0.07,0.11,-0.99,2.87,2.75,4.39
4.3060,0.07,0.11,-0.99,2.99,2.56,4.09
4.3100,0.07,0.11,-0.99,2.87,2.75,3.36
4.3260,0.07,0.11,-0.99,3.11,2.93,3.66
4.3440,0.07,0.11,-0.99,2.87,2.93,3.78
4.3600,0.07,0.12,-0.99,3.05,2.50,4.39
4.3760,0.07,0.10,-0.99,2.93,2.75,4.76
4.3990,0.07,0.11,-0.99,2.62,2.87,3.78
4.4150,0.07,0.11,-0.99,3.05,2.87,3.72
4.4310,0.07,0.11,-0.99,2.93,2.56,4.15
4.4480,0.07,0.11,-0.99,2.93,2.50,4.27
4.4640,0.07,0.11,-0.99,3.17,2.56,5.07
4.4790,0.07,0.11,-0.99,2.75,3.05,5.68
4.4960,0.07,0.10,-0.99,2.69,2.87,4.39
4.5120,0.07,0.10,-0.99,3.11,3.11,3.11
4.5270,0.08,0.11,-0.99,3.05,2.87,2.69
4.5420,0.08,0.12,-0.99,3.30,2.75,4.27
4.5570,0.07,0.12,-0.99,3.05,2.87,5.19
4.5720,0.07,0.11,-0.99,2.69,2.69,5.92
4.5830,0.07,0.10,-0.99,2.87,2.81,4.46
4.5990,0.07,0.11,-0.99,3.05,2.99,3.17
4.6150,0.07,0.11,-0.99,3.11,3.11,3.54
4.6310,0.07,0.11,-0.99,2.99,3.30,3.54
4.6470,0.07,0.11,-0.99,3.11,2.69,3.91
4.6550,0.07,0.11,-0.99,2.99,2.93,4.64
4.6780,0.07,0.11,-0.99,2.81,2.99,4.21
4.6890,0.07,0.11,-0.99,2.87,2.32,3.97
4.7060,0.08,0.11,-0.99,2.93,2.69,4.39
4.7220,0.07,0.10,-0.99,2.87,2.99,4.33
4.7380,0.07,0.11,-0.99,2.81,3.23,3.30
4.7540,0.07,0.11,-0.99,2.93,3.11,3.36
4.7690,0.07,0.11,-0.99,2.81,2.81,4.09
4.7840,0.07,0.11,-0.99,2.87,3.05,3.97
4.7990,0.08,0.12,-0.99,3.11,2.81,4.64
4.8140,0.08,0.12,-0.99,2.56,2.69,6.10
4.8290,0.07,0.10,-0.99,2.62,2.38,5.92
4.8440,0.07,0.09,-0.99,2.81,2.62,4.03
4.8560,0.07,0.10,-0.99,2.69,3.05,3.54
4.8720,0.07,0.11,-0.99,2.99,2.93,3.48
4.8890,0.08,0.12,-0.99,2.93,2.99,3.60
4.9050,0.08,0.12,-0.99,2.93,2.81,5.49
4.9210,0.07,0.12,-0.99,2.50,2.75,6.41
4.9360,0.07,0.10,-0.99,2.38,3.11,5.49
4.9510,0.07,0.10,-0.99,2.75,3.17,4.33
4.9550,0.07,0.10,-0.99,3.23,2.62,3.36
4.9710,0.07,0.11,-0.99,2.99,2.62,3.17
4.9930,0.07,0.11,-0.99,3.05,2.75,2.75
5.0100,0.08,0.11,-0.99,2.99,3.05,2.81
5.0270,0.07,0.11,-0.99,3.30,2.26,3.42
5.0280,0.08,0.11,-0.99,2.99,2.69,3.54
5.0580,0.08,0.11,-0.99,2.87,2.75,3.85
5.0600,0.08,0.11,-0.99,2.87,3.91,3.48
5.0890,0.07,0.11,-0.99,2.87,3.42,3.36
5.1040,0.07,0.11,-0.99,2.87,3.11,3.54
5.1200,0.07,0.11,-0.99,2.87,3.54,4.33
5.1290,0.07,0.11,-0.99,2.99,2.93,4.27
5.1440,0.07,0.11,-0.99,2.69,3.23,3.72
5.1660,0.07,0.10,-0.99,2.87,2.93,3.54
5.1810,0.07,0.10,-0.99,3.17,2.44,2.62
5.1970,0.07,0.10,-0.99,3.48,2.20,1.83
5.2130,0.07,0.11,-0.99,3.42,2.44,1.77
5.2280,0.08,0.11,-0.99,3.17,2.75,1.77
5.2440,0.08,0.12,-0.99,2.93,2.87,2.32
5.2600,0.07,0.11,-0.99,3.11,2.56,3.23
5.2750,0.08,0.11,-0.99,2.81,3.11,3.42
5.2900,0.07,0.11,-0.99,3.05,3.42,3.72
5.3010,0.07,0.11,-0.99,2.99,3.05,3.91
5.3180,0.07,0.11,-0.99,2.93,2.75,4.03
5.3350,0.07,0.10,-0.99,2.81,2.69,3.30
5.3500,0.07,0.11,-0.99,3.05,2.62,2.87
5.3650,0.07,0.11,-0.99,2.99,2.75,4.03
5.3800,0.08,0.11,-0.99,3.17,2.99,4.64
5.3950,0.08,0.11,-0.99,2.93,2.62,4.70
5.4110,0.07,0.10,-0.99,2.81,2.81,3.97
5.4260,0.07,0.11,-0.99,2.93,2.93,2.75
5.4410,0.07,0.11,-0.99,2.99,2.99,3.30
5.4560,0.07,0.11,-0.99,2.99,2.81,3.54
5.4680,0.07,0.11,-0.99,3.11,2.93,3.91
5.4850,0.07,0.11,-0.99,2.87,2.81,5.07
5.5010,0.07,0.11,-0.99,2.75,2.38,4.76
5.5160,0.07,0.11,-0.99,2.62,2.50,4.21
5.5320,0.08,0.11,-0.99,2.75,2.99,3.97
5.5470,0.07,0.11,-0.99,2.62,2.87,4.03
5.5630,0.08,0.11,-0.99,2.87,2.81,3.85
5.5790,0.07,0.11,-0.99,2.99,2.93,4.09
5.5950,0.08,0.11,-0.99,2.99,2.81,4.15
5.6100,0.07,0.11,-0.99,2.93,2.93,4.15
5.6250,0.07,0.11,-0.99,2.69,3.05,4.27
5.6350,0.07,0.11,-0.99,2.93,2.62,4.70
5.6510,0.07,0.10,-0.99,2.81,3.17,3.91
5.6710,0.07,0.10,-0.99,3.23,2.87,2.87
5.6870,0.07,0.11,-0.99,3.17,3.23,2.32
5.7030,0.07,0.12,-0.99,3.11,2.93,3.05
5.7180,0.08,0.13,-0.99,2.99,2.81,4.03
5.7320,0.08,0.12,-0.99,2.75,2.56,5.49
5.7480,0.08,0.11,-0.99,2.75,2.75,5.43
5.7630,0.07,0.10,-0.99,2.75,2.99,4.46
5.7720,0.08,0.10,-0.99,2.99,3.17,3.05
5.7880,0.08,0.10,-0.99,2.93,3.05,2.62
5.8090,0.07,0.10,-0.99,2.75,3.23,2.75
5.8250,0.07,0.12,-0.99,2.93,3.23,2.99
5.8400,0.07,0.11,-0.99,2.99,2.81,3.78
5.8550,0.07,0.11,-0.99,2.87,3.36,3.85
5.8700,0.07,0.11,-0.99,2.81,2.99,2.56
5.8860,0.08,0.10,-0.99,2.75,3.17,2.50
5.9010,0.08,0.10,-0.99,2.75,3.11,2.20
5.9110,0.07,0.11,-0.99,2.93,3.17,2.50
5.9270,0.08,0.12,-0.99,3.23,2.99,3.23
5.9490,0.08,0.13,-0.99,3.23,2.87,5.68
5.9650,0.08,0.11,-0.99,2.62,2.81,6.16
5.9800,0.07,0.10,-0.99,2.56,2.81,4.09
5.9960,0.07,0.10,-0.99,2.32,2.81,3.48
6.0110,0.07,0.09,-0.99,3.05,3.05,2.32
6.0260,0.07,0.11,-0.99,2.93,3.05,2.38
6.0330,0.07,0.11,-0.99,3.05,3.23,2.44
6.0490,0.07,0.12,-0.99,3.11,2.56,3.48
6.0710,0.08,0.12,-0.99,3.05,2.99,4.39
6.0880,0.08,0.11,-0.99,2.62,2.93,4.27
6.1030,0.08,0.10,-0.99,2.75,2.99,3.85
6.1180,0.07,0.10,-0.99,2.99,2.81,3.17
6.1330,0.07,0.11,-0.99,3.11,2.87,2.50
6.1380,0.07,0.11,-0.99,3.30,2.93,3.11
6.1540,0.07,0.12,-0.99,2.99,3.05,3.60
6.1760,0.08,0.12,-0.99,2.69,2.81,4.09
6.1930,0.08,0.12,-0.99,2.81,2.44,4.94
6.2100,0.08,0.10,-0.99,2.81,2.93,5.68
6.2110,0.07,0.09,-0.99,2.50,2.50,4.33
6.2260,0.07,0.09,-0.99,2.69,2.62,2.62
6.2430,0.07,0.11,-0.99,3.11,3.30,2.32
6.2710,0.07,0.11,-0.99,3.17,2.75,2.93
6.2770,0.08,0.12,-0.99,2.99,2.87,3.60
6.2930,0.08,0.12,-0.99,2.62,2.81,4.52
6.3180,0.07,0.11,-0.99,2.75,2.62,4.70
6.3310,0.07,0.10,-0.99,2.69,3.05,3.85
6.3460,0.07,0.10,-0.99,2.81,2.81,3.23
6.3640,0.07,0.10,-0.99,2.87,2.87,2.69
6.3800,0.07,0.11,-0.99,2.99,2.75,2.44
6.3950,0.08,0.11,-0.99,2.99,2.69,3.05
6.4110,0.07,0.11,-0.99,2.87,2.75,3.42
6.4260,0.08,0.11,-0.99,3.05,2.81,3.54
6.4410,0.07,0.10,-0.99,2.99,2.75,3.11
6.4560,0.08,0.11,-0.99,2.87,2.75,2.26
6.4710,0.07,0.11,-0.99,3.17,2.69,3.05
6.4800,0.07,0.11,-0.99,2.99,2.69,2.99
6.4960,0.08,0.11,-0.99,3.11,2.62,3.23
6.5160,0.07,0.10,-0.99,3.05,2.81,2.99
6.5310,0.07,0.11,-0.99,3.11,2.62,2.69
6.5390,0.08,0.11,-0.99,2.99,2.62,2.69
6.5610,0.08,0.10,-0.99,2.87,3.17,2.56
6.5760,0.08,0.11,-0.99,2.69,3.11,2.08
6.5880,0.07,0.11,-0.99,2.93,3.11,1.65
6.6040,0.07,0.11,-0.99,3.05,3.11,1.77
6.6210,0.08,0.11,-0.99,2.93,2.81,3.36
6.6370,0.07,0.10,-0.99,2.81,2.99,3.72
6.6540,0.08,0.10,-0.99,2.87,2.81,2.81
6.6690,0.08,0.11,-0.99,2.93,2.75,2.75
6.6840,0.07,0.11,-0.99,2.75,3.23,2.93
6.6990,0.07,0.11,-0.99,2.81,2.93,2.69
6.7090,0.07,0.11,-0.99,2.93,2.87,3.11
6.7210,0.07,0.10,-0.99,3.05,2.87,2.87
6.7430,0.08,0.11,-0.99,2.81,3.05,2.56
6.7600,0.08,0.11,-0.99,3.05,2.87,2.99
6.7770,0.08,0.11,-0.99,3.23,2.69,3.97
6.7930,0.07,0.11,-0.99,3.11,2.62,4.64
6.8090,0.08,0.10,-0.99,2.93,2.75,4.03
6.8250,0.07,0.10,-0.99,3.23,3.17,3.17
6.8260,0.07,0.10,-0.99,3.30,2.81,2.93
6.8430,0.07,0.10,-0.99,2.93,2.99,2.38
6.8600,0.08,0.11,-0.99,2.87,2.93,2.20
6.8750,0.08,0.12,-0.99,2.62,3.11,2.44
6.9020,0.08,0.12,-0.99,3.23,2.75,3.66
6.9140,0.07,0.11,-0.99,2.93,2.62,5.00
6.9310,0.08,0.10,-0.99,2.75,3.17,4.88
6.9460,0.07,0.10,-0.99,2.69,2.99,3.05
6.9620,0.07,0.10,-0.99,2.50,3.17,2.20
6.9770,0.08,0.11,-0.99,2.81,3.30,1.83
6.9940,0.07,0.12,-0.99,2.81,3.23,2.81
7.0100,0.07,0.12,-0.99,2.81,3.23,4.58
7.0150,0.08,0.12,-0.99,2.44,3.23,5.80
7.0300,0.08,0.11,-0.99,2.56,2.99,5.86
7.0460,0.07,0.09,-0.99,2.81,2.87,4.09
7.0690,0.07,0.08,-0.99,2.93,2.87,3.05
7.0870,0.08,0.10,-0.99,3.36,2.99,1.53
7.1030,0.08,0.11,-1.00,3.42,2.69,1.89
7.1180,0.08,0.11,-0.99,2.44,3.78,2.32
7.1330,0.07,0.13,-0.98,2.81,3.66,3.78
7.1350,0.07,0.12,-0.99,3.66,2.99,4.88
7.1510,0.08,0.11,-0.99,2.99,2.50,4.88
7.1790,0.07,0.09,-0.99,2.87,3.05,4.27
7.1940,0.07,0.09,-0.99,2.99,2.99,2.69
7.2060,0.07,0.11,-0.99,3.36,3.11,2.14
7.2230,0.07,0.11,-0.99,3.23,3.23,2.44
7.2380,0.08,0.13,-0.99,3.48,2.62,3.85
7.2530,0.08,0.12,-0.99,3.05,3.17,6.10
7.2570,0.07,0.11,-0.99,2.50,3.36,6.41
7.2730,0.07,0.10,-0.99,2.87,2.99,5.31
7.3000,0.07,0.09,-0.99,2.81,3.23,4.64
7.3150,0.07,0.09,-0.99,3.42,2.99,2.93
7.3240,0.07,0.10,-0.99,3.54,2.14,2.26
7.3400,0.08,0.12,-0.99,3.17,3.23,2.01
7.3600,0.07,0.16,-0.99,2.87,3.60,3.66
7.3750,0.08,0.12,-0.99,2.99,3.05,4.94
7.3800,0.08,0.11,-0.99,2.62,2.81,5.13
7.4050,0.08,0.10,-0.99,2.87,3.05,4.70
7.4130,0.07,0.10,-0.99,2.87,2.87,4.33
7.4340,0.07,0.10,-0.99,2.93,3.05,3.85
7.4450,0.07,0.11,-0.99,3.11,2.87,4.03
7.4620,0.07,0.11,-0.99,2.81,2.62,3.85
7.4800,0.07,0.11,-0.99,2.87,2.93,3.97
7.4960,0.07,0.10,-0.99,2.75,3.30,4.03
7.5110,0.08,0.10,-0.99,2.87,3.05,3.48
7.5260,0.07,0.11,-0.99,2.87,3.42,3.72
7.5410,0.08,0.11,-0.99,2.93,3.30,4.70
7.5560,0.07,0.11,-0.99,2.75,3.05,4.76
7.5710,0.07,0.11,-0.99,2.75,3.30,4.33
7.5870,0.07,0.11,-0.99,2.75,3.48,3.30
7.6020,0.07,0.11,-0.99,2.93,3.48,3.17
7.6120,0.07,0.12,-0.99,2.87,2.99,3.48
7.6280,0.07,0.12,-0.99,2.87,2.87,5.43
7.6470,0.07,0.11,-0.99,2.62,2.81,6.35
7.6620,0.07,0.10,-0.99,2.81,2.75,5.43
7.6790,0.07,0.10,-0.99,2.99,2.99,4.58
7.6800,0.07,0.10,-0.99,2.87,2.87,4.27
7.7100,0.07,0.11,-0.99,2.81,2.87,3.30
7.7130,0.08,0.12,-0.99,2.75,3.30,3.30
7.7290,0.08,0.11,-0.99,2.81,2.81,4.64
7.7440,0.08,0.10,-0.99,2.69,3.30,3.91
7.7720,0.07,0.10,-0.99,2.75,3.78,3.36
7.7820,0.07,0.11,-0.99,3.23,3.60,3.30
7.7990,0.07,0.11,-0.99,3.11,3.05,3.42
7.8150,0.07,0.11,-0.99,2.93,3.54,3.05
7.8320,0.07,0.10,-0.99,3.05,2.75,2.87
7.8480,0.07,0.11,-0.99,2.99,2.56,2.56
7.8630,0.07,0.11,-0.99,3.11,3.05,2.75
7.8790,0.07,0.12,-0.99,2.99,2.81,2.99
7.8950,0.07,0.12,-0.99,2.99,2.50,3.66
7.9100,0.07,0.11,-0.99,2.75,2.99,4.46
7.9160,0.07,0.11,-0.99,2.99,3.11,4.15
7.9420,0.07,0.10,-0.99,2.87,2.93,3.54
7.9520,0.07,0.11,-0.99,2.93,3.48,3.30
7.9690,0.07,0.12,-0.99,3.11,3.11,3.36
7.9870,0.07,0.11,-0.99,2.75,2.99,4.09
8.0030,0.07,0.11,-0.99,2.87,3.30,4.33
8.0190,0.07,0.11,-0.99,2.75,3.23,4.64
8.0340,0.07,0.10,-0.99,2.81,2.75,4.27
8.0490,0.07,0.10,-0.99,2.99,2.75,3.54
8.0640,0.07,0.11,-0.99,2.93,2.50,3.66
8.0700,0.07,0.11,-0.99,2.93,2.81,4.27
8.0860,0.07,0.10,-0.99,2.93,2.69,3.54
8.1090,0.07,0.11,-0.99,2.99,2.87,2.87
8.1250,0.07,0.11,-0.99,3.17,3.05,3.48
8.1410,0.07,0.11,-0.99,3.05,2.93,3.66
8.1580,0.07,0.11,-0.99,2.87,3.11,3.78
8.1730,0.07,0.11,-0.99,2.81,3.42,3.78
8.1890,0.07,0.11,-0.99,2.81,3.05,3.85
8.2060,0.07,0.11,-0.99,2.87,2.81,4.09
8.2210,0.07,0.10,-0.99,2.81,2.69,3.60
8.2250,0.07,0.10,-0.99,2.81,3.17,3.11
8.2510,0.07,0.10,-0.99,2.93,2.99,2.93
8.2660,0.07,0.11,-0.99,3.11,2.87,3.48
8.2750,0.07,0.12,-0.99,3.11,3.23,4.58
8.2930,0.07,0.11,-0.99,2.75,2.93,4.64
8.3080,0.08,0.10,-0.99,2.93,2.62,4.09
8.3250,0.07,0.10,-0.99,2.93,2.93,3.78
8.3410,0.07,0.10,-0.99,3.30,2.87,2.93
8.3580,0.07,0.12,-0.99,3.17,2.62,2.87
8.3740,0.08,0.12,-0.99,2.93,2.93,4.52
8.3900,0.08,0.12,-0.99,2.81,3.30,6.84
8.4060,0.07,0.11,-0.99,2.50,3.42,6.96
8.4210,0.07,0.10,-0.99,2.99,2.62,4.76
8.4250,0.07,0.10,-0.99,3.05,2.75,3.42
8.4410,0.07,0.11,-0.99,3.17,2.62,3.11
8.4630,0.07,0.11,-0.99,2.99,3.05,3.54
8.4790,0.07,0.12,-0.99,2.62,3.60,4.88
8.4950,0.07,0.11,-0.99,2.81,2.99,5.43
8.5110,0.07,0.10,-0.99,2.93,2.81,4.15
8.5280,0.07,0.10,-0.99,2.93,2.75,3.42
8.5430,0.07,0.11,-0.99,2.81,3.11,1.89
8.5490,0.07,0.11,-0.99,2.93,3.54,2.14
8.5650,0.07,0.12,-0.99,3.05,3.91,1.95
8.5890,0.08,0.14,-0.99,2.62,2.93,4.70
8.6050,0.07,0.12,-0.99,2.69,2.69,5.92
8.6210,0.07,0.11,-0.99,2.56,3.42,6.04
8.6370,0.07,0.10,-0.99,2.99,2.87,5.25
8.6520,0.07,0.10,-0.99,3.11,2.69,3.54
8.6670,0.07,0.11,-0.99,2.87,2.69,3.78
8.6830,0.07,0.11,-0.99,2.87,2.87,4.33
8.6880,0.07,0.11,-0.99,2.87,3.17,4.82
8.7120,0.07,0.11,-0.99,2.93,3.91,5.80
8.7200,0.07,0.11,-0.99,2.81,3.78,5.98
8.7430,0.07,0.11,-0.99,2.87,3.54,4.52
8.7590,0.07,0.11,-0.99,2.99,2.93,4.15
8.7610,0.07,0.10,-0.99,2.81,2.93,4.58
8.7900,0.07,0.10,-0.99,2.99,3.17,4.46
8.7940,0.07,0.10,-0.99,3.05,3.72,4.33
8.8110,0.07,0.11,-0.99,3.17,3.66,3.60
8.8310,0.07,0.11,-0.99,3.17,3.11,3.23
8.8480,0.07,0.11,-0.99,3.05,2.56,2.50
8.8640,0.07,0.11,-0.99,3.05,3.42,2.56
8.8810,0.07,0.11,-0.99,3.05,3.54,2.99
8.8960,0.07,0.11,-0.99,2.75,3.05,2.99
8.9120,0.07,0.10,-0.99,2.87,3.66,2.44
8.9270,0.07,0.11,-0.99,3.11,2.93,2.32
8.9430,0.07,0.11,-0.99,2.99,3.11,2.69
8.9590,0.07,0.11,-0.99,2.99,3.72,1.95
8.9650,0.07,0.11,-0.99,3.17,3.36,2.32
8.9820,0.07,0.11,-0.99,2.93,3.11,3.30
9.0040,0.07,0.11,-0.99,2.87,3.17,3.91
9.0200,0.07,0.11,-0.99,2.93,3.30,4.46
9.0370,0.07,0.11,-0.99,2.93,2.93,3.78
9.0530,0.07,0.10,-0.99,2.93,3.48,2.81
9.0690,0.07,0.11,-0.99,2.99,2.93,2.14
9.0850,0.07,0.11,-0.99,3.05,3.23,3.23
9.1000,0.07,0.11,-0.99,3.05,2.87,3.78
9.1150,0.07,0.11,-0.99,3.05,2.93,4.46
9.1300,0.07,0.11,-0.99,2.87,3.66,4.76
9.1460,0.07,0.10,-0.99,2.93,3.30,3.91
9.1610,0.07,0.10,-0.99,3.11,2.99,3.30
9.1760,0.07,0.10,-0.99,3.05,2.87,2.99
9.1870,0.07,0.11,-0.99,3.05,2.44,2.50
9.2030,0.07,0.12,-0.99,3.17,2.26,2.38
9.2210,0.07,0.12,-0.99,2.93,2.93,3.54
9.2370,0.07,0.11,-0.99,2.87,3.23,4.03
9.2540,0.07,0.11,-0.99,2.99,2.99,4.09
9.2700,0.07,0.11,-0.99,2.87,2.38,4.52
9.2850,0.07,0.11,-0.99,2.81,2.56,4.76
9.3000,0.07,0.11,-0.99,2.69,2.50,4.21
9.3150,0.07,0.10,-0.99,2.87,2.93,3.60
9.3200,0.07,0.10,-0.99,2.93,2.69,2.75
9.3370,0.07,0.11,-0.99,3.17,3.17,2.50
9.3590,0.07,0.11,-0.99,3.30,3.48,3.05
9.3730,0.07,0.12,-0.99,3.17,3.30,4.09
9.3900,0.07,0.11,-0.99,2.93,2.81,4.33
9.4070,0.07,0.10,-0.99,2.87,3.05,3.60
9.4230,0.07,0.11,-0.99,3.17,3.30,2.93
9.4390,0.07,0.11,-0.99,3.30,3.05,3.30
9.4540,0.07,0.11,-0.99,3.17,2.87,2.81
9.4570,0.07,0.11,-0.99,3.17,2.99,2.69
9.4730,0.07,0.11,-0.99,2.87,3.42,2.69
9.4960,0.07,0.11,-0.99,3.05,3.42,3.85
9.5130,0.07,0.10,-0.99,3.11,2.75,4.03
9.5300,0.07,0.10,-0.99,3.11,2.56,3.30
9.5470,0.07,0.11,-0.99,2.87,2.81,2.50
9.5630,0.07,0.12,-0.99,2.81,3.30,2.38
9.5780,0.07,0.12,-0.99,2.75,3.97,3.91
9.5800,0.07,0.11,-0.99,2.93,2.81,4.64
9.6090,0.07,0.11,-0.99,2.93,2.69,3.72
9.6250,0.07,0.10,-0.99,2.99,3.66,3.36
9.6310,0.07,0.10,-0.99,2.99,3.42,2.69
9.6570,0.07,0.11,-0.99,3.23,3.30,2.32
9.6730,0.07,0.11,-0.99,3.05,2.93,2.99
9.6880,0.07,0.11,-0.99,3.17,2.93,3.17
9.7020,0.07,0.11,-0.99,3.17,2.87,3.05
9.7140,0.07,0.11,-0.99,3.11,2.75,3.60
9.7310,0.07,0.11,-0.99,3.05,3.05,3.48
9.7470,0.07,0.11,-0.99,2.93,3.30,3.30
9.7640,0.07,0.11,-0.99,3.11,3.11,3.11
9.7800,0.07,0.11,-0.99,2.99,3.11,2.81
9.7960,0.07,0.12,-0.99,2.81,3.42,3.30
9.8110,0.07,0.11,-0.99,2.93,3.23,4.27
9.8140,0.07,0.12,-0.99,2.93,2.44,5.68
9.8430,0.07,0.11,-0.99,2.81,3.11,4.70
9.8580,0.07,0.10,-0.99,3.11,3.17,3.72
9.8740,0.07,0.09,-0.99,3.30,3.05,3.17
9.8890,0.07,0.10,-0.99,3.11,3.05,2.38
9.9050,0.07,0.11,-0.99,3.36,2.26,2.38
9.9200,0.07,0.11,-0.99,3.17,2.69,2.69
9.9300,0.07,0.11,-0.99,2.75,3.36,2.50
9.9460,0.07,0.12,-0.99,2.99,3.60,2.14
9.9630,0.07,0.12,-0.99,3.11,3.72,2.87
9.9810,0.07,0.11,-0.99,3.05,3.48,4.21
9.9960,0.07,0.10,-0.99,3.05,3.23,4.39
9.9960,0.07,0.10,-0.99,3.17,2.69,3.36
10.0140,0.07,0.11,-0.99,3.30,2.75,3.54
10.0430,0.07,0.11,-0.99,3.11,2.26,3.78
10.0460,0.07,0.11,-0.99,2.87,2.50,3.30
10.0610,0.07,0.12,-0.99,3.30,2.75,4.03
10.0850,0.07,0.11,-0.99,2.99,2.99,5.37
10.1020,0.07,0.09,-0.99,2.81,2.69,4.09
10.1180,0.07,0.10,-0.99,3.23,2.14,2.99
10.1350,0.07,0.10,-0.99,3.30,2.08,2.87
10.1510,0.07,0.11,-0.99,3.05,3.36,2.32
10.1660,0.07,0.11,-0.99,3.11,3.05,2.32
10.1680,0.07,0.12,-0.99,2.99,3.17,2.99
10.1840,0.07,0.12,-0.99,2.87,3.05,4.76
10.2060,0.07,0.11,-0.99,2.75,2.87,4.76
10.2220,0.07,0.10,-0.99,3.05,2.62,4.09
10.2390,0.06,0.10,-0.99,2.99,3.05,2.81
10.2560,0.07,0.12,-0.99,3.36,2.81,2.81
10.2710,0.07,0.13,-0.99,3.17,1.95,4.76
10.2870,0.08,0.13,-0.99,2.81,1.65,6.65
10.3030,0.08,0.12,-0.99,2.81,2.14,7.32
10.3170,0.06,0.10,-0.99,2.62,2.81,6.71
10.3350,0.06,0.09,-0.99,2.56,3.23,5.07
10.3500,0.07,0.10,-0.99,3.36,2.50,2.87
10.3650,0.07,0.10,-0.99,3.17,2.50,1.71
10.3810,0.07,0.11,-0.99,3.23,2.93,1.83
10.3960,0.07,0.11,-0.99,2.99,2.87,1.83
10.4110,0.07,0.11,-0.99,2.87,3.30,2.20
10.4220,0.07,0.12,-0.99,3.36,3.05,2.50
10.4390,0.06,0.11,-0.99,2.99,3.11,3.05
10.4560,0.09,0.12,-0.99,2.87,2.01,5.43
10.4720,0.07,0.10,-0.99,2.62,2.20,4.58
10.4890,0.07,0.10,-0.99,2.81,3.05,4.58
10.4900,0.07,0.10,-0.99,3.05,2.87,4.03
10.5210,0.07,0.11,-0.99,3.05,2.50,4.39
10.5370,0.07,0.11,-0.99,2.81,2.93,3.78
10.5540,0.07,0.11,-0.99,2.99,3.11,3.60
10.5690,0.07,0.11,-0.99,2.93,2.62,3.85
10.5850,0.07,0.10,-0.99,2.99,2.87,3.23
10.6000,0.07,0.11,-0.99,3.23,3.11,3.78
10.6150,0.07,0.11,-0.99,3.11,3.42,3.17
10.6310,0.06,0.12,-0.98,2.93,3.54,3.78
10.6470,0.07,0.11,-0.99,2.69,2.50,5.62
10.6620,0.07,0.10,-0.99,2.62,2.62,3.36
10.6730,0.07,0.10,-0.99,3.30,2.81,2.20
10.6890,0.07,0.11,-0.99,3.30,2.56,1.95
10.7060,0.07,0.12,-0.99,3.05,2.20,1.95
10.7230,0.07,0.13,-0.99,3.05,2.08,4.39
10.7390,0.07,0.12,-0.99,3.05,1.89,7.08
10.7400,0.07,0.10,-0.99,2.62,2.69,6.35
10.7700,0.07,0.09,-0.99,2.81,3.48,3.11
10.7730,0.07,0.10,-0.99,3.54,3.30,2.20
10.8010,0.07,0.11,-0.99,3.42,2.99,2.08
10.8160,0.07,0.11,-0.99,3.11,3.17,2.44
10.8220,0.07,0.13,-0.98,3.17,2.69,3.85
10.8380,0.07,0.12,-0.99,2.99,1.65,5.80
10.8610,0.07,0.11,-0.99,2.87,2.87,5.07
10.8760,0.07,0.09,-0.99,2.99,2.87,5.25
10.8930,0.07,0.09,-0.99,2.99,2.20,2.14
10.9090,0.07,0.10,-0.99,3.30,2.20,1.46
10.9250,0.07,0.11,-0.99,2.99,2.87,1.77
10.9410,0.07,0.12,-0.99,2.87,3.30,2.44
10.9570,0.06,0.13,-0.98,3.11,3.36,3.48
10.9600,0.08,0.12,-0.99,2.93,1.53,6.53
10.9750,0.07,0.10,-0.99,2.56,2.44,5.49
11.0040,0.07,0.09,-0.99,3.23,2.50,4.09
11.0160,0.07,0.09,-1.00,3.23,2.99,2.20
11.0320,0.07,0.11,-0.99,3.30,3.30,2.14
11.0500,0.08,0.12,-0.99,3.30,3.17,2.81
11.0660,0.06,0.13,-0.98,2.99,2.87,4.21
11.0680,0.08,0.12,-0.99,2.69,1.16,7.02
11.0830,0.07,0.11,-0.99,2.69,2.38,6.10
11.1060,0.08,0.10,-0.99,2.81,2.69,6.16
11.1220,0.07,0.09,-0.99,2.93,3.11,3.17
11.1390,0.07,0.11,-0.99,3.23,2.93,2.26
11.1560,0.08,0.12,-0.99,3.54,2.99,2.93
11.1730,0.05,0.11,-0.99,2.99,2.32,3.54
11.1890,0.07,0.11,-1.00,2.44,2.01,4.70
11.2050,0.07,0.10,-0.99,2.87,3.54,2.69
11.2210,0.07,0.11,-0.99,3.30,2.87,2.14
11.2370,0.08,0.11,-0.99,3.36,3.42,2.56
11.2530,0.07,0.11,-0.99,3.30,2.93,3.36
11.2690,0.08,0.13,-0.98,2.75,2.44,5.07
11.2840,0.07,0.11,-0.99,2.87,2.38,5.37
11.2980,0.07,0.11,-0.99,2.81,2.87,5.68
11.3130,0.06,0.10,-0.99,2.69,3.85,4.64
11.3290,0.08,0.11,-0.99,2.99,3.48,5.19
11.3430,0.07,0.10,-0.99,2.69,2.81,4.33
11.3550,0.07,0.10,-0.99,2.93,2.62,2.56
11.3720,0.07,0.11,-0.99,3.17,2.56,2.44
11.3880,0.07,0.12,-0.99,3.30,2.75,2.44
11.4060,0.07,0.12,-0.99,3.17,2.69,2.87
11.4220,0.07,0.12,-0.99,2.99,2.32,3.42
11.4380,0.07,0.11,-0.99,2.69,2.32,4.94
11.4540,0.07,0.09,-0.99,3.05,2.56,3.23
11.4700,0.07,0.11,-0.99,3.36,3.48,2.32
11.4860,0.07,0.11,-0.99,3.66,2.62,2.20
11.5020,0.08,0.12,-0.98,2.93,3.66,2.81
11.5130,0.07,0.12,-0.99,2.69,3.36,3.72
11.5210,0.07,0.11,-0.99,2.99,3.11,4.03
11.5420,0.07,0.11,-0.98,3.23,2.93,3.78
11.5590,0.07,0.11,-0.99,3.11,1.28,3.60
11.5750,0.07,0.11,-1.00,2.99,1.10,3.60
11.5920,0.07,0.11,-0.99,3.05,2.26,2.87
11.6090,0.07,0.11,-0.99,3.11,2.50,3.23
11.6250,0.07,0.11,-0.99,2.87,3.17,3.72
11.6410,0.08,0.12,-0.98,2.87,2.99,3.54
11.6560,0.07,0.11,-0.99,2.87,2.26,3.72
11.6590,0.07,0.10,-0.99,2.69,3.05,2.87
11.6760,0.07,0.11,-0.99,3.05,3.54,2.26
11.6920,0.07,0.12,-0.99,2.99,2.99,2.44
11.7180,0.07,0.12,-0.98,2.75,2.99,3.11
11.7310,0.08,0.12,-0.99,2.81,2.56,3.60
11.7460,0.07,0.11,-0.99,2.81,2.26,4.64
11.7630,0.07,0.10,-0.99,3.11,2.50,4.27
11.7790,0.07,0.10,-0.99,2.99,3.11,2.99
11.7950,0.08,0.11,-0.99,3.23,3.42,2.44
11.7970,0.08,0.12,-0.99,3.05,3.36,3.11
11.8270,0.07,0.12,-0.99,2.69,3.17,4.39
11.8430,0.08,0.11,-0.99,2.75,2.69,5.37
11.8590,0.07,0.10,-0.99,2.56,2.38,3.78
11.8640,0.07,0.10,-0.99,2.93,2.75,2.56
11.8800,0.08,0.11,-0.99,3.11,3.30,2.32
11.8960,0.08,0.12,-0.99,3.05,3.30,2.62
11.9170,0.07,0.12,-0.99,3.05,2.81,3.85
11.9350,0.07,0.12,-0.99,2.81,2.62,4.64
11.9500,0.07,0.10,-0.99,2.69,2.44,4.52
11.9660,0.07,0.10,-0.99,2.62,2.81,3.17
11.9810,0.07,0.11,-0.99,3.05,3.11,2.32
11.9970,0.07,0.11,-0.99,3.05,3.05,2.44
12.0130,0.07,0.13,-0.99,2.87,3.17,3.85
12.0290,0.08,0.12,-0.99,2.69,2.75,5.55
12.0450,0.07,0.11,-0.99,2.62,2.62,4.46
12.0610,0.07,0.10,-0.99,2.69,3.05,3.66
12.0770,0.07,0.10,-0.99,3.05,2.81,2.20
12.0920,0.08,0.11,-0.99,3.30,2.87,1.95
12.1070,0.08,0.12,-0.99,2.93,3.11,2.56
12.1180,0.08,0.13,-0.98,2.99,2.69,5.25
12.1330,0.08,0.13,-0.99,2.87,1.53,6.77
12.1520,0.07,0.10,-0.99,2.38,2.26,6.65
12.1550,0.06,0.09,-0.99,2.62,3.17,4.39
12.1700,0.08,0.10,-0.99,2.99,2.56,3.42
12.1980,0.07,0.11,-0.99,3.30,3.05,2.99
12.2120,0.08,0.12,-0.99,3.11,2.69,3.30
12.2270,0.07,0.11,-0.99,2.93,2.62,4.33
12.2430,0.07,0.11,-0.99,2.87,3.17,4.39
12.2550,0.07,0.11,-0.99,2.81,2.87,3.17
12.2710,0.07,0.11,-0.99,3.05,2.62,3.17
12.2880,0.07,0.11,-0.99,3.05,2.56,3.54
12.3050,0.07,0.11,-0.99,2.87,2.62,3.48
12.3200,0.08,0.11,-0.99,2.93,3.11,2.99
12.3370,0.07,0.11,-0.99,2.99,2.99,2.38
12.3530,0.07,0.11,-0.99,2.93,3.17,2.44
12.3680,0.07,0.11,-0.99,2.99,2.99,2.26
12.3710,0.07,0.11,-0.99,3.17,3.05,3.05
12.3870,0.07,0.11,-0.99,3.05,2.87,3.54
12.4090,0.07,0.10,-0.99,2.93,2.62,3.05
12.4250,0.07,0.11,-0.99,3.11,2.81,2.26
12.4430,0.07,0.11,-0.99,3.05,3.05,2.32
12.4590,0.08,0.12,-0.99,2.87,3.17,2.69
12.4740,0.08,0.12,-0.98,2.81,3.30,4.39
12.4910,0.08,0.11,-0.99,2.69,2.44,4.82
12.4920,0.08,0.11,-0.99,2.62,2.50,4.82
12.5230,0.07,0.10,-0.99,3.11,2.93,4.39
12.5390,0.07,0.10,-0.99,2.81,3.05,3.23
12.5560,0.07,0.11,-0.99,3.11,3.11,2.20
12.5580,0.08,0.12,-0.99,3.05,3.54,2.50
12.5880,0.07,0.12,-0.98,3.05,2.93,3.91
12.6040,0.08,0.12,-0.99,2.81,1.95,5.74
12.6200,0.08,0.10,-0.99,2.81,3.11,6.23
12.6250,0.07,0.12,-0.99,2.62,2.93,3.23
12.6410,0.07,0.11,-0.99,3.30,3.11,2.69
12.6640,0.07,0.11,-0.99,3.36,2.93,2.75
12.6800,0.07,0.11,-0.99,3.05,1.95,3.30
12.6970,0.08,0.11,-0.99,3.11,2.44,3.48
12.7120,0.07,0.12,-0.99,2.99,2.62,3.48
12.7290,0.07,0.12,-0.99,2.99,2.99,4.76
12.7450,0.07,0.10,-0.99,2.99,2.32,4.33
12.7610,0.07,0.10,-0.99,3.05,2.26,1.71
12.7770,0.07,0.11,-0.99,3.11,2.38,1.59
12.7930,0.07,0.11,-0.99,3.23,3.05,1.89
12.7970,0.08,0.12,-0.99,2.62,3.36,2.44
12.8150,0.07,0.12,-0.99,3.11,3.91,3.78
12.8350,0.08,0.11,-0.99,2.69,2.14,4.64
12.8520,0.07,0.08,-0.99,2.93,2.01,2.62
12.8680,0.07,0.10,-0.99,3.54,2.08,0.12
12.8860,0.07,0.11,-0.99,3.78,1.40,-0.61
12.9010,0.08,0.12,-1.00,3.48,2.44,0.79
12.9170,0.07,0.11,-0.99,2.75,3.30,2.20
12.9330,0.08,0.11,-0.99,2.93,3.17,2.44
12.9480,0.07,0.12,-0.99,2.81,3.30,2.75
12.9640,0.08,0.11,-0.99,2.75,2.69,3.17
12.9800,0.06,0.10,-0.99,2.93,1.34,2.62
12.9960,0.08,0.10,-0.99,2.93,1.34,1.10
13.0130,0.08,0.12,-0.99,2.87,2.26,1.16
13.0280,0.09,0.15,-0.98,2.69,2.62,2.20
13.0440,0.07,0.14,-0.98,2.62,2.01,4.46
13.0600,0.07,0.11,-0.99,2.50,1.46,8.67
13.0740,0.08,0.06,-1.00,2.69,0.00,6.41
13.0850,0.08,0.09,-0.98,3.36,1.16,0.37
13.1010,0.08,0.10,-0.98,4.52,0.73,-1.10
13.1200,0.08,0.12,-0.99,3.66,2.38,-0.12
13.1240,0.08,0.11,-0.99,2.75,2.81,1.71
13.1400,0.08,0.11,-0.99,3.36,2.75,1.89
13.1580,0.08,0.11,-0.99,2.87,2.87,1.95
13.1740,0.08,0.11,-0.99,2.93,3.11,1.89
13.1900,0.08,0.11,-0.99,3.05,2.99,1.83
13.2120,0.08,0.11,-0.99,2.99,3.36,1.89
13.2280,0.08,0.11,-0.99,3.23,2.56,1.83
13.2440,0.08,0.11,-0.99,3.30,2.99,1.83
13.2610,0.08,0.11,-0.99,3.17,2.50,1.77
13.2760,0.08,0.11,-0.99,2.75,2.69,1.89
13.2920,0.08,0.11,-0.99,3.05,2.75,1.89
13.3080,0.08,0.11,-1.00,2.93,2.81,1.89
13.3230,0.08,0.10,-0.99,2.93,2.69,1.95
13.3390,0.08,0.11,-0.99,3.36,2.81,1.83
13.3540,0.08,0.11,-0.99,3.11,3.05,1.89
13.3700,0.08,0.11,-0.99,2.62,3.11,2.01
13.3790,0.08,0.11,-0.99,2.93,2.62,1.89
13.3940,0.08,0.11,-0.99,3.11,3.17,2.08
13.4150,0.08,0.11,-0.99,3.23,3.05,1.95
13.4310,0.08,0.11,-0.99,3.17,3.23,1.89
13.4460,0.08,0.11,-0.99,3.36,3.17,2.01
13.4620,0.08,0.11,-0.99,3.42,3.05,2.44
13.4780,0.08,0.11,-0.98,3.17,3.11,2.69
13.4850,0.08,0.11,-0.99,3.36,3.36,2.08
13.5080,0.08,0.11,-0.99,3.54,3.05,2.14
13.5180,0.08,0.11,-0.99,3.30,2.75,1.89
13.5340,0.08,0.11,-0.99,2.93,2.62,1.83
13.5520,0.08,0.11,-0.99,2.44,2.87,1.95
13.5680,0.08,0.11,-0.99,2.56,3.05,1.89
13.5840,0.08,0.11,-0.99,2.62,2.93,1.77
13.5980,0.08,0.11,-0.99,3.05,2.99,1.77
13.6130,0.08,0.11,-0.99,3.66,3.60,2.01
13.6240,0.08,0.10,-0.99,3.72,3.72,1.89
13.6410,0.08,0.12,-0.99,3.48,3.54,1.89
13.6580,0.08,0.11,-0.99,3.48,3.72,1.83
13.6730,0.08,0.11,-0.99,3.23,3.23,1.10
13.6900,0.08,0.11,-0.99,3.17,3.17,1.22
13.7070,0.08,0.11,-0.99,2.87,3.42,2.08
13.7230,0.08,0.11,-0.99,2.99,3.60,2.01
13.7390,0.08,0.11,-0.99,2.87,3.78,2.32
13.7550,0.07,0.11,-0.98,2.75,3.85,2.26
13.7710,0.08,0.11,-0.99,2.99,2.93,1.95
13.7730,0.08,0.11,-0.99,2.93,2.87,1.95
13.7890,0.08,0.11,-0.99,2.99,3.17,2.08
13.8160,0.08,0.11,-0.99,3.30,3.30,2.14
13.8300,0.08,0.11,-0.99,2.69,4.70,2.75
13.8460,0.07,0.11,-0.98,2.81,4.21,2.62
13.8630,0.07,0.11,-0.98,2.99,2.99,1.95
13.8790,0.08,0.11,-0.99,3.36,2.50,1.59
13.8950,0.08,0.11,-0.99,3.11,2.81,1.59
13.9110,0.08,0.11,-0.99,3.23,3.11,2.08
13.9160,0.08,0.11,-0.99,2.87,4.21,2.32
13.9430,0.08,0.11,-0.99,3.05,3.85,2.14
13.9470,0.08,0.11,-0.99,2.93,3.05,1.95
13.9620,0.08,0.11,-0.99,2.87,2.87,1.83
13.9780,0.08,0.11,-0.99,2.93,2.93,1.95
14.0010,0.08,0.11,-0.99,3.05,3.72,2.20
14.0180,0.08,0.11,-0.99,2.99,3.54,2.26
14.0340,0.08,0.11,-0.99,3.11,3.23,2.20
14.0510,0.08,0.11,-0.99,2.99,3.17,1.95
14.0670,0.08,0.11,-0.99,2.87,3.54,2.32
14.0830,0.08,0.11,-0.99,2.93,3.85,2.93
14.0980,0.08,0.11,-0.99,2.81,4.21,3.36
14.1140,0.08,0.10,-0.99,2.81,4.39,3.17
14.1280,0.07,0.10,-0.99,2.81,3.85,2.26
14.1440,0.08,0.12,-0.99,3.23,2.87,1.77
14.1580,0.07,0.12,-0.99,2.56,2.93,2.08
14.1670,0.05,0.13,-0.98,3.17,2.50,3.78
14.1830,0.08,0.11,-0.99,2.93,1.59,5.37
14.2050,0.09,0.09,-1.00,2.50,3.05,5.62
14.2170,0.07,0.08,-0.98,2.81,6.23,3.85
14.2240,0.07,0.11,-0.99,3.72,3.42,2.20
14.2410,0.08,0.11,-0.99,3.72,3.05,1.89
14.2640,0.07,0.12,-0.99,3.11,3.05,2.08
14.2740,0.08,0.12,-0.99,3.23,2.75,2.01
14.2910,0.08,0.11,-0.99,3.48,3.78,2.14
14.3070,0.08,0.10,-0.99,3.05,4.09,2.26
14.3240,0.08,0.10,-0.99,3.30,4.03,2.20
14.3420,0.07,0.10,-0.99,3.42,2.56,1.77
14.3580,0.07,0.11,-0.99,3.72,3.11,1.77
14.3750,0.07,0.11,-0.99,3.78,2.81,1.71
14.3920,0.07,0.11,-0.99,3.48,3.66,1.95
14.4070,0.07,0.11,-0.99,3.42,3.11,2.01
14.4230,0.08,0.11,-0.99,3.11,2.87,2.14
14.4400,0.07,0.11,-0.99,3.05,2.81,2.01
14.4410,0.07,0.11,-0.99,3.05,1.65,1.59
14.4710,0.08,0.11,-0.99,3.11,1.59,1.83
14.4880,0.08,0.11,-0.99,2.62,2.32,2.08
14.5050,0.08,0.11,-0.99,2.69,2.44,2.26
14.5200,0.08,0.11,-0.99,2.93,2.26,2.93
14.5350,0.08,0.11,-0.99,2.93,2.14,3.17
14.5410,0.08,0.10,-0.99,2.69,2.99,3.42
14.5570,0.08,0.11,-0.99,2.87,4.15,2.93
14.5790,0.08,0.12,-0.99,2.81,3.97,3.11
14.5950,0.07,0.12,-0.98,2.93,3.48,3.66
14.6120,0.07,0.11,-0.99,2.81,2.62,3.42
14.6280,0.07,0.10,-0.99,2.87,3.60,2.93
14.6450,0.07,0.11,-0.99,3.30,3.48,1.83
14.6610,0.09,0.11,-0.99,3.05,3.17,1.59
14.6630,0.06,0.11,-0.99,3.23,2.81,1.04
14.6780,0.07,0.10,-0.99,2.56,2.75,1.46
14.6950,0.06,0.11,-0.99,2.69,2.87,1.40
14.7260,0.07,0.11,-0.99,2.99,2.20,1.46
14.7410,0.08,0.11,-0.99,2.81,2.56,1.77
14.7450,0.08,0.11,-0.99,2.87,2.87,1.95
14.7610,0.08,0.11,-0.99,2.99,2.50,1.71
14.7830,0.08,0.11,-0.99,2.99,2.50,1.65
14.8000,0.08,0.11,-0.99,2.93,2.14,1.65
14.8160,0.08,0.11,-0.99,2.87,2.99,1.83
14.8310,0.08,0.11,-0.99,3.11,2.75,1.83
14.8470,0.08,0.11,-0.99,3.11,2.69,1.77
14.8630,0.08,0.11,-0.99,2.99,2.87,1.71
14.8800,0.08,0.10,-0.99,3.23,2.56,1.34
14.8960,0.07,0.11,-0.99,3.60,2.20,0.61
14.9010,0.07,0.11,-0.99,3.48,2.32,0.98
14.9280,0.07,0.11,-0.99,3.11,2.87,1.77
14.9450,0.08,0.11,-0.99,2.87,2.56,1.83
14.9600,0.08,0.11,-0.99,2.93,2.81,1.71
14.9760,0.08,0.11,-0.99,2.93,2.75,1.65
14.9840,0.08,0.11,-0.99,2.99,2.93,1.71
15.0000,0.08,0.11,-0.99,2.93,2.99,1.34
15.0220,0.08,0.11,-0.99,2.99,3.05,1.34
15.0370,0.08,0.11,-0.99,2.99,2.93,1.71
15.0540,0.08,0.11,-0.99,3.05,2.99,1.77
15.0700,0.08,0.11,-0.99,2.93,3.48,1.95
15.0870,0.08,0.11,-0.99,2.99,3.36,2.20
15.1020,0.08,0.11,-0.99,3.23,3.23,2.32
15.1180,0.08,0.11,-0.99,3.42,3.48,2.01
15.1330,0.08,0.11,-0.99,3.54,3.36,2.01
15.1480,0.08,0.11,-0.99,3.36,3.54,2.08
15.1650,0.08,0.11,-0.99,3.42,3.30,2.08
15.1800,0.08,0.11,-0.99,3.05,3.60,2.20
15.1950,0.08,0.11,-0.99,2.99,3.05,2.14
15.2040,0.08,0.11,-0.99,2.87,3.17,2.14
15.2210,0.08,0.11,-0.99,2.99,3.05,2.20
15.2370,0.08,0.11,-0.99,2.75,3.05,2.08
15.2550,0.08,0.11,-0.99,2.99,2.93,1.83
15.2710,0.08,0.11,-0.99,2.99,3.05,1.95
15.2870,0.08,0.11,-0.99,2.75,3.36,2.14
15.3040,0.08,0.11,-0.99,2.93,3.48,2.14
15.3210,0.08,0.11,-0.99,3.11,3.23,1.89
15.3360,0.08,0.11,-0.99,2.99,3.30,2.08
15.3520,0.08,0.11,-0.99,3.11,3.05,2.08
15.3680,0.08,0.11,-0.99,3.23,2.62,2.01
15.3840,0.08,0.11,-0.99,2.99,3.05,1.89
15.3990,0.08,0.11,-0.99,3.17,3.17,1.65
15.4140,0.08,0.11,-0.99,2.75,3.42,1.77
15.4300,0.07,0.12,-1.01,3.85,4.03,1.77
15.4450,0.08,0.11,-0.99,2.87,3.48,1.89
15.4600,0.08,0.11,-0.99,2.87,3.48,1.95
15.4710,0.08,0.11,-0.99,2.93,3.17,1.40
15.4870,0.08,0.11,-0.99,2.62,3.17,1.46
15.5050,0.08,0.11,-0.99,2.62,3.23,1.83
15.5210,0.08,0.11,-0.99,2.87,3.42,1.89
15.5370,0.08,0.11,-0.99,2.81,2.81,2.08
15.5540,0.08,0.11,-0.99,2.99,3.05,1.95
15.5700,0.08,0.11,-0.99,2.99,3.42,2.14
15.5860,0.08,0.11,-0.99,3.05,3.23,1.95
15.6020,0.08,0.11,-0.99,3.11,3.36,2.08
15.6170,0.08,0.11,-0.99,3.23,3.23,1.89
15.6320,0.08,0.11,-0.99,2.93,3.17,1.95
15.6370,0.08,0.11,-0.99,3.17,3.36,1.95
15.6540,0.08,0.11,-0.99,3.17,3.23,2.08
15.6760,0.08,0.11,-0.99,3.11,3.05,2.08
15.6930,0.08,0.11,-0.99,3.17,2.99,2.01
15.7090,0.07,0.11,-0.99,3.17,2.87,1.95
15.7230,0.08,0.11,-0.99,2.93,3.17,1.89
15.7390,0.08,0.11,-0.99,3.30,3.11,1.83
15.7440,0.08,0.11,-0.99,3.23,3.17,1.95
15.7600,0.08,0.11,-0.99,3.23,2.99,1.89
15.7800,0.08,0.11,-0.99,3.17,2.81,1.83
15.7970,0.10,0.09,-0.99,2.75,2.99,0.55
15.8120,0.08,0.09,-0.99,3.60,4.27,-4.58
15.8300,0.07,0.12,-0.99,3.85,4.46,-2.32
15.8460,0.07,0.12,-0.99,3.48,3.23,-0.67
15.8630,0.07,0.11,-0.99,3.17,3.42,0.49
15.8790,0.08,0.11,-0.99,3.30,2.99,1.16
15.8950,0.08,0.11,-0.99,3.23,2.75,1.89
15.8970,0.08,0.10,-0.99,2.93,3.42,1.28
15.9200,0.08,0.11,-0.99,3.30,3.66,-1.46
15.9300,0.07,0.12,-0.99,3.36,3.17,-0.43
15.9460,0.08,0.11,-0.99,3.23,3.11,0.92
15.9630,0.08,0.11,-0.99,2.87,3.17,1.95
15.9800,0.09,0.10,-0.99,2.99,3.42,1.65
16.0020,0.08,0.11,-0.99,3.48,3.60,-0.98
16.0130,0.07,0.12,-0.99,3.42,3.42,-0.06
16.0290,0.07,0.11,-0.99,3.23,3.36,0.79
16.0460,0.08,0.11,-0.99,3.05,3.23,0.98
16.0620,0.08,0.11,-0.99,3.05,3.17,1.16
16.0790,0.08,0.11,-0.99,3.11,2.87,1.16
16.0800,0.08,0.11,-0.99,3.11,3.11,1.83
16.1100,0.08,0.11,-0.99,3.23,3.17,1.95
16.1270,0.08,0.11,-0.99,3.17,3.17,2.08
16.1300,0.08,0.11,-0.99,3.11,2.99,2.08
16.1590,0.08,0.11,-0.99,3.23,3.48,2.20
16.1620,0.08,0.11,-0.99,2.81,3.36,2.32
16.1780,0.08,0.11,-0.99,3.17,3.23,2.01
16.2000,0.08,0.11,-0.99,2.99,3.42,2.08
16.2200,0.08,0.11,-0.99,3.11,3.05,1.95
16.2340,0.07,0.11,-0.99,3.17,3.11,2.08
16.2510,0.07,0.11,-0.99,2.99,3.36,2.08
16.2660,0.08,0.11,-0.99,2.75,3.36,2.01
16.2820,0.08,0.11,-0.99,2.75,2.99,1.89
16.2970,0.08,0.11,-0.99,2.87,2.81,1.89
16.3140,0.08,0.11,-0.99,2.69,3.42,1.89
16.3310,0.08,0.11,-0.99,2.93,3.36,2.01
16.3470,0.08,0.11,-0.99,2.50,3.48,2.08
16.3510,0.07,0.11,-0.99,2.75,3.42,1.95
16.3660,0.08,0.11,-0.99,2.56,3.54,1.95
16.3940,0.08,0.11,-0.99,2.81,3.05,1.89
16.4060,0.07,0.11,-0.99,2.93,3.36,2.14
16.4230,0.08,0.11,-0.99,2.93,3.11,2.38
16.4390,0.08,0.11,-0.99,3.05,3.17,3.05
16.4560,0.08,0.11,-0.99,3.11,3.36,3.78
16.4720,0.08,0.11,-0.99,3.91,3.78,3.54
16.4880,0.08,0.11,-0.99,3.17,3.78,3.11
16.4900,0.08,0.11,-0.99,3.23,3.66,3.11
16.5200,0.07,0.11,-0.99,3.11,3.48,3.17
16.5220,0.07,0.11,-0.99,3.54,3.42,3.23
16.5390,0.07,0.11,-0.99,3.60,3.42,2.75
16.5610,0.07,0.11,-0.99,3.48,2.99,2.20
16.5780,0.07,0.11,-0.99,3.23,3.05,2.14
16.5950,0.08,0.11,-0.99,3.30,2.99,2.08
16.6120,0.08,0.11,-0.99,3.17,2.81,2.14
16.6280,0.08,0.11,-0.99,3.36,3.42,2.26
16.6450,0.08,0.11,-0.99,3.66,3.42,2.38
16.6610,0.07,0.12,-0.99,3.66,3.42,2.20
16.6760,0.08,0.12,-0.99,3.36,3.36,2.14
16.6930,0.07,0.11,-0.99,3.05,3.30,2.20
16.7100,0.08,0.11,-0.99,2.50,3.23,2.20
16.7250,0.07,0.11,-0.99,2.50,3.11,2.50
16.7410,0.07,0.11,-0.99,2.93,3.17,2.62
16.7450,0.07,0.11,-0.99,3.05,2.93,2.20
16.7720,0.07,0.11,-0.99,2.87,3.11,2.08
16.7780,0.07,0.11,-0.99,2.69,3.11,2.14
16.7940,0.08,0.11,-0.99,2.93,3.11,2.14
16.8170,0.08,0.11,-0.99,3.17,3.05,2.08
16.8210,0.08,0.11,-0.99,3.17,2.99,2.01
16.8460,0.08,0.11,-0.99,2.87,3.11,2.20
16.8620,0.08,0.11,-0.99,3.05,2.75,2.14
16.8790,0.07,0.11,-0.99,3.05,3.48,2.20
16.8950,0.07,0.11,-0.99,2.87,3.30,2.14
16.9000,0.07,0.11,-0.99,3.11,3.23,2.08
16.9210,0.07,0.11,-0.99,3.17,2.87,1.95
16.9410,0.08,0.11,-0.99,2.99,3.23,2.26
16.9570,0.08,0.11,-0.99,2.99,2.93,2.20
16.9740,0.07,0.11,-0.99,2.87,3.11,2.01
16.9900,0.07,0.11,-0.99,2.87,3.05,2.01
17.0070,0.07,0.11,-0.99,3.11,3.05,1.89
17.0220,0.08,0.11,-0.99,2.93,3.36,2.14
17.0380,0.08,0.11,-0.99,3.30,3.05,2.20
17.0550,0.08,0.11,-0.99,3.54,2.99,2.08
17.0700,0.08,0.11,-0.99,3.17,3.23,2.08
17.0860,0.08,0.11,-0.99,3.11,3.17,2.08
17.1010,0.07,0.11,-0.99,3.11,3.23,2.01
17.1150,0.07,0.11,-0.99,2.99,2.87,2.14
17.1240,0.08,0.11,-0.99,2.99,2.75,1.83
17.1400,0.09,0.10,-0.99,2.87,2.81,2.14
17.1620,0.07,0.12,-0.99,2.93,2.75,2.01
17.1630,0.07,0.12,-0.99,3.05,3.17,2.14
17.1940,0.07,0.11,-0.99,3.11,3.11,2.26
17.2100,0.07,0.11,-0.99,3.11,2.87,2.14
17.2260,0.07,0.11,-0.99,3.17,2.99,2.14
17.2420,0.08,0.11,-0.99,3.23,2.93,2.14
17.2580,0.08,0.11,-0.99,3.05,2.99,2.20
17.2730,0.07,0.11,-0.99,3.11,2.99,2.75
17.2790,0.07,0.11,-0.99,3.11,3.36,2.26
17.2950,0.07,0.11,-0.99,3.05,3.17,1.89
17.3170,0.08,0.11,-0.99,2.93,2.75,2.01
17.3350,0.08,0.11,-0.99,2.81,3.48,2.20
17.3500,0.08,0.11,-0.99,2.75,3.36,2.14
17.3650,0.08,0.11,-0.99,2.87,3.23,2.14
17.3800,0.08,0.11,-0.99,3.05,2.93,2.08
17.3850,0.07,0.11,-0.99,2.87,3.42,2.26
17.4120,0.07,0.11,-0.99,2.99,3.42,2.26
17.4220,0.07,0.11,-0.99,3.05,3.42,2.08
17.4330,0.07,0.11,-0.99,3.05,3.05,2.14
17.4550,0.08,0.11,-0.99,3.17,3.36,2.38
17.4730,0.08,0.11,-0.99,3.30,3.36,2.69
17.4890,0.07,0.11,-0.99,3.05,3.05,2.81
17.5050,0.08,0.11,-0.99,3.23,2.75,2.26
17.5200,0.08,0.11,-0.99,3.36,3.05,2.38
17.5230,0.08,0.11,-0.99,2.75,3.05,3.17
17.5380,0.08,0.11,-0.99,2.93,2.75,3.23
17.5680,0.08,0.11,-0.99,3.05,3.05,2.62
17.5830,0.07,0.11,-0.99,2.87,3.36,2.44
17.5980,0.07,0.11,-0.99,2.81,3.42,2.14
17.6120,0.07,0.11,-0.99,2.69,3.54,2.26
17.6270,0.06,0.11,-0.99,2.93,3.42,2.20
17.6390,0.07,0.11,-0.99,2.81,2.87,2.32
17.6550,0.07,0.11,-0.99,3.05,3.17,2.38
17.6710,0.08,0.11,-0.99,2.93,3.30,2.26
17.6890,0.09,0.11,-0.99,3.05,3.54,2.38
17.7060,0.09,0.11,-0.99,3.30,3.11,2.50
17.7220,0.07,0.11,-0.99,2.99,3.42,2.69
17.7380,0.07,0.11,-0.99,3.05,3.36,2.50
17.7530,0.07,0.11,-0.99,3.05,2.99,2.14
17.7690,0.07,0.11,-0.99,2.87,3.17,1.65
17.7720,0.07,0.11,-0.99,2.81,3.60,1.04
17.7900,0.07,0.11,-0.99,3.30,3.05,1.28
17.8150,0.07,0.11,-0.99,3.17,3.11,1.53
17.8300,0.07,0.11,-0.99,3.05,3.23,1.71
17.8450,0.07,0.11,-0.99,3.05,3.11,1.95
17.8600,0.08,0.11,-0.99,3.17,3.05,1.95
17.8730,0.08,0.11,-0.99,2.81,2.99,1.53
17.8890,0.09,0.11,-0.99,2.93,2.87,1.65
17.9050,0.08,0.11,-0.99,2.81,2.93,1.65
17.9220,0.07,0.11,-0.99,2.93,2.93,1.77
17.9380,0.07,0.11,-0.99,2.87,3.36,1.89
17.9550,0.08,0.11,-0.99,2.93,3.11,1.83
17.9710,0.07,0.11,-0.99,2.99,2.99,2.01
17.9870,0.07,0.11,-0.99,2.99,2.87,1.89
18.0030,0.08,0.11,-0.99,2.75,2.81,1.53
18.0060,0.08,0.11,-0.99,2.93,2.69,1.46
18.0230,0.07,0.11,-0.99,3.05,3.05,1.46
18.0460,0.08,0.11,-0.99,2.93,3.54,1.22
18.0620,0.08,0.11,-0.99,3.05,3.23,1.53
18.0780,0.08,0.11,-0.99,3.36,3.42,1.89
18.0950,0.08,0.11,-0.99,3.05,3.36,1.46
18.0960,0.08,0.11,-0.99,2.81,3.60,1.22
18.1250,0.07,0.11,-0.99,2.99,3.05,0.79
18.1290,0.07,0.11,-0.99,2.87,3.36,1.04
18.1450,0.07,0.11,-0.99,3.05,3.30,1.65
18.1680,0.07,0.11,-0.99,2.81,3.11,1.95
18.1850,0.07,0.10,-0.99,2.75,2.87,2.14
18.2010,0.07,0.11,-0.99,2.81,3.17,2.08
18.2180,0.07,0.11,-0.99,3.05,2.99,2.20
18.2330,0.08,0.11,-0.99,2.99,3.30,2.08
18.2480,0.08,0.11,-0.99,3.11,3.36,2.14
18.2520,0.08,0.11,-0.99,3.05,2.99,2.14
18.2680,0.08,0.11,-0.99,3.11,3.36,2.01
18.2940,0.08,0.11,-0.99,3.05,3.36,2.32
18.3090,0.09,0.11,-0.99,2.87,3.30,2.20
18.3250,0.07,0.11,-0.99,3.05,3.17,2.56
18.3410,0.07,0.11,-0.99,3.23,3.42,2.26
18.3580,0.07,0.11,-0.99,3.42,3.17,2.01
18.3730,0.08,0.11,-0.99,2.87,3.11,1.89
18.3760,0.08,0.11,-0.99,2.93,3.42,1.77
18.3910,0.07,0.11,-0.99,2.99,3.54,1.71
18.4140,0.08,0.11,-0.99,3.05,3.36,1.59
18.4310,0.08,0.11,-0.99,2.99,3.30,1.77
18.4470,0.07,0.11,-0.99,2.93,3.11,1.83
18.4650,0.08,0.11,-0.99,2.93,3.17,1.83
18.4810,0.08,0.11,-0.99,2.75,2.99,2.01
18.4970,0.08,0.11,-0.99,2.87,3.05,1.89
18.5120,0.08,0.11,-0.99,3.05,3.17,2.08
18.5230,0.08,0.11,-0.99,3.05,3.42,1.95
18.5440,0.08,0.11,-0.99,3.05,3.36,1.77
18.5600,0.07,0.11,-0.99,2.87,3.23,1.77
18.5760,0.07,0.11,-0.99,3.11,3.30,1.83
18.5920,0.07,0.10,-0.99,3.17,3.36,1.77
18.6090,0.07,0.11,-0.99,3.23,3.48,1.89
18.6240,0.07,0.11,-0.99,3.60,3.30,2.01
18.6390,0.08,0.11,-0.99,3.23,3.36,1.95
18.6550,0.08,0.11,-0.99,2.99,3.05,1.83
18.6640,0.08,0.11,-0.99,2.93,3.23,1.89
18.6810,0.08,0.11,-0.99,3.17,3.05,2.01
18.6970,0.08,0.10,-0.99,3.11,3.23,2.08
18.7140,0.08,0.10,-0.99,3.11,3.54,2.08
18.7300,0.08,0.11,-0.99,3.17,3.11,2.08
18.7460,0.07,0.11,-0.99,3.11,3.54,1.71
18.7490,0.08,0.11,-0.99,3.11,3.30,2.01
18.7780,0.08,0.11,-0.99,3.11,3.05,1.95
18.7950,0.08,0.11,-0.99,3.23,3.11,1.89
18.7980,0.08,0.10,-0.99,3.17,3.30,1.77
18.8250,0.08,0.10,-0.99,3.36,3.05,1.77
18.8310,0.08,0.11,-0.99,3.23,3.17,1.71
18.8550,0.08,0.11,-0.99,3.17,3.30,1.59
18.8650,0.08,0.11,-0.99,3.23,3.42,1.89
18.8810,0.07,0.11,-0.99,3.05,3.42,1.59
18.8980,0.07,0.11,-0.99,2.99,3.54,1.40
18.9150,0.07,0.11,-0.99,3.05,2.93,1.65
18.9300,0.06,0.11,-0.99,3.17,3.05,1.83
18.9450,0.06,0.11,-0.99,3.11,3.42,2.14
18.9600,0.07,0.11,-0.99,3.23,3.36,1.89
18.9750,0.07,0.11,-0.99,3.11,3.30,1.77
18.9820,0.08,0.10,-0.99,2.93,3.30,1.83
18.9980,0.08,0.11,-0.99,3.17,3.23,1.77
19.0150,0.08,0.11,-0.99,3.23,3.36,2.08
19.0310,0.08,0.11,-0.99,3.48,3.30,2.08
19.0480,0.07,0.11,-0.99,3.11,3.60,2.01
19.0650,0.07,0.11,-0.99,3.11,3.48,2.14
19.0800,0.08,0.10,-0.99,3.36,3.48,2.08
19.0950,0.08,0.10,-0.99,2.93,3.54,1.77
19.1100,0.08,0.11,-0.99,2.93,3.42,1.95
19.1250,0.07,0.11,-0.99,3.17,3.60,1.89
19.1400,0.07,0.11,-0.99,3.17,3.66,1.83
19.1480,0.07,0.11,-0.99,2.99,3.48,1.95
19.1640,0.07,0.11,-0.99,2.93,3.23,1.89
19.1810,0.07,0.11,-0.99,3.05,3.42,1.95
19.1980,0.07,0.11,-0.99,3.05,3.36,1.89
19.2140,0.08,0.11,-0.99,3.05,3.30,1.95
19.2320,0.08,0.11,-0.99,3.23,3.17,1.95
19.2480,0.07,0.11,-0.99,2.75,3.30,2.01
19.2640,0.07,0.11,-0.99,2.87,3.36,2.08
19.2790,0.08,0.11,-0.99,2.81,3.23,2.14
19.2950,0.08,0.10,-0.99,2.75,2.99,2.01
19.3110,0.08,0.10,-0.99,2.56,3.60,2.01
19.3270,0.08,0.11,-0.99,2.93,2.93,2.08
19.3420,0.07,0.12,-0.99,3.30,3.48,2.20
19.3570,0.07,0.11,-0.99,3.17,3.42,2.08
19.3680,0.08,0.11,-0.99,3.11,3.17,1.95
19.3850,0.08,0.10,-0.99,2.93,3.23,2.01
19.4010,0.08,0.10,-0.99,3.11,3.36,2.26
19.4180,0.07,0.10,-0.99,2.81,3.05,1.95
19.4250,0.07,0.11,-0.99,3.36,3.48,2.08
19.4490,0.07,0.11,-0.99,3.42,3.23,1.89
19.4650,0.07,0.11,-0.99,3.17,2.99,1.71
19.4800,0.08,0.11,-0.99,2.81,3.30,1.83
19.4850,0.08,0.11,-0.99,2.99,3.42,2.08
19.5010,0.08,0.10,-0.99,3.05,3.42,1.95
19.5250,0.07,0.11,-0.99,2.99,3.42,2.26
19.5380,0.07,0.11,-0.99,3.05,3.17,2.08
19.5540,0.07,0.11,-0.99,2.99,3.23,2.08
19.5710,0.08,0.11,-0.99,3.11,3.17,2.20
19.5880,0.08,0.11,-0.99,3.05,2.75,2.14
19.6040,0.08,0.11,-0.99,3.05,3.05,2.32
19.6200,0.08,0.10,-0.99,2.99,2.75,2.26
19.6360,0.08,0.11,-0.99,2.81,3.42,2.44
19.6380,0.08,0.11,-0.99,2.81,3.30,2.01
19.6540,0.08,0.11,-0.99,3.05,2.81,2.14
19.6830,0.08,0.11,-0.99,3.11,3.23,2.26
19.6930,0.08,0.11,-0.99,2.87,3.36,1.89
19.7090,0.08,0.10,-0.99,3.05,3.17,1.89
19.7290,0.08,0.11,-0.99,3.36,3.17,1.71
19.7450,0.08,0.11,-0.99,3.05,3.54,1.40
19.7610,0.07,0.11,-0.99,3.23,3.17,1.40
19.7780,0.08,0.11,-0.99,3.11,3.11,1.53
19.7940,0.08,0.11,-0.99,3.36,3.05,1.77
19.8100,0.07,0.11,-0.99,3.36,2.99,1.95
19.8250,0.07,0.11,-0.99,3.17,3.05,2.14
19.8410,0.07,0.11,-0.99,2.99,3.23,2.08
19.8570,0.07,0.11,-0.99,3.17,3.05,2.14
19.8730,0.07,0.11,-0.99,2.93,3.23,2.20
19.8780,0.08,0.11,-0.99,3.11,3.17,2.26
19.8940,0.07,0.11,-0.99,3.17,3.17,1.95
19.9160,0.07,0.11,-0.99,2.81,3.23,2.08
19.9320,0.07,0.11,-0.99,2.93,3.42,2.08
19.9480,0.08,0.11,-0.99,2.99,3.30,2.08
19.9630,0.08,0.11,-0.99,3.17,2.93,2.14
19.9660,0.08,0.11,-0.99,3.11,3.05,2.26
19.9820,0.08,0.11,-0.99,3.05,3.23,2.20
20.0050,0.07,0.11,-0.99,3.05,2.99,2.20
20.0220,0.07,0.11,-0.99,2.93,2.81,2.08
20.0380,0.09,0.10,-0.99,3.23,2.93,2.20
20.0540,0.08,0.11,-0.99,3.30,2.99,2.38
20.0710,0.08,0.11,-0.99,3.17,3.05,2.20
20.0880,0.08,0.11,-0.99,3.05,3.11,1.89
20.1040,0.08,0.11,-0.99,2.87,3.05,2.01
20.1190,0.07,0.11,-0.99,2.99,3.36,2.14
20.1260,0.08,0.11,-0.99,2.93,3.05,2.20
20.1370,0.07,0.11,-0.99,2.93,2.99,2.14
20.1620,0.08,0.11,-0.99,3.05,3.11,1.89
20.1780,0.08,0.10,-0.99,3.11,3.05,1.89
20.1940,0.08,0.10,-0.99,3.11,2.81,2.14
20.2120,0.08,0.11,-0.99,3.30,3.17,2.01
20.2280,0.08,0.11,-0.99,3.17,3.05,2.14
20.2440,0.08,0.11,-0.99,3.23,2.99,2.01
20.2600,0.08,0.11,-0.99,2.93,3.30,1.83
20.2620,0.08,0.11,-0.99,2.93,3.17,1.89
20.2930,0.08,0.10,-0.99,3.05,2.99,1.77
20.3090,0.09,0.11,-0.99,3.17,3.30,1.34
20.3250,0.08,0.11,-0.99,2.93,3.42,1.10
20.3400,0.08,0.11,-0.99,2.99,3.30,1.28
20.3550,0.08,0.11,-0.99,3.05,2.87,1.04
20.3610,0.07,0.11,-0.99,2.99,3.48,0.85
20.3850,0.08,0.11,-0.99,3.05,3.48,0.67
20.3950,0.07,0.11,-0.99,3.05,3.48,0.49
20.4100,0.07,0.11,-0.99,3.30,3.23,0.61
20.4330,0.07,0.11,-0.99,3.17,3.54,0.67
20.4490,0.07,0.11,-0.99,3.30,3.30,0.92
20.4630,0.06,0.11,-0.99,2.93,3.42,1.22
20.4660,0.07,0.11,-0.99,2.87,3.05,1.65
20.4820,0.07,0.11,-0.99,3.11,3.11,1.71
20.5040,0.06,0.11,-0.99,3.17,2.87,1.89
20.5210,0.07,0.11,-0.99,3.17,2.62,1.71
20.5380,0.07,0.11,-0.99,3.30,2.69,1.71
20.5540,0.07,0.11,-0.99,3.11,2.62,1.89
20.5720,0.07,0.11,-0.99,3.11,3.17,1.95
20.5880,0.08,0.11,-0.99,3.30,3.11,2.14
20.6040,0.08,0.11,-0.99,3.11,2.99,1.95
20.6200,0.07,0.11,-0.99,3.30,3.11,2.20
20.6360,0.08,0.11,-0.99,3.11,3.17,2.14
20.6530,0.08,0.11,-0.99,3.23,2.62,2.08
20.6670,0.07,0.11,-0.99,3.05,2.69,2.08
20.6830,0.07,0.11,-0.99,3.11,2.99,2.14
20.6980,0.07,0.11,-0.99,3.05,3.23,2.26
20.7140,0.08,0.11,-0.99,3.17,2.81,2.14
20.7300,0.08,0.11,-0.99,3.42,2.62,2.26
20.7460,0.08,0.11,-0.99,3.23,2.93,2.32
20.7600,0.08,0.11,-0.99,3.11,2.81,2.38
20.7710,0.08,0.11,-0.99,3.05,3.23,2.32
20.7880,0.08,0.11,-0.99,2.99,3.30,2.38
20.8040,0.08,0.11,-0.99,3.05,2.87,2.26
20.8220,0.08,0.11,-0.99,2.93,2.93,2.38
20.8380,0.08,0.11,-0.99,3.05,3.11,2.38
20.8550,0.08,0.11,-0.99,2.87,3.05,2.26
20.8700,0.08,0.11,-0.99,2.93,2.99,2.26
20.8860,0.08,0.11,-0.99,2.93,3.17,2.44
20.9030,0.08,0.11,-0.99,3.17,2.99,2.38
20.9190,0.08,0.11,-0.99,2.99,3.36,2.14
20.9350,0.08,0.11,-0.99,2.99,3.17,2.14
20.9500,0.08,0.11,-0.99,3.17,2.81,2.14
20.9650,0.07,0.11,-0.99,3.23,2.81,2.20
20.9810,0.07,0.11,-0.99,2.99,3.42,2.08
20.9970,0.07,0.11,-0.99,3.17,3.05,1.95
21.0040,0.07,0.11,-0.99,2.99,3.05,1.95
21.0270,0.08,0.11,-0.99,3.17,3.05,2.38
21.0370,0.07,0.11,-0.99,2.93,3.42,2.20
21.0590,0.08,0.11,-0.99,3.05,3.23,1.89
21.0610,0.07,0.11,-0.99,3.11,3.11,1.89
21.0900,0.08,0.11,-0.99,3.48,3.23,1.89
21.0930,0.08,0.11,-0.99,3.36,3.23,1.65
21.1090,0.08,0.11,-0.99,3.11,2.93,1.59
21.1320,0.08,0.11,-0.99,3.11,2.69,1.77
21.1500,0.08,0.10,-0.99,2.87,3.30,1.71
21.1650,0.07,0.11,-0.99,2.93,3.17,1.53
21.1810,0.08,0.11,-0.99,3.11,3.42,1.65
21.1970,0.07,0.11,-0.99,3.42,3.17,1.59
21.2110,0.07,0.11,-0.99,3.17,3.11,1.40
21.2270,0.07,0.11,-0.99,2.99,3.54,1.22
21.2340,0.08,0.11,-0.99,2.99,3.42,1.46
21.2570,0.07,0.11,-0.99,3.30,3.11,1.71
21.2670,0.06,0.11,-0.99,3.30,3.11,1.77
21.2830,0.07,0.11,-0.99,3.11,3.05,1.71
21.2990,0.08,0.11,-0.99,3.23,3.48,1.71
21.3170,0.07,0.11,-0.99,3.05,3.42,1.77
21.3320,0.08,0.11,-0.99,2.99,3.17,1.83
21.3430,0.07,0.10,-0.99,3.17,3.05,1.83
21.3590,0.08,0.11,-0.99,3.11,3.17,2.01
21.3760,0.08,0.11,-0.99,3.17,2.87,2.01
21.3920,0.07,0.11,-0.99,3.30,2.93,2.20
21.4090,0.07,0.11,-0.99,3.30,3.11,2.38
21.4250,0.07,0.11,-0.99,3.17,3.05,2.62
21.4280,0.07,0.11,-0.99,2.87,3.23,2.50
21.4570,0.07,0.11,-0.99,3.23,2.99,2.32
21.4730,0.09,0.11,-0.99,3.11,3.42,2.50
21.4880,0.08,0.11,-0.99,3.42,2.99,2.50
21.4920,0.09,0.11,-0.99,3.30,2.93,2.69
21.5080,0.09,0.11,-0.99,3.23,2.81,2.69
21.5320,0.07,0.11,-0.99,3.05,2.75,2.32
21.5340,0.08,0.11,-0.99,2.75,2.99,1.89
21.5630,0.08,0.11,-0.99,3.05,3.36,2.01
21.5790,0.07,0.11,-0.99,3.11,3.11,2.08
21.5830,0.08,0.11,-0.99,3.23,2.69,1.89
21.5990,0.07,0.11,-0.99,3.30,2.62,1.59
21.6230,0.08,0.11,-0.99,3.30,3.05,1.59
21.6400,0.08,0.11,-0.99,3.23,2.99,1.59
21.6560,0.08,0.11,-0.99,3.05,2.69,1.95
21.6720,0.08,0.11,-0.99,2.93,3.30,2.20
21.6740,0.07,0.11,-0.99,3.11,3.11,2.14
21.7030,0.07,0.11,-0.99,3.17,2.87,2.08
21.7070,0.08,0.11,-0.99,3.17,3.23,1.77
21.7290,0.08,0.11,-0.99,3.11,2.93,1.34
21.7450,0.08,0.11,-0.99,3.23,3.23,1.53
21.7620,0.08,0.11,-0.99,3.17,3.30,1.77
21.7780,0.08,0.11,-0.99,3.11,3.30,2.01
21.7950,0.07,0.11,-0.99,3.17,2.81,2.26
21.8110,0.07,0.11,-0.99,2.93,2.93,2.20
21.8270,0.07,0.11,-0.99,3.23,3.11,2.08
21.8430,0.08,0.11,-0.99,3.05,3.23,1.65
21.8460,0.08,0.11,-0.99,3.05,3.17,1.59
21.8740,0.09,0.11,-0.99,3.11,3.17,1.53
21.8890,0.07,0.11,-0.99,3.05,3.17,1.46
21.8950,0.08,0.11,-0.99,3.11,3.17,1.83
21.9120,0.08,0.11,-0.99,3.11,2.93,1.77
21.9290,0.08,0.10,-0.99,3.05,3.54,1.83
21.9500,0.08,0.11,-0.99,2.99,3.30,1.28
21.9660,0.08,0.11,-0.99,3.23,3.11,1.34
21.9810,0.08,0.11,-0.99,3.17,3.36,1.53
21.9970,0.07,0.11,-0.99,3.11,3.05,1.40
22.0120,0.07,0.11,-0.99,3.17,3.23,1.28
22.0270,0.08,0.11,-0.99,3.23,2.87,0.79
22.0420,0.08,0.11,-0.99,3.11,3.30,0.85
22.0570,0.07,0.11,-0.99,3.05,3.54,1.16
22.0680,0.07,0.10,-0.99,3.17,3.60,1.04
22.0840,0.08,0.11,-0.99,3.17,3.60,1.10
22.1020,0.07,0.11,-0.99,3.36,3.17,1.46
22.1070,0.07,0.11,-0.99,2.99,3.17,1.95
22.1290,0.07,0.11,-0.99,2.93,3.11,2.56
22.1410,0.06,0.11,-0.99,3.05,3.30,2.56
22.1580,0.07,0.11,-0.99,3.17,3.11,2.26
22.1740,0.06,0.11,-0.99,3.05,3.11,1.95
22.1920,0.07,0.11,-0.99,2.93,3.36,1.89
22.2070,0.08,0.11,-0.99,2.99,3.36,1.77
22.2240,0.07,0.11,-0.99,3.23,3.17,1.95
22.2290,0.07,0.11,-0.99,3.05,3.42,2.26
22.2410,0.07,0.11,-0.99,3.05,3.11,2.20
22.2580,0.07,0.11,-0.99,2.93,3.42,2.44
22.2740,0.07,0.11,-0.99,2.93,3.36,2.44
22.2940,0.07,0.11,-0.99,3.17,3.17,2.50
22.3110,0.07,0.11,-0.99,3.17,3.30,2.38
22.3300,0.08,0.11,-0.99,3.11,2.99,2.44
22.3440,0.07,0.11,-0.99,2.99,2.99,2.44
22.3610,0.07,0.11,-0.99,2.81,3.05,2.44
22.3780,0.08,0.11,-0.99,3.17,2.99,2.44
22.3940,0.08,0.11,-0.99,3.23,2.69,2.56
22.4100,0.07,0.11,-0.99,3.05,2.87,2.32
22.4270,0.08,0.11,-0.99,2.87,2.87,2.20
22.4430,0.08,0.11,-0.99,2.93,3.17,2.44
22.4600,0.08,0.11,-0.99,2.75,3.11,2.38
22.4750,0.07,0.11,-0.99,3.11,3.05,2.56
22.4910,0.07,0.11,-0.99,2.93,3.60,2.38
22.5070,0.07,0.11,-0.99,2.81,3.66,2.26
22.5120,0.08,0.11,-0.99,2.99,3.42,2.14
22.5390,0.08,0.11,-0.99,3.05,3.11,2.56
22.5530,0.07,0.11,-0.99,2.93,2.87,2.50
22.5680,0.07,0.11,-0.99,3.17,2.87,2.50
22.5790,0.08,0.11,-0.99,3.11,3.05,2.32
22.5940,0.07,0.11,-0.99,2.99,3.11,2.38
22.6120,0.08,0.11,-0.99,3.17,3.11,2.20
22.6280,0.08,0.11,-0.99,3.23,3.30,2.26
22.6450,0.08,0.11,-0.99,3.23,2.87,2.32
22.6610,0.08,0.11,-0.99,2.99,2.81,2.56
22.6770,0.07,0.11,-0.99,3.05,2.56,2.69
22.6930,0.07,0.11,-0.99,2.99,2.81,2.44
22.7090,0.07,0.10,-0.99,3.11,3.05,2.38
22.7250,0.08,0.11,-0.99,2.81,3.30,2.26
22.7300,0.08,0.11,-0.99,2.99,3.17,2.26
22.7440,0.08,0.11,-0.99,3.48,2.93,2.93
22.7670,0.09,0.11,-0.99,3.05,2.75,3.36
22.7830,0.09,0.11,-0.99,3.11,3.05,3.54
22.8000,0.07,0.11,-0.99,2.87,3.05,2.75
22.8160,0.07,0.11,-0.99,2.81,3.36,2.32
22.8310,0.07,0.11,-0.99,3.17,3.66,2.08
22.8470,0.08,0.11,-0.99,3.05,3.11,1.95
22.8500,0.08,0.11,-0.99,3.11,3.42,2.20
22.8650,0.07,0.11,-0.99,2.93,3.30,1.95
22.8880,0.08,0.11,-0.99,2.93,3.17,2.20
22.9050,0.08,0.10,-0.99,3.11,2.93,2.26
22.9220,0.08,0.10,-0.99,3.11,2.75,2.26
22.9380,0.08,0.11,-0.99,2.93,3.17,2.26
22.9390,0.08,0.11,-0.99,3.23,3.11,2.14
22.9700,0.08,0.11,-0.99,2.99,3.36,2.01
22.9850,0.08,0.11,-0.99,3.17,3.11,1.89
23.0000,0.07,0.11,-0.99,3.42,2.44,1.83
23.0160,0.08,0.10,-0.99,3.17,3.17,1.59
23.0310,0.08,0.11,-0.99,2.81,3.36,1.34
23.0450,0.08,0.11,-0.99,3.11,3.54,1.71
23.0550,0.07,0.11,-0.99,3.17,3.36,1.65
23.0710,0.07,0.11,-0.99,3.11,3.36,1.83
23.0920,0.07,0.11,-0.99,3.17,3.17,1.71
23.1060,0.07,0.11,-0.99,3.11,3.05,1.53
23.1100,0.07,0.10,-0.99,2.99,3.11,1.28
23.1310,0.08,0.10,-0.99,3.05,3.23,1.34
23.1480,0.08,0.11,-0.99,3.30,3.23,1.34
23.1660,0.08,0.11,-0.99,3.17,2.81,1.46
23.1820,0.08,0.11,-0.99,3.05,3.42,1.77
23.1970,0.07,0.11,-0.99,3.05,3.17,2.01
23.2130,0.07,0.11,-0.99,2.81,3.17,2.20
23.2290,0.06,0.10,-0.99,2.93,3.05,2.14
23.2440,0.08,0.10,-0.99,2.99,3.05,1.95
23.2590,0.08,0.10,-0.99,3.05,3.23,1.95
23.2750,0.07,0.11,-0.99,3.30,3.23,1.95
23.2820,0.07,0.11,-0.99,3.11,3.11,2.01
23.2980,0.08,0.11,-0.99,3.11,3.17,2.08
23.3200,0.07,0.11,-0.99,3.05,3.54,2.26
23.3370,0.08,0.10,-0.99,3.11,3.05,2.38
23.3530,0.08,0.10,-0.99,2.93,3.17,2.14
23.3690,0.08,0.11,-0.99,3.05,3.05,2.14
23.3830,0.08,0.11,-0.99,2.99,3.36,2.20
23.3990,0.09,0.11,-0.99,3.05,3.48,1.95
23.4140,0.08,0.11,-0.99,2.93,3.17,1.89
23.4200,0.08,0.11,-0.99,3.23,2.87,1.95
23.4360,0.08,0.10,-0.99,2.93,2.69,2.08
23.4590,0.08,0.10,-0.99,2.99,2.99,2.08
23.4740,0.07,0.10,-0.99,3.11,2.99,1.95
23.4900,0.08,0.11,-0.99,3.23,2.81,1.71
23.5060,0.08,0.11,-0.99,2.99,3.11,1.53
23.5220,0.08,0.11,-0.99,3.30,3.17,1.28
23.5310,0.07,0.11,-0.99,3.11,3.17,1.34
23.5410,0.08,0.11,-0.99,3.11,3.36,1.04
23.5570,0.07,0.11,-0.99,3.05,3.23,1.40
23.5740,0.08,0.10,-0.99,3.11,3.23,1.83
23.5900,0.07,0.11,-0.99,2.99,3.05,1.77
23.6070,0.08,0.11,-0.99,3.11,3.17,1.83
23.6250,0.07,0.11,-0.99,3.11,3.05,1.65
23.6410,0.08,0.11,-0.99,2.87,3.42,1.65
23.6600,0.08,0.11,-0.99,3.05,3.11,1.28
23.6630,0.07,0.11,-0.99,3.11,2.99,1.22
23.6900,0.08,0.11,-0.99,3.11,2.99,1.71
23.6960,0.11,0.10,-1.02,2.69,3.60,3.11
23.7110,0.03,0.11,-0.96,2.75,4.39,3.23
23.7310,0.03,0.12,-0.98,3.23,3.60,0.79
23.7500,0.05,0.13,-1.00,3.05,2.69,1.10
23.7670,0.09,0.09,-0.99,2.62,2.99,2.32
23.7830,0.06,0.08,-0.98,2.99,2.99,2.62
23.7980,0.05,0.09,-1.00,3.42,3.05,1.65
23.8130,0.07,0.11,-1.00,3.48,2.93,1.22
23.8270,0.07,0.12,-0.99,2.81,2.99,1.71
23.8430,0.06,0.12,-0.99,2.75,2.99,2.26
23.8510,0.07,0.12,-0.99,2.93,2.56,2.99
23.8730,0.08,0.12,-0.99,2.99,2.62,4.03
23.8840,0.08,0.11,-1.00,2.69,3.05,4.52
23.9000,0.09,0.10,-0.99,2.38,2.69,5.74
23.9170,0.09,0.11,-0.99,2.08,2.32,7.87
23.9330,0.09,0.12,-0.99,2.50,1.83,9.64
23.9500,0.06,0.12,-0.99,2.69,2.26,9.40
23.9650,0.06,0.11,-1.00,2.69,2.20,8.30
23.9800,0.06,0.09,-0.99,2.62,2.44,5.00
23.9830,0.06,0.07,-0.99,2.62,2.87,2.44
23.9990,0.10,0.09,-0.99,3.05,3.05,1.40
24.0230,0.08,0.10,-1.00,3.36,3.36,0.24
24.0400,0.08,0.11,-0.99,3.48,3.30,0.18
24.0570,0.08,0.11,-0.99,3.42,2.87,0.49
24.0730,0.08,0.12,-0.99,3.17,3.78,0.49
24.0890,0.07,0.11,-0.99,3.05,3.36,1.53
24.1050,0.07,0.10,-0.99,3.11,3.42,1.10
24.1200,0.07,0.09,-0.99,3.17,3.36,0.37
24.1360,0.07,0.09,-0.99,3.05,3.48,0.55
24.1530,0.07,0.10,-0.99,3.36,2.87,0.37
24.1690,0.08,0.11,-0.99,3.66,3.42,-0.73
24.1740,0.07,0.12,-0.99,3.72,3.48,-0.67
24.1890,0.08,0.12,-0.99,2.75,3.30,1.46
24.2130,0.08,0.10,-0.99,2.87,3.17,2.01
24.2310,0.08,0.10,-0.99,3.36,3.36,2.14
24.2440,0.07,0.10,-0.99,3.23,3.11,2.01
24.2610,0.07,0.11,-0.99,2.99,3.42,2.01
24.2780,0.08,0.11,-0.99,3.05,3.42,1.89
24.2950,0.08,0.11,-0.99,3.17,2.93,1.95
24.3120,0.08,0.11,-0.99,3.17,2.99,1.71
24.3130,0.09,0.10,-0.99,3.17,3.05,1.46
24.3320,0.07,0.10,-0.99,3.05,2.99,1.46
24.3600,0.08,0.10,-0.99,2.87,3.11,1.40
24.3620,0.09,0.10,-0.99,3.11,3.36,1.10
24.3910,0.09,0.11,-0.99,3.48,3.42,0.43
24.4060,0.07,0.11,-0.99,2.99,2.93,0.98
24.4220,0.08,0.10,-0.99,2.81,3.23,1.04
24.4320,0.08,0.10,-0.99,3.30,3.36,0.67
24.4450,0.09,0.10,-0.99,3.17,3.30,0.79
24.4610,0.08,0.10,-0.99,3.30,3.17,1.10
24.4830,0.07,0.11,-0.99,2.99,3.42,1.16
24.5000,0.07,0.11,-0.99,3.42,2.38,1.04
24.5160,0.07,0.11,-0.99,3.23,2.99,1.40
24.5300,0.08,0.11,-0.99,3.05,3.23,1.83
24.5330,0.08,0.11,-0.99,3.05,2.99,1.95
24.5490,0.07,0.10,-0.99,2.99,3.48,2.69
24.5710,0.06,0.11,-0.99,2.99,3.36,2.50
24.5880,0.07,0.11,-0.99,2.93,3.30,2.01
24.6050,0.08,0.11,-0.99,2.93,2.99,1.95
24.6220,0.07,0.11,-0.99,3.17,2.75,2.01
24.6380,0.08,0.11,-0.99,3.05,2.81,2.08
24.6550,0.08,0.10,-0.99,3.05,2.87,2.32
24.6710,0.08,0.11,-0.99,2.99,3.23,2.62
24.6870,0.08,0.11,-0.99,3.17,3.05,2.56
24.7030,0.07,0.11,-0.99,2.69,3.30,2.56
24.7190,0.08,0.11,-0.99,2.75,3.05,2.26
24.7320,0.08,0.10,-0.99,2.99,3.23,2.20
24.7370,0.08,0.10,-0.99,3.05,2.32,2.26
24.7630,0.08,0.10,-0.99,3.17,2.99,2.20
24.7800,0.07,0.11,-0.99,2.81,3.23,1.95
24.7960,0.08,0.11,-0.99,2.93,3.23,1.65
24.8100,0.07,0.11,-0.99,3.11,2.75,2.01
24.8270,0.07,0.11,-0.99,2.99,3.17,1.95
24.8430,0.07,0.10,-0.99,3.05,3.23,1.89
24.8580,0.07,0.10,-0.99,2.81,3.11,1.95
24.8740,0.07,0.10,-0.99,3.05,3.30,2.01
24.8900,0.08,0.11,-0.99,2.93,3.30,1.83
24.9060,0.08,0.11,-0.99,2.93,3.23,2.08
24.9130,0.07,0.11,-0.99,2.93,3.30,2.32
24.9330,0.07,0.10,-0.99,3.05,3.11,2.44
24.9500,0.07,0.10,-0.99,2.87,3.17,2.26
24.9670,0.07,0.10,-0.99,3.11,3.17,2.32
24.9830,0.08,0.11,-0.99,2.81,2.99,2.32
25.0000,0.08,0.11,-0.99,3.11,2.93,2.32
25.0150,0.08,0.11,-0.99,2.93,3.17,2.38
25.0300,0.08,0.11,-0.99,3.23,2.99,2.38
25.0340,0.08,0.10,-0.99,3.05,3.30,2.44
25.0610,0.10,0.10,-0.99,3.17,3.23,2.44
25.0670,0.08,0.10,-0.99,2.93,3.05,2.50
25.0830,0.08,0.11,-0.99,3.11,2.56,2.50
25.1040,0.08,0.11,-0.99,2.99,2.93,2.44
25.1210,0.07,0.11,-0.99,2.99,3.36,2.32
25.1380,0.08,0.11,-0.99,2.99,3.05,2.26
25.1540,0.06,0.10,-0.99,2.99,3.23,2.08
25.1700,0.08,0.10,-0.99,2.93,3.05,1.89
25.1850,0.07,0.10,-0.99,3.05,3.11,1.95
25.2000,0.08,0.10,-0.99,3.05,3.17,2.08
25.2050,0.07,0.11,-0.99,2.99,3.42,1.95
25.2210,0.07,0.11,-0.99,3.23,3.17,1.65
25.2420,0.07,0.11,-0.99,3.23,2.99,1.59
25.2600,0.06,0.11,-0.99,3.23,3.11,1.53
25.2750,0.07,0.10,-0.99,3.17,3.23,1.53
25.2920,0.07,0.10,-0.99,3.11,3.05,1.77
25.3090,0.07,0.10,-0.99,2.99,3.42,1.89
25.3250,0.08,0.11,-0.99,3.23,3.60,1.95
25.3330,0.08,0.11,-0.99,3.11,3.05,1.71
25.3560,0.07,0.11,-0.99,3.11,3.36,1.53
25.3700,0.07,0.11,-0.99,3.17,3.42,1.40
25.3770,0.07,0.11,-0.99,3.11,3.17,1.40
25.3920,0.07,0.10,-0.99,3.17,3.05,1.89
25.4150,0.07,0.10,-0.99,3.36,3.36,2.08
25.4300,0.07,0.10,-0.99,3.11,3.05,1.89
25.4460,0.07,0.11,-0.99,3.30,3.17,1.83
25.4620,0.07,0.11,-0.99,3.42,2.99,1.89
25.4770,0.08,0.11,-0.99,3.36,3.36,1.95
25.4840,0.08,0.11,-0.99,3.42,3.23,1.40
25.4990,0.08,0.11,-0.99,3.30,3.05,1.89
25.5240,0.08,0.11,-0.99,3.11,3.30,2.01
25.5400,0.08,0.11,-0.99,3.17,3.30,2.01
25.5410,0.08,0.11,-0.99,3.30,3.36,2.01
25.5570,0.07,0.11,-0.99,3.17,3.42,2.08
25.5850,0.07,0.11,-0.99,3.11,3.54,1.95
25.6000,0.08,0.11,-0.99,3.42,3.42,2.01
25.6100,0.08,0.10,-0.99,3.23,3.36,2.01
25.6260,0.07,0.11,-0.99,3.05,3.36,1.95
25.6450,0.07,0.11,-0.99,3.17,3.85,1.95
25.6600,0.07,0.11,-0.99,3.11,3.66,2.08
25.6770,0.07,0.11,-0.99,2.99,3.42,2.20
25.6940,0.07,0.11,-0.99,3.30,3.17,2.26
25.7100,0.08,0.11,-0.99,3.36,3.78,2.20
25.7110,0.08,0.11,-0.99,3.23,3.60,1.95
25.7350,0.07,0.11,-0.99,3.11,3.17,2.08
25.7590,0.08,0.11,-0.99,3.17,3.48,2.01
25.7750,0.07,0.11,-0.99,2.99,3.05,2.01
25.7910,0.07,0.11,-0.99,2.99,3.30,1.95
25.8070,0.07,0.10,-0.99,2.99,2.81,2.01
25.8230,0.07,0.11,-0.99,3.30,3.42,2.01
25.8380,0.07,0.11,-0.99,2.93,3.11,2.01
25.8530,0.08,0.11,-0.99,2.87,3.42,1.89
25.8590,0.08,0.11,-0.99,2.87,3.11,2.08
25.8760,0.07,0.11,-0.99,2.99,3.42,2.08
25.8990,0.07,0.11,-0.99,2.99,3.42,1.95
25.9140,0.07,0.11,-0.99,2.99,3.30,2.20
25.9300,0.07,0.11,-0.99,3.11,3.30,2.20
25.9460,0.07,0.11,-0.99,2.75,3.17,2.08
25.9490,0.07,0.11,-0.99,3.05,3.17,1.95
25.9650,0.08,0.11,-0.99,3.17,3.36,2.08
25.9900,0.08,0.11,-0.99,3.11,3.60,2.14
26.0060,0.08,0.10,-0.99,3.17,3.11,2.01
26.0230,0.08,0.06,-0.99,2.08,2.99,4.09
26.0390,0.07,0.12,-0.99,2.99,2.62,6.10
26.0550,0.07,0.12,-0.99,2.99,3.23,2.56
26.0710,0.07,0.12,-0.99,2.99,3.30,1.95
26.0730,0.07,0.11,-0.99,2.99,3.17,2.01
26.1010,0.08,0.11,-0.99,2.99,3.54,2.01
26.1160,0.08,0.11,-0.99,3.11,3.05,2.01
26.1220,0.08,0.11,-0.99,3.30,3.30,1.89
26.1380,0.08,0.11,-0.99,3.17,3.23,2.08
26.1570,0.07,0.11,-0.99,3.23,3.11,1.95
26.1730,0.07,0.11,-0.99,2.99,2.99,1.95
26.1910,0.08,0.11,-0.99,3.05,3.42,2.08
26.2070,0.08,0.10,-0.99,3.17,3.60,1.40
26.2220,0.07,0.10,-0.99,2.69,3.30,1.10
26.2360,0.07,0.11,-0.99,3.11,3.42,0.79
26.2400,0.08,0.11,-0.99,3.05,3.36,1.04
26.2570,0.07,0.11,-0.99,2.99,3.54,0.18
26.2850,0.07,0.11,-0.99,3.30,3.54,0.43
26.2900,0.07,0.11,-0.99,3.23,3.72,0.43
26.3060,0.08,0.12,-0.99,3.05,3.36,0.79
26.3330,0.08,0.11,-0.99,2.81,3.30,2.08
26.3440,0.08,0.11,-0.99,3.23,3.17,2.20
26.3610,0.08,0.11,-0.99,3.11,3.23,2.01
26.3780,0.07,0.11,-0.99,2.99,3.05,2.08
26.3940,0.07,0.11,-0.99,3.05,3.30,2.14
26.4100,0.07,0.11,-0.99,3.17,3.23,1.59
26.4270,0.07,0.10,-0.99,2.99,3.17,1.59
26.4360,0.07,0.11,-0.99,2.81,3.23,1.95
26.4590,0.08,0.10,-0.99,3.11,2.99,1.22
26.4620,0.07,0.11,-0.99,3.11,3.42,0.31
26.4780,0.08,0.11,-0.99,2.99,3.42,0.67
26.4930,0.07,0.11,-0.99,3.11,3.72,0.49
26.5170,0.07,0.12,-0.99,3.11,3.60,0.92
26.5330,0.07,0.12,-0.99,3.23,3.36,1.65
26.5520,0.07,0.11,-0.99,2.87,3.11,2.08
26.5670,0.07,0.11,-0.99,2.99,3.30,1.95
26.5830,0.07,0.11,-0.99,3.17,3.36,1.95
26.5980,0.07,0.11,-0.99,3.11,3.36,1.95
26.6010,0.07,0.11,-0.99,2.93,3.17,1.89
26.6290,0.08,0.11,-0.99,2.93,3.36,1.83
26.6460,0.08,0.11,-0.99,2.99,3.17,2.01
26.6620,0.08,0.11,-0.99,2.93,3.23,1.95
26.6680,0.08,0.11,-0.99,3.05,3.05,2.01
26.6840,0.08,0.11,-0.99,3.05,3.60,2.01
26.7080,0.08,0.10,-0.99,3.23,3.54,1.89
26.7230,0.08,0.09,-0.99,2.93,3.36,1.10
26.7390,0.07,0.10,-0.99,3.17,3.42,0.55
26.7410,0.08,0.09,-0.99,3.36,3.54,0.24
26.7580,0.08,0.11,-0.99,3.36,3.66,-0.43
26.7870,0.07,0.12,-0.99,3.23,3.60,0.43
26.8030,0.07,0.12,-0.99,3.11,3.30,1.04
26.8090,0.07,0.11,-0.99,3.11,3.54,1.40
26.8340,0.07,0.11,-0.99,3.17,3.30,1.28
26.8490,0.08,0.10,-0.99,3.11,3.42,1.46
26.8580,0.08,0.10,-0.99,3.11,3.36,0.98
26.8740,0.07,0.11,-0.99,3.11,3.72,0.85
26.8960,0.07,0.11,-0.99,3.23,3.85,0.73
26.9110,0.07,0.11,-0.99,3.05,3.72,0.55
26.9260,0.07,0.12,-0.99,3.30,3.48,0.43
26.9410,0.07,0.12,-0.99,3.54,3.42,0.79
26.9470,0.07,0.11,-0.99,3.48,3.54,1.34
26.9660,0.07,0.11,-0.99,3.23,3.36,1.46
26.9810,0.07,0.11,-0.99,3.42,3.23,1.40
27.0030,0.08,0.10,-0.99,3.05,3.60,1.04
27.0190,0.08,0.10,-0.99,3.11,3.54,0.85
27.0350,0.08,0.10,-0.99,3.23,3.78,0.12
27.0510,0.07,0.11,-0.99,3.05,3.72,-0.12
27.0660,0.07,0.12,-0.99,3.23,3.54,0.18
27.0820,0.07,0.12,-0.99,3.30,3.48,0.37
27.0890,0.08,0.11,-0.99,2.99,3.54,0.73
27.1050,0.07,0.11,-0.99,2.87,3.72,1.53
27.1280,0.07,0.11,-0.99,2.99,3.48,1.65
27.1450,0.08,0.11,-0.99,2.93,3.48,1.65
27.1610,0.07,0.09,-0.99,3.05,3.54,1.16
27.1630,0.07,0.10,-0.99,3.05,3.97,0.06
27.1790,0.07,0.12,-0.99,3.23,3.72,-0.61
27.2070,0.07,0.12,-0.99,3.30,3.97,0.61
27.2180,0.07,0.12,-0.99,3.36,3.05,1.16
27.2360,0.07,0.11,-0.99,3.11,3.36,1.53
27.2510,0.08,0.11,-0.99,3.23,3.60,1.65
27.2680,0.08,0.10,-0.99,3.17,3.30,1.40
27.2840,0.07,0.10,-0.99,3.17,3.30,0.85
27.2860,0.07,0.10,-0.99,3.11,4.03,0.43
27.3150,0.07,0.11,-0.99,3.36,3.54,0.55
27.3300,0.07,0.11,-0.99,3.42,3.78,0.55
27.3360,0.07,0.12,-0.99,3.30,3.48,0.85
27.3510,0.07,0.11,-0.99,3.23,3.36,1.53
27.3750,0.07,0.11,-0.99,2.99,3.48,1.28
27.3760,0.07,0.10,-0.99,3.17,3.66,0.92
27.4070,0.07,0.10,-0.99,3.30,3.23,0.73
27.4100,0.07,0.10,-0.99,3.23,3.60,0.06
27.4360,0.07,0.11,-0.99,3.36,3.60,-0.06
27.4420,0.07,0.11,-0.99,3.11,3.66,-0.55
27.4640,0.07,0.12,-0.99,3.11,3.60,0.37
27.4810,0.07,0.11,-0.99,3.11,3.36,0.73
27.4960,0.07,0.12,-0.99,3.23,4.09,0.55
27.5160,0.08,0.12,-0.99,3.05,3.48,1.22
27.5310,0.07,0.11,-0.99,3.05,3.36,1.65
27.5470,0.08,0.11,-0.99,3.23,3.54,2.01
27.5630,0.07,0.11,-0.99,3.17,3.36,1.89
27.5780,0.07,0.09,-0.99,3.36,3.30,1.10
27.5930,0.07,0.10,-0.99,3.05,3.60,0.31
27.6080,0.07,0.10,-0.99,3.36,3.66,0.37
27.6230,0.07,0.10,-0.99,3.42,3.78,-0.49
27.6360,0.07,0.11,-0.99,3.30,4.03,-1.65
27.6510,0.08,0.11,-0.99,3.36,3.97,-0.24
27.6670,0.07,0.11,-0.99,3.23,4.09,-1.16
27.6850,0.07,0.11,-0.99,3.30,3.48,-0.79
27.6850,0.08,0.12,-0.99,3.42,3.23,0.55
27.7160,0.07,0.12,-0.99,3.17,3.48,1.22
27.7310,0.07,0.12,-0.99,3.11,3.66,1.71
27.7470,0.07,0.11,-0.99,3.17,3.17,1.89
27.7630,0.07,0.11,-0.99,2.93,3.60,2.14
27.7680,0.07,0.11,-0.99,3.17,3.36,1.95
27.7840,0.07,0.11,-0.99,3.17,3.54,1.71
27.8050,0.07,0.11,-0.99,3.11,3.42,1.65
27.8210,0.07,0.09,-0.99,3.17,3.36,1.40
27.8380,0.07,0.11,-0.99,3.11,3.72,0.85
27.8540,0.08,0.11,-0.99,3.23,3.48,0.06
27.8560,0.07,0.12,-0.99,3.36,3.30,0.37
27.8870,0.07,0.12,-0.99,3.36,3.23,1.89
27.9030,0.07,0.11,-0.99,2.93,3.48,2.14
27.9050,0.07,0.11,-0.99,3.23,3.23,2.01
27.9330,0.07,0.10,-0.99,3.30,3.66,1.34
27.9440,0.07,0.11,-0.99,2.87,3.85,0.67
27.9590,0.07,0.11,-0.99,3.17,3.30,0.92
27.9780,0.07,0.11,-0.99,3.11,3.54,0.98
27.9950,0.07,0.11,-0.99,3.23,3.17,0.92
27.9960,0.07,0.11,-0.99,3.11,3.05,0.79
28.0270,0.07,0.11,-0.99,3.36,3.30,1.10
28.0430,0.07,0.11,-0.99,3.23,3.17,1.46
28.0590,0.08,0.11,-0.99,3.05,3.60,1.10
28.0750,0.07,0.10,-0.99,3.30,3.78,-0.55
28.0910,0.07,0.11,-0.99,3.42,3.60,-1.10
28.1070,0.07,0.12,-0.99,3.36,3.78,0.24
28.1230,0.07,0.12,-0.99,3.11,3.42,1.10
28.1380,0.07,0.12,-0.99,3.11,3.36,1.53
28.1550,0.07,0.11,-0.99,3.05,3.30,2.14
28.1700,0.07,0.11,-0.99,3.17,3.30,1.83
28.1790,0.07,0.09,-0.99,3.05,3.42,1.16
28.1950,0.07,0.11,-0.99,3.05,3.72,1.10
28.2130,0.07,0.11,-0.99,3.23,3.30,0.85
28.2290,0.07,0.11,-0.99,3.17,3.30,0.67
28.2460,0.07,0.12,-0.99,3.23,3.54,0.61
28.2620,0.07,0.12,-0.99,3.11,3.54,0.61
28.2790,0.07,0.12,-0.99,3.11,3.60,1.28
28.2800,0.07,0.11,-0.99,2.75,3.23,2.14
28.3100,0.07,0.11,-0.99,3.17,3.36,2.01
28.3260,0.07,0.11,-0.99,3.17,2.99,2.01
28.3410,0.07,0.11,-0.99,3.05,3.30,1.65
28.3560,0.07,0.11,-0.99,3.17,3.17,1.59
28.3730,0.07,0.11,-0.99,3.05,3.42,1.65
28.3890,0.07,0.10,-0.99,2.81,3.11,0.85
28.4040,0.08,0.09,-0.99,3.17,3.11,0.55
28.4190,0.07,0.12,-0.99,3.11,3.72,-0.24
28.4290,0.07,0.13,-0.99,3.11,3.48,0.55
28.4460,0.07,0.12,-0.99,2.99,2.93,0.85
28.4630,0.07,0.10,-0.99,3.11,3.11,0.98
28.4790,0.07,0.10,-0.99,3.17,3.48,-0.61
28.4950,0.08,0.12,-0.99,3.48,3.17,0.24
28.5100,0.07,0.12,-0.99,3.23,3.36,1.34
28.5270,0.07,0.11,-0.99,2.87,3.36,1.83
28.5430,0.07,0.11,-0.99,2.87,3.42,1.95
28.5590,0.07,0.11,-0.99,3.30,2.99,1.65
28.5750,0.07,0.10,-0.99,2.93,3.42,0.85
28.5910,0.07,0.10,-0.99,3.17,3.60,0.73
28.5960,0.07,0.12,-0.99,3.30,3.60,0.55
28.6120,0.07,0.11,-0.99,3.11,3.60,1.22
28.6370,0.07,0.11,-0.99,2.99,3.54,0.79
28.6530,0.07,0.10,-0.99,2.93,3.36,0.67
28.6690,0.07,0.10,-0.99,2.99,3.60,0.06
28.6850,0.07,0.12,-0.99,3.23,3.85,-0.67
28.7010,0.07,0.11,-0.99,3.17,3.36,0.61
28.7160,0.07,0.11,-0.99,2.87,3.48,0.67
28.7200,0.07,0.11,-0.99,2.87,3.66,0.18
28.7460,0.07,0.11,-0.99,3.17,3.60,0.31
28.7630,0.07,0.12,-0.99,3.11,3.48,0.92
28.7790,0.07,0.11,-0.99,2.99,3.36,0.85
28.7940,0.07,0.11,-0.99,3.05,3.30,0.55
28.8090,0.07,0.11,-0.99,2.99,3.54,1.22
28.8240,0.07,0.11,-0.99,2.93,3.60,1.46
28.8370,0.07,0.11,-0.99,3.05,3.48,1.65
28.8520,0.07,0.11,-0.99,2.87,3.36,1.95
28.8700,0.07,0.11,-0.99,2.81,3.36,2.14
28.8860,0.07,0.11,-0.99,2.81,3.11,2.01
28.9030,0.07,0.11,-0.99,2.87,3.23,2.01
28.9190,0.07,0.11,-0.99,2.99,3.11,1.95
28.9350,0.07,0.11,-0.99,2.99,3.48,1.95
28.9510,0.07,0.11,-0.99,3.36,3.05,1.89
28.9660,0.07,0.11,-0.99,3.36,3.11,1.95
28.9820,0.07,0.11,-0.99,2.99,3.11,1.77
28.9970,0.07,0.11,-0.99,3.17,3.05,1.77
29.0020,0.07,0.11,-0.99,3.11,3.23,1.71
29.0180,0.07,0.11,-0.99,3.05,3.36,1.77
29.0420,0.07,0.11,-0.99,2.93,3.48,1.95
29.0580,0.07,0.11,-0.99,3.23,3.42,2.14
29.0750,0.07,0.11,-0.99,3.48,3.05,2.08
29.0900,0.07,0.11,-0.99,3.17,3.42,2.14
29.1070,0.07,0.11,-0.99,3.30,3.54,2.01
29.1090,0.07,0.11,-0.99,2.99,3.54,1.95
29.1240,0.07,0.11,-0.99,2.99,3.42,2.20
29.1480,0.07,0.11,-0.99,3.05,3.97,2.14
29.1640,0.07,0.11,-0.99,3.11,3.17,2.20
29.1810,0.07,0.11,-0.99,3.17,3.48,1.95
29.1970,0.07,0.11,-0.99,3.05,3.42,2.08
29.2120,0.07,0.11,-0.99,2.93,3.17,2.20
29.2290,0.07,0.11,-0.99,3.36,2.93,2.01
29.2450,0.07,0.11,-0.99,3.05,3.30,2.08
29.2610,0.07,0.11,-0.99,3.23,3.30,2.14
29.2660,0.07,0.11,-0.99,3.05,3.05,2.08
29.2930,0.07,0.11,-0.99,3.05,3.23,2.01
29.3090,0.07,0.11,-0.99,3.05,3.17,2.08
29.3140,0.07,0.11,-0.99,2.93,3.48,2.01
29.3380,0.07,0.11,-0.99,2.99,3.42,2.08
29.3530,0.07,0.11,-0.99,3.05,3.42,2.20
29.3700,0.07,0.11,-0.99,2.99,3.42,2.26
29.3700,0.07,0.11,-0.99,2.93,3.36,2.08
29.4010,0.07,0.11,-0.99,2.81,3.17,1.89
29.4160,0.07,0.11,-0.99,2.99,2.99,2.14
29.4320,0.07,0.11,-0.99,3.05,3.54,2.20
29.4470,0.07,0.11,-0.99,3.11,3.23,1.95
29.4630,0.07,0.11,-0.99,2.99,3.36,2.08
29.4790,0.07,0.11,-0.99,3.11,3.23,2.01
29.4860,0.07,0.11,-0.99,3.05,2.93,2.20
29.5010,0.07,0.11,-0.99,3.11,2.93,2.14
29.5230,0.07,0.11,-0.99,2.99,3.54,2.14
29.5390,0.07,0.11,-0.99,3.11,3.48,2.20
29.5550,0.07,0.11,-0.99,2.99,3.17,2.20
29.5710,0.08,0.11,-0.99,2.93,3.42,2.01
29.5870,0.07,0.11,-0.99,3.17,3.05,1.83
29.5920,0.07,0.11,-0.99,3.05,3.54,1.95
29.6080,0.07,0.11,-0.99,2.87,3.48,2.08
29.6290,0.07,0.11,-0.99,2.93,3.48,2.26
29.6460,0.07,0.11,-0.99,2.93,3.36,1.65
29.6620,0.07,0.11,-0.99,3.23,3.42,1.59
29.6630,0.08,0.10,-0.99,3.05,3.60,-0.06
29.6950,0.07,0.11,-0.99,3.17,3.91,-1.04
29.7100,0.08,0.12,-0.99,3.30,3.66,0.31
29.7260,0.07,0.12,-0.99,2.93,3.66,-1.40
29.7430,0.07,0.12,-0.99,3.23,3.66,0.55
29.7590,0.07,0.11,-0.99,2.93,3.48,1.71
29.7750,0.07,0.11,-0.99,2.75,3.48,2.20
29.7900,0.07,0.11,-0.99,3.05,3.42,1.95
29.8060,0.07,0.11,-0.99,2.93,3.17,2.08
29.8130,0.07,0.11,-0.99,2.81,3.30,1.89
29.8280,0.07,0.11,-0.99,3.23,3.36,1.65
29.8510,0.07,0.10,-0.99,3.05,3.30,1.53
29.8670,0.07,0.10,-0.99,2.99,3.66,0.79
29.8820,0.07,0.10,-0.99,3.23,3.54,0.31
29.8970,0.07,0.12,-0.99,3.11,3.78,0.31
29.9010,0.07,0.12,-0.99,3.36,3.36,0.92
29.9170,0.07,0.11,-0.99,2.93,3.23,1.83
29.9400,0.08,0.10,-0.99,3.23,3.30,1.10
29.9570,0.08,0.11,-0.99,3.42,3.17,-0.06
29.9730,0.07,0.11,-0.99,3.23,3.72,-0.31
29.9890,0.07,0.12,-0.99,3.23,4.03,0.00
30.0050,0.07,0.12,-0.99,3.05,3.36,1.59
30.0060,0.07,0.11,-0.99,2.93,3.66,1.77
30.0240,0.07,0.09,-0.99,3.05,3.48,1.28
30.0400,0.07,0.09,-0.99,3.05,3.78,-1.10
30.0560,0.07,0.11,-0.99,3.30,4.15,-2.62
30.0780,0.08,0.13,-0.98,3.48,4.03,-0.37
30.0950,0.07,0.13,-0.99,3.42,3.72,-0.12
30.1110,0.07,0.12,-0.99,3.17,3.36,1.04
30.1280,0.07,0.11,-0.99,3.05,3.36,2.14
30.1440,0.07,0.11,-0.99,3.42,3.36,2.14
30.1460,0.07,0.11,-0.99,2.99,3.54,2.14
30.1770,0.07,0.11,-0.99,3.05,3.36,1.83
30.1930,0.07,0.11,-0.99,3.17,3.42,1.77
30.2080,0.07,0.11,-0.99,3.05,3.42,1.77
30.2130,0.07,0.11,-0.99,3.11,3.23,1.65
30.2280,0.07,0.10,-0.99,3.17,3.54,1.28
30.2440,0.07,0.10,-0.99,3.11,3.66,0.73
30.2660,0.07,0.10,-0.99,3.05,3.72,-0.98
30.2820,0.07,0.11,-0.99,3.30,3.60,-1.59
30.2990,0.07,0.12,-0.99,3.48,4.03,-1.28
30.3160,0.07,0.13,-0.99,3.23,3.66,0.12
30.3310,0.07,0.11,-0.99,3.05,3.66,2.01
30.3460,0.07,0.11,-0.99,3.05,3.42,2.20
30.3610,0.07,0.10,-0.99,3.23,3.36,1.59
30.3670,0.07,0.10,-0.99,3.17,3.36,0.92
30.3820,0.07,0.10,-0.99,3.17,3.42,-0.37
30.4070,0.07,0.10,-0.99,3.23,4.09,-1.04
30.4070,0.07,0.12,-0.99,3.11,3.72,-1.71
30.4370,0.07,0.13,-0.99,3.36,4.15,0.31
30.4400,0.07,0.12,-0.99,3.36,3.60,1.65
30.4570,0.07,0.11,-0.99,3.11,3.48,2.01
30.4730,0.07,0.11,-0.99,2.93,3.78,1.95
30.4900,0.07,0.09,-0.99,3.11,3.48,1.04
30.5160,0.07,0.10,-0.99,3.11,3.78,-0.37
30.5220,0.07,0.11,-0.99,3.23,4.09,-1.16
30.5410,0.07,0.11,-0.99,3.30,3.85,-0.85
30.5560,0.07,0.13,-0.99,3.11,3.91,-0.67
30.5730,0.07,0.12,-0.99,3.05,3.78,0.37
30.5910,0.07,0.11,-0.99,3.17,3.60,0.61
30.6070,0.07,0.10,-0.99,2.99,3.85,0.24
30.6220,0.07,0.10,-0.99,2.87,3.91,-0.85
30.6270,0.07,0.10,-0.99,3.23,3.97,-1.46
30.6430,0.07,0.11,-0.99,3.36,4.33,-1.22
30.6650,0.07,0.11,-0.99,3.23,3.91,-0.49
30.6830,0.07,0.12,-0.99,3.17,3.60,-0.55
30.6840,0.07,0.11,-0.99,3.05,3.48,-0.18
30.7140,0.07,0.11,-0.99,3.05,3.78,-0.67
30.7300,0.07,0.11,-0.99,3.17,3.60,-0.98
30.7450,0.07,0.11,-0.99,3.36,3.60,-1.22
30.7500,0.07,0.12,-0.99,3.11,4.21,-0.61
30.7650,0.07,0.12,-0.99,3.17,3.72,0.43
30.7880,0.07,0.11,-0.99,2.87,3.30,0.55
30.8050,0.07,0.11,-0.99,2.99,3.72,0.73
30.8220,0.07,0.11,-0.99,3.05,3.72,0.73
30.8380,0.07,0.10,-0.99,3.11,3.54,0.67
30.8540,0.07,0.10,-0.99,3.23,3.60,0.18
30.8680,0.07,0.11,-0.99,2.81,3.97,-0.92
30.8840,0.07,0.11,-0.99,3.11,3.91,-1.22
30.8990,0.07,0.11,-0.99,3.11,3.78,-0.24
30.9050,0.07,0.11,-0.99,3.11,3.78,0.06
30.9210,0.07,0.12,-0.99,3.05,3.97,0.49
30.9400,0.07,0.12,-0.99,3.11,3.60,1.04
30.9560,0.07,0.11,-0.99,2.87,3.42,1.46
30.9720,0.07,0.11,-0.99,2.93,3.60,1.04
30.9880,0.07,0.10,-0.99,2.93,3.48,0.79
31.0060,0.07,0.10,-0.99,3.11,3.91,-0.55
31.0210,0.07,0.11,-0.99,3.30,4.39,-1.46
31.0370,0.07,0.12,-0.99,3.30,3.85,-0.73
31.0520,0.07,0.12,-0.99,3.30,3.97,0.49
31.0540,0.07,0.11,-0.99,3.05,3.48,1.04
31.0840,0.07,0.10,-0.99,2.99,3.48,0.98
31.0930,0.07,0.10,-0.99,3.11,3.60,-0.67
31.1150,0.07,0.09,-0.99,3.17,3.85,-1.71
31.1260,0.07,0.11,-0.99,3.36,4.03,-2.87
31.1430,0.07,0.12,-0.99,3.42,3.97,-1.89
31.1580,0.07,0.12,-0.99,2.99,3.48,-0.24
31.1740,0.07,0.12,-0.99,3.11,3.72,0.85
31.1930,0.07,0.11,-0.99,3.05,3.36,1.28
31.1960,0.07,0.11,-0.99,3.05,3.54,1.16
31.2250,0.07,0.10,-0.99,3.11,3.72,1.16
31.2420,0.07,0.10,-0.99,2.87,3.54,0.67
31.2570,0.07,0.10,-0.99,3.05,3.54,0.12
31.2730,0.07,0.11,-0.99,3.30,3.97,0.12
31.2890,0.07,0.12,-0.99,3.23,3.85,0.43
31.2960,0.07,0.12,-0.99,3.17,3.42,1.59
31.3120,0.07,0.11,-0.99,3.17,2.93,2.01
31.3330,0.07,0.10,-0.99,2.99,3.05,2.08
31.3490,0.07,0.10,-0.99,3.05,3.36,1.83
31.3640,0.07,0.08,-0.99,2.99,3.23,0.61
31.3700,0.07,0.10,-0.99,3.36,4.15,-2.01
31.3950,0.07,0.11,-0.99,3.36,3.85,-1.89
31.4110,0.07,0.14,-0.99,3.23,3.72,0.73
31.4260,0.07,0.12,-0.99,3.17,3.36,1.46
31.4410,0.07,0.11,-0.99,2.81,3.23,2.08
31.4530,0.07,0.11,-0.99,3.23,3.30,1.83
31.4690,0.07,0.08,-0.99,2.81,3.42,0.12
31.4850,0.07,0.09,-0.99,3.17,3.66,-2.44
31.5030,0.07,0.10,-0.99,3.60,4.09,-2.93
31.5190,0.07,0.13,-0.99,3.66,4.09,-2.56
31.5350,0.08,0.14,-0.99,3.36,3.48,0.55
31.5500,0.07,0.11,-0.99,2.93,3.23,2.01
31.5650,0.07,0.11,-0.99,3.17,3.30,1.83
31.5790,0.07,0.11,-0.99,3.23,3.23,1.22
31.5950,0.07,0.09,-0.99,3.11,3.36,0.49
31.6090,0.07,0.09,-0.99,3.36,3.60,-1.53
31.6190,0.07,0.12,-0.99,3.36,3.85,-2.14
31.6360,0.07,0.13,-0.99,3.23,3.72,-0.24
31.6530,0.07,0.09,-0.99,2.93,3.60,1.04
31.6700,0.07,0.12,-0.99,2.99,3.23,1.40
31.6860,0.07,0.10,-0.99,3.17,3.60,1.28
31.7020,0.07,0.09,-0.99,3.11,4.09,-0.43
31.7190,0.07,0.11,-0.99,3.54,3.85,-2.44
31.7350,0.07,0.12,-0.99,3.54,3.91,-1.28
31.7510,0.07,0.12,-0.99,3.23,3.78,0.12
31.7660,0.07,0.12,-0.99,3.05,3.66,0.98
31.7700,0.07,0.11,-0.99,3.05,3.54,1.16
31.7860,0.07,0.10,-0.99,3.05,3.60,0.18
31.8080,0.07,0.10,-0.99,3.11,3.54,-1.71
31.8240,0.07,0.11,-0.99,3.48,3.97,-2.32
31.8420,0.07,0.12,-0.99,3.30,3.78,-0.98
31.8580,0.07,0.12,-0.99,3.36,3.72,0.43
31.8740,0.07,0.12,-0.99,3.11,3.48,0.61
31.8890,0.07,0.11,-0.99,3.11,3.42,0.55
31.8920,0.07,0.09,-0.99,3.30,3.72,-0.67
31.9070,0.07,0.10,-0.99,3.48,3.85,-2.69
31.9300,0.07,0.11,-0.99,3.72,4.15,-2.44
31.9470,0.07,0.12,-0.99,3.17,4.27,-1.22
31.9640,0.07,0.12,-0.99,3.17,4.03,-0.67
31.9790,0.07,0.12,-0.99,3.17,3.85,0.18
31.9950,0.07,0.11,-0.99,3.17,3.66,0.55
31.9980,0.07,0.11,-0.99,3.30,3.60,0.61
32.0260,0.07,0.10,-0.99,3.30,3.05,0.24
32.0410,0.07,0.09,-0.99,3.17,3.48,-0.55
32.0480,0.07,0.11,-0.99,3.23,3.91,-1.53
32.0650,0.07,0.11,-0.99,3.48,3.60,-1.40
32.0810,0.07,0.12,-0.99,3.42,3.72,-0.67
32.0980,0.07,0.11,-0.99,3.17,3.48,0.43
32.1140,0.07,0.11,-0.99,2.99,3.60,0.37
32.1310,0.07,0.10,-0.99,3.11,3.54,-0.73
32.1470,0.07,0.12,-0.99,3.54,3.48,-1.28
32.1620,0.07,0.11,-0.99,3.23,3.78,0.06
32.1770,0.07,0.11,-0.99,3.11,3.72,0.12
32.1930,0.07,0.10,-0.99,2.99,3.85,-0.06
32.1980,0.07,0.10,-0.99,3.23,3.85,-1.46
32.2230,0.07,0.12,-0.99,3.60,3.72,-2.32
32.2380,0.08,0.13,-0.99,3.54,3.78,0.24
32.2540,0.07,0.11,-0.99,2.93,3.48,1.71
32.2640,0.07,0.11,-0.99,2.81,3.23,2.01
32.2810,0.07,0.10,-0.99,2.93,3.17,1.71
32.2980,0.06,0.09,-0.99,3.05,3.54,-0.43
32.3140,0.07,0.11,-0.99,3.48,3.85,-2.14
32.3290,0.07,0.12,-0.99,3.72,3.54,-1.10
32.3450,0.07,0.12,-0.99,3.60,3.60,0.43
32.3480,0.07,0.12,-0.99,2.99,3.30,0.98
32.3750,0.07,0.11,-0.99,2.99,3.60,1.22
32.3900,0.07,0.11,-0.99,3.23,3.42,1.16
32.4050,0.07,0.11,-0.99,3.11,3.30,0.92
32.4200,0.07,0.11,-0.99,3.11,3.30,1.04
32.4300,0.07,0.11,-0.99,3.17,3.30,1.10
32.4480,0.07,0.11,-0.99,3.11,3.36,1.53
32.4640,0.07,0.10,-0.99,3.23,3.36,0.85
32.4810,0.07,0.11,-0.99,3.36,3.60,0.61
32.4970,0.07,0.11,-0.99,3.30,3.48,0.61
32.5130,0.08,0.12,-0.99,3.17,3.42,0.85
32.5290,0.07,0.11,-0.99,3.17,3.11,1.77
32.5440,0.07,0.11,-0.99,3.17,3.30,1.95
32.5590,0.07,0.10,-0.99,2.99,3.36,1.59
32.5760,0.07,0.10,-0.99,2.93,3.60,-0.12
32.5920,0.07,0.11,-0.99,3.17,3.91,-1.16
32.6070,0.07,0.12,-0.99,3.17,3.48,-0.85
32.6220,0.07,0.12,-0.99,3.23,3.85,-0.37
32.6370,0.07,0.12,-0.99,2.99,3.30,0.92
32.6480,0.07,0.11,-0.99,3.17,3.36,1.22
32.6640,0.07,0.10,-0.99,3.30,3.54,0.55
32.6810,0.07,0.10,-0.99,3.36,3.78,-0.67
32.6970,0.07,0.11,-0.99,3.60,4.03,-1.04
32.6980,0.07,0.13,-0.99,3.23,3.85,-0.24
32.7280,0.07,0.12,-0.99,3.17,3.48,1.40
32.7430,0.07,0.11,-0.99,2.93,3.23,1.83
32.7590,0.07,0.10,-0.99,3.17,3.66,1.28
32.7750,0.06,0.10,-0.99,3.11,3.72,-0.12
32.7910,0.07,0.10,-0.99,3.30,3.78,-1.59
32.8070,0.07,0.10,-0.99,3.42,3.97,-2.20
32.8220,0.07,0.11,-0.99,3.66,4.09,-2.62
32.8370,0.07,0.12,-0.99,3.48,3.66,-2.20
32.8480,0.07,0.13,-0.99,3.23,3.42,-0.49
32.8640,0.07,0.12,-0.99,2.99,3.54,0.92
32.8820,0.07,0.11,-0.99,3.05,3.17,0.98
32.8970,0.07,0.11,-0.99,3.11,3.36,0.92
32.9130,0.07,0.11,-0.99,3.17,3.30,1.40
32.9280,0.07,0.11,-0.99,3.05,3.42,2.20
32.9430,0.07,0.11,-0.99,2.99,3.23,2.20
32.9590,0.07,0.11,-0.99,3.23,3.36,2.32
32.9760,0.07,0.11,-0.99,3.30,2.93,2.20
32.9910,0.07,0.11,-0.99,3.05,3.17,2.26
33.0070,0.07,0.11,-0.99,3.23,3.17,2.01
33.0230,0.07,0.11,-0.99,2.99,3.36,2.08
33.0390,0.07,0.11,-0.99,3.23,2.99,2.01
33.0470,0.07,0.11,-0.99,3.42,3.30,1.65
33.0640,0.07,0.11,-0.99,3.36,3.11,1.89
33.0850,0.07,0.11,-0.99,3.36,3.11,1.89
33.1000,0.07,0.11,-0.99,3.11,3.48,1.89
33.1170,0.07,0.09,-0.99,3.05,3.05,1.16
33.1320,0.07,0.09,-0.99,2.99,3.85,-0.12
33.1480,0.07,0.11,-0.99,3.30,3.85,-1.46
33.1630,0.07,0.13,-0.99,3.42,3.78,-0.67
33.1780,0.07,0.13,-0.99,3.42,3.66,1.16
33.1860,0.07,0.12,-0.99,3.05,3.30,1.77
33.2020,0.07,0.11,-0.99,3.05,3.17,1.77
33.2260,0.07,0.09,-0.99,3.11,3.72,0.37
33.2280,0.07,0.09,-0.99,3.17,3.72,-1.95
33.2570,0.07,0.11,-0.99,3.36,4.27,-2.93
33.2730,0.07,0.13,-0.99,3.60,4.15,-1.53
33.2890,0.07,0.14,-0.99,3.42,3.23,0.37
33.3040,0.07,0.12,-0.99,3.05,3.11,1.77
33.3110,0.07,0.11,-0.99,2.93,3.54,1.83
33.3270,0.07,0.11,-0.99,3.05,3.42,1.46
33.3490,0.07,0.11,-0.99,3.23,3.48,1.40
33.3650,0.07,0.11,-0.99,3.23,3.17,2.14
33.3800,0.07,0.11,-0.99,3.36,3.30,2.14
33.3950,0.07,0.11,-0.99,3.17,3.48,2.20
33.4100,0.07,0.10,-0.99,3.11,3.48,1.22
33.4250,0.07,0.09,-0.99,3.11,3.78,-0.49
33.4410,0.07,0.10,-0.99,3.23,3.91,-2.62
33.4560,0.07,0.12,-0.99,3.42,4.09,-2.50
33.4720,0.07,0.13,-0.99,3.54,3.91,-1.04
33.4820,0.07,0.12,-0.99,2.87,3.23,1.59
33.4990,0.07,0.12,-0.99,2.81,3.60,2.08
33.5150,0.07,0.11,-0.99,2.99,3.54,1.83
33.5320,0.07,0.11,-0.99,3.23,3.42,1.22
33.5470,0.07,0.11,-0.99,2.99,3.11,0.92
33.5620,0.07,0.11,-0.99,2.87,3.54,1.46
33.5790,0.07,0.11,-0.99,3.11,3.23,2.20
33.5940,0.07,0.11,-0.99,2.99,3.11,2.01
33.6100,0.07,0.11,-0.99,3.48,3.05,2.20
33.6260,0.07,0.10,-0.99,3.05,3.30,0.55
33.6410,0.07,0.11,-0.99,3.17,3.66,-0.06
33.6570,0.07,0.11,-0.99,3.17,3.72,0.18
33.6720,0.07,0.12,-0.99,2.99,3.66,0.92
33.6830,0.07,0.11,-0.99,2.99,3.30,1.40
33.6990,0.07,0.10,-0.99,3.11,3.11,1.34
33.7160,0.07,0.10,-0.99,3.23,3.60,-0.31
33.7320,0.07,0.10,-0.99,3.11,3.91,-2.20
33.7480,0.07,0.12,-0.99,3.36,4.21,-2.50
33.7640,0.07,0.12,-0.99,3.42,3.66,-1.10
33.7790,0.07,0.12,-0.99,3.17,3.23,0.61
33.7950,0.07,0.11,-0.99,2.93,3.85,1.77
33.8000,0.07,0.11,-0.99,3.11,3.23,1.71
33.8160,0.07,0.10,-0.99,3.11,3.42,0.31
33.8380,0.07,0.09,-0.99,3.05,3.91,-0.92
33.8540,0.07,0.10,-0.99,3.42,4.15,-2.14
33.8710,0.07,0.12,-0.99,3.60,3.48,-1.95
33.8870,0.07,0.12,-0.99,3.60,3.72,-0.79
33.9030,0.07,0.11,-0.99,3.23,3.66,-0.12
33.9190,0.07,0.12,-0.99,3.11,3.97,-0.67
33.9360,0.07,0.10,-0.99,3.23,3.66,-1.83
33.9510,0.07,0.10,-0.99,3.42,4.15,-2.93
33.9540,0.07,0.11,-0.99,3.54,3.78,-3.36
33.9690,0.07,0.12,-0.99,3.54,3.97,-0.92
34.0000,0.07,0.12,-0.99,3.36,3.05,0.92
34.0150,0.07,0.11,-0.99,2.99,3.36,1.28
34.0270,0.07,0.09,-0.99,2.93,3.66,0.00
34.0440,0.07,0.09,-0.99,3.42,4.27,-2.56
34.0600,0.07,0.11,-0.99,3.54,4.46,-3.54
34.0750,0.07,0.13,-0.99,3.48,3.91,-2.38
34.0910,0.07,0.13,-0.99,3.17,3.85,-0.06
34.1080,0.07,0.11,-0.99,2.87,3.48,1.22
34.1230,0.07,0.10,-0.99,3.11,3.72,0.43
34.1390,0.07,0.12,-0.99,3.36,4.15,-1.22
34.1440,0.07,0.13,-0.99,3.42,3.48,0.37
34.1600,0.07,0.12,-0.99,2.99,3.48,2.01
34.1760,0.07,0.11,-0.99,2.93,3.42,1.89
34.1980,0.07,0.11,-0.99,3.11,3.42,1.53
34.2140,0.07,0.09,-0.99,3.17,3.78,0.37
34.2300,0.07,0.10,-0.99,3.36,3.85,-1.83
34.2470,0.07,0.11,-0.99,3.60,3.54,-1.71
34.2620,0.07,0.14,-0.99,3.36,3.72,-0.67
34.2640,0.07,0.11,-0.99,3.05,3.42,1.71
34.2800,0.07,0.11,-0.99,3.11,3.36,1.95
34.3050,0.07,0.11,-0.99,3.36,3.05,2.08
34.3210,0.07,0.07,-0.99,3.23,3.36,0.43
34.3380,0.06,0.09,-0.99,3.17,3.91,-1.40
34.3550,0.07,0.12,-0.99,3.17,4.15,-0.85
34.3710,0.07,0.13,-0.99,3.17,3.48,0.12
34.3870,0.07,0.11,-0.99,2.81,3.72,1.83
34.4030,0.07,0.11,-0.99,3.11,3.42,2.14
34.4190,0.07,0.11,-0.99,3.11,3.60,1.71
34.4350,0.07,0.10,-0.99,2.99,3.42,0.92
34.4510,0.07,0.10,-0.99,3.17,3.42,-0.43
34.4550,0.07,0.11,-0.99,3.23,3.72,-0.31
34.4710,0.07,0.12,-0.99,3.42,3.60,0.31
34.4950,0.07,0.11,-0.99,3.05,3.72,0.37
34.5120,0.07,0.11,-0.99,3.11,3.85,0.49
34.5270,0.07,0.11,-0.99,2.99,3.72,-0.12
34.5430,0.07,0.11,-0.99,3.17,3.72,-1.10
34.5590,0.07,0.11,-0.99,3.36,3.85,-0.61
34.5750,0.07,0.12,-0.99,3.17,3.78,0.37
34.5920,0.07,0.11,-0.99,3.05,3.72,0.85
34.6070,0.07,0.11,-0.99,3.05,3.36,1.34
34.6230,0.07,0.11,-0.99,3.05,3.66,1.28
34.6280,0.07,0.10,-0.99,2.99,3.36,0.31
34.6450,0.07,0.10,-0.99,3.11,4.09,-0.85
34.6660,0.07,0.11,-0.99,3.30,3.85,-2.01
34.6840,0.07,0.12,-0.99,3.36,3.78,-1.10
34.7000,0.07,0.13,-0.99,3.30,3.54,-0.43
34.7150,0.07,0.12,-0.99,3.17,3.54,1.46
34.7300,0.07,0.11,-0.99,2.81,3.30,2.01
34.7450,0.07,0.11,-0.99,3.11,3.54,2.01
34.7610,0.07,0.09,-0.99,3.05,3.42,0.92
34.7760,0.07,0.09,-0.99,3.17,3.66,-0.18
34.7910,0.07,0.10,-0.99,3.23,4.33,-2.01
34.8060,0.07,0.12,-0.99,3.60,3.97,-0.92
34.8180,0.07,0.13,-0.99,3.23,3.78,0.92
34.8330,0.07,0.12,-0.99,2.93,3.60,1.77
34.8490,0.07,0.11,-0.99,2.99,3.54,1.89
34.8660,0.07,0.10,-0.99,2.93,3.60,1.10
34.8800,0.07,0.10,-0.99,3.05,3.91,-1.28
34.8920,0.07,0.12,-0.99,3.17,3.91,-0.67
34.9080,0.07,0.12,-0.99,3.23,3.72,1.16
34.9230,0.07,0.11,-0.99,2.62,3.42,2.01
34.9390,0.07,0.11,-0.99,2.69,3.54,2.14
34.9490,0.07,0.11,-0.99,2.99,3.30,1.65
34.9700,0.07,0.10,-0.99,3.11,3.54,0.98
34.9820,0.07,0.11,-0.99,2.93,3.54,0.37
34.9980,0.07,0.11,-0.99,3.11,3.72,0.43
35.0150,0.07,0.11,-0.99,2.99,3.48,1.34
35.0310,0.07,0.10,-0.99,3.11,3.23,1.04
35.0470,0.07,0.10,-0.99,3.36,3.23,0.00
35.0620,0.07,0.10,-0.99,3.17,3.78,-0.67
35.0770,0.07,0.12,-0.99,3.23,3.54,-0.55
35.0810,0.07,0.12,-0.99,3.17,3.48,0.98
35.0970,0.07,0.11,-0.99,2.99,3.78,1.71
35.1240,0.07,0.10,-0.99,3.11,3.30,1.65
35.1360,0.07,0.06,-0.99,3.11,3.91,0.24
35.1530,0.07,0.09,-0.99,3.23,3.48,-1.04
35.1690,0.07,0.12,-0.99,3.30,4.03,-1.89
35.1850,0.07,0.13,-0.99,3.30,3.72,-0.24
35.2010,0.07,0.12,-0.99,2.99,3.48,1.77
35.2170,0.07,0.11,-0.99,3.05,3.30,2.14
35.2330,0.07,0.11,-0.99,3.17,3.23,2.14
35.2460,0.07,0.11,-0.99,3.05,3.48,2.08
35.2520,0.07,0.10,-0.99,2.87,3.91,2.08
35.2760,0.07,0.11,-0.99,2.99,3.36,1.40
35.2930,0.07,0.10,-0.99,3.05,3.54,1.28
35.3100,0.07,0.12,-0.99,3.11,3.48,1.28
35.3260,0.07,0.11,-0.99,2.99,3.60,1.89
35.3420,0.07,0.11,-0.99,2.87,3.72,2.20
35.3590,0.07,0.11,-0.99,3.11,3.11,2.14
35.3610,0.07,0.11,-0.99,3.11,3.23,2.14
35.3900,0.07,0.11,-0.99,3.05,3.23,2.20
35.3930,0.07,0.11,-0.99,3.11,3.17,2.08
35.4090,0.07,0.11,-0.99,2.99,2.81,2.01
35.4320,0.07,0.11,-0.99,3.05,3.11,2.01
35.4490,0.07,0.11,-0.99,2.99,3.54,1.89
35.4660,0.07,0.11,-0.99,3.17,3.11,2.08
35.4820,0.07,0.11,-0.99,3.17,3.05,2.20
35.4990,0.07,0.11,-0.99,2.93,3.30,2.20
35.5150,0.07,0.11,-0.99,3.11,3.54,2.14
35.5300,0.07,0.11,-0.99,3.36,3.30,2.20
35.5450,0.07,0.10,-0.99,2.99,3.11,2.08
35.5600,0.07,0.11,-0.99,2.87,3.30,1.95
35.5760,0.07,0.12,-0.99,2.99,3.05,2.01
35.5910,0.07,0.11,-0.99,3.23,3.05,2.01
35.6060,0.07,0.11,-0.99,3.05,2.93,1.65
35.6150,0.07,0.11,-0.99,2.81,3.23,2.01
35.6310,0.07,0.11,-0.99,3.17,3.17,2.01
35.6520,0.07,0.11,-0.99,3.11,3.11,2.20
35.6670,0.07,0.11,-0.99,3.05,3.17,2.01
35.6710,0.07,0.11,-0.99,2.87,3.11,2.14
35.6860,0.07,0.11,-0.99,3.05,3.11,2.01
35.7100,0.07,0.11,-0.99,3.11,3.30,2.08
35.7270,0.07,0.11,-0.99,3.11,3.48,1.95
35.7420,0.07,0.11,-0.99,2.99,3.42,2.14
35.7600,0.07,0.11,-0.99,3.05,3.17,2.14
35.7760,0.07,0.11,-0.99,2.99,3.42,2.20
35.7920,0.07,0.11,-0.99,3.05,3.30,2.14
35.7940,0.07,0.11,-0.99,3.11,3.48,2.20
35.8250,0.07,0.11,-0.99,2.87,3.30,1.95
35.8400,0.07,0.11,-0.99,2.87,3.36,1.83
35.8470,0.07,0.11,-0.99,3.11,3.36,1.71
35.8600,0.07,0.10,-0.99,2.99,3.60,1.16
35.8760,0.07,0.09,-0.99,3.11,3.23,-0.92
35.9010,0.07,0.11,-0.99,3.23,3.72,-0.85
35.9170,0.07,0.13,-0.99,3.30,3.54,1.04
35.9340,0.07,0.11,-0.99,2.99,3.42,2.20
35.9500,0.07,0.11,-0.99,3.05,3.23,2.14
35.9650,0.07,0.11,-0.99,3.11,3.30,1.77
35.9800,0.07,0.11,-0.99,2.99,3.54,0.98
35.9850,0.07,0.09,-0.99,3.11,3.42,-0.12
36.0110,0.07,0.11,-0.99,3.30,3.60,-1.34
36.0260,0.07,0.12,-0.99,3.36,3.78,-0.18
36.0420,0.07,0.12,-0.99,3.05,3.36,1.34
36.0500,0.07,0.11,-0.99,2.99,3.66,2.20
36.0660,0.07,0.11,-0.99,3.05,3.42,1.46
36.0870,0.07,0.09,-0.99,3.11,3.48,0.92
36.0890,0.07,0.09,-0.99,3.11,4.09,-1.77
36.1060,0.07,0.11,-0.99,3.66,4.09,-2.08
36.1220,0.07,0.13,-0.99,3.48,4.03,0.06
36.1470,0.07,0.11,-0.99,3.05,3.23,2.08
36.1550,0.07,0.11,-0.99,2.93,3.36,2.01
36.1730,0.07,0.12,-0.99,2.93,3.72,2.20
36.1900,0.07,0.11,-0.99,3.05,3.48,2.08
36.2050,0.07,0.10,-0.99,2.99,3.36,1.59
36.2240,0.07,0.10,-0.99,2.93,3.72,0.73
36.2400,0.07,0.10,-0.99,2.99,3.97,-0.06
36.2470,0.07,0.11,-0.99,3.36,3.85,-0.67
36.2580,0.07,0.11,-0.99,3.30,3.91,-1.04
36.2860,0.07,0.11,-0.99,3.30,4.09,-1.59
36.2970,0.07,0.11,-0.99,3.23,3.85,-2.38
36.3140,0.07,0.13,-0.99,3.36,3.72,-1.22
36.3300,0.07,0.13,-0.99,3.17,3.60,0.37
36.3470,0.07,0.11,-0.99,2.75,3.48,1.89
36.3620,0.07,0.11,-0.99,3.30,3.17,2.01
36.3790,0.06,0.10,-0.99,3.17,3.30,1.40
36.3940,0.07,0.10,-0.99,3.05,3.48,-0.67
36.4090,0.07,0.11,-0.99,3.30,3.78,-1.65
36.4250,0.07,0.12,-0.99,3.36,3.78,-1.04
36.4320,0.07,0.12,-0.99,3.17,3.36,0.31
36.4550,0.07,0.11,-0.99,3.23,3.30,1.34
36.4700,0.07,0.10,-0.99,3.17,3.72,1.10
36.4810,0.07,0.10,-0.99,3.11,3.66,0.18
36.4970,0.07,0.11,-0.99,3.17,3.48,0.12
36.5160,0.07,0.13,-0.99,3.30,3.78,0.73
36.5180,0.07,0.11,-0.99,3.05,3.42,1.59
36.5340,0.07,0.11,-0.99,2.87,3.48,1.95
36.5570,0.07,0.11,-0.99,2.99,3.54,1.65
36.5740,0.07,0.10,-0.99,2.87,3.42,1.34
36.5900,0.07,0.11,-0.99,2.75,3.91,0.49
36.6060,0.07,0.11,-0.99,3.11,3.48,0.43
36.6080,0.07,0.12,-0.99,2.87,3.60,0.49
36.6380,0.07,0.11,-0.99,3.05,3.54,1.65
36.6540,0.07,0.11,-0.99,2.93,3.48,1.46
36.6570,0.07,0.10,-0.99,2.75,3.60,0.18
36.6730,0.07,0.11,-0.99,3.17,3.66,-0.12
36.7020,0.07,0.11,-0.99,3.36,3.60,-0.12
36.7120,0.06,0.11,-0.99,2.93,3.85,-0.98
36.7290,0.07,0.11,-0.99,3.30,4.27,-1.34
36.7490,0.07,0.12,-0.99,3.05,3.78,-1.22
36.7640,0.07,0.13,-0.99,3.11,3.78,0.00
36.7790,0.07,0.12,-0.99,2.81,3.42,1.22
36.7950,0.07,0.11,-0.99,2.93,3.54,1.46
36.8090,0.07,0.09,-0.99,2.93,3.60,0.12
36.8250,0.06,0.10,-0.99,3.42,4.09,-1.89
36.8350,0.07,0.13,-0.99,3.36,4.27,-1.83
36.8510,0.06,0.12,-0.99,3.05,3.60,-0.18
36.8720,0.07,0.11,-0.99,2.75,3.97,-0.55
36.8870,0.07,0.10,-0.99,3.30,3.78,-1.34
36.8930,0.07,0.10,-0.99,3.36,4.39,-2.56
36.9190,0.07,0.11,-0.99,3.11,4.09,-2.87
36.9260,0.07,0.12,-0.99,3.36,4.39,-1.71
36.9480,0.07,0.12,-0.99,3.05,3.97,-1.04
36.9650,0.07,0.11,-0.99,3.11,3.97,-1.28
36.9750,0.07,0.10,-0.99,3.05,4.21,-1.95
36.9910,0.06,0.11,-0.99,3.42,4.33,-2.93
37.0070,0.06,0.12,-0.99,3.17,3.85,-2.26
37.0160,0.07,0.13,-0.99,2.93,3.60,0.49
37.0340,0.07,0.11,-0.99,2.81,3.78,2.20
37.0510,0.07,0.11,-0.99,2.93,3.78,2.14
37.0670,0.07,0.10,-0.99,3.05,3.30,1.46
37.0830,0.06,0.10,-0.99,3.17,3.66,-0.31
37.0980,0.07,0.11,-0.99,3.17,3.78,-1.40
37.1090,0.07,0.12,-0.99,3.23,3.97,-1.28
37.1250,0.07,0.12,-0.99,3.30,3.78,0.18
37.1410,0.07,0.12,-0.99,2.87,3.60,1.40
37.1570,0.07,0.11,-0.99,2.93,3.54,1.89
37.1740,0.06,0.07,-0.99,2.99,3.78,0.49
37.1910,0.06,0.09,-0.99,3.11,3.97,-2.20
37.2070,0.06,0.10,-0.99,3.36,3.91,-2.87
37.2230,0.07,0.12,-0.99,3.30,4.46,-2.69
37.2400,0.07,0.13,-0.99,3.30,3.91,-0.92
37.2550,0.07,0.12,-0.99,2.93,3.72,0.79
37.2710,0.07,0.10,-0.99,3.11,3.23,1.04
37.2750,0.06,0.09,-0.99,3.17,3.85,-1.04
37.2910,0.07,0.11,-0.99,3.23,4.03,-2.32
37.3140,0.07,0.11,-0.99,3.36,3.91,-1.46
37.3310,0.07,0.12,-0.99,3.11,3.97,-0.67
37.3490,0.07,0.12,-0.99,2.93,3.66,1.16
37.3640,0.06,0.11,-0.99,3.05,3.11,1.89
37.3650,0.06,0.11,-0.99,2.87,3.66,1.53
37.3810,0.06,0.11,-0.99,2.99,3.66,0.61
37.3960,0.06,0.10,-0.99,3.11,3.60,0.49
37.4200,0.07,0.10,-0.99,2.99,3.72,0.24
37.4360,0.07,0.10,-0.99,3.11,4.03,0.12
37.4520,0.06,0.10,-0.99,2.93,3.97,-0.37
37.4700,0.07,0.12,-0.99,3.36,3.72,-1.10
37.4860,0.07,0.12,-0.99,3.30,3.78,-0.06
37.5030,0.07,0.12,-0.99,2.93,3.72,0.12
37.5190,0.07,0.11,-0.99,2.99,3.48,0.73
37.5350,0.07,0.11,-0.99,3.17,3.60,1.34
37.5500,0.06,0.10,-0.99,2.93,3.36,0.79
37.5530,0.06,0.10,-0.99,3.05,3.72,-0.49
37.5690,0.06,0.11,-0.99,3.23,3.91,-1.53
37.5910,0.07,0.12,-0.99,3.17,3.91,-1.34
37.6080,0.07,0.12,-0.99,3.23,3.72,-0.67
37.6250,0.07,0.11,-0.99,3.30,3.72,0.31
37.6420,0.07,0.11,-0.99,2.99,3.36,0.92
37.6580,0.07,0.11,-0.99,3.11,3.72,1.16
37.6740,0.06,0.10,-0.99,3.17,3.54,0.79
37.6920,0.06,0.10,-0.99,3.05,3.66,-0.43
37.7070,0.06,0.09,-0.99,3.23,4.46,-2.99
37.7090,0.07,0.11,-0.99,3.85,4.27,-4.52
37.7390,0.07,0.13,-0.99,3.78,3.85,-2.44
37.7550,0.08,0.13,-0.99,3.17,3.60,0.24
37.7580,0.07,0.12,-0.99,3.05,3.54,0.61
37.7730,0.06,0.11,-0.99,3.11,3.91,0.49
37.7980,0.06,0.10,-0.99,2.99,3.85,-0.61
37.8140,0.06,0.11,-0.99,3.23,3.97,-2.38
37.8310,0.07,0.13,-0.99,3.48,3.72,-0.67
37.8470,0.07,0.13,-0.99,3.48,3.60,1.71
37.8620,0.07,0.11,-0.99,2.56,3.30,2.14
37.8770,0.07,0.11,-0.99,2.81,3.11,2.08
37.8930,0.07,0.12,-0.99,2.87,3.30,2.01
37.9090,0.07,0.11,-0.99,2.69,3.48,1.89
37.9160,0.07,0.11,-0.99,2.87,3.30,1.71
37.9310,0.06,0.11,-0.99,3.05,3.54,1.83
37.9570,0.06,0.11,-0.99,2.69,3.97,1.65
37.9730,0.06,0.10,-0.99,2.87,3.91,1.28
37.9890,0.06,0.10,-0.99,3.05,3.85,-0.12
38.0030,0.06,0.10,-0.99,3.30,4.21,-1.28
38.0140,0.07,0.11,-0.99,3.42,4.21,-3.17
38.0310,0.07,0.13,-0.99,3.42,4.09,-2.50
38.0480,0.07,0.14,-0.99,3.23,4.03,0.79
38.0640,0.06,0.11,-0.99,2.87,3.48,1.89
38.0800,0.07,0.12,-0.99,2.87,3.23,2.08
38.0960,0.07,0.11,-0.99,2.93,3.78,2.01
38.1110,0.07,0.11,-0.99,2.99,3.23,1.59
38.1250,0.06,0.09,-0.99,3.05,3.60,0.67
38.1410,0.06,0.10,-0.99,3.17,3.42,-0.24
38.1570,0.06,0.11,-0.99,3.17,3.91,-0.55
38.1730,0.07,0.13,-0.99,3.23,3.66,-0.18
38.1880,0.07,0.12,-0.99,2.99,3.54,1.28
38.1980,0.06,0.11,-0.99,2.75,3.23,1.46
38.2130,0.06,0.10,-0.99,3.11,3.97,-0.31
38.2330,0.07,0.11,-0.99,3.30,3.72,-1.10
38.2480,0.07,0.11,-0.99,3.42,3.54,-0.12
38.2560,0.07,0.12,-0.99,2.87,3.66,0.92
38.2730,0.06,0.11,-0.99,3.11,3.60,0.98
38.2890,0.06,0.10,-0.99,2.99,3.78,-0.24
38.3050,0.06,0.10,-0.99,3.05,3.97,-1.04
38.3210,0.06,0.11,-0.99,3.30,3.78,-2.26
38.3390,0.07,0.11,-0.99,3.42,4.15,-2.01
38.3510,0.07,0.12,-0.99,3.17,3.60,-1.71
38.3600,0.07,0.13,-0.99,3.05,4.09,0.12
38.3750,0.07,0.12,-0.99,2.99,3.30,1.53
38.3970,0.06,0.12,-0.99,2.87,3.30,1.77
38.4140,0.06,0.11,-0.99,2.99,3.66,1.53
38.4310,0.06,0.09,-0.99,2.93,3.85,-0.18
38.4460,0.06,0.10,-0.99,3.23,3.91,-2.44
38.4610,0.06,0.10,-0.99,3.54,4.27,-2.38
38.4770,0.07,0.12,-0.99,3.36,4.03,-2.32
38.4940,0.07,0.13,-0.99,3.23,4.15,-0.98
38.5090,0.07,0.13,-0.99,3.05,3.48,0.37
38.5250,0.07,0.11,-0.99,2.87,3.54,1.40
38.5300,0.06,0.10,-0.99,3.05,3.36,1.04
38.5520,0.06,0.10,-0.99,3.11,3.72,-0.55
38.5690,0.06,0.10,-0.99,3.30,3.78,-1.34
38.5860,0.06,0.12,-0.99,3.17,3.91,-1.46
38.6020,0.07,0.13,-0.99,3.23,3.54,-0.12
38.6180,0.07,0.12,-0.99,2.69,3.42,1.83
38.6350,0.06,0.11,-0.99,2.93,3.42,1.83
38.6510,0.06,0.11,-0.99,2.93,3.42,1.71
38.6670,0.06,0.11,-0.99,2.99,3.42,1.83
38.6830,0.06,0.11,-0.99,2.81,3.36,2.01
38.6860,0.06,0.12,-0.99,3.23,3.11,2.08
38.7010,0.07,0.12,-0.99,2.93,3.48,1.83
38.7260,0.07,0.12,-0.99,2.93,3.05,1.83
38.7430,0.07,0.11,-0.99,2.99,3.23,1.95
38.7590,0.07,0.11,-0.99,3.11,3.36,2.08
38.7770,0.07,0.11,-0.99,2.99,3.78,2.08
38.7920,0.06,0.11,-0.99,2.69,3.48,2.08
38.8090,0.06,0.11,-0.99,2.99,3.11,1.83
38.8100,0.06,0.12,-0.99,2.87,3.30,1.89
38.8410,0.06,0.11,-0.99,2.87,3.54,2.20
38.8530,0.06,0.11,-0.99,2.99,3.36,2.14
38.8730,0.06,0.11,-0.99,2.99,3.60,1.95
38.8890,0.07,0.11,-0.99,2.81,3.30,1.95
38.9050,0.06,0.10,-0.99,3.11,3.42,1.53
38.9110,0.07,0.11,-0.99,3.36,4.03,-0.43
38.9260,0.07,0.11,-0.99,3.42,3.78,-1.10
38.9510,0.07,0.12,-0.99,3.36,3.85,-0.73
38.9600,0.07,0.12,-0.99,3.30,3.85,0.37
38.9770,0.07,0.11,-0.99,2.81,3.42,1.46
38.9930,0.06,0.11,-0.99,2.81,3.60,2.08
39.0090,0.06,0.11,-0.99,3.11,3.60,2.01
39.0260,0.06,0.11,-0.99,2.87,3.60,1.59
39.0420,0.06,0.10,-0.99,2.93,3.42,0.49
39.0540,0.06,0.10,-0.99,3.17,3.54,-0.31
39.0740,0.07,0.12,-0.99,3.30,3.91,-0.73
39.0900,0.07,0.12,-0.99,3.11,3.42,1.04
39.0940,0.07,0.11,-0.99,2.75,3.42,2.01
39.1220,0.07,0.11,-0.99,2.99,3.23,1.95
39.1380,0.07,0.11,-0.99,3.17,3.54,2.08
39.1440,0.07,0.11,-0.99,3.11,3.72,1.83
39.1590,0.07,0.11,-0.99,3.17,3.72,1.65
39.1830,0.06,0.11,-0.99,2.99,3.48,1.71
39.1990,0.06,0.11,-0.99,3.17,3.17,1.53
39.2150,0.06,0.10,-0.99,3.11,3.54,1.16
39.2300,0.06,0.09,-0.99,3.05,3.72,-0.67
39.2450,0.06,0.10,-0.99,3.42,3.91,-1.83
39.2540,0.06,0.11,-0.99,3.36,4.09,-2.93
39.2660,0.07,0.13,-0.99,3.30,3.72,-1.95
39.2900,0.07,0.13,-0.99,3.17,3.60,14.95
39.3060,0.07,0.12,-0.99,2.99,3.72,1.34
39.3230,0.07,0.11,-0.99,2.93,3.30,1.77
39.3400,0.07,0.10,-0.99,3.11,3.60,0.92
39.3550,0.07,0.10,-0.99,3.30,3.60,-0.92
39.3710,0.06,0.12,-0.99,3.36,3.60,-0.61
39.3860,0.06,0.13,-0.99,3.17,3.48,0.18
39.4020,0.06,0.12,-0.99,2.93,3.60,1.83
39.4170,0.06,0.12,-0.99,2.81,3.36,2.01
39.4330,0.06,0.11,-0.99,2.99,3.54,2.08
39.4480,0.06,0.11,-0.99,3.05,3.17,1.89
39.4630,0.06,0.11,-0.99,3.30,3.66,1.22
39.4730,0.06,0.10,-0.99,3.11,3.72,0.37
39.4900,0.06,0.09,-0.99,3.23,3.91,-0.79
39.5060,0.07,0.10,-0.99,3.11,4.03,-2.44
39.5240,0.07,0.12,-0.99,3.48,4.21,-3.48
39.5400,0.07,0.13,-0.99,3.42,4.39,-3.05
39.5560,0.07,0.13,-0.99,3.23,4.15,-1.28
39.5730,0.07,0.12,-0.99,3.05,4.03,0.85
39.5880,0.06,0.11,-0.99,3.11,3.66,1.40
39.6040,0.06,0.11,-0.99,2.93,3.97,1.34
39.6060,0.06,0.11,-0.99,3.30,4.03,-0.12
39.6220,0.06,0.12,-0.99,3.36,3.91,0.43
39.6500,0.06,0.12,-0.99,3.17,3.48,2.08
39.6610,0.07,0.11,-0.99,3.11,3.42,2.44
39.6780,0.07,0.11,-0.99,3.05,3.60,2.32
39.6960,0.07,0.11,-0.99,3.23,3.23,2.69
39.7120,0.07,0.11,-0.99,2.87,3.30,2.08
39.7270,0.07,0.11,-0.99,2.87,3.42,2.14
39.7420,0.06,0.11,-0.99,3.11,3.48,1.65
39.7580,0.03,0.09,-0.99,2.99,3.91,1.16
39.7630,0.06,0.10,-0.99,2.81,3.97,0.61
39.7790,0.06,0.11,-0.99,3.17,3.66,1.10
39.7940,0.06,0.12,-0.99,2.93,3.36,0.73
39.8160,0.06,0.11,-0.99,3.05,3.36,0.49
39.8320,0.06,0.11,-0.99,2.93,3.42,0.49
39.8490,0.07,0.12,-0.99,3.11,3.30,0.18
39.8650,0.07,0.13,-0.99,3.11,3.66,0.92
39.8810,0.07,0.11,-0.99,2.99,3.30,2.26
39.8970,0.07,0.11,-0.99,2.93,3.78,2.20
39.9120,0.07,0.11,-0.99,2.99,3.54,2.14
39.9280,0.06,0.11,-0.99,3.11,3.48,2.14
39.9430,0.06,0.11,-0.99,3.11,3.36,2.01
39.9590,0.06,0.11,-0.99,2.99,3.60,2.32
39.9740,0.06,0.11,-0.99,2.93,3.66,2.14
39.9890,0.06,0.11,-0.99,3.05,3.11,2.01
39.9990,0.06,0.11,-0.99,2.87,3.36,1.46
40.0160,0.06,0.10,-0.99,3.05,3.66,1.28
40.0320,0.06,0.10,-0.99,3.23,3.54,0.06
40.0490,0.06,0.10,-0.99,3.17,4.03,-1.59
40.0660,0.07,0.13,-0.99,3.30,4.03,-1.53
40.0820,0.06,0.11,-0.99,2.99,3.11,1.83
40.0970,0.06,0.11,-0.99,2.87,3.48,2.20
40.1130,0.06,0.11,-0.99,2.99,3.42,2.01
40.1290,0.06,0.11,-0.99,2.99,3.42,1.77
40.1330,0.07,0.11,-0.99,2.93,3.78,0.98
40.1560,0.07,0.09,-0.99,3.05,3.97,-0.37
40.1700,0.07,0.11,-0.99,3.30,4.09,-0.55
40.1870,0.07,0.13,-0.99,3.36,3.54,1.53
40.2040,0.06,0.11,-0.99,2.81,3.30,2.20
40.2200,0.06,0.11,-0.99,2.87,3.66,2.08
40.2370,0.06,0.11,-0.99,3.05,3.54,1.53
40.2530,0.06,0.11,-0.99,3.05,3.54,1.22
40.2690,0.06,0.11,-0.99,3.17,3.48,1.71
40.2850,0.06,0.11,-0.99,3.05,3.17,2.32
40.3010,0.06,0.11,-0.99,2.75,3.30,2.75
40.3170,0.06,0.10,-0.99,3.05,3.66,1.22
40.3330,0.06,0.11,-0.99,2.87,4.15,-0.55
40.3490,0.06,0.12,-0.99,3.36,3.85,-1.34
40.3650,0.07,0.11,-0.99,3.11,4.09,-1.40
40.3800,0.07,0.11,-0.99,3.17,4.15,-2.20
40.3870,0.07,0.11,-0.99,3.11,4.52,-2.44
40.4030,0.06,0.13,-0.99,3.36,3.97,-1.40
40.4210,0.06,0.13,-0.99,3.05,3.78,0.92
40.4370,0.06,0.11,-0.99,2.99,3.66,1.83
40.4560,0.06,0.11,-0.99,3.05,3.23,1.40
40.4700,0.06,0.09,-0.99,3.36,3.36,-0.92
40.4870,0.06,0.13,-0.99,3.17,3.72,-0.12
40.5030,0.06,0.11,-0.99,3.11,3.36,2.26
40.5200,0.06,0.11,-0.99,2.81,3.60,2.20
40.5360,0.07,0.11,-0.99,2.99,3.60,2.08
40.5510,0.06,0.11,-0.99,2.99,3.78,2.14
40.5680,0.07,0.11,-0.99,2.93,3.72,2.20
40.5830,0.07,0.11,-0.99,3.11,3.36,1.83
40.5870,0.07,0.11,-0.99,3.23,3.17,1.77
40.6030,0.06,0.10,-0.99,2.87,3.54,0.92
40.6260,0.06,0.11,-0.99,3.23,3.72,0.31
40.6430,0.06,0.11,-0.99,2.99,3.91,-0.06
40.6610,0.06,0.12,-0.99,3.11,3.72,-0.67
40.6770,0.07,0.12,-0.99,3.30,3.78,0.12
40.6930,0.06,0.12,-0.99,2.87,3.54,1.04
40.7090,0.06,0.11,-0.99,3.17,3.42,1.53
40.7110,0.06,0.11,-0.99,2.93,3.42,1.04
40.7410,0.06,0.11,-0.99,3.11,3.36,0.92
40.7570,0.06,0.12,-0.99,2.93,3.17,1.28
40.7730,0.06,0.11,-0.99,2.81,3.78,1.77
40.7780,0.06,0.10,-0.99,3.05,3.48,1.28
40.8050,0.06,0.10,-0.99,2.99,3.97,-0.98
40.8200,0.07,0.12,-0.99,3.36,3.91,-1.59
40.8270,0.06,0.13,-0.99,3.11,3.72,-0.37
40.8500,0.06,0.12,-0.99,3.11,3.72,0.85
40.8600,0.06,0.11,-0.99,2.87,3.72,2.01
40.8770,0.06,0.10,-0.99,3.17,3.54,1.46
40.8930,0.06,0.09,-0.99,3.17,3.85,-1.59
40.9100,0.06,0.09,-0.99,3.36,4.09,-3.85
40.9250,0.06,0.11,-0.99,3.60,4.27,-4.09
40.9410,0.07,0.13,-0.99,3.54,4.46,-2.62
40.9570,0.07,0.13,-0.99,3.36,4.03,-0.79
40.9740,0.07,0.12,-0.99,2.99,3.78,0.67
40.9890,0.06,0.10,-0.99,2.99,3.72,0.79
40.9940,0.06,0.09,-0.99,3.23,3.72,-1.22
41.0100,0.06,0.10,-0.99,3.42,4.39,-3.72
41.0350,0.06,0.10,-0.99,3.54,4.58,-4.09
41.0510,0.07,0.13,-0.99,3.36,4.39,-2.75
41.0680,0.07,0.13,-0.99,3.23,3.97,-0.55
41.0850,0.06,0.12,-0.99,3.11,3.66,0.61
41.1000,0.06,0.11,-0.99,2.99,3.48,0.55
41.1160,0.06,0.11,-0.99,2.99,3.78,-0.31
41.1310,0.06,0.11,-0.99,3.17,3.42,-0.12
41.1360,0.06,0.12,-0.99,3.30,3.36,1.46
41.1610,0.06,0.11,-0.99,3.11,3.60,2.14
41.1690,0.06,0.11,-0.99,3.23,3.11,1.95
41.1850,0.06,0.11,-0.99,3.42,3.54,1.71
41.2070,0.07,0.11,-0.99,2.99,3.72,0.00
41.2230,0.07,0.11,-0.99,3.23,3.91,0.06
41.2380,0.06,0.12,-0.99,3.11,3.66,0.61
41.2530,0.06,0.11,-0.99,3.05,3.72,1.22
41.2690,0.06,0.11,-0.99,2.99,3.72,1.16
41.2760,0.06,0.11,-0.99,3.11,3.54,0.79
41.2930,0.06,0.11,-0.99,2.99,3.85,-0.24
41.3100,0.06,0.11,-0.99,3.30,3.78,-0.79
41.3250,0.06,0.12,-0.99,3.23,3.85,-0.67
41.3410,0.06,0.12,-0.99,3.11,3.66,1.22
41.3560,0.06,0.11,-0.99,2.93,2.99,2.20
41.3680,0.06,0.11,-0.99,3.11,3.17,2.14
41.3830,0.06,0.11,-0.99,2.99,3.42,2.08
41.3990,0.06,0.11,-0.99,3.05,3.36,2.08
41.4150,0.07,0.11,-0.99,2.99,2.99,2.20
41.4330,0.07,0.11,-0.99,2.99,3.05,2.01
41.4490,0.06,0.11,-0.99,3.23,3.36,2.14
41.4650,0.06,0.11,-0.99,3.11,3.36,2.26
41.4820,0.06,0.11,-0.99,3.05,3.66,2.08
41.4970,0.06,0.11,-0.99,3.05,3.11,2.14
41.5130,0.06,0.11,-0.99,2.99,3.30,2.14
41.5290,0.06,0.11,-0.99,3.17,3.30,2.14
41.5450,0.06,0.11,-0.99,3.11,3.30,2.14
41.5600,0.06,0.11,-0.99,2.93,3.42,2.20
41.5760,0.06,0.11,-0.99,2.93,3.36,2.14
41.5800,0.06,0.11,-0.99,3.11,3.60,2.20
41.5950,0.06,0.11,-0.99,2.93,3.54,2.08
41.6170,0.06,0.11,-0.99,2.99,3.23,2.14
41.6340,0.06,0.11,-0.99,3.11,3.36,2.08
41.6520,0.07,0.11,-0.99,2.99,3.66,2.01
41.6670,0.06,0.11,-0.99,3.05,3.30,2.08
41.6830,0.06,0.12,-0.99,3.05,3.36,2.08
41.6990,0.06,0.12,-0.99,2.93,3.05,2.93
41.7140,0.06,0.11,-0.99,2.50,3.23,3.42
41.7300,0.06,0.11,-0.99,2.62,3.66,2.08
41.7450,0.06,0.11,-0.99,2.69,3.23,2.14
41.7500,0.06,0.11,-0.99,2.81,3.17,2.08
41.7650,0.06,0.11,-0.99,2.87,3.23,2.14
41.7890,0.06,0.11,-0.99,2.75,3.23,2.01
41.8050,0.06,0.11,-0.99,2.75,3.17,2.01
41.8210,0.06,0.11,-0.99,3.05,3.36,2.26
41.8360,0.07,0.11,-0.99,2.99,3.05,2.14
41.8490,0.07,0.11,-0.99,2.75,3.60,2.32
41.8540,0.06,0.11,-0.99,2.87,3.60,2.14
41.8790,0.06,0.11,-0.99,2.99,3.17,2.01
41.8950,0.06,0.11,-0.99,2.99,2.99,2.08
41.9130,0.06,0.11,-0.99,2.93,3.54,2.14
41.9280,0.06,0.11,-0.99,2.87,3.48,1.95
41.9440,0.06,0.11,-0.99,3.05,3.48,1.95
41.9480,0.06,0.11,-0.99,2.87,3.30,2.08
41.9750,0.06,0.11,-0.99,2.99,3.48,2.20
41.9920,0.06,0.11,-0.99,2.99,3.11,2.08
41.9940,0.06,0.11,-0.99,2.87,3.36,2.08
42.0100,0.07,0.11,-0.99,3.11,3.17,2.08
42.0250,0.06,0.11,-0.99,2.75,3.05,1.95
42.0480,0.06,0.11,-0.99,2.93,3.17,2.08
42.0650,0.06,0.11,-0.99,2.99,3.17,2.08
42.0800,0.06,0.11,-0.99,2.99,3.23,2.20
42.0970,0.06,0.11,-0.99,2.99,3.23,2.08
42.1130,0.06,0.11,-0.99,2.81,3.17,1.83
42.1280,0.06,0.11,-0.99,2.99,3.11,1.89
42.1440,0.06,0.11,-0.99,2.81,3.17,2.14
42.1600,0.06,0.11,-0.99,2.93,3.36,2.08
42.1760,0.07,0.11,-0.99,2.87,3.36,2.08
42.1800,0.07,0.11,-0.99,3.05,3.42,1.95
42.2070,0.06,0.11,-0.99,2.87,3.36,2.01
42.2120,0.06,0.11,-0.99,2.93,3.42,1.95
42.2370,0.06,0.11,-0.99,3.23,3.05,2.08
42.2460,0.06,0.11,-0.99,3.05,3.30,2.20
42.2610,0.06,0.11,-0.99,2.99,3.36,2.14
42.2780,0.06,0.11,-0.99,2.99,2.93,2.01
42.2940,0.06,0.11,-0.99,2.93,3.05,2.14
42.3110,0.06,0.11,-0.99,2.99,3.78,2.20
42.3260,0.06,0.11,-0.99,2.87,3.11,2.56
42.3410,0.06,0.11,-0.99,2.93,3.54,2.14
42.3570,0.06,0.11,-0.99,3.05,3.11,2.14
42.3720,0.06,0.11,-0.99,2.87,3.54,2.14
42.3870,0.06,0.11,-0.99,2.93,3.23,2.01
42.4030,0.07,0.11,-0.99,2.93,3.30,2.08
42.4170,0.06,0.11,-0.99,2.99,3.60,2.14
42.4260,0.06,0.11,-0.99,2.81,3.42,2.08
42.4420,0.06,0.11,-0.99,2.99,3.48,2.01
42.4580,0.06,0.11,-0.99,2.93,3.36,2.01
42.4760,0.06,0.11,-0.99,2.81,2.93,2.01
42.4910,0.06,0.11,-0.99,2.99,3.23,2.26
42.5060,0.06,0.11,-0.99,2.87,3.66,2.08
42.5220,0.06,0.11,-0.99,3.05,3.05,2.14
42.5250,0.06,0.11,-0.99,2.99,3.05,2.01
42.5410,0.06,0.11,-0.99,3.23,3.23,2.08
42.5670,0.06,0.11,-0.99,3.17,3.11,2.08
42.5810,0.06,0.11,-0.99,2.93,3.17,1.95
42.5960,0.06,0.11,-0.99,2.99,3.48,2.14
42.6110,0.06,0.11,-0.99,3.17,3.17,1.89
42.6220,0.06,0.11,-0.99,3.11,3.23,1.89
42.6390,0.06,0.11,-0.99,3.11,3.17,1.95
42.6540,0.06,0.10,-0.99,3.17,3.23,0.73
42.6700,0.06,0.10,-0.99,3.17,3.60,-2.08
42.6850,0.06,0.11,-0.99,3.36,3.85,-2.50
42.6990,0.07,0.14,-0.99,3.17,3.66,-0.79
42.7140,0.06,0.11,-0.99,2.38,3.05,1.83
42.7300,0.06,0.11,-0.99,2.75,3.30,2.08
42.7370,0.06,0.11,-0.99,3.05,3.36,2.08
42.7600,0.06,0.11,-0.99,2.87,3.36,1.89
42.7700,0.06,0.10,-0.99,3.23,3.36,-0.18
42.7870,0.07,0.12,-0.99,3.48,3.85,-1.53
42.8020,0.07,0.12,-0.99,3.23,3.36,1.04
42.8190,0.06,0.11,-0.99,3.05,3.36,1.71
42.8350,0.06,0.11,-0.99,2.87,3.30,1.89
42.8510,0.06,0.11,-0.99,2.99,3.48,1.77
42.8530,0.06,0.10,-0.99,2.99,4.15,0.31
42.8820,0.06,0.11,-0.99,3.11,4.15,-1.89
42.8980,0.07,0.13,-0.99,3.30,3.85,-0.98
42.9130,0.06,0.12,-0.99,2.75,3.30,1.04
42.9180,0.06,0.11,-0.99,2.56,3.36,1.71
42.9330,0.06,0.11,-0.99,2.62,3.48,1.71
42.9570,0.06,0.11,-0.99,2.87,3.54,0.79
42.9730,0.07,0.12,-0.99,2.99,3.30,1.10
42.9890,0.06,0.11,-0.99,2.69,3.23,2.08
43.0050,0.06,0.11,-0.99,2.62,2.99,2.08
43.0200,0.06,0.11,-0.99,2.99,3.05,2.01
43.0350,0.06,0.11,-0.99,2.75,3.30,2.08
43.0500,0.06,0.11,-0.99,2.75,3.36,1.95
43.0650,0.06,0.11,-0.99,2.99,3.54,0.73
43.0710,0.07,0.12,-0.99,3.05,3.30,1.28
43.0860,0.06,0.11,-0.99,2.81,3.42,1.83
43.1090,0.06,0.11,-0.99,2.62,3.54,2.14
43.1240,0.05,0.11,-0.99,2.93,3.23,2.26
43.1400,0.06,0.10,-0.99,3.17,3.36,2.14
43.1570,0.07,0.11,-0.99,3.30,3.48,1.04
43.1730,0.08,0.12,-0.99,3.23,3.72,0.73
43.1890,0.07,0.12,-0.99,2.75,3.42,1.83
43.2050,0.07,0.11,-0.99,2.62,3.17,2.20
43.2200,0.06,0.11,-0.99,2.81,3.30,2.01
43.2350,0.06,0.11,-0.99,2.93,3.11,2.08
43.2400,0.05,0.11,-0.99,3.05,3.17,2.44
43.2560,0.08,0.11,-0.99,2.93,3.11,2.93
43.2800,0.06,0.11,-0.99,2.81,2.93,2.62
43.2820,0.06,0.11,-0.99,2.75,2.62,3.30
43.2970,0.07,0.11,-0.99,2.69,3.17,3.60
43.3120,0.07,0.11,-0.99,2.93,3.30,2.38
43.3410,0.06,0.11,-0.99,2.81,3.23,2.32
43.3520,0.06,0.11,-0.99,2.62,3.23,2.08
43.3680,0.06,0.11,-0.99,2.93,3.17,2.44
43.3840,0.07,0.11,-0.99,2.87,3.17,2.62
43.4020,0.07,0.11,-0.99,2.99,3.11,2.44
43.4180,0.06,0.11,-0.99,2.93,3.42,2.26
43.4330,0.06,0.11,-0.99,2.93,3.05,2.26
43.4350,0.06,0.11,-0.99,2.99,3.17,2.08
43.4640,0.06,0.11,-0.99,3.36,2.99,2.20
43.4800,0.06,0.11,-0.99,3.17,3.05,2.14
43.4950,0.06,0.11,-0.99,2.99,2.99,2.01
43.5100,0.06,0.11,-0.99,2.93,3.05,1.89
43.5250,0.07,0.11,-0.99,2.93,3.42,1.95
43.5410,0.06,0.11,-0.99,2.99,3.17,2.08
43.5490,0.07,0.11,-0.99,3.11,2.99,2.01
43.5650,0.07,0.11,-0.99,2.81,2.87,1.83
43.5870,0.06,0.11,-0.99,2.87,3.17,1.71
43.5880,0.06,0.11,-0.99,3.17,2.99,1.40
43.6180,0.07,0.11,-0.99,3.05,3.36,1.46
43.6340,0.06,0.11,-0.99,3.05,2.99,1.83
43.6370,0.06,0.11,-0.99,3.05,3.36,1.95
43.6520,0.06,0.11,-0.99,2.87,3.30,2.20
43.6750,0.07,0.11,-0.99,3.30,2.99,2.14
43.6910,0.06,0.11,-0.99,2.69,3.11,2.20
43.7080,0.07,0.11,-0.99,2.99,3.11,1.83
43.7240,0.07,0.11,-0.99,2.87,3.23,1.77
43.7390,0.07,0.11,-0.99,3.05,3.17,1.77
43.7550,0.05,0.11,-0.99,2.93,3.23,1.83
43.7700,0.06,0.11,-0.99,3.05,3.48,1.22
43.7740,0.06,0.11,-0.99,3.17,3.30,1.04
43.7900,0.07,0.11,-0.99,3.11,3.54,1.04
43.8110,0.07,0.11,-0.99,2.87,3.48,1.28
43.8280,0.07,0.11,-0.99,3.05,3.23,1.40
43.8450,0.06,0.11,-0.99,2.99,3.17,1.53
43.8610,0.06,0.11,-0.99,2.99,3.42,1.71
43.8770,0.07,0.11,-0.99,2.99,3.60,1.40
43.8930,0.06,0.11,-0.99,3.17,3.23,1.59
43.9090,0.06,0.11,-0.99,2.87,3.17,1.59
43.9240,0.06,0.11,-0.99,3.05,3.05,1.71
43.9270,0.06,0.11,-0.99,3.30,3.17,1.46
43.9420,0.08,0.11,-0.99,3.11,3.23,0.67
43.9650,0.07,0.11,-0.99,2.93,3.72,1.16
43.9810,0.06,0.11,-0.99,3.23,3.30,0.92
43.9980,0.07,0.11,-0.99,3.17,3.42,0.12
44.0170,0.06,0.11,-0.99,3.23,3.60,0.43
44.0320,0.07,0.11,-0.99,3.36,3.85,0.31
44.0480,0.06,0.11,-0.99,2.99,3.42,1.34
44.0630,0.06,0.11,-0.99,3.17,3.48,1.65
44.0800,0.06,0.11,-0.99,3.17,3.36,1.46
44.0950,0.06,0.11,-0.99,3.11,3.48,0.43
44.1100,0.08,0.12,-0.99,3.11,3.48,0.06
44.1150,0.06,0.11,-0.99,3.23,2.87,1.16
44.1280,0.07,0.11,-0.99,3.05,3.05,1.10
44.1530,0.06,0.11,-0.99,2.87,3.36,1.22
44.1700,0.07,0.11,-0.99,3.17,3.11,1.46
44.1860,0.07,0.11,-0.99,2.99,3.23,1.46
44.2020,0.07,0.11,-0.99,2.87,3.05,1.53
44.2190,0.06,0.11,-0.99,2.81,3.17,1.22
44.2340,0.07,0.11,-0.99,2.99,3.36,0.79
44.2490,0.06,0.11,-0.99,3.11,3.42,0.61
44.2640,0.07,0.10,-0.99,3.23,3.30,0.12
44.2790,0.07,0.10,-0.99,3.23,3.48,-0.24
44.2850,0.06,0.10,-0.99,3.17,3.66,-0.55
44.3000,0.08,0.12,-0.99,3.05,3.48,-0.49
44.3250,0.07,0.11,-0.99,2.93,3.23,1.46
44.3410,0.06,0.11,-0.99,3.05,2.62,2.01
44.3420,0.06,0.11,-0.99,2.69,3.17,2.08
44.3720,0.04,0.10,-0.99,3.11,2.93,2.14
44.3750,0.07,0.11,-0.99,3.17,3.60,1.34
44.3910,0.06,0.11,-0.99,3.11,3.54,1.28
44.4110,0.07,0.11,-0.99,3.17,3.36,1.34
44.4230,0.07,0.11,-0.99,3.17,3.48,1.89
44.4390,0.07,0.11,-0.99,3.30,3.11,1.89
44.4620,0.07,0.11,-0.99,3.30,3.05,1.77
44.4780,0.08,0.11,-0.99,2.99,3.17,1.65
44.4930,0.07,0.11,-0.99,3.11,3.17,1.95
44.5100,0.06,0.11,-0.99,3.11,3.23,2.08
44.5250,0.05,0.10,-0.99,3.30,3.11,1.95
44.5420,0.06,0.11,-0.99,3.42,3.11,1.83
44.5570,0.07,0.11,-0.99,3.17,3.30,1.71
44.5600,0.08,0.12,-0.99,3.23,3.30,1.65
44.5760,0.07,0.11,-0.99,3.11,2.87,1.89
44.5980,0.06,0.11,-0.99,3.05,3.30,2.01
44.6150,0.06,0.11,-0.99,2.99,3.11,1.83
44.6310,0.04,0.10,-0.99,2.87,3.17,1.77
44.6480,0.07,0.11,-0.99,3.05,3.36,1.59
44.6640,0.06,0.11,-0.99,3.11,3.05,1.53
44.6790,0.07,0.11,-0.99,3.11,3.42,1.59
44.6950,0.06,0.11,-0.99,3.05,3.36,1.89
44.7110,0.07,0.11,-0.99,3.17,3.11,1.83
44.7260,0.07,0.11,-0.99,3.05,2.99,1.65
44.7410,0.07,0.11,-0.99,2.93,3.11,1.46
44.7560,0.07,0.11,-0.99,3.05,2.99,1.71
44.7700,0.07,0.11,-0.99,2.99,3.05,1.89
44.7850,0.06,0.11,-0.99,2.99,3.36,2.14
44.7950,0.06,0.11,-0.99,2.81,3.42,1.89
44.8100,0.06,0.11,-0.99,3.05,3.30,2.08
44.8310,0.07,0.11,-0.99,2.81,3.30,2.26
44.8330,0.07,0.11,-0.99,2.93,3.17,2.20
44.8620,0.06,0.11,-0.99,2.93,3.23,2.14
44.8660,0.06,0.11,-0.99,2.93,3.11,2.20
44.8820,0.07,0.11,-0.99,2.69,3.23,2.32
44.9070,0.06,0.11,-0.99,3.11,3.11,2.20
44.9080,0.06,0.11,-0.99,3.17,2.99,1.83
44.9370,0.07,0.11,-0.99,2.93,3.36,1.71
44.9510,0.06,0.11,-0.99,3.05,3.30,1.83
44.9560,0.07,0.11,-0.99,3.05,3.05,1.77
44.9710,0.07,0.11,-0.99,3.05,2.99,1.65
44.9960,0.07,0.11,-0.99,2.93,2.87,1.77
45.0120,0.07,0.11,-0.99,3.05,3.23,1.95
45.0270,0.07,0.11,-0.99,2.93,3.42,1.83
45.0280,0.07,0.11,-0.99,3.05,2.93,1.83
45.0590,0.06,0.11,-0.99,2.87,3.23,1.77
45.0600,0.06,0.11,-0.99,3.05,2.87,1.53
45.0780,0.06,0.11,-0.99,2.81,3.17,1.40
45.1010,0.06,0.11,-0.99,2.93,3.23,1.40
45.1140,0.07,0.11,-0.99,2.81,3.17,1.40
45.1310,0.06,0.11,-0.99,2.93,3.23,1.22
45.1470,0.07,0.11,-0.99,3.05,3.23,1.22
45.1630,0.06,0.11,-0.99,2.87,3.54,1.65
45.1800,0.06,0.11,-0.99,3.36,3.11,2.14
45.1950,0.07,0.11,-0.99,3.48,3.11,2.14
45.2120,0.06,0.11,-0.99,3.17,3.23,2.20
45.2290,0.07,0.11,-0.99,2.87,2.81,2.08
45.2300,0.07,0.11,-0.99,2.69,3.05,2.50
45.2450,0.06,0.11,-0.99,2.99,2.93,2.50
45.2630,0.06,0.11,-0.99,2.87,2.93,2.50
45.2920,0.07,0.11,-0.99,3.17,2.93,2.50
45.3070,0.07,0.11,-0.99,3.05,2.93,2.26
45.3110,0.07,0.11,-0.99,3.05,3.05,2.69
45.3260,0.06,0.11,-0.99,3.11,3.30,2.44
45.3420,0.07,0.11,-0.99,2.99,2.87,2.38
45.3670,0.07,0.11,-0.99,2.99,3.42,2.20
45.3840,0.08,0.11,-0.99,2.93,3.30,1.71
45.3990,0.07,0.11,-0.99,3.05,3.23,1.71
45.4160,0.06,0.11,-0.99,3.17,3.23,2.08
45.4310,0.06,0.11,-0.99,3.05,2.99,2.14
45.4460,0.06,0.11,-0.99,3.11,3.42,2.08
45.4610,0.06,0.11,-0.99,3.11,3.17,1.95
45.4660,0.06,0.11,-0.99,3.36,3.17,1.83
45.4910,0.07,0.11,-0.99,3.05,3.11,1.59
45.5060,0.06,0.11,-0.99,3.11,2.99,2.20
45.5210,0.06,0.11,-0.99,3.11,3.17,2.56
45.5310,0.07,0.11,-0.99,2.99,2.93,2.50
45.5470,0.07,0.11,-0.99,2.99,3.30,2.14
45.5640,0.07,0.11,-0.99,2.93,3.30,1.83
45.5800,0.06,0.11,-0.99,2.93,3.17,1.95
45.5960,0.06,0.11,-0.99,2.99,3.05,2.14
45.6120,0.07,0.11,-0.99,3.11,3.23,2.26
45.6270,0.06,0.11,-0.99,2.93,3.30,2.08
45.6420,0.07,0.11,-0.99,3.05,3.23,2.08
45.6580,0.07,0.11,-0.99,3.05,3.23,1.89
45.6740,0.06,0.11,-0.99,2.93,3.30,2.32
45.6890,0.06,0.11,-0.99,2.93,3.36,2.38
45.6950,0.07,0.11,-0.99,2.87,3.05,2.44
45.7110,0.07,0.11,-0.99,2.99,3.60,2.14
45.7350,0.07,0.11,-0.99,2.99,3.11,2.01
45.7360,0.07,0.11,-0.99,3.11,3.36,2.26
45.7510,0.07,0.11,-0.99,2.87,2.87,2.81
45.7820,0.07,0.11,-0.99,2.93,3.17,3.17
45.7910,0.06,0.11,-0.99,2.75,3.36,2.93
45.8000,0.07,0.11,-0.99,3.05,2.99,2.93
45.8150,0.06,0.11,-0.99,3.11,3.23,2.62
45.8430,0.06,0.11,-0.99,2.99,3.05,2.38
45.8500,0.07,0.11,-0.99,2.99,3.42,2.32
45.8730,0.07,0.11,-0.99,3.05,3.60,2.32
45.8830,0.07,0.11,-0.99,2.99,3.42,2.01
45.9000,0.07,0.11,-0.99,3.05,3.36,1.95
45.9190,0.07,0.11,-0.99,3.05,3.30,1.95
45.9340,0.07,0.11,-0.99,3.23,3.11,1.83
45.9490,0.07,0.11,-0.99,3.11,3.17,1.65
45.9650,0.07,0.11,-0.99,3.17,3.17,1.77
45.9800,0.06,0.11,-0.99,3.17,3.54,2.56
45.9890,0.07,0.11,-0.99,2.93,3.36,3.23
46.0050,0.06,0.11,-0.99,3.05,2.99,2.69
46.0220,0.06,0.11,-0.99,3.11,3.05,2.26
46.0390,0.06,0.11,-0.99,2.87,3.05,1.71
46.0550,0.06,0.11,-0.99,3.05,3.48,1.53
46.0700,0.07,0.11,-0.99,3.23,3.42,1.65
46.0720,0.07,0.11,-0.99,3.48,3.11,2.44
46.1010,0.07,0.11,-0.99,3.23,3.23,2.56
46.1150,0.07,0.11,-0.99,2.93,3.30,2.50
46.1320,0.07,0.11,-0.99,3.11,2.87,2.01
46.1470,0.07,0.11,-0.99,3.05,3.30,1.83
46.1540,0.07,0.11,-0.99,3.05,3.48,1.89
46.1770,0.07,0.11,-0.99,3.30,3.54,1.89
46.1860,0.07,0.11,-0.99,3.30,3.23,1.71
46.2020,0.07,0.11,-0.99,3.30,3.23,1.46
46.2190,0.06,0.11,-0.99,3.23,3.42,1.22
46.2350,0.07,0.11,-0.99,3.23,3.91,0.79
46.2520,0.07,0.11,-0.99,3.23,3.54,1.46
46.2670,0.06,0.11,-0.99,2.93,3.48,1.77
46.2840,0.06,0.11,-0.99,3.11,3.42,1.71
46.2840,0.06,0.11,-0.99,2.75,3.54,2.08
46.3140,0.06,0.11,-0.99,2.93,3.36,1.89
46.3290,0.06,0.11,-0.99,3.11,3.42,2.14
46.3440,0.06,0.11,-0.99,2.99,3.42,2.81
46.3580,0.07,0.11,-0.99,3.11,3.36,2.69
46.3700,0.07,0.11,-0.99,3.17,3.05,2.38
46.3860,0.07,0.11,-0.99,2.99,3.23,2.20
46.4030,0.08,0.11,-0.99,2.87,3.05,1.89
46.4190,0.07,0.11,-0.99,2.99,2.81,1.95
46.4350,0.08,0.11,-0.99,2.99,3.48,2.38
46.4510,0.07,0.11,-0.99,3.23,3.17,2.32
46.4660,0.07,0.11,-0.99,2.87,3.17,2.01
46.4810,0.07,0.11,-0.99,2.99,2.81,2.08
46.4840,0.06,0.11,-0.99,2.87,2.99,2.14
46.5060,0.06,0.11,-0.99,3.05,3.17,2.20
46.5230,0.06,0.11,-0.99,2.99,3.36,2.14
46.5390,0.06,0.11,-0.99,2.99,3.36,2.20
46.5550,0.06,0.11,-0.99,3.05,3.05,2.14
46.5690,0.07,0.11,-0.99,3.05,3.11,2.14
46.5850,0.07,0.11,-0.99,3.05,3.23,1.95
46.6010,0.07,0.11,-0.99,3.05,3.23,2.20
46.6060,0.07,0.11,-0.99,3.11,3.42,2.08
46.6210,0.07,0.11,-0.99,3.05,2.99,1.89
46.6430,0.07,0.11,-0.99,3.05,3.23,2.08
46.6590,0.04,0.11,-0.99,2.99,2.99,2.26
46.6760,0.09,0.11,-0.99,3.30,3.17,3.11
46.6910,0.07,0.11,-0.99,3.23,3.30,2.75
46.7060,0.07,0.11,-0.99,2.99,3.17,2.20
46.7210,0.07,0.11,-0.99,2.99,3.05,2.38
46.7360,0.06,0.11,-0.99,2.99,3.11,2.32
46.7520,0.07,0.11,-0.99,3.11,2.99,2.32
46.7680,0.06,0.11,-0.99,3.23,3.11,2.44
46.7830,0.06,0.11,-0.99,3.11,3.05,2.38
46.7970,0.07,0.11,-0.99,3.17,3.48,2.38
46.8070,0.06,0.11,-0.99,3.17,3.48,2.14
46.8240,0.06,0.11,-0.99,2.99,3.11,2.01
46.8400,0.07,0.11,-0.99,3.11,3.11,2.20
46.8560,0.06,0.11,-0.99,3.05,3.30,2.38
46.8720,0.07,0.11,-0.99,2.87,3.17,2.93
46.8880,0.06,0.11,-0.99,3.05,3.30,2.62
46.9040,0.07,0.11,-0.99,3.17,3.11,2.62
46.9060,0.06,0.11,-0.99,2.87,3.30,2.44
46.9350,0.07,0.11,-0.99,2.81,3.23,2.38
46.9510,0.06,0.11,-0.99,2.87,3.30,2.99
46.9660,0.07,0.11,-0.99,2.93,2.99,3.23
46.9820,0.07,0.11,-0.99,2.87,3.05,3.05
46.9870,0.06,0.11,-0.99,2.99,3.23,2.69
47.0030,0.07,0.11,-0.99,2.93,2.87,2.38
47.0260,0.06,0.11,-0.99,2.87,3.11,2.50
47.0420,0.06,0.11,-0.99,2.81,2.99,2.69
47.0560,0.06,0.11,-0.99,3.05,3.11,3.11
47.0720,0.07,0.11,-0.99,2.93,2.99,2.81
47.0750,0.07,0.11,-0.99,2.99,2.99,2.32
47.0910,0.07,0.11,-0.99,3.11,3.54,2.32
47.1130,0.06,0.11,-0.99,3.23,3.05,2.26
47.1290,0.06,0.11,-0.99,2.99,3.23,2.32
47.1460,0.07,0.11,-0.99,2.93,3.11,2.69
47.1620,0.06,0.11,-0.99,2.93,2.99,2.50
47.1790,0.07,0.11,-0.99,2.93,2.81,2.69
47.1950,0.07,0.11,-0.99,2.81,3.11,2.62
47.2110,0.06,0.11,-0.99,2.93,3.05,2.38
47.2120,0.06,0.11,-0.99,2.87,3.17,2.26
47.2280,0.06,0.11,-0.99,2.99,3.05,2.01
47.2580,0.07,0.11,-0.99,3.17,2.69,2.44
47.2730,0.07,0.11,-0.99,2.93,2.75,3.05
47.2770,0.06,0.11,-0.99,2.87,3.17,3.11
47.3040,0.06,0.11,-0.99,2.75,3.05,3.17
47.3110,0.07,0.10,-0.99,2.81,3.23,3.30
47.3260,0.07,0.11,-0.99,2.99,2.99,2.62
47.3500,0.07,0.11,-0.99,3.11,3.17,2.38
47.3510,0.07,0.11,-0.99,3.11,3.17,2.44
47.3690,0.06,0.11,-0.99,2.75,3.11,3.05
47.3960,0.07,0.11,-0.99,2.87,2.93,3.91
47.4110,0.07,0.11,-0.99,2.87,3.23,3.42
47.4260,0.07,0.11,-0.99,3.05,3.23,3.17
47.4420,0.07,0.10,-0.99,3.05,3.36,2.44
47.4580,0.07,0.11,-0.99,3.17,3.05,2.38
47.4730,0.07,0.11,-0.99,3.05,2.99,2.50
47.4890,0.06,0.11,-0.99,3.11,3.30,2.62
47.5030,0.07,0.10,-0.99,2.99,3.17,2.69
47.5140,0.07,0.11,-0.99,3.11,3.05,1.95
47.5300,0.07,0.11,-0.99,3.23,3.23,1.83
47.5460,0.07,0.11,-0.99,3.17,2.99,2.08
47.5620,0.07,0.10,-0.99,3.36,3.05,2.62
47.5660,0.07,0.11,-0.99,3.48,3.42,2.56
47.5930,0.07,0.11,-0.99,3.30,3.42,2.38
47.5960,0.07,0.11,-0.99,3.17,3.48,2.01
47.6110,0.07,0.11,-0.99,3.17,3.42,1.71
