Timestamp, AccX, AccY, AccZ, GyroX, GyroY, GyroZ
0.0110,0.09,0.13,-0.98,2.87,0.92,1.40
0.0270,0.09,0.13,-0.98,3.11,0.24,1.46
0.0410,0.09,0.13,-0.98,3.17,0.06,1.40
0.0560,0.09,0.13,-0.98,3.23,0.00,1.34
0.0660,0.09,0.13,-0.98,3.30,0.67,1.53
0.0840,0.09,0.13,-0.98,3.42,0.49,1.59
0.1000,0.09,0.13,-0.98,3.36,0.55,1.53
0.1160,0.09,0.13,-0.98,3.42,0.24,1.53
0.1310,0.09,0.13,-0.98,3.48,0.24,1.53
0.1460,0.09,0.13,-0.98,3.36,0.06,1.59
0.1610,0.09,0.13,-0.98,3.48,0.12,1.46
0.1660,0.09,0.13,-0.98,3.36,0.12,1.34
0.1840,0.09,0.13,-0.98,3.48,-0.06,1.46
0.2060,0.09,0.13,-0.98,3.23,0.55,1.53
0.2170,0.09,0.13,-0.98,3.30,0.00,1.40
0.2330,0.09,0.13,-0.98,3.42,0.00,1.40
0.2500,0.09,0.13,-0.98,3.36,-0.12,1.46
0.2660,0.09,0.13,-0.98,3.48,0.12,1.46
0.2810,0.09,0.13,-0.98,3.36,0.18,1.53
0.2960,0.09,0.13,-0.98,3.36,0.00,1.46
0.3110,0.09,0.13,-0.98,3.36,-0.18,1.46
0.3260,0.09,0.13,-0.98,3.42,0.12,1.40
0.3330,0.09,0.13,-0.98,3.30,0.06,1.46
0.3490,0.09,0.13,-0.98,3.36,0.31,1.40
0.3690,0.09,0.13,-0.98,3.36,0.37,1.59
0.3860,0.09,0.13,-0.98,3.23,0.37,1.46
0.4010,0.09,0.13,-0.98,3.30,0.12,1.40
0.4170,0.08,0.13,-0.98,3.36,0.37,1.53
0.4330,0.09,0.13,-0.98,3.42,0.12,1.46
0.4360,0.09,0.13,-0.98,3.23,0.73,1.59
0.4510,0.09,0.13,-0.98,3.30,0.49,1.46
0.4800,0.09,0.13,-0.98,3.48,0.43,1.59
0.4950,0.09,0.13,-0.98,3.30,0.31,1.53
0.5070,0.09,0.13,-0.98,3.36,0.24,1.53
0.5250,0.09,0.13,-0.98,3.36,0.31,1.65
0.5390,0.09,0.13,-0.98,3.30,0.24,1.40
0.5570,0.09,0.13,-0.98,3.17,0.00,1.40
0.5730,0.09,0.13,-0.98,3.23,0.49,1.34
0.5740,0.09,0.13,-0.98,3.36,0.55,1.59
0.6040,0.09,0.13,-0.98,3.30,0.31,1.59
0.6070,0.09,0.13,-0.98,3.36,0.24,1.46
0.6260,0.09,0.13,-0.98,3.36,0.61,1.46
0.6500,0.09,0.13,-0.98,3.23,0.67,1.53
0.6610,0.09,0.13,-0.98,3.30,-0.43,1.46
0.6780,0.09,0.13,-0.98,3.42,0.00,1.46
0.6950,0.09,0.13,-0.98,3.36,0.31,1.53
0.7110,0.09,0.13,-0.98,3.23,0.55,1.46
0.7260,0.09,0.13,-0.98,3.30,0.18,1.53
0.7420,0.09,0.13,-0.98,3.36,0.24,1.53
0.7580,0.09,0.13,-0.98,3.23,0.18,1.34
0.7730,0.09,0.13,-0.98,3.36,-0.06,1.40
0.7890,0.09,0.13,-0.98,3.17,0.00,1.40
0.8040,0.09,0.13,-0.98,3.30,0.31,1.53
0.8180,0.09,0.13,-0.98,3.30,0.37,1.53
0.8280,0.09,0.13,-0.98,3.36,0.06,1.53
0.8440,0.09,0.13,-0.98,3.17,-0.12,1.71
0.8630,0.09,0.13,-0.98,3.30,0.24,1.59
0.8790,0.09,0.13,-0.98,3.30,0.55,1.59
0.8940,0.09,0.13,-0.98,3.42,-0.12,1.46
0.9100,0.09,0.13,-0.98,3.42,0.31,1.59
0.9260,0.09,0.13,-0.98,3.30,0.12,1.65
0.9290,0.09,0.13,-0.98,3.42,-0.06,1.46
0.9520,0.09,0.13,-0.98,3.17,0.37,1.53
0.9700,0.09,0.13,-0.98,3.36,0.43,1.59
0.9850,0.09,0.13,-0.98,3.42,-0.18,1.28
1.0020,0.09,0.13,-0.98,3.42,-0.06,1.53
1.0180,0.09,0.13,-0.98,3.48,-0.37,1.46
1.0330,0.09,0.13,-0.98,3.42,-0.18,1.34
1.0500,0.09,0.13,-0.98,3.48,0.24,1.53
1.0520,0.09,0.13,-0.98,3.54,0.24,1.53
1.0680,0.09,0.13,-0.98,3.30,0.24,1.53
1.0950,0.09,0.13,-0.98,3.42,0.12,1.53
1.1060,0.09,0.13,-0.98,3.54,0.00,1.53
1.1260,0.09,0.13,-0.98,3.42,-0.12,1.40
1.1390,0.09,0.13,-0.98,3.36,-0.06,1.40
1.1560,0.09,0.13,-0.98,3.30,0.55,1.59
1.1730,0.09,0.13,-0.98,3.36,0.18,1.53
1.1890,0.09,0.13,-0.98,3.36,0.24,1.59
1.2040,0.09,0.13,-0.98,3.48,0.31,1.65
1.2200,0.09,0.13,-0.98,3.23,-0.06,1.40
1.2260,0.09,0.13,-0.98,3.54,-0.24,1.40
1.2380,0.09,0.13,-0.98,3.48,0.18,1.46
1.2540,0.09,0.13,-0.98,3.48,0.06,1.53
1.2690,0.09,0.14,-0.98,3.60,0.00,1.40
1.2970,0.09,0.13,-0.98,3.42,0.00,1.40
1.3110,0.09,0.13,-0.98,3.54,0.37,1.59
1.3270,0.09,0.13,-0.98,3.54,-0.24,1.59
1.3430,0.09,0.13,-0.98,3.42,0.49,1.53
1.3500,0.09,0.14,-0.98,3.66,0.12,1.53
1.3650,0.07,0.12,-0.94,3.48,0.24,1.34
1.3850,0.09,0.14,-0.99,3.30,0.31,1.40
1.4020,0.08,0.14,-0.98,3.48,0.06,1.28
1.4190,0.09,0.13,-0.98,3.48,0.18,1.46
1.4350,0.09,0.13,-0.98,3.42,0.18,1.46
1.4520,0.09,0.13,-0.98,3.30,0.00,1.59
1.4670,0.09,0.13,-0.98,3.30,0.18,1.59
1.4830,0.09,0.13,-0.98,3.36,0.06,1.46
1.4850,0.09,0.13,-0.98,3.23,0.43,1.53
1.5130,0.09,0.13,-0.98,3.42,0.12,1.40
1.5260,0.09,0.13,-0.98,3.30,0.43,1.53
1.5420,0.09,0.13,-0.98,3.17,0.31,1.59
1.5590,0.09,0.13,-0.98,3.42,0.49,1.34
1.5740,0.09,0.13,-0.98,3.36,-0.12,1.40
1.5900,0.09,0.13,-0.98,3.30,0.12,1.34
1.6060,0.09,0.13,-0.98,3.30,-0.12,1.40
1.6220,0.09,0.13,-0.98,3.30,-0.24,1.46
1.6260,0.09,0.13,-0.98,3.42,0.12,1.28
1.6420,0.09,0.13,-0.98,3.30,0.24,1.46
1.6570,0.09,0.13,-0.98,3.23,0.43,1.53
1.6810,0.09,0.13,-0.98,3.30,0.24,1.65
1.6980,0.09,0.13,-0.98,3.30,0.00,1.59
1.7140,0.09,0.13,-0.98,3.48,-0.24,1.46
1.7290,0.09,0.13,-0.98,3.48,0.12,1.65
1.7440,0.09,0.13,-0.98,3.42,0.18,1.59
1.7590,0.09,0.13,-0.98,3.48,0.37,1.46
1.7740,0.09,0.13,-0.98,3.54,-0.18,1.46
1.7890,0.09,0.13,-0.98,3.42,-0.18,1.46
1.8050,0.09,0.13,-0.98,3.42,0.18,1.46
1.8210,0.09,0.13,-0.98,3.54,-0.06,1.59
1.8310,0.09,0.13,-0.98,3.36,0.12,1.34
1.8480,0.09,0.13,-0.98,3.48,-0.43,1.40
1.8640,0.09,0.13,-0.98,3.36,-0.12,1.59
1.8810,0.09,0.13,-0.98,3.42,0.06,1.53
1.8980,0.09,0.14,-0.98,3.30,-0.24,1.34
1.9140,0.09,0.13,-0.98,3.42,0.12,1.40
1.9290,0.09,0.13,-0.98,3.36,0.31,1.40
1.9440,0.09,0.13,-0.98,3.60,0.12,1.46
1.9590,0.09,0.13,-0.98,3.36,0.37,1.77
1.9740,0.09,0.13,-0.98,3.30,0.49,1.65
1.9890,0.09,0.13,-0.98,3.60,0.31,1.46
2.0040,0.09,0.13,-0.98,3.11,0.55,1.59
2.0190,0.09,0.14,-0.98,3.30,0.67,1.46
2.0320,0.09,0.13,-0.98,3.48,0.31,1.46
2.0480,0.09,0.13,-0.98,3.42,0.24,1.40
2.0640,0.09,0.13,-0.98,3.48,-0.18,1.65
2.0800,0.09,0.13,-0.98,3.66,-0.12,1.40
2.0940,0.09,0.13,-0.98,3.42,0.18,1.40
2.0990,0.09,0.13,-0.98,3.36,0.06,1.40
2.1140,0.09,0.13,-0.98,3.54,0.12,1.53
2.1400,0.09,0.13,-0.98,3.48,-0.18,1.40
2.1530,0.09,0.13,-0.98,3.30,0.49,1.53
2.1700,0.09,0.13,-0.98,3.54,0.43,1.59
2.1860,0.09,0.13,-0.98,3.54,0.18,1.59
2.2010,0.09,0.13,-0.98,3.23,0.18,1.46
2.2170,0.09,0.13,-0.98,3.36,0.18,1.59
2.2260,0.09,0.14,-0.98,3.48,0.24,1.59
2.2480,0.09,0.13,-0.98,3.30,0.31,1.53
2.2540,0.09,0.13,-0.98,3.30,0.06,1.59
2.2700,0.09,0.13,-0.98,3.42,0.37,1.65
2.2930,0.09,0.14,-0.98,3.36,0.18,1.53
2.3090,0.09,0.13,-0.98,3.36,0.49,1.40
2.3240,0.09,0.13,-0.98,3.42,0.31,1.59
2.3410,0.09,0.13,-0.98,3.42,0.37,1.40
2.3560,0.09,0.13,-0.98,3.36,0.12,1.34
2.3720,0.09,0.14,-0.98,3.30,0.31,1.28
2.3880,0.09,0.13,-0.98,3.36,0.43,1.53
2.4040,0.09,0.13,-0.98,3.23,0.12,1.46
2.4200,0.09,0.13,-0.98,3.42,0.00,1.34
2.4350,0.09,0.13,-0.98,3.30,0.49,1.34
2.4430,0.09,0.13,-0.98,3.36,-0.12,1.46
2.4660,0.09,0.13,-0.98,3.36,0.06,1.46
2.4760,0.09,0.13,-0.98,3.42,0.49,1.53
2.4930,0.09,0.13,-0.98,3.42,0.43,1.53
2.5110,0.09,0.13,-0.98,3.23,0.55,1.59
2.5270,0.09,0.13,-0.98,3.05,0.24,1.40
2.5270,0.09,0.13,-0.98,3.17,0.18,1.34
2.5570,0.09,0.13,-0.98,3.48,0.12,1.46
2.5720,0.09,0.13,-0.98,3.36,0.06,1.46
2.5840,0.09,0.13,-0.98,3.23,0.31,1.65
2.6000,0.09,0.13,-0.98,3.30,0.37,1.59
2.6170,0.09,0.14,-0.98,3.17,0.24,1.46
2.6330,0.09,0.13,-0.98,3.17,0.43,1.40
2.6500,0.09,0.13,-0.98,3.11,-0.06,1.34
2.6660,0.09,0.13,-0.98,3.42,0.31,1.59
2.6830,0.09,0.13,-0.98,3.42,0.18,1.65
2.6990,0.09,0.13,-0.98,3.30,0.31,1.34
2.7150,0.09,0.13,-0.98,3.42,0.12,1.53
2.7300,0.09,0.13,-0.98,3.42,0.12,1.46
2.7450,0.09,0.13,-0.98,3.30,0.24,1.59
2.7500,0.09,0.13,-0.98,3.23,0.61,1.71
2.7660,0.09,0.13,-0.98,3.23,0.18,1.53
2.7890,0.09,0.13,-0.98,3.17,0.31,1.59
2.8060,0.08,0.16,-0.98,2.93,0.31,2.26
2.8230,0.09,0.14,-0.98,2.93,-0.43,5.92
2.8390,0.09,0.14,-0.98,2.99,-0.31,6.16
2.8560,0.09,0.13,-0.98,2.99,-0.49,5.68
2.8710,0.09,0.13,-0.98,3.11,0.00,5.62
2.8870,0.09,0.13,-0.98,3.36,-0.18,5.37
2.9030,0.09,0.13,-0.98,3.23,0.00,4.70
2.9200,0.09,0.13,-0.98,3.36,-0.31,3.91
2.9350,0.09,0.12,-0.98,3.05,0.24,3.85
2.9520,0.09,0.14,-0.98,3.30,-0.06,3.54
2.9560,0.09,0.13,-0.98,3.23,-0.06,3.60
2.9720,0.09,0.14,-0.98,3.23,-0.06,3.42
2.9970,0.09,0.14,-0.98,3.11,0.06,3.72
3.0120,0.09,0.13,-0.98,3.11,-0.31,3.91
3.0280,0.09,0.13,-0.98,3.05,0.24,3.97
3.0430,0.09,0.13,-0.98,3.11,-0.18,3.91
3.0580,0.09,0.14,-0.98,2.93,0.31,3.97
3.0730,0.09,0.14,-0.98,3.05,-0.18,4.58
3.0880,0.10,0.18,-0.97,2.87,-0.18,4.94
3.0960,0.09,0.16,-0.98,3.48,-0.37,6.84
3.1130,0.09,0.14,-0.98,2.56,-0.24,8.12
3.1290,0.08,0.13,-0.98,3.11,-0.06,6.23
3.1460,0.09,0.11,-0.98,3.05,-0.55,7.02
3.1620,0.09,0.14,-0.98,2.87,-0.06,5.00
3.1790,0.08,0.10,-0.99,3.42,-0.12,4.58
3.1940,0.09,0.12,-0.99,3.05,-0.12,3.66
3.2100,0.09,0.13,-0.98,3.30,0.18,1.95
3.2250,0.09,0.13,-0.98,3.48,0.24,1.46
3.2400,0.09,0.13,-0.98,3.36,-0.06,1.53
3.2570,0.09,0.13,-0.98,3.36,0.37,1.46
3.2730,0.09,0.13,-0.98,3.23,0.43,1.65
3.2880,0.09,0.13,-0.98,3.48,0.06,1.53
3.3020,0.09,0.13,-0.98,3.48,0.12,1.53
3.3180,0.09,0.13,-0.98,3.60,0.06,1.53
3.3290,0.09,0.13,-0.98,3.30,0.18,1.53
3.3460,0.09,0.13,-0.98,3.42,-0.12,1.53
3.3620,0.09,0.13,-0.98,3.23,0.37,1.59
3.3780,0.09,0.13,-0.98,3.30,0.06,1.40
3.3940,0.09,0.13,-0.98,3.23,0.12,1.34
3.4100,0.09,0.13,-0.98,3.42,0.24,1.46
3.4120,0.09,0.13,-0.98,3.60,0.37,1.53
3.4280,0.09,0.13,-0.98,3.60,-0.06,1.46
3.4540,0.09,0.13,-0.98,3.54,0.00,1.53
3.4700,0.09,0.13,-0.98,3.36,-0.06,1.40
3.4870,0.09,0.13,-0.98,3.48,0.00,1.53
3.4890,0.09,0.13,-0.98,3.17,0.00,1.28
3.5190,0.09,0.13,-0.98,3.36,-0.18,1.59
3.5350,0.09,0.13,-0.98,3.60,-0.06,1.40
3.5390,0.09,0.13,-0.98,3.54,0.31,1.46
3.5670,0.09,0.13,-0.98,3.30,0.18,1.65
3.5720,0.09,0.13,-0.98,3.30,0.24,1.59
3.5880,0.09,0.13,-0.98,3.30,0.24,1.46
3.6110,0.09,0.13,-0.98,3.42,-0.06,1.40
3.6270,0.09,0.13,-0.98,3.30,0.31,1.53
3.6430,0.09,0.13,-0.98,3.36,-0.06,1.40
3.6460,0.09,0.13,-0.98,3.36,-0.06,1.46
3.6610,0.09,0.13,-0.98,3.36,0.49,1.59
3.6840,0.09,0.13,-0.98,3.17,0.37,1.59
3.7010,0.09,0.13,-0.98,3.23,0.24,1.65
3.7170,0.09,0.13,-0.98,3.42,0.18,1.53
3.7340,0.09,0.13,-0.98,3.30,-0.06,1.53
3.7510,0.09,0.13,-0.98,3.42,0.06,1.40
3.7670,0.09,0.13,-0.98,3.36,0.31,1.53
3.7840,0.09,0.13,-0.98,3.36,0.43,1.65
3.7990,0.09,0.16,-0.98,3.30,-0.24,3.91
3.8150,0.09,0.14,-0.98,3.11,-0.67,5.92
3.8300,0.09,0.13,-0.98,2.81,-0.31,5.62
3.8440,0.07,0.12,-0.98,3.30,0.00,4.52
3.8600,0.09,0.14,-0.98,3.17,-0.31,7.14
3.8740,0.09,0.14,-0.98,2.87,-0.24,7.32
3.8890,0.09,0.13,-0.98,3.05,-0.73,7.63
3.9000,0.08,0.11,-0.98,2.81,-0.43,7.08
3.9170,0.08,0.12,-0.98,3.17,-0.06,5.25
3.9330,0.08,0.11,-0.98,3.05,-0.12,5.00
3.9500,0.08,0.12,-0.98,3.17,0.12,3.17
3.9660,0.09,0.13,-0.98,3.30,0.73,2.44
3.9820,0.09,0.13,-0.98,3.42,0.67,1.65
3.9980,0.09,0.13,-0.98,3.30,0.79,1.83
4.0130,0.09,0.13,-0.98,3.23,0.37,1.83
4.0280,0.09,0.14,-0.98,3.36,0.12,1.95
4.0440,0.09,0.14,-0.98,3.36,0.37,2.20
4.0590,0.09,0.14,-0.98,3.54,0.37,2.62
4.0740,0.08,0.13,-0.98,3.23,0.37,2.93
4.0840,0.09,0.13,-0.98,3.17,0.18,2.62
4.0990,0.09,0.13,-0.98,3.36,0.31,2.69
4.1210,0.09,0.13,-0.98,3.23,0.37,2.26
4.1370,0.09,0.14,-0.98,3.17,0.24,2.56
4.1530,0.09,0.14,-0.98,3.23,0.61,2.87
4.1670,0.08,0.14,-0.98,3.30,0.37,3.36
4.1820,0.10,0.16,-0.98,2.87,-0.24,4.64
4.1890,0.08,0.13,-0.98,3.11,0.31,5.55
4.2050,0.09,0.13,-0.98,2.69,0.49,5.13
4.2270,0.09,0.12,-0.98,2.87,0.00,4.33
4.2430,0.08,0.12,-0.98,3.17,0.24,3.11
4.2580,0.09,0.12,-0.98,3.42,0.24,2.62
4.2620,0.09,0.13,-0.98,3.42,0.24,1.89
4.2780,0.09,0.13,-0.98,3.42,0.37,1.71
4.3000,0.09,0.13,-0.98,3.23,0.61,1.59
4.3160,0.09,0.13,-0.98,3.30,0.55,1.53
4.3320,0.09,0.13,-0.98,3.36,0.31,1.65
4.3500,0.09,0.13,-0.98,3.48,0.31,1.59
4.3660,0.09,0.13,-0.98,3.30,0.12,1.53
4.3820,0.09,0.13,-0.98,3.30,0.43,1.46
4.3990,0.09,0.13,-0.98,3.30,0.43,1.65
4.4140,0.09,0.15,-0.98,3.48,0.06,2.14
4.4300,0.10,0.17,-0.97,3.17,-0.18,3.72
4.4460,0.10,0.16,-0.98,2.93,-0.06,5.19
4.4600,0.09,0.14,-0.98,3.23,-0.24,5.43
4.4750,0.09,0.12,-0.98,3.23,-0.31,5.86
4.4900,0.09,0.13,-0.98,2.93,-0.24,5.43
4.5050,0.09,0.14,-0.98,3.11,0.12,5.25
4.5160,0.09,0.14,-0.98,3.23,-0.37,5.13
4.5320,0.09,0.13,-0.98,3.05,-0.18,5.37
4.5490,0.09,0.14,-0.98,3.11,-0.49,4.88
4.5660,0.09,0.13,-0.98,3.05,-0.49,5.00
4.5820,0.08,0.13,-0.98,2.99,-0.31,4.82
4.5980,0.09,0.13,-0.98,2.93,-0.31,4.94
4.6150,0.08,0.13,-0.98,3.23,-0.49,4.88
4.6310,0.08,0.13,-0.98,3.11,-0.31,3.85
4.6460,0.09,0.13,-0.98,3.23,0.06,3.30
4.6610,0.09,0.13,-0.98,3.30,0.12,2.87
4.6770,0.09,0.13,-0.98,3.11,-0.06,3.11
4.6820,0.09,0.14,-0.98,3.23,0.00,3.48
4.6980,0.09,0.14,-0.98,2.99,-0.18,4.15
4.7220,0.09,0.14,-0.98,2.99,-0.06,4.33
4.7380,0.08,0.12,-0.98,3.17,-0.12,4.58
4.7540,0.09,0.13,-0.98,3.11,0.06,3.60
4.7690,0.08,0.13,-0.98,3.36,-0.12,3.66
4.7850,0.09,0.14,-0.98,3.17,-0.49,3.85
4.8010,0.09,0.13,-0.98,3.11,-0.12,4.39
4.8170,0.09,0.13,-0.98,3.11,-0.12,4.03
4.8320,0.09,0.13,-0.98,3.11,-0.37,3.60
4.8470,0.09,0.13,-0.98,3.11,0.06,4.09
4.8620,0.08,0.13,-0.98,3.11,0.06,3.48
4.8770,0.09,0.12,-0.98,3.05,0.61,3.54
4.8890,0.08,0.12,-0.98,3.17,0.49,2.87
4.9050,0.09,0.13,-0.98,3.36,0.00,2.08
4.9220,0.09,0.13,-0.98,3.48,0.37,2.08
4.9380,0.09,0.14,-0.98,3.30,0.43,2.14
4.9540,0.09,0.13,-0.98,3.30,0.61,2.08
4.9700,0.09,0.15,-0.98,3.05,0.31,2.01
4.9860,0.09,0.14,-0.98,3.30,0.00,2.62
4.9880,0.09,0.14,-0.98,3.05,0.31,3.17
5.0040,0.09,0.13,-0.98,3.23,0.06,3.36
5.0300,0.09,0.14,-0.98,3.17,0.06,3.48
5.0450,0.09,0.14,-0.98,2.99,0.06,3.54
5.0630,0.09,0.14,-0.98,3.23,-0.18,3.97
5.0630,0.09,0.14,-0.98,3.11,0.18,4.33
5.0790,0.09,0.13,-0.98,3.17,-0.12,4.52
5.0960,0.08,0.13,-0.98,3.23,-0.24,4.46
5.1250,0.08,0.13,-0.98,3.23,-0.12,3.60
5.1400,0.09,0.13,-0.98,3.30,0.06,3.60
5.1550,0.09,0.14,-0.98,3.11,-0.18,3.78
5.1700,0.09,0.14,-0.98,3.17,0.06,4.09
5.1820,0.09,0.13,-0.98,2.93,0.31,4.27
5.1980,0.09,0.13,-0.98,3.30,-0.37,3.91
5.2150,0.08,0.13,-0.98,3.23,-0.31,3.66
5.2310,0.09,0.13,-0.98,3.36,0.06,3.05
5.2470,0.09,0.14,-0.98,3.30,0.00,3.05
5.2630,0.09,0.14,-0.98,3.23,-0.37,3.66
5.2780,0.09,0.14,-0.98,3.11,-0.12,4.03
5.2930,0.09,0.13,-0.98,3.23,-0.18,3.97
5.3090,0.09,0.14,-0.98,2.87,0.18,3.91
5.3250,0.09,0.14,-0.98,3.11,0.12,4.09
5.3320,0.09,0.14,-0.98,3.17,0.06,4.33
5.3480,0.08,0.13,-0.98,3.11,-0.24,4.46
5.3730,0.09,0.13,-0.98,3.11,0.06,4.64
5.3880,0.09,0.14,-0.98,3.11,-0.18,4.70
5.4050,0.08,0.13,-0.98,3.11,0.00,4.70
5.4210,0.09,0.13,-0.98,3.05,0.00,4.64
5.4370,0.08,0.14,-0.98,3.05,0.12,4.64
5.4530,0.09,0.13,-0.98,3.11,-0.55,5.13
5.4560,0.09,0.14,-0.98,2.87,-0.24,5.19
5.4850,0.09,0.13,-0.98,3.05,-0.43,5.43
5.5010,0.09,0.13,-0.98,3.05,-0.24,5.43
5.5170,0.08,0.12,-0.98,3.11,-0.06,5.07
5.5310,0.08,0.13,-0.98,3.11,-0.31,4.15
5.5490,0.09,0.14,-0.98,3.17,-0.31,4.21
5.5640,0.09,0.14,-0.98,3.05,-0.12,5.13
5.5730,0.09,0.14,-0.98,2.75,-0.37,5.86
5.5890,0.08,0.13,-0.98,2.75,-0.24,6.23
5.6060,0.09,0.13,-0.98,2.62,-0.06,6.23
5.6230,0.09,0.13,-0.98,2.93,0.18,5.25
5.6390,0.08,0.13,-0.98,2.99,-0.12,4.64
5.6560,0.08,0.13,-0.98,3.17,0.18,4.15
5.6730,0.09,0.13,-0.98,2.93,-0.06,3.60
5.6740,0.08,0.13,-0.98,3.11,0.12,3.36
5.6890,0.08,0.13,-0.98,3.11,0.06,3.54
5.7070,0.08,0.13,-0.98,2.93,0.18,3.30
5.7310,0.08,0.13,-0.98,3.17,0.12,3.05
5.7530,0.09,0.14,-0.98,3.17,0.00,3.11
5.7690,0.09,0.14,-0.98,3.05,0.18,3.23
5.7850,0.08,0.14,-0.98,3.11,0.06,4.15
5.7890,0.08,0.14,-0.98,2.81,0.06,4.52
5.8040,0.09,0.14,-0.98,2.93,0.12,4.76
5.8300,0.09,0.12,-0.98,2.87,-0.61,5.00
5.8460,0.09,0.12,-0.98,2.93,0.00,3.85
5.8460,0.09,0.12,-0.98,3.17,-0.18,3.30
5.8770,0.09,0.13,-0.98,2.93,0.24,2.87
5.8790,0.09,0.14,-0.98,3.05,0.37,3.17
5.8950,0.08,0.16,-0.97,2.99,0.18,3.36
5.9230,0.09,0.14,-0.98,2.87,0.18,4.88
5.9350,0.09,0.15,-0.98,2.93,-0.18,4.70
5.9500,0.08,0.14,-0.98,2.87,0.06,4.94
5.9670,0.08,0.13,-0.98,2.93,0.18,5.00
5.9840,0.09,0.12,-0.98,2.93,0.24,4.88
6.0000,0.09,0.13,-0.98,2.87,-0.18,3.60
6.0160,0.09,0.13,-0.98,3.11,-0.06,3.36
6.0310,0.09,0.13,-0.98,3.17,-0.18,2.99
6.0460,0.09,0.13,-0.98,3.36,0.12,2.99
6.0610,0.09,0.13,-0.98,3.17,0.31,2.56
6.0770,0.09,0.13,-0.98,3.42,0.12,2.56
6.0920,0.08,0.13,-0.98,3.30,-0.12,2.20
6.1070,0.08,0.13,-0.98,3.42,0.12,2.01
6.1170,0.09,0.13,-0.98,3.36,0.49,2.01
6.1340,0.08,0.13,-0.99,3.30,0.43,1.83
6.1510,0.08,0.13,-0.98,3.36,0.24,1.53
6.1670,0.09,0.13,-0.98,2.99,0.67,1.28
6.1840,0.10,0.13,-0.98,3.23,0.37,1.28
6.2000,0.09,0.13,-0.98,3.30,0.43,1.46
6.2160,0.09,0.13,-0.98,3.42,0.12,1.34
6.2330,0.09,0.13,-0.98,3.60,0.06,1.53
6.2490,0.09,0.13,-0.98,3.36,0.37,1.53
6.2650,0.09,0.13,-0.98,3.30,0.12,1.65
6.2810,0.08,0.14,-0.98,3.17,-0.06,1.65
6.2980,0.08,0.14,-0.98,3.17,0.24,3.91
6.3130,0.09,0.14,-0.98,2.81,0.00,4.09
6.3280,0.09,0.13,-0.98,3.30,0.18,3.42
6.3440,0.09,0.12,-0.98,3.17,0.24,2.75
6.3580,0.09,0.12,-0.98,3.11,0.06,2.08
6.3730,0.09,0.13,-0.98,3.23,0.31,2.08
6.3840,0.09,0.13,-0.98,3.30,0.06,1.65
6.4010,0.08,0.14,-0.98,3.17,0.37,1.65
6.4180,0.08,0.14,-0.98,3.23,0.43,2.56
6.4340,0.08,0.14,-0.98,3.23,0.00,3.36
6.4500,0.09,0.14,-0.98,3.05,0.12,3.85
6.4660,0.09,0.13,-0.98,3.17,0.06,3.97
6.4810,0.09,0.13,-0.98,3.17,0.06,3.48
6.4960,0.08,0.14,-0.98,3.23,-0.37,3.72
6.5110,0.09,0.15,-0.98,2.87,-0.18,5.62
6.5270,0.08,0.13,-0.98,2.93,-0.37,5.98
6.5420,0.09,0.14,-0.98,3.30,-0.43,6.16
6.5560,0.09,0.12,-0.98,3.42,-0.31,4.82
6.5680,0.09,0.11,-0.98,3.36,0.12,2.87
6.5840,0.09,0.12,-0.98,3.23,0.37,1.71
6.6010,0.09,0.13,-0.98,3.48,0.37,1.65
6.6170,0.08,0.13,-0.98,3.42,-0.24,1.46
6.6340,0.08,0.13,-0.98,3.23,0.37,1.65
6.6500,0.09,0.13,-0.98,3.11,0.55,1.65
6.6650,0.09,0.14,-0.98,3.36,0.24,1.95
6.6820,0.09,0.14,-0.98,3.23,0.31,2.56
6.6980,0.09,0.14,-0.98,3.36,0.12,2.75
6.7130,0.09,0.14,-0.98,3.36,0.49,3.05
6.7280,0.09,0.14,-0.98,3.17,-0.06,3.60
6.7450,0.09,0.16,-0.98,3.23,-0.06,4.58
6.7600,0.09,0.15,-0.98,3.05,-0.61,7.69
6.7750,0.08,0.13,-0.98,2.87,-0.73,8.30
6.7900,0.08,0.12,-0.99,3.05,-0.49,7.63
6.8020,0.08,0.12,-0.98,3.23,-0.24,6.65
6.8180,0.08,0.12,-0.98,2.99,-0.18,6.16
6.8340,0.09,0.12,-0.98,3.17,-0.12,5.43
6.8520,0.08,0.13,-0.98,2.99,-0.18,5.00
6.8670,0.08,0.14,-0.98,2.93,-0.18,5.86
6.8830,0.09,0.13,-0.98,2.93,-0.06,5.92
6.8900,0.09,0.12,-0.98,3.05,0.00,4.70
6.9080,0.08,0.11,-0.98,2.99,0.37,4.21
6.9240,0.08,0.12,-0.98,3.23,0.18,2.44
6.9440,0.08,0.12,-0.98,3.48,0.37,2.14
6.9600,0.08,0.13,-0.98,3.60,0.12,1.53
6.9760,0.09,0.13,-0.98,3.17,0.67,1.53
6.9900,0.09,0.15,-0.98,3.48,0.18,2.01
7.0070,0.09,0.15,-0.98,3.42,0.18,3.91
7.0220,0.09,0.14,-0.98,3.05,-0.18,4.46
7.0380,0.09,0.13,-0.98,3.23,0.00,3.97
7.0540,0.09,0.13,-0.98,3.30,-0.06,3.30
7.0700,0.08,0.13,-0.98,3.36,0.00,3.66
7.0860,0.08,0.13,-0.98,3.17,0.18,3.60
7.1020,0.09,0.13,-0.98,3.23,0.00,3.91
7.1170,0.09,0.13,-0.98,3.11,-0.31,3.36
7.1320,0.08,0.13,-0.98,3.23,0.31,2.99
7.1440,0.09,0.13,-0.98,3.42,0.24,2.50
7.1590,0.09,0.13,-0.98,3.05,0.37,2.20
7.1760,0.09,0.14,-0.98,3.42,-0.24,2.87
7.1930,0.09,0.14,-0.98,3.30,-0.24,3.78
7.2090,0.09,0.14,-0.98,3.11,-0.18,4.27
7.2230,0.08,0.13,-0.98,3.05,-0.12,4.52
7.2390,0.09,0.13,-0.98,3.17,-0.37,4.39
7.2550,0.08,0.12,-0.98,3.30,0.18,3.60
7.2700,0.08,0.13,-0.98,3.05,0.24,2.81
7.2870,0.08,0.14,-0.98,3.17,0.31,3.42
7.3010,0.09,0.14,-0.98,3.17,0.06,4.52
7.3100,0.08,0.14,-0.98,3.30,-0.18,5.07
7.3330,0.09,0.13,-0.98,2.87,-0.18,5.25
7.3490,0.08,0.12,-0.98,3.17,-0.06,4.82
7.3650,0.08,0.12,-0.98,3.30,0.00,3.78
7.3800,0.08,0.12,-0.98,3.23,0.00,2.87
7.3950,0.08,0.14,-0.98,3.23,0.37,2.87
7.4110,0.08,0.14,-0.98,3.17,0.43,4.03
7.4170,0.09,0.14,-0.98,3.11,0.12,4.39
7.4430,0.09,0.13,-0.98,3.11,0.24,4.82
7.4590,0.09,0.13,-0.98,3.30,-0.37,4.39
7.4740,0.08,0.12,-0.98,3.42,0.18,3.72
7.4890,0.08,0.13,-0.98,3.11,0.18,3.23
7.5000,0.08,0.13,-0.98,3.23,0.55,3.66
7.5170,0.09,0.14,-0.98,3.17,-0.06,4.27
7.5340,0.09,0.14,-0.98,3.42,0.12,4.82
7.5500,0.09,0.14,-0.98,3.36,-0.24,5.13
7.5670,0.09,0.13,-0.98,3.23,-0.31,4.82
7.5830,0.09,0.12,-0.98,3.11,0.12,4.52
7.5980,0.08,0.13,-0.98,3.23,0.31,3.66
7.6150,0.08,0.13,-0.98,3.17,-0.06,3.60
7.6310,0.08,0.14,-0.98,3.17,0.12,4.33
7.6460,0.08,0.14,-0.98,3.17,-0.18,4.88
7.6610,0.08,0.13,-0.98,3.11,-0.67,5.00
7.6750,0.08,0.13,-0.98,3.30,-0.06,5.07
7.6910,0.09,0.13,-0.98,2.99,0.12,4.39
7.7060,0.09,0.13,-0.98,3.23,0.00,3.85
7.7160,0.09,0.13,-0.98,3.17,0.18,3.85
7.7340,0.08,0.14,-0.98,3.23,-0.12,3.97
7.7500,0.08,0.12,-0.98,3.23,-0.12,4.09
7.7660,0.08,0.12,-0.98,3.17,0.18,3.60
7.7830,0.09,0.13,-0.98,3.23,0.37,2.81
7.8000,0.08,0.14,-0.98,3.42,0.37,2.62
7.8160,0.08,0.14,-0.98,3.30,0.24,3.05
7.8310,0.08,0.14,-0.98,3.17,0.12,3.78
7.8470,0.09,0.13,-0.98,3.23,-0.06,3.97
7.8610,0.08,0.13,-0.98,3.23,-0.31,3.85
7.8670,0.08,0.12,-0.98,3.11,0.31,3.60
7.8910,0.08,0.13,-0.98,3.30,0.31,3.05
7.9060,0.09,0.13,-0.98,3.17,0.31,2.62
7.9160,0.08,0.14,-0.98,3.23,0.18,2.81
7.9340,0.09,0.14,-0.98,3.36,-0.24,3.05
7.9510,0.08,0.14,-0.98,3.05,-0.06,3.91
7.9570,0.08,0.13,-0.98,3.11,0.00,4.58
7.9730,0.09,0.13,-0.98,2.93,-0.24,4.52
7.9880,0.09,0.12,-0.98,2.93,-0.12,4.39
8.0080,0.08,0.13,-0.98,3.05,-0.12,3.78
8.0250,0.08,0.13,-0.98,3.17,-0.06,3.85
8.0430,0.08,0.14,-0.98,2.99,0.06,3.72
8.0580,0.08,0.14,-0.98,3.05,0.18,3.97
8.0740,0.09,0.14,-0.98,3.05,0.18,4.09
8.0910,0.09,0.14,-0.98,3.23,-0.06,4.46
8.1060,0.08,0.13,-0.98,2.99,-0.18,4.58
8.1230,0.09,0.13,-0.98,2.99,-0.06,4.33
8.1350,0.08,0.13,-0.98,3.11,-0.12,4.15
8.1550,0.09,0.14,-0.98,3.30,-0.49,4.09
8.1710,0.09,0.14,-0.98,3.36,-0.06,4.58
8.1870,0.08,0.13,-0.98,3.05,-0.43,4.58
8.1920,0.08,0.13,-0.98,2.87,0.24,4.46
8.2190,0.08,0.13,-0.98,3.05,0.00,3.85
8.2250,0.08,0.13,-0.98,2.99,-0.06,3.60
8.2490,0.08,0.13,-0.98,3.36,-0.24,3.66
8.2580,0.08,0.14,-0.98,3.23,0.06,3.91
8.2740,0.09,0.13,-0.98,2.93,0.00,4.27
8.2940,0.08,0.11,-0.98,3.05,-0.24,2.81
8.3090,0.08,0.12,-0.98,3.17,0.06,2.08
8.3140,0.08,0.13,-0.98,3.30,-0.12,1.59
8.3360,0.08,0.13,-0.98,3.23,0.24,1.59
8.3530,0.08,0.13,-0.98,3.42,0.24,1.65
8.3710,0.08,0.14,-0.98,3.17,-0.12,1.77
8.3870,0.09,0.14,-0.98,3.54,0.12,2.62
8.4030,0.08,0.14,-0.98,3.23,0.31,3.23
8.4030,0.08,0.13,-0.98,3.30,0.31,3.30
8.4210,0.08,0.13,-0.98,3.17,0.12,2.75
8.4370,0.08,0.13,-0.98,3.48,0.24,2.50
8.4540,0.08,0.14,-0.98,3.42,0.24,2.14
8.4700,0.08,0.14,-0.98,3.48,0.31,3.54
8.4980,0.09,0.13,-0.98,3.05,0.12,4.21
8.5130,0.09,0.13,-0.98,3.23,-0.24,3.48
8.5240,0.08,0.13,-0.98,3.30,0.00,3.11
8.5400,0.09,0.13,-0.98,3.17,0.37,3.05
8.5570,0.08,0.14,-0.98,3.30,0.24,2.99
8.5730,0.07,0.17,-0.99,2.93,-0.06,4.58
8.5890,0.09,0.17,-0.98,2.56,-0.55,7.63
8.5900,0.09,0.14,-0.98,2.62,-0.55,8.00
8.6070,0.08,0.13,-0.98,2.69,-0.67,6.90
8.6230,0.08,0.12,-0.98,2.69,-0.24,5.80
8.6490,0.08,0.11,-0.98,2.81,-0.06,4.64
8.6640,0.08,0.12,-0.98,3.11,0.06,3.48
8.6780,0.08,0.14,-0.98,3.17,-0.37,2.87
8.6900,0.08,0.14,-0.98,3.11,-0.06,3.85
8.7080,0.08,0.15,-0.98,2.87,0.00,4.76
8.7230,0.08,0.15,-0.98,2.62,0.06,5.80
8.7390,0.09,0.14,-0.98,2.75,-0.61,6.71
8.7400,0.08,0.12,-0.98,2.56,-0.06,6.90
8.7580,0.09,0.13,-0.98,2.87,-0.12,6.23
8.7860,0.08,0.12,-0.98,3.05,-0.67,5.31
8.8030,0.08,0.12,-0.98,3.11,0.18,4.15
8.8180,0.08,0.12,-0.98,3.05,0.43,3.30
8.8240,0.08,0.13,-0.98,3.23,0.31,2.81
8.8500,0.08,0.13,-0.98,3.17,0.61,3.17
8.8570,0.08,0.13,-0.98,3.11,0.61,2.62
8.8730,0.08,0.13,-0.98,3.11,0.49,2.50
8.8970,0.09,0.15,-0.98,3.36,0.55,2.56
8.9120,0.08,0.13,-0.98,3.30,-0.18,3.30
8.9280,0.09,0.14,-0.98,3.30,0.00,3.85
8.9430,0.08,0.12,-0.98,3.23,0.06,3.48
8.9470,0.08,0.13,-0.98,3.42,-0.12,2.99
8.9740,0.08,0.13,-0.98,3.30,-0.18,3.11
8.9840,0.08,0.14,-0.98,3.30,0.00,3.36
9.0000,0.08,0.14,-0.98,3.05,0.12,4.03
9.0170,0.08,0.13,-0.98,2.81,-0.06,4.39
9.0340,0.08,0.13,-0.98,3.17,0.00,4.27
9.0500,0.09,0.13,-0.98,3.17,-0.12,3.72
9.0660,0.08,0.13,-0.98,3.11,-0.06,3.48
9.0830,0.08,0.13,-0.98,3.17,0.24,2.81
9.0990,0.08,0.13,-0.98,3.11,0.37,2.62
9.1010,0.08,0.14,-0.98,3.05,0.12,2.87
9.1160,0.08,0.14,-0.98,3.11,0.12,3.30
9.1390,0.08,0.13,-0.98,3.05,-0.06,3.85
9.1570,0.08,0.14,-0.98,3.11,0.18,4.21
9.1720,0.09,0.13,-0.98,3.11,0.00,4.39
9.1890,0.09,0.13,-0.98,3.11,0.12,4.52
9.2070,0.08,0.13,-0.98,3.11,0.12,3.78
9.2220,0.08,0.14,-0.98,3.23,0.06,4.03
9.2380,0.09,0.15,-0.98,3.48,-0.43,5.07
9.2550,0.08,0.13,-0.98,3.17,-0.79,5.68
9.2710,0.08,0.12,-0.98,3.11,-0.43,5.55
9.2870,0.08,0.12,-0.98,3.17,-0.37,4.82
9.3030,0.08,0.12,-0.98,3.17,-0.49,4.64
9.3190,0.08,0.13,-0.98,3.23,0.43,3.78
9.3340,0.08,0.13,-0.98,3.36,-0.24,2.93
9.3500,0.09,0.14,-0.98,3.42,-0.18,3.17
9.3660,0.09,0.14,-0.98,3.17,-0.06,4.21
9.3820,0.09,0.13,-0.98,3.05,0.00,4.58
9.3970,0.08,0.12,-0.98,3.48,-0.31,4.70
9.4120,0.08,0.12,-0.99,3.23,-0.31,3.85
9.4220,0.08,0.13,-0.98,3.42,-0.31,3.60
9.4400,0.08,0.13,-0.98,3.36,-0.31,3.78
9.4550,0.08,0.14,-0.98,3.36,0.37,3.78
9.4730,0.08,0.14,-0.98,3.30,-0.12,3.91
9.4890,0.08,0.13,-0.98,3.17,-0.67,3.85
9.4900,0.08,0.13,-0.98,3.36,-0.12,3.23
9.5200,0.08,0.14,-0.98,3.36,0.43,3.36
9.5360,0.08,0.13,-0.98,3.23,0.00,3.54
9.5510,0.08,0.13,-0.98,3.11,0.49,3.30
9.5550,0.09,0.14,-0.98,3.05,0.18,3.30
9.5710,0.08,0.14,-0.98,3.42,0.12,3.85
9.5930,0.08,0.14,-0.98,3.30,-0.24,4.09
9.6090,0.09,0.14,-0.98,3.17,-0.12,4.09
9.6270,0.09,0.13,-0.98,3.17,-0.37,4.33
9.6420,0.08,0.13,-0.98,3.30,0.00,4.21
9.6580,0.08,0.13,-0.98,3.23,-0.18,3.48
9.6750,0.08,0.13,-0.98,3.30,-0.12,3.36
9.6900,0.08,0.12,-0.98,3.11,0.12,2.50
9.7060,0.08,0.13,-0.98,3.36,0.06,2.08
9.7230,0.08,0.14,-0.98,3.36,0.37,2.50
9.7390,0.09,0.14,-0.98,3.30,0.18,3.48
9.7550,0.09,0.14,-0.98,3.30,-0.37,3.91
9.7710,0.09,0.13,-0.98,3.11,-0.12,4.03
9.7870,0.08,0.14,-0.98,3.42,-0.12,3.72
9.8030,0.08,0.13,-0.98,3.30,0.31,3.54
9.8190,0.08,0.13,-0.98,3.30,-0.12,3.36
9.8340,0.08,0.13,-0.98,3.23,0.18,2.87
9.8490,0.08,0.13,-0.98,3.36,-15.56,2.50
9.8600,0.08,0.14,-0.98,3.36,0.06,2.62
9.8770,0.08,0.14,-0.98,3.30,-0.31,3.17
9.8930,0.09,0.15,-0.98,3.17,-0.43,4.09
9.9100,0.08,0.14,-0.98,2.99,-0.61,5.80
9.9260,0.08,0.12,-0.98,3.11,-0.49,5.55
9.9410,0.08,0.11,-0.98,3.17,-0.61,5.13
9.9440,0.08,0.12,-0.98,3.05,0.31,3.11
9.9730,0.08,0.13,-0.98,3.30,0.24,2.32
9.9890,0.08,0.13,-0.98,3.36,0.18,1.83
9.9940,0.08,0.14,-0.98,3.42,0.31,1.65
10.0180,0.08,0.15,-0.98,3.11,0.00,2.38
10.0340,0.09,0.14,-0.98,3.36,0.18,3.23
10.0430,0.08,0.14,-0.98,3.11,-0.31,3.05
10.0600,0.08,0.13,-0.98,3.17,0.31,2.93
10.0770,0.09,0.14,-0.98,3.30,-0.18,2.93
10.0930,0.08,0.14,-0.98,3.48,0.00,3.17
10.1090,0.08,0.14,-0.98,3.23,-0.24,3.30
10.1110,0.08,0.13,-0.98,3.30,-0.12,3.42
10.1390,0.08,0.13,-0.98,3.11,0.00,2.81
10.1540,0.09,0.14,-0.98,3.36,0.00,2.44
10.1700,0.08,0.13,-0.98,3.11,0.31,2.32
10.1850,0.09,0.14,-0.98,3.23,0.55,2.20
10.1930,0.09,0.15,-0.98,3.30,0.12,3.05
10.2090,0.08,0.14,-0.98,3.05,0.18,4.27
10.2310,0.08,0.12,-0.98,3.42,-0.61,4.70
10.2470,0.08,0.13,-0.98,3.11,0.43,2.26
10.2620,0.08,0.14,-0.98,3.85,0.12,1.53
10.2780,0.09,0.14,-0.98,3.72,0.18,1.53
10.2930,0.08,0.14,-0.98,3.30,0.18,1.40
10.3090,0.08,0.13,-0.98,3.30,0.67,1.46
10.3250,0.08,0.13,-0.98,3.36,0.06,1.40
10.3380,0.09,0.14,-0.98,3.42,0.18,1.53
10.3470,0.08,0.14,-0.98,3.42,0.31,1.46
10.3700,0.08,0.14,-0.98,3.30,0.31,1.53
10.3870,0.08,0.14,-0.98,3.23,0.55,1.59
10.4040,0.08,0.13,-0.98,3.30,-0.24,1.28
10.4190,0.08,0.14,-0.98,3.30,0.24,1.46
10.4200,0.09,0.14,-0.98,3.30,-0.06,1.34
10.4380,0.08,0.13,-0.98,3.42,-0.12,2.62
10.4540,0.08,0.13,-0.98,3.30,0.06,2.99
10.4700,0.08,0.13,-0.98,3.30,0.12,1.95
10.4860,0.08,0.13,-0.98,3.54,0.18,1.40
10.5030,0.08,0.14,-0.98,3.30,0.37,1.59
10.5310,0.08,0.13,-0.98,3.23,0.31,1.53
10.5460,0.08,0.13,-0.98,3.36,0.00,1.40
10.5540,0.08,0.14,-0.98,3.42,0.43,1.53
10.5690,0.08,0.14,-0.98,3.36,0.49,1.53
10.5920,0.08,0.14,-0.98,3.36,0.73,1.59
10.6080,0.08,0.14,-0.98,3.30,0.37,1.46
10.6240,0.08,0.14,-0.98,3.42,0.12,1.59
10.6400,0.08,0.13,-0.98,3.30,0.24,1.46
10.6560,0.08,0.13,-0.98,3.11,0.00,1.34
10.6720,0.08,0.14,-0.98,3.36,0.79,1.40
10.6870,0.08,0.14,-0.98,3.48,0.12,1.59
10.7020,0.08,0.14,-0.98,3.36,0.18,1.46
10.7180,0.08,0.14,-0.98,3.36,0.31,1.53
10.7360,0.08,0.14,-0.98,3.30,0.55,1.46
10.7510,0.08,0.14,-0.98,3.48,0.55,1.53
10.7660,0.08,0.13,-0.98,3.48,0.31,1.46
10.7800,0.08,0.13,-0.98,3.48,0.49,1.53
10.7910,0.08,0.14,-0.98,3.30,0.67,1.53
10.8090,0.08,0.14,-0.98,3.36,0.92,1.59
10.8250,0.08,0.14,-0.98,3.17,0.73,1.59
10.8400,0.08,0.13,-0.98,3.23,0.55,1.59
10.8550,0.08,0.14,-0.98,3.42,0.37,1.34
10.8710,0.08,0.14,-0.98,3.54,0.18,1.46
10.8860,0.08,0.14,-0.98,3.36,0.49,1.40
10.9010,0.08,0.14,-0.98,3.48,0.55,1.46
10.9160,0.08,0.14,-0.98,3.48,0.49,1.53
10.9250,0.08,0.14,-0.98,3.42,0.37,1.40
10.9420,0.08,0.14,-0.98,3.48,0.37,1.59
10.9590,0.08,0.14,-0.98,3.42,0.61,1.53
10.9760,0.08,0.14,-0.98,3.36,0.49,1.65
10.9900,0.08,0.14,-0.98,3.30,0.31,1.59
11.0050,0.08,0.14,-0.98,3.23,0.24,1.46
11.0210,0.08,0.14,-0.98,3.36,0.31,1.53
11.0360,0.08,0.14,-0.98,3.30,0.24,1.46
11.0500,0.08,0.14,-0.98,3.11,0.24,1.53
11.0650,0.08,0.14,-0.98,3.42,0.79,1.46
11.0750,0.08,0.14,-0.98,3.30,0.43,1.46
11.0930,0.08,0.14,-0.98,3.30,0.12,1.46
11.1100,0.08,0.14,-0.98,3.23,0.24,1.46
11.1260,0.08,0.14,-0.98,3.23,0.55,1.46
11.1420,0.08,0.14,-0.98,3.42,0.18,1.46
11.1580,0.08,0.14,-0.98,3.17,0.49,1.40
11.1730,0.08,0.14,-0.98,3.23,0.12,1.65
11.1900,0.08,0.14,-0.98,3.30,0.49,1.53
11.2060,0.08,0.14,-0.98,3.42,0.37,1.46
11.2220,0.09,0.14,-0.98,3.36,0.55,1.53
11.2380,0.08,0.14,-0.98,3.36,0.37,1.53
11.2540,0.08,0.14,-0.98,3.36,0.37,1.53
11.2600,0.08,0.14,-0.98,3.30,0.18,1.53
11.2750,0.08,0.14,-0.98,3.23,0.49,1.53
11.3000,0.08,0.14,-0.98,3.48,0.37,1.40
11.3000,0.08,0.14,-0.98,3.30,-0.18,1.40
11.3300,0.08,0.14,-0.98,3.54,0.18,1.59
11.3440,0.08,0.14,-0.98,3.42,0.24,1.53
11.3600,0.08,0.14,-0.98,3.42,0.61,1.65
11.3660,0.08,0.14,-0.98,3.23,0.31,1.53
11.3900,0.08,0.14,-0.98,3.42,0.43,1.65
11.3990,0.08,0.13,-0.98,3.30,0.24,1.65
11.4150,0.08,0.14,-0.98,3.30,0.24,1.53
11.4310,0.08,0.14,-0.98,3.30,0.37,1.59
11.4490,0.09,0.14,-0.98,3.30,0.43,1.46
11.4640,0.08,0.14,-0.98,3.42,0.18,1.28
11.4660,0.08,0.14,-0.98,3.48,0.37,1.40
11.4950,0.08,0.14,-0.98,3.36,0.67,1.53
11.5100,0.08,0.14,-0.98,3.30,0.61,1.40
11.5260,0.08,0.13,-0.98,3.17,0.49,1.46
11.5410,0.08,0.13,-0.98,3.30,0.43,1.83
11.5560,0.08,0.14,-0.98,3.48,0.18,1.59
11.5720,0.08,0.14,-0.98,3.30,0.55,1.65
11.5820,0.08,0.14,-0.98,3.48,0.18,1.65
11.5980,0.09,0.14,-0.98,3.36,0.31,1.59
11.6150,0.09,0.14,-0.98,3.48,0.24,1.71
11.6310,0.09,0.14,-0.98,3.42,0.31,1.59
11.6490,0.09,0.14,-0.98,3.30,0.37,1.59
11.6650,0.08,0.14,-0.98,3.42,0.18,1.71
11.6800,0.08,0.14,-0.98,3.36,0.43,1.59
11.6960,0.08,0.14,-0.98,3.30,0.49,1.53
11.7110,0.08,0.14,-0.98,3.42,0.18,1.65
11.7260,0.08,0.14,-0.98,3.36,0.61,1.46
11.7420,0.08,0.14,-0.98,3.30,0.49,1.46
11.7580,0.08,0.14,-0.98,3.30,0.24,1.53
11.7730,0.08,0.14,-0.98,3.30,0.24,1.46
11.7880,0.08,0.14,-0.98,3.48,0.24,1.59
11.8030,0.08,0.14,-0.98,3.23,0.18,1.53
11.8150,0.08,0.14,-0.98,3.36,0.37,1.46
11.8310,0.08,0.14,-0.98,3.17,0.24,1.46
11.8480,0.09,0.14,-0.98,3.42,0.31,1.53
11.8650,0.09,0.14,-0.98,3.17,0.06,1.53
11.8810,0.08,0.14,-0.98,3.17,0.61,1.53
11.8970,0.09,0.14,-0.98,3.42,0.06,1.46
11.9140,0.08,0.14,-0.98,3.36,0.61,1.59
11.9290,0.09,0.14,-0.98,3.30,0.24,1.53
11.9450,0.09,0.14,-0.98,3.30,0.31,1.59
11.9600,0.08,0.14,-0.98,3.30,0.61,1.40
11.9760,0.08,0.14,-0.98,3.30,0.49,1.53
11.9920,0.08,0.14,-0.98,3.23,0.37,1.59
12.0080,0.08,0.14,-0.98,3.42,0.67,1.46
12.0220,0.08,0.14,-0.98,3.54,0.73,1.46
12.0380,0.09,0.14,-0.98,3.36,0.31,1.53
12.0490,0.09,0.14,-0.98,3.36,0.49,1.46
12.0650,0.08,0.14,-0.98,3.23,0.24,1.53
12.0830,0.08,0.14,-0.98,3.23,0.43,1.71
12.0970,0.09,0.14,-0.98,3.42,0.31,1.53
12.0990,0.09,0.14,-0.98,3.42,0.55,1.59
12.1290,0.09,0.14,-0.98,3.42,0.37,1.46
12.1440,0.09,0.14,-0.98,3.36,0.49,1.28
12.1600,0.07,0.13,-0.98,3.23,0.24,1.46
12.1760,0.09,0.14,-0.98,3.54,0.37,1.34
12.1910,0.09,0.14,-0.98,3.60,0.18,1.28
12.2060,0.09,0.14,-0.98,3.42,0.67,1.10
12.2220,0.08,0.14,-0.98,3.36,0.18,1.04
12.2320,0.09,0.14,-0.98,3.48,0.18,0.92
12.2480,0.09,0.14,-0.98,3.42,0.55,1.04
12.2650,0.08,0.14,-0.98,3.48,0.55,1.10
12.2810,0.08,0.14,-0.98,3.36,0.43,1.16
12.2980,0.09,0.14,-0.98,3.72,0.61,1.28
12.3150,0.09,0.14,-0.98,3.54,0.37,0.98
12.3300,0.09,0.14,-0.98,3.42,0.37,0.98
12.3450,0.09,0.14,-0.98,3.36,0.49,0.85
12.3490,0.08,0.14,-0.98,3.48,0.43,0.98
12.3640,0.08,0.14,-0.98,3.60,0.37,1.04
12.3900,0.08,0.14,-0.98,3.60,0.49,0.98
12.4010,0.09,0.14,-0.98,3.36,0.67,1.10
12.4180,0.08,0.14,-0.98,3.42,0.12,1.04
12.4340,0.08,0.14,-0.98,3.66,0.12,1.10
12.4500,0.09,0.14,-0.98,3.23,0.37,1.10
12.4660,0.08,0.14,-0.98,3.60,0.31,0.98
12.4680,0.09,0.14,-0.98,3.60,0.18,1.04
12.4960,0.08,0.14,-0.98,3.17,0.43,0.92
12.5110,0.08,0.14,-0.98,3.36,0.24,0.98
12.5270,0.08,0.14,-0.98,3.54,0.49,1.22
12.5430,0.08,0.14,-0.98,3.48,0.61,1.34
12.5580,0.08,0.14,-0.98,3.30,0.12,1.28
12.5670,0.09,0.14,-0.98,3.36,0.00,1.34
12.5890,0.09,0.14,-0.98,3.23,0.43,1.16
12.6000,0.08,0.14,-0.98,3.54,0.43,1.04
12.6160,0.08,0.14,-0.98,3.72,0.67,0.79
12.6340,0.08,0.14,-0.98,3.66,0.24,0.79
12.6400,0.09,0.14,-0.98,3.60,0.55,1.04
12.6570,0.09,0.14,-0.98,3.42,0.43,0.73
12.6730,0.09,0.13,-0.98,3.48,0.31,0.67
12.6950,0.08,0.14,-0.98,3.23,0.49,0.92
12.7120,0.08,0.14,-0.98,3.48,0.49,1.16
12.7270,0.09,0.14,-0.98,3.48,0.61,1.22
12.7420,0.09,0.14,-0.98,3.42,0.67,1.28
12.7580,0.09,0.14,-0.98,3.48,0.31,0.98
12.7620,0.09,0.14,-0.98,3.54,0.31,0.85
12.7770,0.08,0.14,-0.98,3.54,0.67,0.98
12.7980,0.09,0.14,-0.98,3.54,0.79,1.04
12.8150,0.08,0.14,-0.98,3.54,0.31,0.85
12.8320,0.09,0.14,-0.98,3.48,0.43,0.92
12.8480,0.08,0.14,-0.98,3.42,0.37,0.92
12.8640,0.08,0.14,-0.98,3.36,0.55,0.85
12.8800,0.08,0.14,-0.98,3.54,0.12,0.92
12.8960,0.09,0.14,-0.98,3.42,0.55,0.92
12.9120,0.11,0.14,-0.98,3.42,0.43,0.85
12.9270,0.08,0.14,-0.98,3.54,0.49,0.61
12.9420,0.08,0.14,-0.98,3.60,0.55,0.61
12.9580,0.09,0.14,-0.98,3.42,0.61,0.37
12.9640,0.09,0.14,-0.98,3.66,0.67,0.31
12.9800,0.09,0.14,-0.98,3.30,0.79,0.18
12.9990,0.07,0.14,-0.98,3.54,0.55,0.24
13.0160,0.08,0.14,-0.98,3.54,0.18,0.37
13.0320,0.07,0.14,-0.98,3.36,0.85,0.67
13.0480,0.09,0.14,-0.98,3.48,0.18,0.92
13.0640,0.09,0.14,-0.98,3.54,0.61,0.92
13.0800,0.09,0.14,-0.98,3.48,0.37,0.73
13.0950,0.08,0.14,-0.98,3.36,0.18,0.79
13.1090,0.08,0.14,-0.98,3.42,0.37,0.85
13.1250,0.09,0.14,-0.98,3.66,0.79,0.98
13.1400,0.09,0.14,-0.98,3.66,0.24,0.61
13.1550,0.08,0.14,-0.98,3.60,0.67,0.61
13.1660,0.09,0.14,-0.98,3.66,0.49,0.67
13.1820,0.09,0.14,-0.98,3.66,0.61,0.43
13.1990,0.08,0.14,-0.98,3.66,0.55,0.12
13.2150,0.08,0.14,-0.98,3.60,0.73,0.43
13.2320,0.08,0.14,-0.98,3.48,0.31,0.49
13.2480,0.08,0.14,-0.98,3.54,0.43,0.73
13.2650,0.09,0.14,-0.98,3.54,0.92,0.67
13.2810,0.09,0.14,-0.98,3.78,0.67,-0.06
13.2970,0.09,0.14,-0.98,3.66,0.73,-0.49
13.3120,0.08,0.14,-0.98,3.72,0.61,-0.43
13.3270,0.09,0.14,-0.98,3.66,0.67,-0.31
13.3430,0.09,0.14,-0.98,3.91,0.61,-0.31
13.3580,0.08,0.14,-0.98,3.78,0.92,-0.49
13.3670,0.08,0.14,-0.98,3.66,0.73,-0.12
13.3880,0.08,0.14,-0.98,3.54,0.67,0.37
13.3990,0.09,0.14,-0.98,3.54,0.67,0.55
13.4160,0.09,0.14,-0.98,3.42,0.37,0.06
13.4320,0.08,0.14,-0.98,3.48,0.49,0.06
13.4490,0.08,0.14,-0.98,3.30,0.55,0.18
13.4650,0.08,0.14,-0.98,3.17,0.67,0.67
13.4790,0.08,0.14,-0.98,3.17,0.31,0.73
13.4940,0.09,0.14,-0.98,3.36,0.37,0.61
13.5090,0.08,0.14,-0.98,3.36,0.73,0.61
13.5250,0.09,0.14,-0.98,3.23,0.49,0.61
13.5400,0.08,0.14,-0.98,3.17,0.73,0.67
13.5550,0.08,0.14,-0.98,3.23,0.61,0.98
13.5660,0.09,0.14,-0.98,3.66,0.24,0.79
13.5820,0.10,0.14,-0.98,3.78,0.55,-0.18
13.5990,0.10,0.14,-0.98,3.72,0.85,-1.16
13.6150,0.08,0.14,-0.98,3.30,0.85,-1.46
13.6320,0.07,0.14,-0.98,3.30,0.92,-0.73
13.6490,0.07,0.14,-0.98,3.30,0.73,0.18
13.6650,0.08,0.14,-0.98,3.36,0.31,1.10
13.6820,0.08,0.14,-0.98,3.11,0.49,1.46
13.6970,0.09,0.14,-0.98,3.36,0.73,1.71
13.7140,0.09,0.14,-0.98,3.30,0.55,1.65
13.7300,0.09,0.14,-0.98,3.42,0.37,1.53
13.7470,0.08,0.14,-0.98,3.11,0.37,1.40
13.7620,0.08,0.14,-0.98,3.11,0.61,1.59
13.7770,0.08,0.14,-0.98,3.30,0.18,1.59
13.7930,0.09,0.14,-0.98,3.36,0.61,1.53
13.8000,0.09,0.14,-0.98,3.23,0.06,1.53
13.8230,0.09,0.14,-0.98,3.30,0.24,1.40
13.8330,0.08,0.14,-0.98,3.36,0.18,1.46
13.8500,0.08,0.14,-0.98,3.36,0.37,1.46
13.8660,0.08,0.14,-0.98,3.42,0.37,1.53
13.8820,0.08,0.14,-0.98,3.23,0.43,1.59
13.8990,0.09,0.14,-0.98,3.30,0.31,1.53
13.9140,0.09,0.14,-0.98,3.11,0.00,1.46
13.9310,0.08,0.14,-0.98,3.30,0.43,1.34
13.9460,0.08,0.14,-0.98,3.30,0.79,1.34
13.9610,0.08,0.14,-0.98,3.17,0.61,1.34
13.9760,0.08,0.14,-0.98,3.30,0.61,1.40
13.9910,0.08,0.14,-0.98,3.30,0.12,1.22
14.0060,0.08,0.14,-0.98,3.60,0.06,1.53
14.0150,0.09,0.14,-0.98,3.60,0.31,1.59
14.0310,0.09,0.14,-0.98,3.42,0.43,1.34
14.0530,0.09,0.14,-0.98,3.17,0.43,1.22
14.0530,0.09,0.14,-0.98,3.30,0.24,1.10
14.0830,0.08,0.14,-0.98,3.30,0.55,1.04
14.0880,0.08,0.14,-0.98,3.42,0.55,1.28
14.1040,0.08,0.14,-0.98,3.23,0.67,1.28
14.1320,0.08,0.14,-0.98,3.36,0.55,1.34
14.1400,0.09,0.14,-0.98,3.36,0.61,1.53
14.1530,0.09,0.14,-0.98,3.36,0.31,1.53
14.1740,0.09,0.14,-0.98,3.23,0.49,1.40
14.1910,0.09,0.14,-0.98,3.30,0.18,1.46
14.2070,0.09,0.14,-0.98,3.60,0.37,1.34
14.2230,0.09,0.14,-0.98,3.30,0.49,1.28
14.2400,0.09,0.14,-0.98,3.36,0.37,1.22
14.2410,0.09,0.14,-0.98,3.36,0.31,1.28
14.2700,0.08,0.14,-0.98,3.17,0.43,1.22
14.2860,0.08,0.14,-0.98,3.60,0.43,1.46
14.3020,0.08,0.14,-0.98,3.60,0.43,1.46
14.3180,0.09,0.14,-0.98,3.36,0.37,1.28
14.3330,0.09,0.14,-0.98,3.23,0.37,1.16
14.3480,0.09,0.14,-0.98,3.17,0.55,1.04
14.3640,0.08,0.14,-0.98,3.30,0.67,1.22
14.3740,0.08,0.14,-0.98,3.23,0.55,1.34
14.3900,0.08,0.12,-0.96,3.36,0.31,1.53
14.4070,0.08,0.14,-0.99,2.87,0.67,1.53
14.4240,0.10,0.14,-0.97,3.60,0.49,1.59
14.4400,0.05,0.15,-1.00,3.11,0.31,1.59
14.4410,0.09,0.14,-0.99,3.30,0.55,1.53
14.4720,0.08,0.14,-0.97,2.99,0.37,1.28
14.4880,0.08,0.14,-0.99,2.99,0.43,1.59
14.5040,0.09,0.14,-0.97,3.48,0.49,1.53
14.5190,0.09,0.13,-0.98,3.11,0.43,1.59
14.5340,0.11,0.13,-0.98,3.23,0.18,1.65
14.5400,0.09,0.14,-0.98,3.23,0.31,1.59
14.5560,0.09,0.14,-0.98,3.36,0.43,1.65
14.5790,0.08,0.14,-0.98,3.17,0.55,1.71
14.5940,0.08,0.14,-0.98,3.05,0.67,1.53
14.6100,0.08,0.14,-0.98,3.11,0.67,1.59
14.6260,0.08,0.14,-0.98,3.23,0.49,1.40
14.6400,0.09,0.14,-0.98,3.30,0.61,1.65
14.6420,0.08,0.14,-0.98,3.42,0.55,1.53
14.6710,0.09,0.14,-0.98,3.11,0.67,1.34
14.6860,0.09,0.14,-0.98,3.11,0.61,1.34
14.6910,0.09,0.14,-0.98,3.54,0.73,1.46
14.7180,0.08,0.14,-0.98,3.23,0.67,1.40
14.7330,0.08,0.14,-0.98,3.11,0.73,1.28
14.7500,0.08,0.14,-0.98,3.36,0.37,1.46
14.7660,0.08,0.14,-0.98,3.54,0.49,1.53
14.7810,0.09,0.14,-0.98,3.48,0.43,1.53
14.7960,0.08,0.14,-0.98,3.17,0.67,1.46
14.8070,0.09,0.14,-0.98,3.11,0.92,1.40
14.8240,0.08,0.14,-0.98,3.30,0.43,1.40
14.8400,0.08,0.14,-0.98,3.30,0.92,1.65
14.8570,0.08,0.14,-0.98,3.36,0.55,1.53
14.8720,0.08,0.14,-0.98,3.23,0.55,1.59
14.8880,0.09,0.14,-0.98,3.30,0.79,1.46
14.9040,0.09,0.14,-0.98,3.23,0.43,1.40
14.9180,0.09,0.14,-0.98,3.17,0.37,1.65
14.9240,0.09,0.14,-0.98,3.42,0.92,1.65
14.9400,0.08,0.14,-0.98,3.36,0.85,1.53
14.9640,0.09,0.14,-0.98,3.48,0.18,1.53
14.9740,0.09,0.14,-0.98,3.30,0.43,1.59
14.9910,0.09,0.14,-0.98,3.23,0.49,1.53
15.0080,0.08,0.14,-0.98,3.17,0.55,1.34
15.0240,0.08,0.14,-0.98,3.54,0.24,1.65
15.0390,0.09,0.14,-0.97,3.66,0.31,1.53
15.0410,0.08,0.14,-0.99,3.30,0.67,1.53
15.0710,0.10,0.14,-0.97,3.78,0.18,1.59
15.0850,0.09,0.14,-0.98,3.05,0.73,1.46
15.0900,0.09,0.14,-0.98,3.48,0.55,1.46
15.1060,0.07,0.14,-0.99,3.54,0.00,1.53
15.1270,0.08,0.14,-0.99,3.05,0.18,1.46
15.1440,0.09,0.14,-0.98,3.54,0.24,1.40
15.1610,0.08,0.14,-0.98,3.42,0.49,1.53
15.1760,0.09,0.14,-0.98,3.48,0.49,1.46
15.1930,0.08,0.14,-0.98,3.17,0.31,1.40
15.2080,0.09,0.14,-0.98,3.17,0.61,1.40
15.2220,0.08,0.14,-0.98,3.17,0.55,1.40
15.2380,0.08,0.14,-0.98,3.36,0.55,1.34
15.2530,0.08,0.14,-0.98,3.48,0.55,1.34
15.2680,0.09,0.14,-0.98,3.36,0.18,1.40
15.2830,0.09,0.14,-0.98,3.30,0.49,1.40
15.2940,0.09,0.14,-0.98,3.30,0.55,1.46
15.3110,0.08,0.14,-0.98,3.36,0.37,1.46
15.3290,0.09,0.14,-0.98,3.05,0.49,1.46
15.3450,0.08,0.13,-0.98,3.23,0.18,1.53
15.3590,0.09,0.14,-0.98,3.23,0.49,1.28
15.3750,0.09,0.14,-0.98,3.17,0.67,1.46
15.3920,0.09,0.14,-0.98,3.23,0.49,1.28
15.4070,0.09,0.14,-0.98,3.05,0.31,1.10
15.4110,0.08,0.14,-0.98,3.17,0.24,1.28
15.4380,0.08,0.14,-0.98,3.30,-0.43,1.10
15.4500,0.08,0.14,-0.98,3.30,0.24,1.28
15.4670,0.09,0.14,-0.98,3.36,0.67,1.53
15.4830,0.09,0.14,-0.98,3.36,0.43,1.22
15.5000,0.09,0.14,-0.98,3.23,0.43,1.10
15.5160,0.08,0.14,-0.98,3.30,0.49,1.40
15.5320,0.08,0.14,-0.98,3.23,0.49,1.40
15.5480,0.08,0.14,-0.98,3.23,0.31,1.46
15.5640,0.08,0.14,-0.98,3.48,0.55,1.46
15.5660,0.09,0.14,-0.98,3.48,0.31,1.40
15.5820,0.08,0.14,-0.98,3.36,0.55,1.28
15.6070,0.09,0.14,-0.98,3.23,0.79,1.34
15.6240,0.08,0.14,-0.98,3.30,0.67,1.46
15.6400,0.09,0.14,-0.98,3.42,0.55,1.28
15.6560,0.09,0.14,-0.98,3.36,0.24,1.40
15.6720,0.09,0.14,-0.98,3.42,-0.06,1.28
15.6870,0.09,0.14,-0.98,3.42,0.37,1.40
15.6900,0.09,0.14,-0.98,3.48,0.43,1.22
15.7180,0.09,0.14,-0.98,3.42,0.49,1.46
15.7340,0.08,0.14,-0.98,3.30,0.37,1.28
15.7500,0.09,0.14,-0.98,3.17,0.18,1.16
15.7660,0.09,0.14,-0.98,3.48,0.06,1.28
15.7810,0.09,0.14,-0.98,3.36,0.43,1.16
15.7960,0.09,0.14,-0.98,3.42,0.55,1.28
15.8060,0.09,0.14,-0.98,3.30,0.92,1.04
15.8230,0.09,0.14,-0.98,3.48,0.49,1.04
15.8400,0.09,0.14,-0.98,3.42,0.24,0.92
15.8570,0.08,0.14,-0.98,3.23,0.43,1.22
15.8720,0.08,0.14,-0.98,3.23,0.24,1.04
15.8880,0.08,0.14,-0.98,3.23,0.37,0.98
15.9040,0.08,0.14,-0.98,3.11,0.61,1.22
15.9190,0.08,0.14,-0.98,3.30,0.73,1.22
15.9230,0.08,0.14,-0.98,3.30,0.18,1.10
15.9410,0.08,0.14,-0.98,3.54,0.12,1.28
15.9620,0.08,0.14,-0.98,3.54,0.85,1.22
15.9790,0.08,0.14,-0.98,3.42,0.73,1.40
15.9950,0.09,0.14,-0.98,3.48,0.61,1.46
16.0120,0.09,0.14,-0.98,3.48,0.67,1.53
16.0270,0.09,0.14,-0.98,3.23,0.73,1.40
16.0430,0.09,0.14,-0.98,3.23,0.79,1.34
16.0580,0.09,0.14,-0.98,3.42,0.61,1.34
16.0620,0.09,0.14,-0.98,3.48,0.67,1.16
16.0770,0.09,0.14,-0.98,3.48,0.79,1.16
16.1010,0.09,0.14,-0.98,3.36,0.43,1.10
16.1180,0.08,0.14,-0.98,3.42,0.37,1.04
16.1340,0.08,0.14,-0.98,3.54,0.24,0.92
16.1500,0.09,0.14,-0.98,3.36,0.49,1.10
16.1660,0.08,0.14,-0.98,3.17,0.55,1.10
16.1810,0.08,0.14,-0.98,3.30,0.67,0.98
16.1840,0.08,0.14,-0.98,3.30,0.85,1.04
16.2130,0.09,0.14,-0.98,3.36,0.61,0.98
16.2270,0.08,0.14,-0.98,3.36,0.79,0.79
16.2410,0.09,0.14,-0.98,3.36,0.79,0.79
16.2550,0.08,0.14,-0.98,3.42,0.67,0.61
16.2720,0.08,0.14,-0.98,3.42,0.73,0.92
16.2880,0.09,0.14,-0.98,3.36,0.67,0.85
16.3050,0.08,0.14,-0.98,3.36,0.61,0.67
16.3220,0.08,0.14,-0.98,3.42,0.61,0.92
16.3380,0.08,0.14,-0.98,3.36,0.79,1.28
16.3540,0.09,0.14,-0.98,3.48,0.85,1.22
16.3700,0.09,0.14,-0.98,3.66,0.73,1.10
16.3860,0.08,0.14,-0.98,3.48,0.92,1.34
16.3880,0.08,0.14,-0.98,3.36,0.49,1.59
16.4040,0.08,0.14,-0.98,3.23,0.55,1.65
16.4320,0.08,0.14,-0.98,3.42,0.79,1.65
16.4420,0.09,0.14,-0.98,3.36,0.67,1.59
16.4590,0.08,0.14,-0.98,3.36,0.55,1.46
16.4760,0.09,0.14,-0.98,3.42,0.55,1.59
16.4920,0.09,0.14,-0.98,3.54,0.55,1.59
16.5080,0.09,0.14,-0.98,3.30,0.49,1.40
16.5240,0.08,0.14,-0.98,3.23,0.85,1.22
16.5390,0.09,0.14,-0.98,3.36,1.10,1.46
16.5560,0.08,0.14,-0.98,3.36,0.43,1.34
16.5720,0.08,0.14,-0.98,3.54,0.24,1.53
16.5880,0.09,0.14,-0.98,3.54,0.49,1.22
16.6040,0.08,0.14,-0.98,3.60,0.43,0.92
16.6190,0.09,0.14,-0.98,3.48,0.61,0.92
16.6270,0.09,0.14,-0.98,3.36,0.67,0.85
16.6430,0.08,0.14,-0.98,3.17,0.61,0.79
16.6650,0.08,0.14,-0.98,3.23,0.31,0.98
16.6820,0.09,0.14,-0.98,3.60,0.37,1.16
16.6970,0.10,0.14,-0.98,3.54,0.73,0.43
16.7140,0.08,0.14,-0.98,3.60,0.67,-0.31
16.7280,0.09,0.14,-0.98,3.48,0.79,0.12
16.7440,0.08,0.14,-0.98,3.30,0.79,0.31
16.7590,0.08,0.14,-0.98,3.42,0.49,0.61
16.7740,0.08,0.14,-0.98,3.36,0.92,0.92
16.7890,0.09,0.14,-0.98,3.42,0.43,1.10
16.8040,0.09,0.14,-0.98,3.42,0.79,1.10
16.8150,0.09,0.14,-0.98,3.23,1.04,0.67
16.8310,0.08,0.14,-0.98,3.23,0.49,0.67
16.8490,0.08,0.14,-0.98,3.36,0.49,1.04
16.8650,0.08,0.14,-0.98,3.11,0.55,1.16
16.8820,0.09,0.14,-0.98,3.11,0.49,1.34
16.8980,0.10,0.13,-0.98,3.30,0.37,1.04
16.9130,0.09,0.13,-0.98,3.17,0.92,0.31
16.9290,0.09,0.14,-0.98,3.30,0.61,0.18
16.9430,0.09,0.14,-0.98,3.05,0.49,0.73
16.9590,0.08,0.14,-0.98,3.23,0.55,0.67
16.9740,0.08,0.14,-0.98,3.17,0.85,0.79
16.9890,0.08,0.14,-0.98,3.23,0.43,1.04
17.0030,0.08,0.14,-0.98,3.23,0.49,1.40
17.0150,0.08,0.14,-0.98,3.17,0.55,1.34
17.0310,0.08,0.14,-0.98,3.30,0.49,1.71
17.0480,0.08,0.14,-0.98,3.17,0.31,1.53
17.0640,0.08,0.14,-0.98,3.23,0.55,1.59
17.0790,0.08,0.14,-0.98,3.11,0.85,1.65
17.0810,0.08,0.14,-0.98,3.11,0.55,1.40
17.1090,0.09,0.14,-0.98,3.17,0.31,1.65
17.1240,0.09,0.14,-0.98,3.36,0.43,1.71
17.1390,0.09,0.14,-0.98,3.36,0.61,1.53
17.1540,0.09,0.14,-0.98,3.17,0.43,1.46
17.1650,0.08,0.14,-0.98,3.42,0.73,1.53
17.1820,0.09,0.14,-0.98,3.36,0.61,1.40
17.1980,0.09,0.14,-0.98,3.36,0.67,1.40
17.2150,0.09,0.14,-0.98,3.42,0.24,1.34
17.2300,0.09,0.14,-0.98,3.42,0.61,1.53
17.2450,0.08,0.14,-0.98,3.36,0.61,1.34
17.2480,0.08,0.14,-0.98,3.30,0.55,1.40
17.2640,0.09,0.14,-0.98,3.36,0.49,1.40
17.2880,0.09,0.14,-0.98,3.48,0.55,1.53
17.3050,0.09,0.14,-0.98,3.17,0.55,1.28
17.3220,0.09,0.14,-0.98,3.30,0.55,1.22
17.3370,0.08,0.14,-0.98,3.30,0.61,1.22
17.3530,0.08,0.14,-0.98,3.36,0.55,1.34
17.3700,0.08,0.14,-0.98,3.42,0.37,1.34
17.3860,0.08,0.14,-0.98,3.23,0.31,1.59
17.4020,0.08,0.14,-0.98,3.42,-0.12,1.53
17.4180,0.08,0.14,-0.98,3.17,0.37,1.46
17.4210,0.09,0.14,-0.98,3.48,0.43,1.46
17.4420,0.09,0.14,-0.98,3.48,0.49,1.71
17.4610,0.09,0.14,-0.98,3.54,0.43,1.46
17.4770,0.09,0.14,-0.98,3.48,0.37,1.53
17.4940,0.09,0.14,-0.98,3.42,0.18,1.53
17.5090,0.09,0.14,-0.98,3.23,0.37,1.59
17.5240,0.08,0.14,-0.98,3.42,0.18,1.59
17.5400,0.08,0.14,-0.98,3.60,0.49,1.46
17.5540,0.08,0.14,-0.98,3.23,0.43,1.40
17.5690,0.09,0.14,-0.98,3.17,0.37,1.46
17.5840,0.09,0.14,-0.98,3.17,0.49,1.65
17.6000,0.09,0.14,-0.98,3.23,0.24,1.53
17.6110,0.09,0.14,-0.98,3.23,0.73,1.71
17.6290,0.08,0.14,-0.98,3.23,0.49,1.40
17.6450,0.08,0.14,-0.98,3.30,0.43,1.53
17.6600,0.09,0.14,-0.98,3.54,0.43,1.28
17.6760,0.10,0.14,-0.98,3.23,0.49,1.16
17.6920,0.10,0.14,-0.98,3.11,0.43,1.22
17.7070,0.07,0.14,-0.98,3.42,0.31,1.04
17.7230,0.07,0.14,-0.98,3.48,0.31,1.22
17.7380,0.08,0.14,-0.98,3.42,0.31,1.53
17.7530,0.08,0.14,-0.98,3.54,0.43,1.40
17.7610,0.09,0.14,-0.98,3.42,0.43,1.46
17.7770,0.09,0.14,-0.98,3.36,0.55,1.34
17.7980,0.09,0.14,-0.98,3.48,0.31,1.04
17.8150,0.09,0.14,-0.98,3.48,0.55,1.22
17.8320,0.09,0.14,-0.98,3.48,0.49,1.16
17.8490,0.09,0.14,-0.98,3.30,0.61,1.04
17.8640,0.09,0.14,-0.98,3.23,0.24,0.85
17.8790,0.08,0.14,-0.98,3.36,0.31,0.92
17.8940,0.08,0.14,-0.98,3.30,0.31,1.28
17.9090,0.08,0.14,-0.98,3.48,0.31,1.34
17.9240,0.08,0.14,-0.98,3.48,-0.06,1.28
17.9390,0.08,0.14,-0.98,3.48,0.49,1.40
17.9490,0.09,0.14,-0.98,3.30,0.43,1.34
17.9640,0.09,0.14,-0.98,3.23,0.79,1.40
17.9840,0.09,0.14,-0.98,3.36,0.43,1.22
17.9890,0.08,0.14,-0.98,3.23,0.37,1.10
18.0150,0.08,0.14,-0.98,3.60,0.31,1.34
18.0300,0.09,0.14,-0.98,3.54,0.31,1.40
18.0450,0.09,0.14,-0.98,3.36,0.24,1.28
18.0550,0.09,0.14,-0.98,3.36,0.67,1.10
18.0720,0.09,0.14,-0.98,3.42,0.55,1.04
18.0900,0.09,0.14,-0.98,3.48,0.49,1.04
18.1040,0.08,0.14,-0.98,3.42,0.18,0.98
18.1210,0.08,0.14,-0.98,3.42,0.18,0.92
18.1220,0.08,0.14,-0.98,3.23,0.92,1.16
18.1520,0.08,0.14,-0.98,3.42,0.06,1.22
18.1680,0.08,0.14,-0.98,3.36,0.49,1.34
18.1720,0.08,0.14,-0.98,3.48,0.24,1.28
18.1870,0.08,0.14,-0.98,3.23,0.49,1.40
18.2100,0.08,0.14,-0.98,3.23,0.43,1.53
18.2270,0.08,0.14,-0.98,3.23,0.31,1.59
18.2430,0.08,0.14,-0.98,3.17,0.37,1.59
18.2590,0.09,0.14,-0.98,3.23,0.43,1.46
18.2780,0.09,0.14,-0.98,3.30,0.67,1.59
18.2930,0.09,0.14,-0.98,3.30,0.49,1.53
18.3080,0.10,0.14,-0.98,3.48,0.37,1.40
18.3150,0.08,0.13,-0.98,3.36,0.06,1.28
18.3310,0.08,0.14,-0.98,3.54,0.43,1.59
18.3530,0.08,0.14,-0.98,3.54,0.49,1.46
18.3700,0.08,0.14,-0.98,3.66,0.31,1.46
18.3860,0.09,0.14,-0.98,3.30,0.37,1.40
18.3880,0.09,0.14,-0.98,3.60,-0.24,1.34
18.4040,0.09,0.14,-0.98,3.54,0.12,1.22
18.4290,0.09,0.14,-0.98,3.42,0.43,1.10
18.4450,0.09,0.14,-0.98,3.36,0.06,0.92
18.4610,0.09,0.14,-0.98,3.36,0.43,0.73
18.4770,0.09,0.14,-0.98,3.30,0.55,0.73
18.4930,0.09,0.14,-0.98,3.30,0.79,0.73
18.5080,0.08,0.14,-0.98,3.23,0.79,0.92
18.5220,0.08,0.14,-0.98,3.30,0.67,0.73
18.5380,0.08,0.14,-0.98,3.54,0.31,0.73
18.5540,0.08,0.14,-0.98,3.60,0.55,0.73
18.5690,0.08,0.14,-0.98,3.66,0.55,0.73
18.5790,0.08,0.14,-0.98,3.48,0.12,0.73
18.5950,0.08,0.14,-0.98,3.48,0.67,0.67
18.6120,0.08,0.14,-0.98,3.36,0.67,0.67
18.6280,0.08,0.14,-0.98,3.42,0.43,0.61
18.6450,0.09,0.14,-0.98,3.42,0.37,0.73
18.6620,0.08,0.14,-0.98,3.66,0.24,0.67
18.6770,0.09,0.14,-0.98,3.72,0.37,0.73
18.6920,0.08,0.14,-0.98,3.30,0.79,0.79
18.6950,0.08,0.14,-0.98,3.30,0.55,1.22
18.7110,0.08,0.14,-0.98,3.54,0.67,1.40
18.7340,0.08,0.14,-0.98,3.48,0.43,1.34
18.7510,0.09,0.14,-0.98,3.42,0.31,1.34
18.7670,0.09,0.14,-0.98,3.42,0.55,1.40
18.7840,0.09,0.14,-0.98,3.48,0.67,1.28
18.8000,0.08,0.14,-0.98,3.48,0.55,1.28
18.8010,0.08,0.14,-0.98,3.42,0.49,1.34
18.8320,0.08,0.14,-0.98,3.36,0.43,1.65
18.8480,0.09,0.14,-0.98,3.36,0.43,1.59
18.8510,0.09,0.14,-0.98,3.36,0.61,1.65
18.8670,0.09,0.14,-0.98,3.42,0.67,1.71
18.8960,0.11,0.14,-0.98,3.30,0.55,1.22
18.9110,0.09,0.14,-0.98,3.30,0.55,0.92
18.9220,0.09,0.14,-0.98,3.54,0.18,0.79
18.9390,0.09,0.14,-0.98,3.30,0.43,0.79
18.9550,0.10,0.13,-0.98,3.23,1.34,0.85
18.9720,0.09,0.14,-0.98,3.36,0.49,0.49
18.9880,0.09,0.14,-0.98,3.60,0.43,0.49
18.9900,0.09,0.14,-0.98,3.54,0.61,-0.55
19.0190,0.10,0.14,-0.98,3.60,0.73,-1.34
19.0350,0.07,0.14,-0.98,3.78,0.49,-0.85
19.0500,0.07,0.14,-0.98,3.54,0.92,-0.18
19.0660,0.07,0.14,-0.98,3.05,0.85,0.92
19.0820,0.08,0.14,-0.98,2.87,0.55,1.59
19.0890,0.09,0.13,-0.98,2.87,0.67,1.46
19.1040,0.11,0.14,-0.98,3.36,0.43,1.40
19.1280,0.09,0.14,-0.98,3.30,0.43,0.24
19.1430,0.08,0.14,-0.98,3.54,0.73,0.67
19.1590,0.08,0.14,-0.98,3.42,0.85,0.85
19.1740,0.10,0.14,-0.98,3.60,0.73,0.85
19.1900,0.11,0.13,-0.98,3.72,0.24,0.31
19.1950,0.10,0.13,-0.98,3.60,0.24,0.79
19.2100,0.10,0.14,-0.98,3.48,0.43,1.83
19.2330,0.09,0.14,-0.98,3.30,0.85,1.40
19.2490,0.07,0.14,-0.98,3.48,0.67,1.28
19.2660,0.08,0.14,-0.98,3.30,1.10,0.73
19.2830,0.08,0.14,-0.98,3.23,0.79,0.61
19.2990,0.07,0.13,-0.98,3.17,0.61,1.10
19.3150,0.06,0.14,-0.98,3.30,0.37,1.65
19.3300,0.07,0.14,-0.98,3.48,0.24,1.59
19.3460,0.08,0.14,-0.98,3.66,0.37,1.59
19.3620,0.09,0.14,-0.98,3.42,0.43,1.65
19.3770,0.09,0.14,-0.98,3.48,0.55,1.53
19.3920,0.11,0.14,-0.98,3.36,0.55,1.59
19.4060,0.09,0.13,-0.98,3.23,0.73,1.16
19.4210,0.10,0.14,-0.98,3.36,0.12,1.10
19.4330,0.09,0.14,-0.98,3.66,0.31,1.10
19.4490,0.08,0.14,-0.98,3.36,0.55,1.16
19.4640,0.08,0.14,-0.98,3.17,0.61,1.28
19.4840,0.08,0.14,-0.98,3.48,0.43,1.16
19.4990,0.09,0.14,-0.98,3.36,0.55,1.22
19.5150,0.09,0.14,-0.98,3.48,0.73,1.16
19.5300,0.09,0.14,-0.98,3.48,0.31,1.22
19.5460,0.09,0.14,-0.98,3.54,0.55,1.04
19.5620,0.08,0.14,-0.98,3.36,0.55,1.10
19.5770,0.08,0.14,-0.98,3.36,0.73,1.10
19.5920,0.08,0.14,-0.98,3.36,0.85,1.10
19.6010,0.08,0.14,-0.98,3.30,0.55,1.34
19.6170,0.09,0.14,-0.98,3.36,0.49,1.59
19.6340,0.09,0.14,-0.98,3.66,0.12,1.34
19.6500,0.08,0.14,-0.98,3.60,0.37,1.40
19.6670,0.08,0.14,-0.98,3.36,0.73,1.65
19.6840,0.09,0.14,-0.98,3.30,0.18,1.65
19.7010,0.09,0.14,-0.98,3.30,-0.06,1.71
19.7160,0.09,0.14,-0.98,3.30,-0.06,1.65
19.7320,0.09,0.14,-0.98,3.36,0.55,1.71
19.7490,0.09,0.14,-0.98,3.30,0.43,1.65
19.7640,0.09,0.14,-0.98,3.30,-0.06,1.53
19.7800,0.08,0.14,-0.98,2.93,0.55,1.65
19.7960,0.09,0.14,-0.98,3.11,0.61,1.46
19.8120,0.09,0.14,-0.98,2.99,0.79,1.65
19.8270,0.08,0.14,-0.98,2.62,0.73,1.59
19.8420,0.09,0.14,-0.98,2.50,0.79,1.77
19.8510,0.08,0.13,-0.98,2.50,0.61,1.71
19.8670,0.08,0.14,-0.98,2.50,0.85,1.53
19.8880,0.09,0.14,-0.99,2.99,0.73,1.59
19.9030,0.09,0.14,-0.98,2.81,0.85,1.46
19.9180,0.09,0.13,-0.98,2.62,0.61,1.53
19.9340,0.08,0.14,-0.98,2.75,0.92,1.53
19.9500,0.09,0.14,-0.98,2.69,0.55,1.65
19.9660,0.08,0.13,-0.98,3.42,0.37,1.53
19.9720,0.08,0.13,-0.98,3.30,0.67,1.53
19.9880,0.09,0.13,-0.98,3.72,0.55,1.65
20.0110,0.09,0.14,-0.98,3.42,0.49,1.71
20.0270,0.09,0.13,-0.98,3.17,0.55,1.46
20.0290,0.08,0.14,-0.98,3.48,0.49,1.65
20.0450,0.08,0.14,-0.98,3.78,0.24,1.53
20.0670,0.08,0.13,-0.98,3.48,0.31,1.59
20.0830,0.08,0.14,-0.98,3.48,0.31,1.65
20.1010,0.08,0.13,-0.98,3.36,0.49,1.34
20.1170,0.08,0.13,-0.98,3.42,0.18,1.28
20.1340,0.09,0.13,-0.98,3.30,0.67,1.53
20.1490,0.09,0.14,-0.98,3.60,0.18,1.59
20.1630,0.09,0.14,-0.98,3.60,0.49,1.77
20.1660,0.08,0.13,-0.98,3.36,0.43,1.65
20.1820,0.08,0.14,-0.98,3.48,0.55,1.59
20.2050,0.08,0.13,-0.98,3.36,0.31,1.71
20.2210,0.08,0.13,-0.98,3.23,0.67,1.77
20.2370,0.08,0.13,-0.98,3.48,0.61,2.01
20.2540,0.06,0.13,-0.98,2.93,0.67,2.38
20.2710,0.08,0.13,-0.98,3.42,0.24,3.11
20.2880,0.09,0.14,-0.98,4.39,0.55,1.59
20.3040,0.09,0.13,-0.98,3.48,0.55,1.59
20.3200,0.07,0.12,-0.98,3.30,0.67,1.46
20.3360,0.06,0.09,-0.99,4.27,1.22,-2.01
20.3510,0.04,0.04,-1.00,5.80,3.11,-9.52
20.3650,0.02,-0.02,-1.01,5.98,4.39,-23.99
20.3710,0.03,-0.02,-1.00,7.02,7.14,-36.50
20.3880,0.03,0.05,-1.01,7.69,7.39,-39.37
20.4050,0.06,0.09,-1.01,7.14,6.96,-37.05
20.4210,0.05,0.24,-0.97,2.87,2.75,-14.34
20.4390,0.07,0.33,-0.95,1.10,-1.34,13.43
20.4550,0.11,0.33,-0.95,-1.22,-3.42,29.97
20.4720,0.11,0.32,-0.95,-0.67,-4.03,34.06
20.4890,0.11,0.29,-0.96,-0.85,-5.00,43.88
20.5050,0.16,0.25,-0.95,-2.20,-6.23,51.45
20.5200,0.19,0.18,-0.97,-0.55,-4.76,38.39
20.5210,0.12,0.08,-0.99,1.46,-2.62,23.38
20.5520,0.10,0.06,-0.99,1.59,-2.26,22.58
20.5550,0.08,0.07,-0.99,1.71,-2.69,21.42
20.5850,0.08,0.08,-0.99,2.93,-2.75,21.18
20.5880,0.09,0.07,-0.99,2.93,-2.14,18.92
20.6170,0.09,0.08,-0.99,3.11,-1.59,14.77
20.6330,0.08,0.11,-0.99,3.54,-1.04,11.72
20.6480,0.07,0.13,-0.98,3.60,-0.55,8.00
20.6630,0.07,0.13,-0.98,3.66,-0.61,7.93
20.6720,0.06,0.13,-0.98,3.17,-0.24,7.14
20.6880,0.06,0.14,-0.98,2.75,-0.06,7.20
20.7050,0.05,0.13,-0.98,2.99,-0.37,6.84
20.7220,0.06,0.12,-0.98,3.30,0.06,4.76
20.7380,0.07,0.13,-0.98,3.17,0.06,3.66
20.7530,0.10,0.14,-0.98,3.36,0.24,3.72
20.7700,0.09,0.15,-0.98,2.93,0.06,3.60
20.7860,0.10,0.16,-0.98,2.75,0.12,3.72
20.8010,0.10,0.16,-0.98,2.81,0.24,4.09
20.8160,0.10,0.16,-0.98,2.99,0.06,4.94
20.8220,0.10,0.16,-0.97,2.93,-0.24,6.77
20.8460,0.10,0.14,-0.98,2.75,-0.24,7.63
20.8550,0.11,0.12,-0.98,3.05,-0.49,7.26
20.8710,0.12,0.10,-0.98,3.23,0.37,5.31
20.8880,0.12,0.12,-0.98,3.54,-0.18,1.71
20.9040,0.09,0.13,-0.98,3.85,0.06,0.85
20.9210,0.10,0.11,-0.99,3.91,0.92,-1.16
20.9380,0.08,0.09,-0.99,4.33,1.77,-8.30
20.9550,0.06,0.07,-0.99,4.70,2.50,-12.39
20.9720,0.08,0.04,-1.00,4.27,2.38,-10.07
20.9880,0.08,0.02,-1.00,4.46,2.62,-11.05
21.0030,0.10,0.02,-0.99,4.70,3.17,-14.34
21.0190,0.13,0.05,-0.99,6.23,4.27,-25.09
21.0220,0.14,0.05,-0.99,7.87,7.08,-38.70
21.0510,0.11,-0.01,-1.00,8.91,8.06,-44.01
21.0670,0.09,0.08,-0.99,6.10,6.16,-36.01
21.0710,0.11,0.14,-0.97,3.85,5.49,-34.36
21.0870,0.10,0.19,-0.97,5.92,5.80,-37.11
21.1150,0.08,0.23,-0.97,6.90,6.47,-37.66
21.1310,0.06,0.27,-0.96,7.02,6.59,-37.17
21.1460,0.06,0.28,-0.96,7.08,6.35,-38.15
21.1580,0.06,0.25,-0.96,7.69,6.35,-39.31
21.1770,0.06,0.21,-0.97,7.20,5.98,-34.97
21.1790,0.07,0.22,-0.97,5.13,4.39,-24.05
21.2070,0.07,0.22,-0.97,4.03,3.48,-15.38
21.2220,0.07,0.19,-0.97,3.23,1.95,-6.77
21.2380,0.09,0.17,-0.97,2.81,1.16,-2.38
21.2470,0.07,0.15,-0.98,2.75,0.37,1.59
21.2640,0.06,0.16,-0.98,2.87,0.49,1.83
21.2800,0.07,0.15,-0.98,3.36,0.37,1.28
21.2960,0.08,0.14,-0.98,3.60,0.79,1.65
21.3120,0.10,0.10,-0.99,3.66,0.61,1.89
21.3130,0.10,0.11,-0.98,3.48,0.67,1.40
21.3430,0.11,0.13,-0.98,3.60,0.55,2.26
21.3470,0.08,0.13,-0.98,3.36,0.00,2.44
21.3720,0.07,0.13,-0.98,3.17,0.12,2.56
21.3800,0.06,0.13,-0.98,3.54,0.55,2.14
21.3960,0.11,0.12,-0.99,4.39,0.92,0.43
21.4180,0.14,0.12,-0.97,4.27,1.71,-3.54
21.4300,0.11,0.10,-0.98,5.25,2.32,-10.07
21.4480,0.11,0.12,-0.99,6.29,3.17,-14.59
21.4620,0.09,0.19,-0.97,4.64,2.99,-13.85
21.4790,0.08,0.15,-0.99,3.30,0.98,-1.46
21.4960,0.08,0.14,-0.98,1.34,0.37,1.53
21.5110,0.03,0.20,-0.97,1.59,0.18,2.26
21.5270,0.05,0.22,-0.97,2.99,-0.18,6.10
21.5430,0.06,0.25,-0.96,1.89,-1.65,19.59
21.5580,0.08,0.25,-0.96,1.10,-2.87,25.88
21.5640,0.11,0.16,-0.98,1.53,-3.05,31.01
21.5800,0.12,0.05,-0.99,0.73,-2.50,23.93
21.6030,0.12,0.02,-1.00,2.26,-0.98,12.88
21.6180,0.10,0.01,-1.00,2.56,-0.31,7.87
21.6200,0.10,0.01,-1.00,2.75,-0.43,5.92
21.6470,0.09,0.13,-0.98,4.15,0.31,1.71
21.6650,0.09,0.13,-0.99,3.72,0.49,1.22
21.6750,0.08,0.13,-0.98,2.99,1.16,-1.53
21.6920,0.08,0.14,-0.98,3.42,0.49,-1.71
21.7080,0.08,0.12,-0.98,4.15,0.98,-0.73
21.7280,0.08,0.11,-0.99,5.07,0.61,-2.26
21.7430,0.07,0.10,-0.99,5.25,1.04,-3.36
21.7580,0.07,0.09,-0.99,4.82,1.71,-5.74
21.7720,0.08,0.10,-0.99,4.94,1.95,-8.42
21.7810,0.08,0.11,-0.98,4.64,2.08,-10.50
21.7970,0.07,0.11,-0.98,4.58,2.50,-12.02
21.8180,0.07,0.10,-0.99,4.76,2.69,-13.24
21.8340,0.08,0.10,-0.99,5.19,3.66,-17.40
21.8500,0.10,0.13,-0.98,5.43,4.09,-21.30
21.8660,0.10,0.17,-0.97,5.25,4.09,-19.29
21.8820,0.11,0.19,-0.97,4.64,3.05,-13.43
21.8970,0.10,0.19,-0.97,4.82,2.44,-10.56
21.9120,0.10,0.18,-0.97,4.82,2.14,-8.12
21.9260,0.10,0.17,-0.97,4.27,1.83,-6.35
21.9370,0.09,0.14,-0.98,4.09,1.28,-3.42
21.9540,0.09,0.12,-0.98,3.97,1.16,-3.48
21.9700,0.09,0.11,-0.98,4.27,1.83,-5.43
21.9850,0.10,0.12,-0.98,4.52,2.62,-7.69
21.9940,0.09,0.12,-0.98,4.33,2.01,-8.06
22.0180,0.09,0.16,-0.98,4.39,1.83,-7.69
22.0330,0.07,0.17,-0.98,4.03,1.77,-4.58
22.0480,0.07,0.16,-0.98,3.48,1.28,-0.79
22.0600,0.08,0.14,-0.98,3.11,0.55,1.53
22.0800,0.08,0.13,-0.98,3.17,0.49,1.77
22.0960,0.09,0.13,-0.98,3.17,0.55,1.65
22.1120,0.09,0.14,-0.98,3.05,0.79,1.71
22.1150,0.09,0.14,-0.98,3.17,0.49,1.59
22.1430,0.12,0.15,-0.98,2.69,0.31,1.34
22.1510,0.09,0.16,-0.98,2.69,0.37,1.89
22.1690,0.07,0.17,-0.97,2.14,-0.18,5.98
22.1840,0.07,0.17,-0.98,1.83,-1.46,12.27
22.2020,0.07,0.16,-0.98,2.26,-1.77,15.14
22.2180,0.08,0.14,-0.98,2.08,-1.46,16.24
22.2340,0.08,0.11,-0.99,2.14,-1.34,14.47
22.2500,0.08,0.10,-0.99,2.62,-1.16,12.82
22.2670,0.09,0.10,-0.99,3.11,-0.43,10.01
22.2670,0.09,0.09,-0.99,3.36,0.00,5.07
22.2850,0.08,0.11,-0.98,3.48,0.24,2.99
22.3010,0.08,0.14,-0.98,3.85,0.12,1.65
22.3170,0.08,0.13,-0.98,3.23,0.55,1.65
22.3390,0.09,0.13,-0.98,3.30,0.67,1.59
22.3550,0.08,0.13,-0.98,3.42,0.73,1.65
22.3720,0.08,0.13,-0.98,3.42,0.24,1.71
22.3890,0.09,0.14,-0.98,3.72,0.31,1.71
22.4060,0.09,0.13,-0.98,3.48,0.61,1.46
22.4220,0.08,0.13,-0.98,3.36,0.61,1.28
22.4240,0.10,0.12,-0.98,3.66,0.67,0.06
22.4490,0.09,0.12,-0.98,3.97,1.40,-4.52
22.4690,0.09,0.13,-0.98,4.52,2.01,-7.39
22.4860,0.08,0.14,-0.98,4.82,1.77,-7.32
22.4900,0.08,0.14,-0.98,4.15,1.34,-5.98
22.5190,0.09,0.14,-0.98,3.97,1.16,-5.49
22.5350,0.08,0.14,-0.98,3.97,1.89,-4.33
22.5500,0.08,0.14,-0.98,3.85,1.89,-3.36
22.5660,0.09,0.13,-0.98,3.72,1.59,-2.87
22.5820,0.09,0.14,-0.98,3.85,1.40,-2.93
22.5980,0.08,0.14,-0.98,3.42,1.34,-2.81
22.6130,0.09,0.13,-0.98,3.66,1.04,-2.32
22.6230,0.09,0.13,-0.98,3.66,1.34,-3.42
22.6380,0.08,0.14,-0.98,3.72,1.40,-3.60
22.6560,0.08,0.14,-0.98,3.85,1.22,-2.50
22.6720,0.08,0.15,-0.98,3.23,0.73,-1.04
22.6890,0.08,0.13,-0.98,3.11,0.31,1.10
22.7050,0.09,0.13,-0.98,3.36,1.10,1.28
22.7220,0.09,0.13,-0.98,3.42,0.61,0.73
22.7370,0.08,0.14,-0.98,3.66,0.49,0.79
22.7540,0.08,0.14,-0.98,3.42,0.73,1.53
22.7700,0.09,0.13,-0.98,3.30,0.55,1.46
22.7720,0.09,0.13,-0.98,3.36,0.43,1.59
22.7880,0.08,0.13,-0.98,3.17,0.61,1.65
22.8110,0.09,0.13,-0.98,3.11,0.49,1.65
22.8290,0.09,0.13,-0.98,3.23,0.06,1.83
22.8450,0.09,0.13,-0.98,3.30,0.73,1.83
22.8610,0.09,0.13,-0.98,3.36,0.43,1.77
22.8770,0.09,0.13,-0.98,3.30,0.24,1.71
22.8930,0.09,0.13,-0.98,3.48,0.49,1.65
22.9080,0.08,0.13,-0.98,3.48,0.55,1.59
22.9240,0.09,0.13,-0.98,3.54,0.43,1.71
22.9400,0.08,0.14,-0.98,3.17,0.31,1.83
22.9490,0.08,0.14,-0.98,2.87,0.06,3.97
22.9610,0.07,0.14,-0.98,2.99,0.24,5.00
22.9820,0.08,0.13,-0.98,2.69,0.00,6.16
22.9980,0.08,0.13,-0.98,2.87,-0.12,6.23
23.0150,0.08,0.13,-0.98,2.99,-0.24,5.98
23.0320,0.09,0.13,-0.98,3.11,-0.43,6.16
23.0480,0.09,0.13,-0.98,3.11,-0.12,5.43
23.0630,0.11,0.12,-0.98,3.23,0.18,4.15
23.0800,0.09,0.13,-0.98,3.72,0.24,1.77
23.0960,0.09,0.14,-0.98,3.72,0.73,1.59
23.1120,0.09,0.14,-0.98,3.66,0.37,1.59
23.1280,0.09,0.13,-0.98,3.36,0.79,1.65
23.1320,0.09,0.13,-0.98,3.23,0.73,1.71
23.1490,0.09,0.13,-0.98,3.36,0.31,1.65
23.1690,0.09,0.13,-0.98,3.60,0.06,1.59
23.1850,0.09,0.13,-0.98,3.54,-0.06,1.65
23.2030,0.08,0.13,-0.98,3.54,0.37,1.59
23.2190,0.09,0.13,-0.98,3.23,0.67,1.59
23.2360,0.08,0.13,-0.98,3.05,0.73,1.53
23.2520,0.07,0.15,-0.98,3.23,0.61,2.50
23.2680,0.09,0.13,-0.98,2.99,-0.24,5.80
23.2840,0.09,0.12,-0.98,3.05,0.06,5.13
23.2990,0.09,0.12,-0.98,2.99,0.43,3.60
23.3020,0.09,0.13,-0.98,3.54,0.55,1.71
23.3180,0.09,0.13,-0.98,3.66,0.67,1.71
23.3420,0.09,0.13,-0.98,3.78,0.55,1.46
23.3590,0.08,0.13,-0.98,4.33,0.12,1.65
23.3750,0.09,0.13,-0.98,4.70,0.18,1.46
23.3910,0.09,0.14,-0.99,5.19,0.00,1.65
23.4070,0.09,0.13,-0.98,4.64,0.12,1.83
23.4230,0.09,0.14,-0.98,4.94,-0.43,1.71
23.4260,0.09,0.14,-0.98,4.58,0.00,1.59
23.4490,0.08,0.14,-0.99,4.94,0.49,1.28
23.4650,0.09,0.14,-0.98,3.91,0.31,1.71
23.4820,0.09,0.14,-0.98,3.54,0.61,1.59
23.4990,0.09,0.14,-0.98,2.87,0.85,1.65
23.5150,0.09,0.14,-0.98,2.20,1.10,1.65
23.5310,0.09,0.14,-0.98,1.89,1.46,1.77
23.5480,0.08,0.13,-0.98,2.26,1.28,1.65
23.5630,0.09,0.14,-0.99,2.20,0.92,1.40
23.5790,0.08,0.13,-0.98,2.44,0.79,1.46
23.5940,0.09,0.13,-0.98,2.44,0.92,1.53
23.6100,0.09,0.13,-0.98,2.87,0.61,1.59
23.6250,0.08,0.14,-0.98,2.81,0.85,1.59
23.6400,0.08,0.13,-0.98,2.75,0.31,1.65
23.6540,0.08,0.19,-0.97,2.99,0.37,5.07
23.6700,0.09,0.20,-0.97,3.17,-0.12,10.74
23.6840,0.09,0.22,-0.97,2.08,-1.16,14.95
23.7000,0.10,0.25,-0.96,1.46,-2.01,21.73
23.7160,0.06,0.23,-0.97,1.95,-2.81,23.32
23.7310,0.09,0.24,-0.96,-0.55,-4.21,35.77
23.7470,0.09,0.20,-0.97,-1.46,-5.25,45.59
23.7630,0.08,0.17,-0.98,-1.71,-6.16,50.05
23.7790,0.07,0.12,-0.99,-1.71,-6.41,51.64
23.7930,0.10,0.10,-0.98,-1.65,-6.41,53.34
23.8080,0.10,0.09,-0.99,0.92,-5.74,50.29
23.8250,0.12,0.09,-0.98,1.59,-5.86,46.20
23.8400,0.10,0.07,-0.99,1.95,-4.88,38.94
23.8530,0.09,0.05,-0.99,1.65,-4.09,31.56
23.8690,0.08,0.06,-1.00,1.04,-3.54,27.83
23.8830,0.08,0.10,-0.99,1.10,-2.62,22.28
23.8980,0.08,0.15,-0.98,1.40,-2.50,20.75
23.9130,0.08,0.16,-0.98,1.83,-2.26,19.90
23.9290,0.08,0.19,-0.98,2.01,-2.32,20.45
23.9440,0.07,0.21,-0.97,2.87,-1.53,15.38
23.9590,0.10,0.19,-0.97,3.91,0.18,4.88
23.9750,0.11,0.13,-0.99,4.46,0.98,0.06
23.9900,0.09,0.01,-1.00,4.52,1.46,-3.11
24.0040,0.07,-0.01,-1.00,4.88,1.71,-1.77
24.0200,0.08,0.02,-1.00,3.85,0.98,2.26
24.0360,0.07,0.07,-0.99,3.85,0.31,3.05
24.0500,0.07,0.10,-0.99,3.72,1.16,0.79
24.0650,0.08,0.13,-0.98,3.48,0.98,0.43
24.0810,0.10,0.18,-0.97,3.60,1.22,0.00
24.0960,0.09,0.24,-0.95,2.69,1.28,-1.83
24.1120,0.09,0.20,-0.97,4.46,1.40,-2.01
24.1280,0.08,0.13,-0.99,4.39,1.16,-0.98
24.1430,0.08,0.07,-0.99,3.66,0.43,2.38
24.1580,0.08,0.08,-0.99,3.30,-0.18,5.55
24.1730,0.09,0.10,-0.99,2.62,0.06,5.49
24.1880,0.10,0.13,-0.98,2.75,0.55,3.91
24.2030,0.11,0.18,-0.97,3.30,0.92,-2.01
24.2170,0.09,0.17,-0.97,4.03,1.83,-6.23
24.2330,0.09,0.18,-0.97,3.11,1.40,-5.62
24.2480,0.08,0.19,-0.97,2.75,1.53,-4.88
24.2640,0.07,0.16,-0.97,2.62,1.10,-2.56
24.2780,0.06,0.09,-0.99,3.85,0.49,2.62
24.2940,0.06,0.07,-1.00,3.23,0.24,6.04
24.3090,0.07,0.10,-0.99,2.50,-0.61,7.69
24.3230,0.09,0.16,-0.98,2.26,-0.18,6.10
24.3390,0.08,0.20,-0.97,2.69,1.16,-1.10
24.3540,0.08,0.15,-0.97,3.36,2.20,-5.80
24.3690,0.07,0.06,-0.99,4.21,1.77,-1.46
24.3850,0.07,0.04,-1.00,3.78,-0.18,8.12
24.4000,0.08,0.07,-0.99,3.17,-0.55,9.58
24.4160,0.09,0.11,-0.98,2.87,-0.06,6.65
24.4330,0.09,0.12,-0.98,2.81,0.37,2.81
24.4480,0.09,0.13,-0.99,2.20,0.67,1.89
24.4640,0.09,0.14,-0.99,1.34,0.85,1.40
24.4790,0.17,0.16,-1.03,-3.60,2.08,0.85
24.4960,0.06,0.08,-1.04,-20.02,3.11,9.58
24.5120,0.10,0.06,-1.02,-35.77,3.97,24.17
24.5250,0.13,0.01,-1.04,-46.14,5.74,27.59
24.5430,0.08,-0.01,-1.07,-51.82,3.72,29.97
24.5570,0.11,0.03,-1.15,-59.39,6.35,10.86
24.5720,0.16,0.06,-1.14,-45.29,2.50,-21.24
24.5880,0.09,0.03,-1.07,-9.95,14.53,-33.08
24.6040,0.07,-0.00,-0.97,19.29,34.24,-21.18
24.6210,0.10,0.02,-1.15,-13.61,-12.39,-24.41
24.6360,-0.03,-0.10,-0.68,-7.75,-34.85,-28.44
24.6520,-0.02,-0.11,-0.82,38.82,14.28,-25.51
24.6690,0.03,-0.10,-0.94,37.72,19.96,-31.68
24.6840,0.09,0.03,-1.03,10.07,14.95,-37.23
24.7000,0.07,0.06,-0.93,-27.34,-2.44,-50.54
24.7160,0.00,0.10,-0.87,-23.38,-14.53,-52.61
24.7320,-0.00,0.13,-0.86,-2.08,-23.01,-41.93
24.7480,-0.00,0.17,-0.90,18.98,-26.55,-34.85
24.7620,0.01,0.18,-0.91,19.41,-23.74,-36.50
24.7790,0.03,0.18,-0.94,14.47,-20.63,-37.23
24.7940,0.06,0.18,-0.92,4.88,-14.65,-35.03
24.8080,0.10,0.16,-0.90,0.98,-9.52,-27.10
24.8240,0.16,0.12,-0.84,9.28,1.22,-10.50
24.8400,0.16,0.14,-1.05,35.52,85.14,16.85
24.8560,0.09,0.28,-1.54,45.23,59.88,3.30
24.8720,0.10,0.09,-1.51,75.26,2.81,-8.54
24.8880,0.15,0.08,-1.12,40.65,-1.71,-6.35
24.9050,0.08,0.17,-1.01,16.36,-0.98,1.28
24.9210,0.04,0.20,-0.96,8.48,-0.06,2.38
24.9350,0.04,0.25,-0.94,14.89,-0.92,1.77
24.9520,0.07,0.23,-0.97,20.75,-1.53,0.49
24.9680,0.09,0.18,-1.02,14.04,-0.61,1.16
24.9820,0.12,0.15,-1.02,9.28,0.43,3.54
24.9960,0.12,0.04,-1.00,4.58,0.85,2.69
25.0130,0.12,-0.02,-1.01,3.72,1.10,-0.49
25.0290,0.12,0.01,-0.99,3.23,0.79,0.12
25.0420,0.12,0.09,-0.98,4.15,0.37,1.53
25.0580,0.09,0.13,-0.98,4.76,0.55,1.83
25.0740,0.08,0.13,-0.98,5.19,0.49,1.71
25.0890,0.08,0.11,-0.99,4.46,0.98,-0.49
25.1040,0.09,0.11,-0.98,4.27,1.04,-5.74
25.1200,0.09,0.12,-0.98,5.07,1.95,-10.25
25.1350,0.08,0.13,-0.98,4.88,2.20,-9.40
25.1520,0.08,0.13,-0.98,4.70,1.71,-7.20
25.1670,0.07,0.14,-0.98,3.91,1.40,-4.70
25.1840,0.08,0.13,-0.98,3.66,0.73,-2.69
25.2000,0.08,0.14,-0.98,3.60,0.85,-2.32
25.2140,0.07,0.13,-0.98,3.60,0.98,-2.50
25.2280,0.08,0.13,-0.98,4.09,0.67,-2.56
25.2430,0.08,0.12,-0.98,3.91,1.28,-3.60
25.2590,0.08,0.11,-0.98,4.15,1.83,-6.77
25.2740,0.08,0.09,-0.99,4.76,2.50,-9.95
25.2900,0.08,0.10,-0.99,5.19,3.36,-16.48
25.3040,0.10,0.15,-0.98,5.49,3.36,-17.88
25.3190,0.14,0.21,-0.96,5.07,2.81,-12.57
25.3340,0.13,0.22,-0.96,4.88,2.20,-9.64
25.3490,0.08,0.17,-0.98,4.21,1.53,-4.15
25.3640,0.15,0.16,-0.97,1.71,0.61,1.10
25.3790,0.14,0.21,-0.96,1.40,0.12,3.60
25.3940,0.13,0.23,-0.96,2.38,-0.61,7.57
25.4090,0.07,0.21,-0.97,2.26,-0.55,9.46
25.4250,0.07,0.13,-0.98,2.75,-0.92,11.35
25.4400,0.06,0.09,-0.99,3.05,-0.12,5.80
25.4540,0.05,0.04,-1.00,3.42,0.37,1.40
25.4700,0.06,0.05,-0.99,3.48,0.37,0.61
25.4860,0.06,0.08,-0.99,3.54,0.73,0.79
25.5010,0.08,0.13,-0.98,4.21,0.37,1.71
25.5150,0.09,0.14,-0.98,3.48,0.61,1.77
25.5300,0.09,0.16,-0.98,2.69,0.37,2.93
25.5470,0.09,0.16,-0.97,2.44,-0.37,8.30
25.5610,0.10,0.16,-0.98,2.50,-0.43,9.64
25.5780,0.09,0.14,-0.98,2.81,-0.37,8.48
25.5940,0.08,0.14,-0.98,2.69,-0.12,8.00
25.6090,0.07,0.11,-0.98,2.50,-0.43,9.28
25.6240,0.06,0.09,-0.99,2.44,-0.49,8.48
25.6400,0.07,0.12,-0.98,3.23,-0.06,4.46
25.6540,0.06,0.13,-0.98,3.91,0.18,3.23
25.6690,0.08,0.13,-0.98,3.97,0.37,3.60
25.6840,0.10,0.14,-0.98,3.36,0.43,3.17
25.6980,0.10,0.13,-0.98,3.30,0.24,2.26
25.7140,0.09,0.13,-0.98,3.23,0.49,1.77
25.7300,0.07,0.13,-0.98,3.23,0.55,2.01
25.7450,0.07,0.12,-0.98,3.11,0.43,2.69
25.7610,0.08,0.13,-0.98,3.60,0.18,2.62
25.7760,0.10,0.13,-0.98,3.42,0.31,1.83
25.7900,0.10,0.14,-0.98,3.72,0.61,1.40
25.8070,0.09,0.13,-0.98,3.85,0.37,0.92
25.8230,0.08,0.13,-0.98,3.91,0.55,0.55
25.8360,0.08,0.13,-0.98,3.48,0.61,-0.12
25.8520,0.08,0.13,-0.98,3.66,1.10,-0.98
25.8660,0.09,0.14,-0.98,3.48,0.92,-0.85
25.8830,0.09,0.14,-0.98,3.48,0.67,-0.18
25.8970,0.09,0.14,-0.98,3.42,0.73,0.55
25.9130,0.08,0.13,-0.98,3.17,0.61,0.49
25.9280,0.09,0.14,-0.98,3.36,0.92,0.18
25.9430,0.09,0.14,-0.98,3.60,0.73,0.00
25.9580,0.09,0.14,-0.98,3.78,0.49,0.73
25.9730,0.09,0.13,-0.98,3.60,0.06,1.40
25.9870,0.09,0.13,-0.98,3.36,0.24,1.65
26.0040,0.09,0.14,-0.98,3.36,0.31,1.53
26.0200,0.09,0.13,-0.98,3.30,0.24,1.53
26.0360,0.08,0.12,-0.98,3.36,0.67,1.53
26.0520,0.08,0.12,-0.98,3.36,0.85,0.24
26.0680,0.08,0.13,-0.98,3.72,1.04,-0.06
26.0840,0.08,0.12,-0.99,3.85,0.98,-0.55
26.0980,0.08,0.11,-0.98,3.66,1.16,-2.93
26.1150,0.12,0.16,-0.97,4.27,1.34,-5.43
26.1280,0.08,0.17,-0.98,4.76,1.34,-3.48
26.1450,0.08,0.14,-0.99,3.85,0.55,1.22
26.1590,0.08,0.13,-0.98,3.30,0.43,1.59
26.1740,0.08,0.13,-0.98,3.30,0.55,1.71
26.1900,0.09,0.14,-0.98,4.52,-0.06,1.95
26.2060,0.09,0.13,-0.98,4.82,-0.18,1.89
26.2200,0.09,0.14,-0.98,4.88,-0.31,1.71
26.2360,0.09,0.14,-0.98,4.52,-0.12,1.59
26.2510,0.09,0.14,-0.98,4.33,0.06,1.65
26.2660,0.09,0.14,-0.98,3.85,-0.06,1.65
26.2800,0.09,0.14,-0.98,2.99,0.61,1.83
26.2950,0.09,0.13,-0.98,2.14,0.73,1.77
26.3120,0.08,0.14,-0.98,2.44,0.67,1.83
26.3280,0.09,0.13,-0.98,2.50,0.85,1.59
26.3440,0.09,0.13,-0.98,2.81,0.49,1.65
26.3580,0.09,0.14,-0.98,3.23,0.55,1.53
26.3740,0.08,0.13,-0.96,3.11,0.92,1.53
26.3890,0.09,0.14,-0.98,3.23,0.43,1.28
26.4030,0.08,0.13,-0.98,2.93,0.61,1.59
26.4180,0.09,0.13,-0.98,2.93,0.55,1.40
26.4320,0.08,0.13,-0.98,3.23,0.31,1.53
26.4480,0.09,0.13,-0.98,3.54,0.61,1.71
26.4640,0.09,0.13,-0.98,3.48,0.73,1.77
26.4790,0.09,0.13,-0.98,3.60,0.49,1.77
26.4950,0.09,0.13,-0.98,3.66,0.18,1.59
26.5090,0.09,0.13,-0.98,3.66,0.55,1.71
26.5260,0.16,0.14,-0.97,3.97,-0.18,1.71
26.5400,0.12,0.13,-0.98,3.23,0.18,2.50
26.5560,0.11,0.14,-0.98,3.30,0.06,3.72
26.5710,0.12,0.14,-0.98,3.17,0.00,3.17
26.5850,0.12,0.14,-0.98,3.30,0.18,2.75
26.6000,0.14,0.14,-0.97,3.30,0.37,2.50
26.6170,0.15,0.12,-0.97,3.72,0.43,4.33
26.6320,0.13,0.13,-0.98,3.11,-0.79,8.61
26.6470,0.12,0.13,-0.97,1.65,-1.65,15.56
26.6640,0.10,0.15,-0.98,2.38,-1.77,16.30
26.6800,0.07,0.14,-0.98,2.69,-1.53,13.61
26.6960,0.06,0.12,-0.99,3.05,-0.67,7.45
26.7090,0.04,0.13,-0.98,2.81,-0.06,3.85
26.7260,0.05,0.13,-0.98,3.48,0.18,2.01
26.7390,0.06,0.13,-0.98,3.85,0.43,1.04
26.7550,0.08,0.12,-0.98,4.15,0.55,0.73
26.7700,0.09,0.13,-0.98,3.91,0.55,-1.46
26.7850,0.09,0.14,-0.98,4.09,0.79,-1.83
26.8000,0.06,0.13,-0.98,3.85,0.98,-1.40
26.8160,0.06,0.13,-0.99,3.60,1.04,-1.28
26.8310,0.08,0.14,-0.98,3.78,0.67,-1.53
26.8460,0.09,0.13,-0.98,3.85,0.98,-2.44
26.8610,0.11,0.15,-0.98,4.15,1.46,-3.85
26.8760,0.12,0.14,-0.98,4.03,1.89,-5.62
26.8920,0.09,0.12,-0.98,4.46,2.26,-4.94
26.9070,0.08,0.13,-0.99,4.39,2.08,-3.60
26.9230,0.06,0.13,-0.98,3.17,1.40,-1.04
26.9390,0.04,0.14,-0.98,3.42,0.73,1.16
26.9540,0.06,0.16,-0.98,3.42,0.49,2.93
26.9700,0.09,0.16,-0.98,2.81,0.98,2.62
26.9820,0.09,0.15,-0.98,2.99,0.92,0.55
26.9980,0.05,0.13,-0.99,3.48,0.67,0.31
27.0140,0.02,0.12,-0.99,3.91,0.98,0.43
27.0290,0.04,0.14,-0.99,3.91,0.85,0.98
27.0440,0.08,0.14,-0.98,2.99,0.24,1.65
27.0590,0.09,0.14,-0.98,3.05,0.31,1.77
27.0740,0.05,0.13,-0.98,2.93,0.18,1.77
27.0890,0.05,0.13,-0.98,2.99,0.24,5.13
27.1030,0.09,0.14,-0.98,2.87,0.06,6.23
27.1190,0.07,0.14,-0.98,3.05,-0.31,5.43
27.1340,0.07,0.14,-0.98,3.11,-0.24,5.37
27.1500,0.04,0.14,-0.98,2.20,-0.43,6.16
27.1660,0.07,0.14,-0.98,2.56,-0.73,7.87
27.1820,0.09,0.13,-0.98,3.11,-0.61,7.39
27.1970,0.16,0.13,-0.98,3.05,0.31,4.64
27.2130,0.12,0.13,-0.98,3.17,0.31,1.71
27.2290,0.10,0.13,-0.98,3.30,0.61,1.77
27.2430,0.09,0.13,-0.98,3.05,0.61,1.83
27.2580,0.08,0.13,-0.98,3.17,0.43,2.26
27.2730,0.08,0.13,-0.98,3.78,0.18,2.62
27.2890,0.10,0.13,-0.98,3.42,0.12,2.62
27.3050,0.10,0.13,-0.98,3.30,0.92,1.95
27.3210,0.09,0.13,-0.98,3.42,0.43,1.65
27.3370,0.09,0.13,-0.98,3.23,0.24,1.71
27.3520,0.08,0.14,-0.98,3.11,0.37,1.77
27.3680,0.06,0.14,-0.98,2.81,0.43,2.14
27.3840,0.06,0.14,-0.98,2.99,0.37,3.48
27.4000,0.11,0.13,-0.98,4.15,0.31,2.69
27.4150,0.11,0.13,-0.98,3.78,0.55,0.43
27.4310,0.10,0.12,-0.98,3.54,0.49,0.55
27.4470,0.09,0.13,-0.98,3.36,0.43,1.71
27.4610,0.09,0.13,-0.98,3.42,0.55,1.77
27.4800,0.09,0.13,-0.98,3.60,0.67,1.77
27.4940,0.09,0.13,-0.98,3.60,0.18,1.71
27.5090,0.09,0.13,-0.98,4.27,0.31,1.71
27.5250,0.09,0.14,-0.99,4.70,0.43,1.65
27.5400,0.08,0.13,-0.98,4.21,0.49,1.77
27.5560,0.09,0.14,-0.98,4.21,0.31,1.77
27.5710,0.09,0.13,-0.98,3.78,0.00,1.83
27.5870,0.09,0.14,-0.98,3.30,0.61,1.83
27.6010,0.09,0.13,-0.98,3.36,0.49,1.77
27.6150,0.09,0.13,-0.98,3.36,0.49,1.65
27.6320,0.09,0.14,-0.98,3.42,0.43,1.59
27.6480,0.09,0.13,-0.98,2.93,0.85,1.65
27.6640,0.09,0.13,-0.98,2.81,0.67,1.59
27.6790,0.09,0.13,-0.99,2.75,0.43,1.65
27.6950,0.09,0.14,-0.98,3.05,0.49,1.77
27.7090,0.09,0.13,-0.98,2.93,0.49,1.65
27.7240,0.09,0.13,-0.98,3.30,0.98,1.65
27.7380,0.09,0.13,-0.98,3.36,0.61,1.65
27.7530,0.08,0.13,-0.98,3.66,0.24,1.71
27.7680,0.08,0.13,-0.98,3.78,0.55,1.59
27.7840,0.08,0.13,-0.98,3.91,0.73,1.65
27.7990,0.09,0.14,-0.98,3.72,0.98,1.77
27.8140,0.09,0.13,-0.98,3.91,0.49,1.95
27.8290,0.08,0.13,-0.98,3.72,1.04,1.83
27.8440,0.09,0.14,-0.98,3.66,0.67,1.71
27.8590,0.09,0.13,-0.98,3.42,0.79,1.77
27.8740,0.09,0.13,-0.98,3.54,0.73,1.77
27.8890,0.09,0.13,-0.98,3.60,1.04,1.77
27.9030,0.09,0.13,-0.98,3.48,0.92,1.77
27.9180,0.09,0.13,-0.98,3.60,0.92,1.77
27.9340,0.10,0.12,-0.98,3.42,0.49,1.53
27.9490,0.08,0.13,-0.98,3.48,0.85,1.71
27.9640,0.08,0.14,-0.98,3.54,0.92,1.22
27.9790,0.08,0.14,-0.98,3.36,0.98,1.34
27.9940,0.08,0.15,-0.98,3.17,0.37,1.83
28.0090,0.09,0.14,-0.98,3.05,0.79,1.89
28.0230,0.09,0.14,-0.98,3.05,0.73,1.77
28.0380,0.08,0.13,-0.98,3.23,0.43,1.71
28.0530,0.08,0.14,-0.98,3.54,0.55,1.71
28.0690,0.09,0.13,-0.98,3.11,0.55,1.65
28.0850,0.09,0.14,-0.98,3.11,0.49,1.71
28.1000,0.09,0.13,-0.98,3.23,0.79,1.71
28.1140,0.09,0.13,-0.98,3.36,0.49,1.65
28.1300,0.09,0.14,-0.98,3.36,0.92,1.71
28.1450,0.09,0.14,-0.98,3.54,0.73,1.77
28.1610,0.09,0.14,-0.98,3.60,0.73,1.59
28.1750,0.08,0.14,-0.98,3.17,0.85,1.71
28.1910,0.08,0.13,-0.98,3.23,0.43,1.71
28.2070,0.09,0.14,-0.98,3.23,0.73,1.83
28.2210,0.09,0.14,-0.98,3.42,0.61,1.89
28.2370,0.08,0.13,-0.98,3.42,0.67,1.65
28.2520,0.09,0.13,-0.98,3.30,0.79,1.65
28.2670,0.09,0.13,-0.98,3.48,0.67,1.83
28.2820,0.09,0.14,-0.98,3.36,0.73,1.77
28.2980,0.09,0.13,-0.98,3.48,0.67,1.65
28.3140,0.08,0.13,-0.98,3.30,0.37,1.65
28.3290,0.09,0.13,-0.98,3.17,0.49,1.65
28.3450,0.09,0.13,-0.98,3.42,0.49,1.77
28.3600,0.09,0.13,-0.98,3.23,0.00,1.65
28.3750,0.09,0.13,-0.98,3.30,0.43,1.71
28.3900,0.09,0.13,-0.98,3.11,0.49,1.77
28.4040,0.09,0.13,-0.98,3.42,0.61,1.83
28.4200,0.09,0.13,-0.98,3.05,0.73,1.71
28.4370,0.09,0.13,-0.98,3.17,0.73,1.71
28.4510,0.09,0.13,-0.98,3.36,0.31,1.59
28.4680,0.09,0.13,-0.98,3.54,0.37,1.65
28.4840,0.09,0.14,-0.98,3.48,0.79,1.71
28.4990,0.09,0.14,-0.98,3.54,0.31,1.59
28.5140,0.08,0.13,-0.98,3.42,0.49,1.65
28.5290,0.09,0.13,-0.98,3.36,0.67,1.65
28.5430,0.09,0.13,-0.98,3.23,0.67,1.59
28.5580,0.09,0.13,-0.98,2.99,0.55,1.71
28.5740,0.09,0.13,-0.98,3.11,0.43,1.53
28.5900,0.08,0.14,-0.98,3.05,0.61,1.59
28.6060,0.09,0.13,-0.98,2.87,0.98,1.71
28.6210,0.09,0.13,-0.98,3.05,0.85,1.71
28.6380,0.09,0.13,-0.98,3.11,0.55,1.77
28.6540,0.09,0.13,-0.98,3.30,0.61,1.71
28.6680,0.09,0.13,-0.98,3.54,0.98,1.65
28.6830,0.09,0.16,-0.98,3.85,0.73,1.95
28.6970,0.08,0.14,-0.98,3.48,0.98,1.83
28.7140,0.09,0.13,-0.98,3.72,0.37,1.59
28.7310,0.09,0.13,-0.98,3.30,0.79,1.71
28.7470,0.09,0.13,-0.98,3.23,0.67,1.77
28.7630,0.08,0.14,-0.99,3.36,0.79,1.53
28.7780,0.09,0.13,-0.98,3.30,0.79,1.71
28.7930,0.09,0.14,-0.98,3.17,0.98,1.71
28.8070,0.08,0.13,-0.98,3.48,1.04,1.71
28.8220,0.08,0.13,-0.98,3.17,0.98,1.65
28.8370,0.09,0.13,-0.98,3.48,0.43,1.71
28.8510,0.09,0.13,-0.98,3.42,0.61,1.77
28.8680,0.09,0.13,-0.98,3.48,0.67,1.71
28.8830,0.08,0.13,-0.98,3.36,0.73,1.71
28.8980,0.09,0.13,-0.98,3.42,0.37,1.59
28.9150,0.09,0.13,-0.98,3.48,0.61,1.83
28.9310,0.09,0.14,-0.98,3.48,0.49,1.71
28.9480,0.09,0.13,-0.98,3.48,0.06,1.77
28.9640,0.09,0.13,-0.98,3.36,0.31,1.65
28.9800,0.09,0.13,-0.98,3.36,0.49,1.59
28.9950,0.08,0.14,-0.99,3.42,0.55,1.71
29.0110,0.09,0.14,-0.99,3.42,0.55,1.89
29.0250,0.09,0.13,-0.98,3.36,0.49,1.89
29.0400,0.08,0.13,-0.98,3.60,0.61,1.65
29.0550,0.08,0.13,-0.98,3.36,0.67,1.77
29.0700,0.09,0.13,-0.98,3.42,0.61,1.77
29.0840,0.09,0.13,-0.98,3.42,0.67,1.59
29.1010,0.09,0.14,-0.98,3.36,0.67,1.77
29.1150,0.09,0.13,-0.98,3.36,0.61,1.71
29.1320,0.09,0.13,-0.98,3.42,0.98,1.65
29.1480,0.08,0.14,-0.98,3.42,0.92,1.65
29.1640,0.09,0.13,-0.98,3.30,0.49,1.77
29.1810,0.09,0.13,-0.98,3.48,0.49,1.71
29.1970,0.08,0.13,-0.98,3.48,0.85,1.65
29.2130,0.09,0.13,-0.98,3.36,0.67,1.77
29.2280,0.09,0.13,-0.98,3.30,0.49,1.65
29.2430,0.09,0.13,-0.98,3.23,0.85,1.59
29.2580,0.08,0.13,-0.98,3.30,0.73,1.65
29.2730,0.09,0.13,-0.98,3.48,0.55,1.71
29.2870,0.09,0.13,-0.98,3.30,1.22,1.83
29.3050,0.09,0.13,-0.98,3.23,0.55,1.71
29.3190,0.09,0.13,-0.98,3.42,0.55,1.77
29.3360,0.09,0.13,-0.98,3.36,0.85,1.65
29.3510,0.09,0.13,-0.98,3.36,0.49,1.83
29.3660,0.09,0.13,-0.98,3.36,0.67,1.77
29.3820,0.09,0.13,-0.98,3.48,0.24,1.77
29.3990,0.09,0.13,-0.98,3.54,0.37,1.53
29.4130,0.09,0.13,-0.98,3.48,0.61,1.65
29.4300,0.09,0.13,-0.98,3.23,0.73,1.83
29.4470,0.09,0.13,-0.98,3.36,0.55,1.77
29.4630,0.09,0.13,-0.98,3.42,0.67,1.77
29.4790,0.09,0.13,-0.98,3.42,0.92,1.65
29.4950,0.09,0.14,-0.98,3.36,0.37,1.77
29.5100,0.09,0.13,-0.98,3.36,0.67,1.71
29.5260,0.09,0.13,-0.98,3.42,0.43,1.65
29.5400,0.09,0.13,-0.98,3.48,0.79,1.53
29.5540,0.09,0.13,-0.98,3.54,0.79,1.65
29.5690,0.09,0.13,-0.98,3.42,0.79,1.59
29.5850,0.09,0.14,-0.98,3.36,0.85,1.83
29.5990,0.09,0.13,-0.98,3.23,0.55,1.71
29.6140,0.09,0.13,-0.98,3.36,0.49,1.65
29.6310,0.09,0.13,-0.98,3.36,0.73,1.59
29.6470,0.09,0.13,-0.98,3.30,0.61,1.71
29.6620,0.09,0.14,-0.98,3.36,0.37,1.71
29.6790,0.09,0.13,-0.98,3.11,0.61,1.71
29.6950,0.09,0.13,-0.98,3.36,0.98,1.71
29.7100,0.09,0.13,-0.98,3.48,0.43,1.65
29.7250,0.09,0.13,-0.98,3.42,0.43,1.77
29.7410,0.09,0.13,-0.98,3.36,0.31,1.71
29.7540,0.09,0.13,-0.98,3.42,0.73,1.71
29.7700,0.09,0.13,-0.98,3.36,0.49,1.83
29.7860,0.09,0.13,-0.98,3.23,0.67,1.59
29.8010,0.09,0.13,-0.98,3.36,0.49,1.65
29.8160,0.09,0.13,-0.98,3.36,0.85,1.53
29.8320,0.09,0.13,-0.98,3.36,0.18,1.71
29.8490,0.09,0.13,-0.98,3.42,0.79,1.77
29.8630,0.09,0.13,-0.98,3.36,0.61,1.65
29.8810,0.09,0.13,-0.98,3.48,0.67,1.83
29.8960,0.09,0.13,-0.98,3.36,0.73,1.71
29.9130,0.09,0.13,-0.98,3.36,0.61,1.65
29.9280,0.09,0.13,-0.98,3.42,0.37,1.71
29.9430,0.09,0.13,-0.98,3.42,0.24,1.65
29.9580,0.09,0.13,-0.98,3.23,0.61,1.71
29.9720,0.08,0.13,-0.98,3.30,0.85,1.71
29.9880,0.09,0.13,-0.98,3.30,0.98,1.71
30.0030,0.09,0.13,-0.98,3.42,0.73,1.71
30.0190,0.09,0.13,-0.98,3.30,0.49,1.65
30.0340,0.09,0.14,-0.98,3.36,0.55,1.77
30.0510,0.09,0.13,-0.98,3.30,0.85,1.83
30.0650,0.09,0.13,-0.98,3.36,0.85,1.77
30.0820,0.09,0.13,-0.98,3.30,0.92,1.71
30.0970,0.08,0.13,-0.98,3.36,0.92,1.77
30.1130,0.09,0.13,-0.98,3.48,0.92,1.89
30.1270,0.09,0.13,-0.98,3.30,0.85,1.77
30.1440,0.09,0.13,-0.98,3.48,0.85,1.71
30.1580,0.09,0.13,-0.98,3.48,0.85,1.83
30.1740,0.09,0.13,-0.98,3.36,0.73,1.71
30.1890,0.09,0.13,-0.98,3.36,0.67,1.53
30.2040,0.09,0.13,-0.98,3.42,0.73,1.65
30.2190,0.09,0.13,-0.98,3.54,0.61,1.71
30.2340,0.09,0.13,-0.98,3.36,0.73,1.77
30.2490,0.09,0.13,-0.98,3.48,0.85,1.71
30.2660,0.09,0.13,-0.98,3.36,1.04,1.77
30.2820,0.09,0.13,-0.98,3.36,0.98,1.83
30.2990,0.08,0.13,-0.98,3.36,0.85,1.71
30.3150,0.09,0.13,-0.98,3.48,1.04,1.71
30.3310,0.09,0.13,-0.98,3.36,0.92,1.77
30.3470,0.09,0.13,-0.98,3.36,0.79,1.77
30.3620,0.09,0.13,-0.98,3.36,0.49,1.71
30.3760,0.09,0.13,-0.98,3.48,0.79,1.65
30.3910,0.09,0.13,-0.98,3.23,0.79,1.59
30.4060,0.09,0.14,-0.98,3.30,0.67,1.65
30.4230,0.09,0.13,-0.98,3.30,0.79,1.71
30.4370,0.09,0.13,-0.98,3.30,1.04,1.77
30.4530,0.09,0.13,-0.98,3.23,0.92,1.65
30.4700,0.09,0.13,-0.98,3.23,0.61,1.77
30.4870,0.09,0.13,-0.98,3.36,0.73,1.71
30.5030,0.09,0.13,-0.98,3.23,0.92,1.71
30.5190,0.08,0.13,-0.98,3.42,0.73,1.77
30.5350,0.09,0.13,-0.98,3.36,0.92,1.83
30.5520,0.09,0.13,-0.98,3.36,0.85,1.83
30.5680,0.09,0.13,-0.98,3.36,0.67,1.89
30.5820,0.09,0.13,-0.98,3.36,0.85,1.77
30.5980,0.09,0.13,-0.98,3.54,0.49,1.65
30.6140,0.09,0.13,-0.98,3.42,0.98,1.77
30.6290,0.09,0.13,-0.98,3.05,0.79,1.71
30.6430,0.09,0.13,-0.98,3.54,0.61,1.71
30.6600,0.09,0.13,-0.98,3.30,0.85,1.59
30.6760,0.09,0.13,-0.98,3.78,0.55,1.59
30.6900,0.09,0.13,-0.98,3.48,0.79,1.53
30.7050,0.09,0.13,-0.98,3.48,0.55,1.65
30.7200,0.09,0.13,-0.98,3.17,0.49,1.71
30.7370,0.09,0.14,-0.98,3.23,0.18,1.59
30.7530,0.09,0.13,-0.98,2.81,0.61,1.65
30.7670,0.09,0.13,-0.98,2.81,0.55,1.65
30.7810,0.09,0.13,-0.98,3.05,0.61,1.65
30.7970,0.09,0.13,-0.98,3.23,0.85,1.83
30.8120,0.09,0.14,-0.98,3.66,0.73,1.65
30.8270,0.09,0.13,-0.98,3.48,0.67,1.83
30.8420,0.09,0.13,-0.98,3.54,0.55,1.77
30.8560,0.09,0.13,-0.98,3.36,0.73,1.65
30.8730,0.09,0.13,-0.98,3.30,0.85,1.65
30.8880,0.08,0.13,-0.98,3.23,0.85,1.77
30.9040,0.09,0.14,-0.98,3.54,0.55,1.77
30.9200,0.09,0.13,-0.98,3.42,0.61,1.59
30.9350,0.09,0.13,-0.98,3.42,0.73,1.65
30.9520,0.09,0.13,-0.98,3.48,0.31,1.59
30.9680,0.09,0.14,-0.98,3.54,0.92,1.77
30.9830,0.09,0.13,-0.98,3.48,0.79,1.71
30.9980,0.09,0.13,-0.98,3.60,0.55,1.59
31.0120,0.09,0.14,-0.98,2.93,0.61,1.77
31.0280,0.09,0.14,-0.98,2.99,0.79,1.71
31.0430,0.09,0.13,-0.98,3.42,0.61,1.89
31.0590,0.09,0.13,-0.98,3.30,0.37,1.65
31.0750,0.09,0.13,-0.98,3.60,0.61,1.77
31.0900,0.09,0.13,-0.98,3.60,0.73,1.77
31.1060,0.09,0.13,-0.98,3.66,0.85,1.77
31.1180,0.09,0.13,-0.98,3.48,0.55,1.71
31.1350,0.09,0.13,-0.98,3.23,0.79,1.71
31.1510,0.09,0.13,-0.98,3.11,0.61,1.71
31.1660,0.09,0.13,-0.98,3.30,0.43,1.71
31.1800,0.09,0.13,-0.98,3.23,0.67,1.59
31.1970,0.08,0.13,-0.98,3.36,0.67,1.71
31.2130,0.09,0.13,-0.98,3.42,0.79,1.65
31.2290,0.09,0.13,-0.98,3.30,0.67,1.77
31.2450,0.09,0.14,-0.98,3.42,0.43,1.71
31.2580,0.09,0.13,-0.98,3.30,0.37,1.71
31.2750,0.09,0.13,-0.98,3.42,0.55,1.71
31.2890,0.09,0.14,-0.98,3.42,0.92,1.77
31.3050,0.09,0.13,-0.98,3.36,0.67,1.59
31.3190,0.09,0.13,-0.98,3.17,0.37,1.59
31.3360,0.08,0.13,-0.98,3.23,0.73,1.65
31.3520,0.09,0.13,-0.98,3.36,0.79,1.59
31.3650,0.09,0.13,-0.98,3.30,0.61,1.65
31.3840,0.09,0.13,-0.98,3.30,0.61,1.71
31.3980,0.09,0.13,-0.98,3.30,0.73,1.71
31.4150,0.09,0.13,-0.98,3.23,0.79,1.77
31.4320,0.09,0.13,-0.98,3.11,0.92,1.77
31.4480,0.09,0.13,-0.98,3.36,0.73,1.71
31.4620,0.09,0.13,-0.98,3.36,0.85,1.77
31.4780,0.09,0.13,-0.98,3.36,0.49,1.59
31.4930,0.09,0.13,-0.98,3.30,0.73,1.77
31.5080,0.09,0.13,-0.98,3.17,0.92,1.83
31.5220,0.09,0.13,-0.98,3.23,0.49,1.65
31.5390,0.09,0.13,-0.98,3.48,0.61,1.71
31.5530,0.09,0.13,-0.98,3.30,0.49,1.71
31.5690,0.09,0.13,-0.98,3.36,0.79,1.71
31.5840,0.09,0.13,-0.98,3.54,0.24,1.59
31.5990,0.08,0.13,-0.98,3.42,0.61,1.77
31.6160,0.09,0.13,-0.98,3.42,0.79,1.59
31.6310,0.09,0.13,-0.98,3.30,0.55,1.65
31.6480,0.09,0.13,-0.98,3.36,0.79,1.89
31.6630,0.09,0.13,-0.98,3.36,0.92,1.65
31.6780,0.09,0.13,-0.98,3.48,0.24,1.65
31.6940,0.09,0.13,-0.98,3.48,0.49,1.71
31.7090,0.08,0.13,-0.98,3.42,0.61,1.65
31.7240,0.09,0.14,-0.98,3.42,0.92,1.59
31.7390,0.09,0.13,-0.98,3.42,0.61,1.71
31.7550,0.08,0.13,-0.98,3.30,0.55,1.65
31.7700,0.09,0.13,-0.98,3.36,0.55,1.65
31.7870,0.09,0.13,-0.98,3.48,0.43,1.65
31.8020,0.09,0.14,-0.98,3.91,0.79,1.83
31.8190,0.09,0.13,-0.98,3.36,0.98,1.83
31.8350,0.09,0.13,-0.98,3.54,1.04,1.65
31.8510,0.09,0.13,-0.98,3.42,0.85,1.59
31.8660,0.09,0.13,-0.98,3.48,0.85,1.77
31.8820,0.09,0.13,-0.98,3.36,1.16,1.71
31.8970,0.09,0.13,-0.98,3.30,0.73,1.77
31.9120,0.09,0.13,-0.98,3.17,0.67,1.71
31.9260,0.09,0.13,-0.98,3.60,0.43,1.77
31.9420,0.08,0.14,-0.98,3.17,0.61,1.71
31.9550,0.09,0.13,-0.98,3.48,0.98,1.65
31.9710,0.09,0.13,-0.98,3.30,0.55,1.65
31.9860,0.09,0.13,-0.98,3.30,0.73,1.65
32.0020,0.09,0.13,-0.98,3.36,0.79,1.71
32.0190,0.09,0.13,-0.98,3.36,0.79,1.71
32.0360,0.09,0.13,-0.98,3.60,0.55,1.77
32.0510,0.09,0.13,-0.98,3.48,0.31,1.83
32.0670,0.09,0.13,-0.98,3.36,0.49,1.65
32.0850,0.09,0.13,-0.98,3.42,0.98,1.71
32.1010,0.09,0.13,-0.98,3.36,0.37,1.77
32.1160,0.09,0.13,-0.98,3.23,1.04,1.65
32.1300,0.09,0.13,-0.98,3.23,0.98,1.71
32.1450,0.09,0.13,-0.98,3.54,0.61,1.83
32.1600,0.09,0.13,-0.98,3.23,0.67,1.77
32.1760,0.09,0.13,-0.98,3.42,0.37,1.71
32.1920,0.09,0.13,-0.98,3.48,0.73,1.71
32.2070,0.09,0.13,-0.98,3.42,0.73,1.83
32.2230,0.09,0.13,-0.98,3.30,0.55,1.65
32.2380,0.08,0.13,-0.98,3.30,0.61,1.53
32.2550,0.08,0.13,-0.98,3.36,0.49,1.71
32.2690,0.09,0.14,-0.98,3.54,0.37,1.77
32.2860,0.09,0.13,-0.98,3.23,1.22,1.71
32.3010,0.09,0.13,-0.98,3.36,0.49,1.77
32.3180,0.09,0.13,-0.98,3.36,0.61,1.71
32.3350,0.09,0.13,-0.98,3.48,0.55,1.71
32.3510,0.09,0.13,-0.98,3.36,0.98,1.71
32.3650,0.09,0.13,-0.98,3.30,0.55,1.65
32.3810,0.08,0.14,-0.98,3.23,0.85,1.71
32.3950,0.09,0.13,-0.98,3.23,0.79,1.83
32.4120,0.09,0.13,-0.98,3.36,0.79,1.65
32.4290,0.09,0.13,-0.98,3.36,0.55,1.71
32.4450,0.09,0.13,-0.98,3.36,0.49,1.83
32.4610,0.09,0.13,-0.98,3.36,1.16,1.65
32.4760,0.09,0.13,-0.98,3.30,1.10,1.59
32.4910,0.08,0.13,-0.98,3.36,0.37,1.77
32.5070,0.09,0.13,-0.98,3.17,0.85,1.77
32.5230,0.09,0.13,-0.98,3.42,0.55,1.77
32.5370,0.09,0.13,-0.98,3.23,0.85,1.71
32.5550,0.09,0.13,-0.98,3.36,0.79,1.77
32.5690,0.09,0.13,-0.98,3.36,0.55,1.77
32.5840,0.09,0.13,-0.98,3.42,0.98,1.71
32.5990,0.09,0.13,-0.98,3.17,0.79,1.77
32.6160,0.09,0.13,-0.98,3.36,0.61,1.77
32.6300,0.09,0.13,-0.98,3.36,0.43,1.65
32.6460,0.09,0.13,-0.98,3.23,0.67,1.65
32.6630,0.09,0.13,-0.98,3.36,0.67,1.65
32.6790,0.09,0.13,-0.98,3.36,0.67,1.65
32.6940,0.09,0.13,-0.98,3.36,0.49,1.65
32.7110,0.09,0.13,-0.98,3.48,0.55,1.53
32.7270,0.09,0.13,-0.98,3.48,0.73,1.83
32.7420,0.09,0.13,-0.98,3.48,0.24,1.71
32.7560,0.09,0.13,-0.98,3.42,0.79,1.77
32.7730,0.09,0.13,-0.98,3.42,0.85,1.71
32.7880,0.09,0.13,-0.98,3.42,0.67,1.83
32.8030,0.09,0.13,-0.98,3.42,0.73,1.77
32.8180,0.09,0.13,-0.98,3.23,0.79,1.65
32.8330,0.09,0.13,-0.98,3.30,0.55,1.65
32.8480,0.09,0.13,-0.98,3.23,0.85,1.71
32.8630,0.09,0.13,-0.98,3.42,0.79,1.77
32.8790,0.08,0.13,-0.98,3.48,0.55,1.53
32.8970,0.09,0.13,-0.98,3.30,0.67,1.77
32.9120,0.09,0.13,-0.98,3.42,0.55,1.71
32.9290,0.09,0.13,-0.98,3.42,0.98,1.77
32.9450,0.09,0.13,-0.98,3.42,0.79,1.71
32.9610,0.09,0.13,-0.98,3.42,0.49,1.59
32.9760,0.09,0.14,-0.98,3.30,0.61,1.71
32.9910,0.09,0.13,-0.98,3.48,0.49,1.71
33.0060,0.09,0.13,-0.98,3.30,0.61,1.77
33.0210,0.09,0.13,-0.98,3.42,0.73,1.71
33.0360,0.08,0.13,-0.98,3.42,0.85,1.65
33.0510,0.09,0.13,-0.98,3.36,0.24,1.65
33.0660,0.09,0.13,-0.98,3.36,0.92,1.77
33.0820,0.09,0.14,-0.98,3.54,0.55,1.83
33.0980,0.09,0.13,-0.98,3.42,0.79,1.71
33.1140,0.09,0.13,-0.98,3.30,0.92,1.71
33.1300,0.09,0.13,-0.98,3.48,0.55,1.71
33.1460,0.09,0.13,-0.98,3.36,0.55,1.77
33.1620,0.09,0.13,-0.98,3.30,0.92,1.77
33.1780,0.09,0.13,-0.98,3.36,0.61,1.71
33.1940,0.08,0.13,-0.98,3.48,0.61,1.71
33.2090,0.09,0.13,-0.98,3.48,0.79,1.77
33.2240,0.09,0.13,-0.98,3.42,0.49,1.83
33.2390,0.09,0.13,-0.98,3.42,0.49,1.59
33.2540,0.09,0.13,-0.98,3.48,0.73,1.71
33.2690,0.09,0.13,-0.98,3.54,0.67,1.65
33.2840,0.09,0.13,-0.98,3.54,0.49,1.71
33.2980,0.09,0.13,-0.98,3.48,0.73,1.89
33.3140,0.09,0.13,-0.98,3.54,0.67,1.59
33.3280,0.09,0.13,-0.98,3.54,0.24,1.53
33.3440,0.09,0.13,-0.98,3.36,0.67,1.77
33.3590,0.09,0.13,-0.98,3.48,0.73,1.77
33.3730,0.09,0.13,-0.98,3.54,0.98,1.89
33.3890,0.09,0.13,-0.98,3.23,0.79,1.77
33.4030,0.09,0.13,-0.98,3.48,0.85,1.71
33.4180,0.08,0.13,-0.98,3.30,0.49,1.77
33.4350,0.09,0.13,-0.98,3.36,0.85,1.65
33.4490,0.09,0.13,-0.98,3.36,0.31,1.65
33.4660,0.09,0.13,-0.98,3.48,0.98,1.71
33.4830,0.09,0.13,-0.98,3.36,0.37,1.77
33.4990,0.09,0.13,-0.98,3.42,0.79,1.59
33.5140,0.09,0.13,-0.98,3.42,0.73,1.71
33.5280,0.09,0.13,-0.98,3.42,0.61,1.77
33.5450,0.09,0.13,-0.98,3.48,0.43,1.77
33.5610,0.09,0.13,-0.98,3.30,0.85,1.71
33.5760,0.09,0.13,-0.98,3.30,0.61,1.65
33.5910,0.09,0.13,-0.98,3.17,0.85,1.77
33.6070,0.09,0.13,-0.98,3.36,0.79,1.65
33.6230,0.09,0.13,-0.98,3.54,0.79,1.89
33.6390,0.09,0.13,-0.98,3.36,0.85,1.71
33.6520,0.09,0.13,-0.98,3.48,0.85,1.89
33.6670,0.09,0.13,-0.98,3.23,0.55,1.65
33.6810,0.08,0.13,-0.98,3.42,0.85,1.83
33.6980,0.09,0.13,-0.98,3.42,1.04,1.71
33.7140,0.09,0.14,-0.98,3.54,0.67,1.83
33.7290,0.09,0.13,-0.98,3.54,0.67,1.65
33.7450,0.09,0.13,-0.98,3.30,0.67,1.53
33.7620,0.08,0.13,-0.98,3.60,0.43,1.65
33.7780,0.09,0.13,-0.98,3.42,0.67,1.77
33.7940,0.09,0.13,-0.98,3.36,0.79,1.77
33.8110,0.09,0.13,-0.98,3.42,0.79,1.65
33.8270,0.09,0.13,-0.98,3.42,0.61,1.65
33.8410,0.09,0.13,-0.98,3.36,0.98,1.71
33.8570,0.09,0.14,-0.98,3.42,0.18,1.65
33.8710,0.09,0.13,-0.98,3.23,0.79,1.83
33.8870,0.09,0.13,-0.98,3.36,0.73,1.71
33.9020,0.09,0.13,-0.98,3.54,0.18,1.65
33.9160,0.09,0.13,-0.98,3.23,0.92,1.65
33.9320,0.09,0.13,-0.98,3.36,0.85,1.65
33.9480,0.09,0.13,-0.98,3.30,0.98,1.71
33.9630,0.09,0.13,-0.98,3.48,0.92,1.71
33.9790,0.09,0.13,-0.98,3.42,0.79,1.83
33.9950,0.09,0.13,-0.98,3.36,0.79,1.71
34.0090,0.08,0.13,-0.98,3.48,0.61,1.77
34.0230,0.08,0.13,-0.98,3.54,0.79,1.65
34.0400,0.09,0.13,-0.98,3.48,0.67,1.65
34.0550,0.09,0.13,-0.98,3.30,0.98,1.71
34.0710,0.09,0.13,-0.98,3.23,0.92,1.71
34.0870,0.09,0.13,-0.98,3.48,0.67,1.65
34.1030,0.09,0.13,-0.98,3.42,0.67,1.59
34.1190,0.09,0.13,-0.98,3.36,0.79,1.77
34.1350,0.09,0.13,-0.98,3.23,0.79,1.89
34.1490,0.09,0.13,-0.98,3.23,0.79,1.83
34.1650,0.09,0.13,-0.98,3.36,0.73,1.71
34.1800,0.09,0.13,-0.98,3.30,1.04,1.77
34.1950,0.09,0.13,-0.98,3.30,0.92,1.71
34.2100,0.09,0.13,-0.98,3.36,0.92,1.71
34.2240,0.09,0.14,-0.98,3.23,0.67,1.71
34.2400,0.09,0.13,-0.98,3.23,0.79,1.59
34.2550,0.09,0.13,-0.98,3.30,0.73,1.71
34.2720,0.08,0.13,-0.98,3.23,0.79,1.89
34.2870,0.09,0.14,-0.98,3.17,0.67,1.65
34.3030,0.09,0.13,-0.98,3.36,0.79,1.59
34.3190,0.08,0.13,-0.98,3.42,0.73,1.65
34.3350,0.08,0.13,-0.98,3.48,0.67,1.77
34.3500,0.09,0.13,-0.98,3.23,0.92,1.71
34.3660,0.09,0.14,-0.98,3.42,0.55,1.83
34.3790,0.09,0.13,-0.98,3.42,0.73,1.71
34.3960,0.09,0.13,-0.98,3.42,1.34,1.77
34.4100,0.08,0.13,-0.98,3.42,0.73,1.71
34.4260,0.09,0.13,-0.98,3.42,0.85,1.71
34.4410,0.09,0.13,-0.98,3.36,0.79,1.83
34.4560,0.09,0.13,-0.98,3.42,0.31,1.71
34.4730,0.08,0.13,-0.98,3.54,0.67,1.83
34.4890,0.09,0.13,-0.98,3.36,0.49,1.77
34.5030,0.09,0.13,-0.98,3.48,0.67,1.59
34.5170,0.09,0.14,-0.98,3.48,0.67,1.77
34.5340,0.08,0.13,-0.98,3.30,0.79,1.65
34.5490,0.09,0.13,-0.98,3.48,0.67,1.83
34.5650,0.09,0.14,-0.98,3.30,0.55,1.83
34.5820,0.09,0.13,-0.98,3.42,0.55,1.59
34.5990,0.08,0.13,-0.98,3.36,0.55,1.71
34.6150,0.08,0.13,-0.98,3.54,0.37,1.59
34.6310,0.09,0.13,-0.98,3.48,0.73,1.59
34.6470,0.09,0.13,-0.98,3.48,0.61,1.71
34.6640,0.09,0.13,-0.98,3.23,0.85,1.65
34.6800,0.09,0.13,-0.98,3.30,0.55,1.65
34.6940,0.09,0.13,-0.98,3.36,0.49,1.71
34.7100,0.08,0.13,-0.98,3.30,0.73,1.65
34.7250,0.09,0.13,-0.98,3.30,0.98,1.89
34.7400,0.09,0.13,-0.98,3.30,0.92,1.71
34.7570,0.09,0.13,-0.98,3.42,0.79,1.77
34.7720,0.09,0.14,-0.98,3.23,0.67,1.65
34.7880,0.09,0.13,-0.98,3.17,0.55,1.59
34.8040,0.09,0.13,-0.98,3.48,0.92,1.65
34.8210,0.09,0.13,-0.98,3.36,0.37,1.65
34.8370,0.09,0.13,-0.98,3.36,0.55,1.71
34.8520,0.09,0.13,-0.98,3.48,0.43,1.65
34.8660,0.09,0.14,-0.98,3.23,0.24,1.65
34.8830,0.09,0.13,-0.98,3.36,0.24,1.59
34.8980,0.09,0.14,-0.98,3.48,0.24,1.53
34.9150,0.09,0.13,-0.98,3.36,0.61,1.65
34.9300,0.09,0.13,-0.98,3.30,0.55,1.53
34.9470,0.09,0.13,-0.98,3.36,0.49,1.71
34.9630,0.09,0.13,-0.98,3.42,0.92,1.71
34.9790,0.09,0.13,-0.98,3.48,0.55,1.77
34.9930,0.09,0.13,-0.98,3.30,0.61,1.71
35.0070,0.09,0.13,-0.98,3.54,0.67,1.65
35.0230,0.09,0.13,-0.98,3.54,0.67,1.71
35.0400,0.09,0.13,-0.98,3.36,0.67,1.59
35.0550,0.09,0.13,-0.98,3.48,0.49,1.71
35.0690,0.09,0.13,-0.98,3.36,0.31,1.71
35.0860,0.09,0.13,-0.98,3.30,0.55,1.71
35.1020,0.09,0.13,-0.98,3.30,0.67,1.71
35.1150,0.09,0.13,-0.98,3.48,0.92,1.77
35.1330,0.09,0.13,-0.98,3.23,0.67,1.77
35.1490,0.09,0.13,-0.98,3.30,0.61,1.71
35.1640,0.09,0.13,-0.98,3.36,0.37,1.77
35.1790,0.09,0.13,-0.98,3.30,0.85,1.71
35.1930,0.09,0.13,-0.98,3.30,0.73,1.71
35.2090,0.09,0.13,-0.98,3.23,0.98,1.77
35.2240,0.09,0.13,-0.98,3.30,0.55,1.71
35.2400,0.09,0.13,-0.98,3.42,0.73,1.71
35.2560,0.09,0.13,-0.98,3.30,0.85,1.83
35.2720,0.09,0.13,-0.98,3.36,0.73,1.71
35.2880,0.08,0.14,-0.98,3.36,0.43,1.77
35.3030,0.09,0.13,-0.98,3.30,0.31,1.65
35.3190,0.09,0.13,-0.98,3.42,0.55,1.77
35.3330,0.09,0.14,-0.98,3.54,0.37,1.59
35.3500,0.09,0.13,-0.98,3.42,0.37,1.65
35.3650,0.09,0.13,-0.98,3.48,0.37,1.71
35.3800,0.09,0.13,-0.98,3.54,0.43,1.71
35.3950,0.08,0.13,-0.98,3.48,0.79,1.65
35.4110,0.09,0.13,-0.98,3.42,0.55,1.46
35.4270,0.09,0.13,-0.98,3.54,0.37,1.71
35.4430,0.09,0.13,-0.98,3.17,0.67,1.89
35.4570,0.09,0.14,-0.98,3.36,0.55,1.71
35.4730,0.09,0.13,-0.98,3.54,0.61,1.71
35.4890,0.09,0.13,-0.98,3.60,0.61,1.71
35.5040,0.09,0.13,-0.98,3.42,0.61,1.71
35.5200,0.09,0.13,-0.98,3.30,0.55,1.53
35.5350,0.09,0.13,-0.98,3.54,0.43,1.65
35.5480,0.09,0.13,-0.98,3.36,0.49,1.65
35.5650,0.09,0.13,-0.98,3.23,0.55,1.77
35.5810,0.09,0.14,-0.98,3.36,0.67,1.65
35.5980,0.09,0.14,-0.98,3.48,0.85,1.59
35.6120,0.09,0.13,-0.98,3.36,0.43,1.83
35.6290,0.08,0.14,-0.98,3.30,0.55,1.89
35.6450,0.08,0.14,-0.98,3.30,0.12,2.69
35.6610,0.06,0.15,-0.98,3.36,0.49,4.21
35.6780,0.04,0.15,-0.98,2.99,0.00,6.77
35.6930,0.04,0.14,-0.98,3.05,-0.67,9.83
35.7090,0.05,0.12,-0.99,3.23,-1.04,13.67
35.7240,0.07,0.11,-0.98,3.54,-1.28,14.71
35.7390,0.10,0.08,-0.99,4.09,-0.92,11.96
35.7540,0.08,0.06,-0.99,6.10,0.49,4.94
35.7690,0.05,0.02,-1.00,7.02,2.14,-2.44
35.7830,0.02,-0.01,-1.02,5.00,2.62,-12.76
35.8000,0.03,-0.01,-1.00,3.72,4.15,-22.40
35.8150,0.08,0.06,-0.99,4.39,4.94,-25.51
35.8290,0.12,0.13,-0.98,5.68,5.49,-31.07
35.8460,0.14,0.15,-0.98,5.92,6.35,-35.34
35.8620,0.13,0.16,-0.97,7.14,7.14,-36.56
35.8770,0.10,0.15,-0.98,5.98,6.84,-38.02
35.8920,0.10,0.15,-0.98,5.74,6.71,-38.15
35.9080,0.05,0.14,-0.98,5.68,6.84,-38.21
35.9230,0.06,0.13,-0.98,5.74,5.86,-28.87
35.9380,0.12,0.16,-0.98,5.07,4.88,-21.73
35.9530,0.14,0.17,-0.97,5.07,3.97,-19.90
35.9670,0.13,0.17,-0.97,5.00,3.60,-17.76
35.9820,0.12,0.17,-0.97,4.52,3.36,-16.66
35.9980,0.09,0.15,-0.98,4.58,3.05,-15.75
36.0150,0.10,0.18,-0.98,4.76,3.11,-15.81
36.0290,0.12,0.20,-0.97,4.33,3.72,-16.97
36.0460,0.10,0.16,-0.98,4.64,3.05,-14.65
36.0630,0.08,0.11,-0.99,4.64,2.75,-11.41
36.0780,0.05,0.08,-0.99,5.00,2.44,-13.06
36.0950,0.06,0.09,-0.99,4.82,2.81,-13.98
36.1110,0.07,0.11,-0.99,5.13,2.56,-14.10
36.1270,0.09,0.15,-0.98,4.76,2.56,-13.24
36.1430,0.11,0.21,-0.97,4.76,2.69,-10.93
36.1580,0.12,0.25,-0.96,4.21,1.59,-6.90
36.1730,0.15,0.25,-0.96,3.11,0.61,-0.31
36.1880,0.06,0.15,-0.98,0.67,0.18,3.36
36.2030,0.07,0.18,-0.98,1.71,-0.73,10.31
36.2190,0.08,0.19,-0.97,2.32,-1.28,14.28
36.2340,0.10,0.22,-0.96,1.28,-1.53,18.13
36.2490,0.10,0.18,-0.97,1.53,-2.38,21.36
36.2660,0.10,0.13,-0.98,2.38,-2.08,23.74
36.2800,0.09,0.09,-0.99,2.50,-1.71,18.49
36.2960,0.08,0.07,-0.99,2.75,-0.61,12.45
36.3140,0.08,0.03,-1.00,2.99,-0.43,10.80
36.3280,0.11,0.05,-0.99,2.93,-0.24,3.17
36.3450,0.09,0.14,-0.98,4.64,0.92,1.89
36.3610,0.08,0.14,-0.98,2.99,0.55,1.71
36.3760,0.09,0.13,-0.98,2.20,0.43,1.65
36.3910,0.08,0.14,-0.98,2.38,0.49,1.77
36.4090,0.09,0.13,-0.98,3.17,0.18,4.52
36.4240,0.09,0.13,-0.98,3.66,0.37,2.50
36.4390,0.09,0.13,-0.98,4.52,0.79,1.53
36.4560,0.09,0.13,-0.99,4.58,0.67,1.46
36.4700,0.13,0.14,-0.98,4.21,0.98,-0.24
36.4860,0.09,0.12,-0.98,4.21,1.28,-2.87
36.5020,0.11,0.12,-0.98,4.15,1.28,-3.54
36.5180,0.10,0.13,-0.98,4.15,1.77,-7.02
36.5350,0.12,0.13,-0.98,4.21,2.75,-10.80
36.5520,0.09,0.12,-0.98,5.19,2.56,-14.59
36.5670,0.07,0.13,-0.98,5.43,3.30,-16.05
36.5830,0.06,0.14,-0.98,4.70,2.56,-12.57
36.5980,0.05,0.15,-0.98,4.27,2.38,-9.89
36.6120,0.06,0.13,-0.98,3.97,1.83,-5.92
36.6280,0.05,0.13,-0.98,3.36,2.08,-7.02
36.6430,0.08,0.14,-0.99,4.33,2.14,-6.35
36.6580,0.08,0.12,-0.98,4.03,1.65,-6.53
36.6740,0.07,0.14,-0.98,3.91,1.65,-4.64
36.6900,0.08,0.13,-0.98,3.54,1.34,-2.87
36.7050,0.09,0.12,-0.98,3.78,1.16,-2.26
36.7210,0.09,0.10,-0.98,3.97,2.01,-6.96
36.7350,0.08,0.11,-0.98,4.03,2.62,-11.41
36.7500,0.09,0.14,-0.98,4.03,2.32,-10.56
36.7670,0.08,0.16,-0.98,3.78,2.26,-9.40
36.7820,0.07,0.18,-0.97,3.78,1.53,-4.21
36.7980,0.10,0.18,-0.98,3.05,0.67,0.67
36.8130,0.08,0.13,-0.98,2.01,0.61,1.77
36.8290,0.09,0.13,-0.98,3.42,0.85,1.95
36.8450,0.09,0.13,-0.98,3.60,0.67,1.83
36.8590,0.09,0.13,-0.98,3.78,0.67,2.01
36.8750,0.07,0.13,-0.98,3.48,0.92,2.01
36.8890,0.09,0.13,-0.98,3.17,0.73,2.50
36.9050,0.07,0.13,-0.98,3.11,0.12,2.75
36.9210,0.08,0.13,-0.98,3.05,0.43,3.60
36.9360,0.09,0.13,-0.98,3.05,0.37,3.72
36.9520,0.11,0.14,-0.98,2.99,0.79,3.11
36.9660,0.07,0.13,-0.99,3.42,0.37,2.69
36.9810,0.09,0.14,-0.98,3.05,0.24,2.87
36.9970,0.08,0.13,-0.98,2.75,0.67,3.30
37.0110,0.08,0.13,-0.98,3.17,0.18,3.78
37.0270,0.09,0.13,-0.98,2.99,0.18,4.09
37.0420,0.09,0.14,-0.98,2.93,0.12,4.27
37.0580,0.09,0.14,-0.98,2.93,0.24,4.46
37.0720,0.10,0.13,-0.98,3.11,0.37,4.82
37.0870,0.09,0.13,-0.98,3.11,0.55,4.27
37.1030,0.09,0.13,-0.98,3.11,0.55,3.36
37.1180,0.09,0.13,-0.98,3.23,0.12,3.30
37.1320,0.08,0.13,-0.98,3.11,0.55,3.78
37.1480,0.08,0.13,-0.98,3.11,0.31,4.70
37.1620,0.09,0.13,-0.98,3.05,0.00,4.94
37.1780,0.10,0.12,-0.98,3.23,0.00,4.39
37.1930,0.10,0.12,-0.98,3.72,0.12,2.32
37.2080,0.09,0.13,-0.98,4.21,0.49,1.53
37.2230,0.09,0.13,-0.98,3.48,0.43,1.46
37.2390,0.09,0.13,-0.98,3.17,0.61,1.40
37.2540,0.09,0.13,-0.98,3.30,0.55,1.53
37.2700,0.09,0.13,-0.98,3.48,0.12,1.53
37.2860,0.09,0.13,-0.98,3.66,0.43,1.40
37.3020,0.09,0.13,-0.98,3.72,0.61,1.46
37.3190,0.09,0.13,-0.98,3.54,0.67,1.46
37.3340,0.11,0.14,-0.98,3.48,0.67,0.55
37.3500,0.08,0.13,-0.98,3.36,0.55,-0.24
37.3650,0.07,0.12,-0.98,3.23,0.31,0.85
37.3800,0.08,0.13,-0.98,3.36,0.31,1.40
37.3950,0.08,0.13,-0.98,3.42,0.61,1.65
37.4090,0.09,0.13,-0.98,3.36,0.55,1.83
37.4250,0.09,0.13,-0.98,3.05,0.00,1.53
37.4390,0.08,0.13,-0.98,3.17,0.18,2.56
37.4560,0.08,0.14,-0.98,3.05,0.18,4.09
37.4710,0.08,0.14,-0.98,2.56,0.00,5.98
37.4860,0.09,0.12,-0.98,2.87,-0.31,6.10
37.5030,0.09,0.11,-0.98,3.30,0.06,4.64
37.5190,0.09,0.12,-0.98,3.48,0.06,2.56
37.5350,0.09,0.13,-0.98,4.09,0.24,1.71
37.5510,0.09,0.13,-0.98,3.85,0.31,1.59
37.5660,0.09,0.13,-0.98,3.54,0.85,1.71
37.5810,0.09,0.13,-0.98,3.66,0.67,1.59
37.5960,0.09,0.13,-0.98,3.66,0.85,1.65
37.6110,0.09,0.13,-0.98,3.54,0.61,1.65
37.6260,0.09,0.13,-0.98,3.48,0.12,1.71
37.6410,0.09,0.13,-0.98,3.36,0.24,1.71
37.6560,0.09,0.13,-0.98,3.54,0.67,1.59
37.6720,0.09,0.13,-0.98,3.78,0.24,1.71
37.6890,0.09,0.13,-0.98,3.66,0.31,1.59
37.7050,0.09,0.13,-0.98,3.42,0.67,1.59
37.7190,0.09,0.13,-0.98,3.42,0.24,1.59
37.7350,0.08,0.13,-0.98,3.48,0.24,1.65
37.7510,0.09,0.13,-0.98,3.60,0.31,1.65
37.7650,0.09,0.13,-0.98,3.42,0.06,1.53
37.7820,0.09,0.13,-0.98,3.42,0.43,1.77
37.7950,0.09,0.13,-0.98,3.36,0.85,1.53
37.8130,0.09,0.13,-0.98,3.48,0.61,1.77
37.8270,0.09,0.13,-0.98,3.30,0.49,1.71
37.8430,0.09,0.13,-0.98,3.23,0.61,1.71
37.8580,0.09,0.13,-0.98,3.42,0.49,1.59
37.8740,0.09,0.13,-0.98,3.11,0.55,1.53
37.8900,0.09,0.13,-0.98,3.30,0.55,1.53
37.9050,0.09,0.13,-0.98,3.30,0.49,1.71
37.9190,0.09,0.13,-0.98,3.23,0.37,1.53
37.9350,0.09,0.13,-0.98,3.05,0.12,1.53
37.9490,0.08,0.13,-0.98,3.05,0.24,1.71
37.9650,0.09,0.13,-0.98,3.60,0.49,1.53
37.9800,0.09,0.12,-0.96,3.11,0.49,1.65
37.9960,0.08,0.13,-0.98,3.11,0.31,1.59
38.0110,0.09,0.13,-0.98,3.36,0.49,1.59
38.0280,0.09,0.13,-0.98,3.36,0.43,1.59
38.0420,0.09,0.13,-0.98,3.36,0.79,1.59
38.0580,0.09,0.13,-0.98,3.48,0.24,1.53
38.0730,0.08,0.13,-0.98,3.72,0.49,1.65
38.0890,0.09,0.13,-0.98,4.03,0.12,1.71
38.1050,0.09,0.13,-0.98,4.03,0.12,1.77
38.1210,0.09,0.15,-0.99,4.03,1.22,1.95
38.1360,0.09,0.13,-0.99,3.42,0.79,1.77
38.1530,0.09,0.13,-0.97,3.48,0.79,1.77
38.1690,0.09,0.13,-0.98,3.48,0.85,1.65
38.1840,0.09,0.13,-0.98,3.36,0.98,1.71
38.1970,0.09,0.13,-0.98,3.54,0.79,1.71
38.2140,0.09,0.13,-0.98,3.36,0.79,1.77
38.2290,0.09,0.13,-0.98,3.42,0.49,1.77
38.2440,0.09,0.13,-0.98,3.48,0.24,1.77
38.2600,0.09,0.13,-0.98,3.36,0.67,1.65
38.2760,0.09,0.13,-0.98,3.42,0.67,1.71
38.2920,0.09,0.13,-0.98,3.42,0.49,1.65
38.3060,0.09,0.13,-0.98,3.48,0.43,1.71
38.3200,0.09,0.13,-0.98,3.42,0.55,1.65
38.3360,0.09,0.13,-0.98,3.30,0.55,1.71
38.3510,0.09,0.13,-0.98,3.48,0.67,1.77
38.3660,0.09,0.13,-0.98,3.36,0.55,1.71
38.3820,0.09,0.13,-0.98,3.48,0.12,1.59
38.3970,0.09,0.13,-0.98,3.23,0.37,1.65
38.4130,0.09,0.13,-0.98,3.36,0.43,1.71
38.4300,0.09,0.13,-0.98,3.36,0.24,1.77
38.4460,0.09,0.13,-0.98,3.54,0.24,1.77
38.4630,0.09,0.13,-0.98,3.48,0.49,1.71
38.4790,0.09,0.13,-0.98,3.36,0.61,1.59
38.4950,0.09,0.13,-0.98,3.48,0.31,1.59
38.5100,0.09,0.13,-0.98,3.48,0.79,1.71
38.5250,0.09,0.13,-0.98,3.17,0.85,1.71
38.5390,0.09,0.13,-0.98,3.48,0.61,1.53
38.5550,0.09,0.13,-0.98,3.66,0.61,1.71
38.5700,0.09,0.13,-0.98,3.42,0.73,1.71
38.5850,0.09,0.13,-0.98,3.42,0.67,1.65
38.5990,0.09,0.13,-0.98,3.36,0.49,1.65
38.6140,0.09,0.13,-0.98,3.42,0.79,1.83
38.6300,0.09,0.13,-0.98,3.60,0.61,1.95
38.6460,0.09,0.13,-0.98,3.36,0.73,1.65
38.6620,0.09,0.13,-0.98,3.54,0.85,1.71
38.6790,0.09,0.13,-0.98,3.48,0.73,1.71
38.6930,0.09,0.13,-0.98,3.30,0.79,1.65
38.7090,0.09,0.13,-0.98,3.36,0.61,1.65
38.7240,0.09,0.13,-0.98,3.54,0.55,1.71
38.7390,0.09,0.13,-0.98,3.48,0.79,1.77
38.7560,0.09,0.13,-0.98,3.60,0.92,1.71
38.7710,0.09,0.13,-0.98,3.85,0.49,1.83
38.7860,0.09,0.13,-0.98,3.54,0.67,1.65
38.8030,0.09,0.13,-0.98,3.60,0.55,1.71
38.8180,0.09,0.13,-0.98,3.42,0.67,1.71
38.8340,0.09,0.13,-0.98,3.48,0.43,1.65
38.8490,0.09,0.13,-0.98,3.60,0.67,1.71
38.8630,0.09,0.13,-0.98,3.54,0.67,1.71
38.8790,0.09,0.13,-0.98,3.36,0.61,1.71
38.8960,0.09,0.13,-0.98,3.42,0.24,1.71
38.9120,0.09,0.13,-0.98,3.42,0.55,1.77
38.9270,0.09,0.13,-0.98,3.48,0.55,1.77
38.9450,0.09,0.13,-0.98,3.54,0.37,1.71
38.9610,0.09,0.13,-0.98,3.60,0.49,1.77
38.9770,0.09,0.13,-0.98,3.42,0.55,1.65
38.9920,0.09,0.13,-0.98,3.36,0.31,1.71
39.0080,0.09,0.13,-0.98,3.48,0.24,1.77
39.0250,0.09,0.13,-0.98,3.48,0.61,1.77
39.0390,0.09,0.13,-0.98,3.54,0.55,1.65
39.0560,0.09,0.13,-0.98,3.54,0.67,1.77
39.0720,0.09,0.13,-0.98,3.42,0.61,1.59
39.0880,0.09,0.13,-0.98,3.36,0.43,1.77
39.1030,0.09,0.13,-0.98,3.60,0.55,1.65
39.1190,0.09,0.13,-0.98,3.48,0.61,1.71
39.1360,0.09,0.13,-0.98,3.54,0.43,1.59
39.1530,0.09,0.13,-0.98,3.54,0.55,1.59
39.1680,0.09,0.13,-0.98,3.36,0.85,1.83
39.1850,0.08,0.13,-0.98,3.36,0.67,1.89
39.2000,0.09,0.13,-0.98,3.60,0.31,1.71
39.2150,0.09,0.13,-0.98,3.48,0.61,1.65
39.2290,0.09,0.13,-0.98,3.60,0.61,1.71
39.2460,0.09,0.13,-0.98,3.42,0.49,1.65
39.2620,0.09,0.13,-0.98,3.23,0.73,1.59
39.2770,0.09,0.13,-0.98,3.54,0.98,1.71
39.2920,0.09,0.13,-0.98,3.36,0.49,1.65
39.3080,0.09,0.13,-0.98,3.23,0.31,1.77
39.3220,0.09,0.13,-0.98,3.30,0.49,1.83
39.3390,0.09,0.13,-0.98,3.30,0.79,1.71
39.3540,0.09,0.13,-0.98,3.30,0.43,1.46
39.3680,0.09,0.13,-0.98,3.48,0.85,1.65
39.3840,0.09,0.13,-0.98,3.48,0.67,1.71
39.3990,0.09,0.13,-0.98,3.36,0.55,1.65
39.4150,0.09,0.13,-0.98,3.54,0.73,1.71
39.4300,0.09,0.13,-0.98,3.30,0.55,1.71
39.4450,0.09,0.13,-0.98,3.36,0.67,1.65
39.4600,0.09,0.13,-0.98,3.48,0.31,1.71
39.4770,0.09,0.13,-0.98,3.36,0.31,1.65
39.4910,0.09,0.13,-0.98,3.60,0.43,1.53
39.5080,0.09,0.13,-0.98,3.36,0.55,1.59
39.5230,0.09,0.13,-0.98,3.30,0.49,1.59
39.5390,0.09,0.13,-0.98,3.30,0.92,1.59
39.5570,0.09,0.13,-0.98,3.30,0.49,1.59
39.5740,0.09,0.13,-0.98,3.36,0.49,1.71
39.5890,0.09,0.14,-0.98,3.48,0.49,1.59
39.6030,0.09,0.14,-0.98,3.23,0.73,1.83
39.6170,0.09,0.13,-0.98,3.23,0.49,1.71
39.6340,0.09,0.13,-0.98,3.36,0.55,1.59
39.6500,0.09,0.13,-0.98,3.48,0.31,1.71
39.6640,0.09,0.13,-0.98,3.36,0.67,1.71
39.6800,0.09,0.13,-0.98,3.48,0.49,1.65
39.6940,0.09,0.13,-0.98,3.30,0.92,1.59
39.7100,0.09,0.13,-0.98,3.48,0.85,1.83
39.7240,0.09,0.13,-0.98,3.48,0.55,1.65
39.7400,0.09,0.13,-0.98,3.72,0.79,1.65
39.7560,0.09,0.13,-0.98,3.42,0.85,1.77
39.7710,0.09,0.13,-0.98,3.36,0.98,1.77
39.7880,0.09,0.13,-0.98,3.60,0.79,1.83
39.8030,0.09,0.13,-0.98,3.48,0.55,1.65
39.8190,0.09,0.13,-0.98,3.42,0.73,1.59
39.8350,0.09,0.13,-0.98,3.23,1.28,1.71
39.8500,0.09,0.13,-0.98,3.36,0.61,1.59
39.8660,0.09,0.13,-0.98,3.54,0.67,1.71
39.8810,0.09,0.13,-0.98,3.54,0.67,1.53
39.8950,0.09,0.13,-0.98,3.30,0.79,1.71
39.9130,0.09,0.13,-0.98,3.30,1.10,1.71
39.9280,0.09,0.13,-0.98,3.42,0.61,1.65
39.9450,0.09,0.13,-0.98,3.60,0.37,1.77
39.9590,0.09,0.13,-0.98,3.48,0.67,1.77
39.9750,0.09,0.13,-0.98,3.42,0.98,1.71
39.9910,0.09,0.13,-0.98,3.30,0.85,1.71
40.0060,0.09,0.13,-0.98,3.36,0.43,1.59
40.0220,0.09,0.13,-0.98,3.54,0.31,1.65
40.0380,0.09,0.13,-0.98,3.42,0.12,1.53
40.0540,0.09,0.13,-0.98,3.23,0.37,1.65
40.0690,0.09,0.13,-0.98,3.36,0.55,1.53
40.0850,0.09,0.13,-0.98,3.42,0.73,1.65
40.1010,0.09,0.13,-0.98,3.54,0.31,1.71
40.1160,0.09,0.13,-0.98,3.66,0.24,1.53
40.1300,0.09,0.13,-0.98,3.54,0.31,1.59
40.1440,0.09,0.13,-0.98,3.42,0.43,1.65
40.1620,0.09,0.13,-0.98,3.60,0.43,1.77
40.1760,0.09,0.13,-0.98,3.60,0.00,1.59
40.1930,0.09,0.13,-0.98,3.54,0.43,1.65
40.2090,0.09,0.13,-0.98,3.54,0.18,1.59
40.2240,0.09,0.13,-0.98,3.42,0.43,1.71
40.2390,0.09,0.13,-0.98,3.30,0.24,1.71
40.2530,0.09,0.13,-0.98,3.42,0.67,1.53
40.2680,0.09,0.13,-0.98,3.54,0.61,1.77
40.2840,0.09,0.13,-0.98,3.42,0.24,1.59
40.3000,0.09,0.13,-0.98,3.60,0.43,1.77
40.3150,0.09,0.13,-0.98,3.54,0.43,1.77
40.3300,0.09,0.13,-0.98,3.30,0.73,1.95
40.3450,0.09,0.13,-0.98,3.30,0.67,1.71
40.3590,0.09,0.13,-0.98,3.48,0.92,1.65
40.3740,0.09,0.13,-0.98,3.48,0.37,1.59
40.3900,0.09,0.13,-0.98,3.36,0.73,1.59
40.4050,0.09,0.13,-0.98,3.54,0.24,1.77
40.4210,0.09,0.13,-0.98,3.66,0.31,1.59
40.4370,0.09,0.13,-0.98,3.54,0.85,1.59
40.4540,0.09,0.13,-0.98,3.48,0.67,1.71
40.4690,0.09,0.13,-0.98,3.42,0.49,1.65
40.4860,0.09,0.13,-0.98,3.60,0.37,1.53
40.5020,0.09,0.13,-0.98,3.54,0.18,1.71
40.5170,0.09,0.13,-0.98,3.48,0.37,1.65
40.5340,0.09,0.13,-0.98,3.42,0.55,1.65
40.5500,0.09,0.13,-0.98,3.54,0.49,1.59
40.5650,0.09,0.13,-0.98,3.60,0.18,1.83
40.5800,0.09,0.13,-0.98,3.48,0.49,1.71
40.5930,0.09,0.13,-0.98,3.48,0.37,1.65
40.6080,0.08,0.13,-0.98,3.42,0.67,1.65
40.6260,0.09,0.13,-0.98,3.36,0.31,1.65
40.6390,0.09,0.13,-0.98,3.36,0.37,1.77
40.6560,0.09,0.13,-0.98,3.54,0.31,1.59
40.6720,0.09,0.13,-0.98,3.48,0.49,1.59
40.6870,0.09,0.13,-0.98,3.42,0.49,1.59
40.7030,0.09,0.13,-0.98,3.48,0.67,1.59
40.7170,0.09,0.13,-0.98,3.42,0.43,1.59
40.7330,0.09,0.13,-0.98,3.60,0.85,1.77
40.7490,0.09,0.13,-0.98,3.54,0.12,1.65
40.7650,0.09,0.13,-0.98,3.23,0.67,1.53
40.7810,0.09,0.13,-0.98,3.42,0.79,1.77
40.7970,0.09,0.13,-0.98,3.42,0.49,1.83
40.8150,0.09,0.13,-0.98,3.54,0.55,1.53
40.8290,0.09,0.13,-0.98,3.66,0.67,1.65
40.8460,0.09,0.13,-0.98,3.48,0.92,1.71
40.8600,0.09,0.13,-0.98,3.60,0.92,1.71
40.8760,0.09,0.13,-0.98,3.48,0.61,1.71
40.8910,0.09,0.13,-0.98,3.54,0.98,1.65
40.9070,0.09,0.13,-0.98,3.60,0.61,1.59
40.9210,0.09,0.13,-0.98,3.48,1.04,1.53
40.9370,0.09,0.13,-0.98,3.48,0.55,1.65
40.9530,0.09,0.13,-0.98,3.36,0.92,1.59
40.9690,0.09,0.13,-0.98,3.48,0.43,1.65
40.9860,0.09,0.13,-0.98,3.48,0.61,1.65
41.0010,0.09,0.13,-0.98,3.54,0.73,1.59
41.0180,0.09,0.13,-0.98,3.42,0.67,1.59
41.0340,0.09,0.13,-0.98,3.48,0.73,1.59
41.0490,0.09,0.13,-0.98,3.48,0.31,1.59
41.0640,0.09,0.13,-0.98,3.48,0.37,1.59
41.0780,0.09,0.13,-0.98,3.42,0.67,1.77
41.0940,0.09,0.13,-0.98,3.66,0.92,1.71
41.1090,0.09,0.13,-0.98,3.36,0.92,1.71
41.1240,0.09,0.13,-0.98,3.36,0.73,1.83
41.1380,0.09,0.13,-0.98,3.48,0.67,1.71
41.1530,0.09,0.13,-0.98,3.54,0.31,1.59
41.1680,0.09,0.13,-0.98,3.48,0.79,1.65
41.1840,0.09,0.13,-0.98,3.42,1.04,1.59
41.2000,0.09,0.13,-0.98,3.30,0.67,1.65
41.2170,0.09,0.13,-0.98,3.54,0.85,1.71
41.2330,0.09,0.13,-0.98,3.42,0.37,1.77
41.2500,0.09,0.13,-0.98,3.48,0.98,1.83
41.2660,0.09,0.13,-0.98,3.48,0.73,1.71
41.2820,0.09,0.13,-0.98,3.36,0.55,1.71
41.2970,0.09,0.13,-0.98,3.66,0.61,1.77
41.3130,0.09,0.13,-0.98,3.30,0.67,1.71
41.3280,0.09,0.13,-0.98,3.42,0.85,1.65
41.3430,0.09,0.13,-0.98,3.30,0.85,1.59
41.3590,0.09,0.13,-0.98,3.42,0.85,1.65
41.3730,0.09,0.13,-0.98,3.54,0.61,1.71
41.3900,0.09,0.13,-0.98,3.23,0.92,1.65
41.4060,0.09,0.13,-0.98,3.60,0.73,1.77
41.4210,0.09,0.13,-0.98,3.42,0.49,1.59
41.4370,0.09,0.13,-0.98,3.42,0.67,1.71
41.4520,0.09,0.13,-0.98,3.42,0.73,1.65
41.4670,0.09,0.13,-0.98,3.42,0.92,1.59
41.4840,0.09,0.13,-0.98,3.48,0.61,1.71
41.4990,0.09,0.13,-0.98,3.30,1.04,1.71
41.5140,0.09,0.13,-0.98,3.42,0.55,1.71
41.5280,0.09,0.13,-0.98,3.23,0.85,1.77
41.5420,0.09,0.13,-0.98,3.36,0.92,1.77
41.5590,0.09,0.13,-0.98,3.36,0.85,1.77
41.5730,0.09,0.13,-0.98,3.36,0.55,1.46
41.5890,0.09,0.13,-0.98,3.42,0.67,1.71
41.6040,0.09,0.13,-0.98,3.48,0.98,1.83
41.6190,0.09,0.13,-0.98,3.42,0.92,1.65
41.6340,0.09,0.13,-0.98,3.48,0.18,1.59
41.6500,0.09,0.13,-0.98,3.54,0.67,1.71
41.6640,0.09,0.13,-0.98,3.36,0.61,1.65
41.6780,0.09,0.13,-0.98,3.42,0.79,1.65
41.6940,0.09,0.13,-0.98,3.42,0.55,1.71
41.7110,0.09,0.13,-0.98,3.60,0.18,1.65
41.7260,0.09,0.13,-0.98,3.30,0.67,1.71
41.7410,0.09,0.13,-0.98,3.30,0.55,1.65
41.7550,0.09,0.13,-0.98,3.23,0.79,1.59
41.7710,0.09,0.13,-0.98,3.42,0.67,1.71
41.7850,0.09,0.13,-0.98,3.36,0.49,1.65
41.8020,0.09,0.13,-0.98,3.30,0.67,1.53
41.8180,0.09,0.13,-0.98,3.48,1.04,1.71
41.8320,0.09,0.13,-0.98,3.36,0.49,1.59
41.8480,0.09,0.13,-0.98,3.54,0.37,1.59
41.8620,0.09,0.13,-0.98,3.54,0.24,1.65
41.8780,0.08,0.13,-0.98,3.42,0.67,1.77
41.8920,0.09,0.13,-0.98,3.30,0.49,1.65
41.9070,0.09,0.13,-0.98,3.48,0.55,1.65
41.9220,0.09,0.13,-0.98,3.54,0.49,1.65
41.9380,0.09,0.13,-0.98,3.48,0.31,1.71
41.9530,0.09,0.13,-0.98,3.36,0.73,1.46
41.9680,0.09,0.13,-0.98,3.36,1.10,1.65
41.9820,0.09,0.13,-0.98,3.36,0.49,1.53
41.9990,0.09,0.13,-0.98,3.36,0.79,1.65
42.0130,0.09,0.13,-0.98,3.48,0.79,1.65
42.0300,0.09,0.13,-0.98,3.54,0.85,1.53
42.0450,0.09,0.13,-0.98,3.54,0.85,1.71
42.0610,0.09,0.13,-0.98,3.36,0.73,1.71
42.0770,0.09,0.13,-0.98,3.23,1.04,1.65
42.0900,0.09,0.13,-0.98,3.48,0.61,1.65
42.1070,0.09,0.13,-0.98,3.42,0.61,1.65
42.1220,0.09,0.13,-0.98,3.17,0.85,1.65
42.1380,0.09,0.13,-0.98,3.48,0.61,1.71
42.1530,0.09,0.13,-0.98,3.42,0.49,1.59
42.1690,0.09,0.13,-0.98,3.48,0.43,1.59
42.1860,0.09,0.13,-0.98,3.54,0.73,1.59
42.2020,0.09,0.13,-0.98,3.66,0.67,1.71
42.2180,0.09,0.13,-0.98,3.42,0.61,1.65
42.2340,0.09,0.13,-0.98,3.42,0.92,1.65
42.2500,0.09,0.13,-0.98,3.36,0.55,1.83
42.2650,0.09,0.13,-0.98,3.48,0.43,1.59
42.2810,0.09,0.13,-0.98,3.48,0.37,1.71
42.2960,0.09,0.13,-0.98,3.48,0.55,1.59
42.3120,0.09,0.13,-0.98,3.30,1.10,1.71
42.3280,0.09,0.13,-0.98,3.42,0.43,1.59
42.3440,0.09,0.13,-0.98,3.42,0.85,1.53
42.3600,0.09,0.13,-0.98,3.36,0.85,1.65
42.3750,0.09,0.13,-0.98,3.48,0.85,1.65
42.3900,0.09,0.13,-0.98,3.36,0.73,1.71
42.4050,0.09,0.13,-0.98,3.48,0.79,1.77
42.4230,0.09,0.13,-0.98,3.36,0.92,1.65
42.4370,0.09,0.13,-0.98,3.42,0.73,1.65
42.4540,0.09,0.13,-0.98,3.42,0.55,1.77
42.4690,0.09,0.13,-0.98,3.30,0.98,1.65
42.4850,0.09,0.13,-0.98,3.36,0.67,1.77
42.5010,0.09,0.13,-0.98,3.42,0.73,1.77
42.5170,0.09,0.13,-0.98,3.42,0.61,1.65
42.5320,0.09,0.13,-0.98,3.48,0.49,1.65
42.5470,0.09,0.13,-0.98,3.54,0.43,1.77
42.5620,0.09,0.13,-0.98,3.48,0.61,1.65
42.5770,0.09,0.13,-0.98,3.48,0.73,1.65
42.5930,0.09,0.13,-0.98,3.36,0.37,1.71
42.6070,0.09,0.13,-0.98,3.48,0.55,1.71
42.6230,0.09,0.13,-0.98,3.48,0.37,1.53
42.6380,0.09,0.13,-0.98,3.54,0.49,1.59
42.6530,0.09,0.13,-0.98,3.48,0.61,1.53
42.6690,0.09,0.13,-0.98,3.36,0.79,1.59
42.6850,0.09,0.13,-0.98,3.42,0.67,1.65
42.7030,0.09,0.13,-0.98,3.36,1.34,1.65
42.7170,0.09,0.13,-0.98,3.23,0.61,1.65
42.7330,0.09,0.13,-0.98,3.30,0.61,1.71
42.7490,0.09,0.13,-0.98,3.36,0.67,1.59
42.7650,0.09,0.13,-0.98,3.36,0.37,1.71
42.7820,0.09,0.13,-0.98,3.42,0.61,1.77
42.7970,0.09,0.13,-0.98,3.48,0.55,1.71
42.8150,0.09,0.13,-0.98,3.36,0.67,1.53
42.8300,0.09,0.13,-0.98,3.48,0.98,1.71
42.8440,0.09,0.13,-0.98,3.30,0.67,1.59
42.8600,0.09,0.13,-0.98,3.36,0.37,1.59
42.8740,0.09,0.13,-0.98,3.36,0.61,1.71
42.8880,0.09,0.13,-0.98,3.48,0.85,1.65
42.9040,0.09,0.13,-0.98,3.48,0.85,1.65
42.9190,0.09,0.13,-0.98,3.48,0.61,1.71
42.9360,0.09,0.13,-0.98,3.42,0.67,1.71
42.9510,0.09,0.13,-0.98,3.42,0.67,1.71
42.9680,0.09,0.13,-0.98,3.30,0.43,1.77
42.9840,0.09,0.13,-0.98,3.42,0.37,1.71
43.0000,0.09,0.13,-0.98,3.30,0.67,1.46
43.0160,0.09,0.13,-0.98,3.36,0.73,1.53
43.0300,0.09,0.13,-0.98,3.60,0.43,1.71
43.0480,0.09,0.13,-0.98,3.48,0.67,1.65
43.0610,0.09,0.13,-0.98,3.48,0.37,1.71
43.0770,0.09,0.13,-0.98,3.36,0.55,1.71
43.0930,0.09,0.13,-0.98,3.42,0.79,1.65
43.1100,0.09,0.13,-0.98,3.42,0.55,1.65
43.1240,0.09,0.13,-0.98,3.54,0.31,1.65
43.1400,0.09,0.13,-0.98,3.36,0.79,1.53
43.1540,0.09,0.13,-0.98,3.54,0.55,1.71
43.1710,0.09,0.13,-0.98,3.48,0.85,1.83
43.1850,0.09,0.13,-0.98,3.42,0.37,1.83
43.2020,0.09,0.13,-0.98,3.66,0.37,1.77
43.2170,0.09,0.13,-0.98,3.48,0.79,1.65
43.2300,0.09,0.13,-0.98,3.60,0.31,1.83
43.2470,0.09,0.13,-0.98,3.66,0.61,1.71
43.2630,0.09,0.13,-0.98,3.42,0.61,1.71
43.2780,0.09,0.13,-0.98,3.60,0.67,1.71
43.2950,0.09,0.13,-0.98,3.48,0.79,1.71
43.3110,0.09,0.13,-0.98,3.36,0.31,1.65
43.3270,0.09,0.13,-0.98,3.36,0.73,1.59
43.3440,0.09,0.13,-0.98,3.48,0.67,1.65
43.3590,0.09,0.13,-0.98,3.30,0.92,1.77
43.3750,0.09,0.13,-0.98,3.42,0.79,1.65
43.3900,0.09,0.13,-0.98,3.48,0.67,1.71
43.4040,0.09,0.13,-0.98,3.30,0.61,1.65
43.4200,0.09,0.13,-0.98,3.60,0.43,1.59
43.4350,0.09,0.13,-0.98,3.48,0.55,1.71
43.4500,0.09,0.13,-0.98,3.66,0.85,1.65
43.4650,0.09,0.13,-0.98,3.60,0.92,1.77
43.4820,0.09,0.13,-0.98,3.36,0.85,1.65
43.4960,0.09,0.13,-0.98,3.23,0.67,1.71
43.5120,0.09,0.13,-0.98,3.36,0.67,1.59
43.5300,0.09,0.13,-0.98,3.48,0.49,1.65
43.5450,0.09,0.13,-0.98,3.30,1.04,1.65
43.5620,0.09,0.13,-0.98,3.23,1.04,1.77
43.5780,0.09,0.13,-0.98,3.30,0.73,1.65
43.5940,0.09,0.13,-0.98,3.42,0.85,1.65
43.6090,0.09,0.13,-0.98,3.30,0.55,1.77
43.6250,0.09,0.13,-0.98,3.42,0.73,1.65
43.6400,0.09,0.13,-0.98,3.30,0.73,1.77
43.6550,0.09,0.13,-0.98,3.42,0.61,1.71
43.6710,0.09,0.13,-0.98,3.30,0.61,1.59
43.6850,0.09,0.13,-0.98,3.30,0.61,1.65
43.6990,0.09,0.13,-0.98,3.48,0.24,1.65
43.7160,0.09,0.13,-0.98,3.42,0.85,1.59
43.7310,0.09,0.13,-0.98,3.48,0.79,1.65
43.7460,0.09,0.13,-0.98,3.48,0.49,1.65
43.7600,0.09,0.13,-0.98,3.48,0.79,1.71
43.7750,0.08,0.12,-0.97,3.42,0.43,1.77
43.7900,0.09,0.13,-0.99,3.36,0.79,1.65
43.8060,0.09,0.13,-0.98,3.42,0.31,1.65
43.8210,0.09,0.13,-0.98,3.36,0.24,1.53
43.8380,0.09,0.13,-0.98,3.54,0.61,1.65
43.8540,0.09,0.14,-0.98,3.30,0.73,1.71
43.8700,0.09,0.13,-0.98,3.30,0.98,1.77
43.8860,0.09,0.13,-0.98,3.48,0.98,1.83
43.9020,0.09,0.13,-0.98,3.66,0.79,1.65
43.9180,0.09,0.13,-0.98,3.23,0.79,1.46
43.9340,0.09,0.13,-0.98,3.48,0.73,1.46
43.9500,0.09,0.13,-0.98,3.48,0.55,1.71
43.9650,0.09,0.13,-0.98,3.48,0.67,1.71
43.9790,0.09,0.13,-0.98,3.42,0.61,1.71
43.9930,0.09,0.13,-0.98,3.48,0.67,1.65
44.0090,0.09,0.13,-0.98,3.23,0.61,1.65
44.0250,0.09,0.13,-0.98,3.23,0.61,1.59
44.0400,0.09,0.13,-0.98,3.36,0.43,1.65
44.0540,0.09,0.13,-0.98,3.36,0.73,1.40
44.0690,0.09,0.13,-0.98,3.36,0.49,1.59
44.0850,0.09,0.13,-0.98,3.30,0.61,1.59
44.1010,0.09,0.13,-0.98,3.30,0.67,1.53
44.1180,0.09,0.13,-0.98,3.23,0.85,1.71
44.1340,0.09,0.13,-0.98,3.42,0.67,1.53
44.1500,0.09,0.13,-0.98,3.36,0.24,1.53
44.1660,0.09,0.13,-0.98,3.42,0.55,1.65
44.1810,0.09,0.13,-0.98,3.42,0.49,1.53
44.1970,0.09,0.13,-0.98,3.48,0.24,1.77
44.2140,0.09,0.13,-0.98,3.48,0.67,1.65
44.2270,0.09,0.13,-0.98,3.54,0.55,1.71
44.2430,0.09,0.13,-0.98,3.48,0.61,1.71
44.2590,0.09,0.13,-0.98,3.42,0.37,1.71
44.2740,0.09,0.13,-0.98,3.42,0.67,1.71
44.2900,0.09,0.13,-0.98,3.48,0.61,1.59
44.3050,0.09,0.13,-0.98,3.48,0.73,1.65
44.3190,0.09,0.13,-0.98,3.48,0.55,1.71
44.3350,0.09,0.13,-0.98,3.60,0.73,1.71
44.3510,0.09,0.13,-0.98,3.60,0.61,1.65
44.3680,0.09,0.13,-0.98,3.42,0.79,1.65
44.3830,0.09,0.13,-0.98,3.42,0.55,1.59
44.3990,0.09,0.13,-0.98,3.36,0.55,1.65
44.4160,0.09,0.13,-0.98,3.48,0.61,1.77
44.4320,0.09,0.13,-0.98,3.17,0.49,1.65
44.4480,0.09,0.13,-0.98,3.42,0.24,1.65
44.4620,0.09,0.13,-0.98,3.42,0.73,1.65
44.4780,0.09,0.13,-0.98,3.42,0.49,1.59
44.4930,0.09,0.13,-0.98,3.36,0.61,1.65
44.5100,0.09,0.13,-0.98,3.36,0.49,1.59
44.5240,0.09,0.13,-0.98,3.36,0.67,1.65
44.5400,0.09,0.13,-0.98,3.36,0.73,1.71
44.5560,0.09,0.13,-0.98,3.17,0.55,1.59
44.5720,0.09,0.13,-0.98,3.48,0.61,1.59
44.5870,0.09,0.13,-0.98,3.36,0.67,1.71
44.6020,0.09,0.13,-0.98,3.54,0.55,1.65
44.6180,0.09,0.13,-0.98,3.54,0.43,1.59
44.6340,0.09,0.13,-0.98,3.42,0.31,1.46
44.6480,0.09,0.13,-0.98,3.30,0.43,1.77
44.6640,0.09,0.13,-0.98,3.36,0.55,1.65
44.6800,0.09,0.13,-0.98,3.48,0.67,1.59
44.6960,0.09,0.13,-0.98,3.42,0.67,1.59
44.7130,0.09,0.13,-0.98,3.17,1.22,1.83
44.7300,0.09,0.13,-0.98,3.30,0.55,1.65
44.7460,0.09,0.13,-0.98,3.42,0.73,1.71
44.7620,0.09,0.13,-0.98,3.36,0.55,1.71
44.7770,0.09,0.13,-0.98,3.30,0.79,1.59
44.7920,0.09,0.13,-0.98,3.23,0.67,1.46
44.8050,0.09,0.13,-0.98,3.17,0.55,1.59
44.8220,0.09,0.13,-0.98,3.23,0.67,1.59
44.8380,0.08,0.14,-0.98,2.62,0.98,1.59
44.8520,0.08,0.13,-0.98,3.17,0.98,1.59
44.8660,0.09,0.13,-0.98,3.05,1.04,1.65
44.8820,0.09,0.13,-0.98,3.05,1.04,1.53
44.8970,0.09,0.13,-0.98,3.30,0.73,1.65
44.9110,0.09,0.13,-0.98,3.54,0.79,1.71
44.9280,0.09,0.13,-0.98,3.36,0.61,1.83
44.9420,0.09,0.13,-0.98,3.66,0.31,1.65
44.9570,0.09,0.13,-0.98,3.54,0.55,1.71
44.9730,0.09,0.13,-0.98,3.42,0.55,1.77
44.9880,0.09,0.13,-0.98,3.23,0.85,1.71
45.0030,0.09,0.13,-0.98,3.48,0.85,1.65
45.0190,0.09,0.13,-0.98,3.42,0.55,1.65
45.0340,0.09,0.13,-0.98,3.42,0.43,1.71
45.0490,0.09,0.13,-0.98,3.48,0.43,1.59
45.0640,0.09,0.14,-0.98,3.48,0.24,1.46
45.0780,0.09,0.13,-0.98,3.42,0.18,1.59
45.0940,0.09,0.13,-0.98,3.23,0.55,1.59
45.1100,0.09,0.13,-0.98,3.48,0.55,1.65
45.1270,0.09,0.13,-0.98,3.36,0.73,1.71
45.1420,0.09,0.13,-0.98,3.36,0.55,1.71
45.1600,0.09,0.13,-0.98,3.48,0.67,1.77
45.1760,0.09,0.13,-0.98,3.42,0.85,1.71
45.1920,0.09,0.13,-0.98,3.36,0.24,1.71
45.2060,0.09,0.13,-0.98,3.48,0.43,1.65
45.2220,0.09,0.13,-0.98,3.36,0.73,1.65
45.2350,0.09,0.13,-0.98,3.36,0.49,1.59
45.2510,0.09,0.13,-0.98,3.54,0.37,1.65
45.2670,0.09,0.13,-0.98,3.36,0.67,1.77
45.2840,0.09,0.13,-0.98,3.54,0.67,1.71
45.3000,0.09,0.13,-0.98,3.48,0.67,1.71
45.3140,0.08,0.13,-0.98,3.54,0.49,1.77
45.3300,0.09,0.13,-0.98,3.54,0.85,1.71
45.3450,0.09,0.13,-0.98,3.30,0.79,1.77
45.3610,0.09,0.14,-0.99,3.48,0.79,1.71
45.3760,0.09,0.13,-0.98,3.30,0.73,1.77
45.3930,0.09,0.13,-0.98,3.48,0.92,1.46
45.4100,0.09,0.13,-0.98,3.36,0.49,1.65
45.4260,0.09,0.13,-0.98,3.23,0.98,1.59
45.4420,0.09,0.13,-0.98,3.42,0.85,1.77
45.4580,0.08,0.13,-0.98,3.23,0.55,1.65
45.4730,0.09,0.13,-0.98,3.30,0.31,1.59
45.4880,0.09,0.13,-0.98,3.36,0.67,1.71
45.5040,0.09,0.13,-0.98,3.48,0.67,1.71
45.5200,0.09,0.13,-0.98,3.48,0.31,1.65
45.5350,0.09,0.13,-0.98,3.42,0.55,1.65
45.5510,0.09,0.13,-0.98,3.36,0.12,1.53
45.5660,0.09,0.13,-0.98,3.36,0.61,1.71
45.5790,0.09,0.13,-0.98,3.48,0.49,1.65
45.5970,0.09,0.13,-0.98,3.66,0.79,1.77
45.6140,0.09,0.13,-0.98,3.48,0.43,1.77
45.6300,0.09,0.13,-0.98,3.36,0.55,1.71
45.6440,0.09,0.13,-0.98,3.60,0.61,1.59
45.6580,0.09,0.13,-0.98,3.30,0.12,1.59
45.6750,0.09,0.13,-0.98,3.30,0.92,1.53
45.6900,0.09,0.13,-0.98,3.17,0.73,1.59
45.7030,0.09,0.13,-0.98,3.42,1.16,1.71
45.7200,0.09,0.13,-0.98,3.36,0.92,1.71
45.7350,0.09,0.13,-0.98,3.42,0.43,1.71
45.7510,0.09,0.13,-0.98,3.54,0.06,1.71
45.7650,0.09,0.13,-0.98,3.48,0.61,1.71
45.7800,0.09,0.13,-0.98,3.42,0.92,1.65
45.7960,0.09,0.13,-0.98,3.30,0.31,1.59
45.8110,0.09,0.13,-0.98,3.42,0.49,1.83
45.8270,0.09,0.13,-0.98,3.42,1.04,1.83
45.8440,0.09,0.13,-0.98,3.42,0.92,1.53
45.8580,0.09,0.13,-0.98,3.48,0.49,1.65
45.8750,0.09,0.13,-0.98,3.54,0.18,1.83
45.8910,0.09,0.13,-0.98,3.36,0.85,1.71
45.9070,0.09,0.13,-0.98,3.48,0.79,1.59
45.9220,0.09,0.13,-0.98,3.60,0.37,1.83
45.9360,0.09,0.13,-0.98,3.36,0.43,1.65
45.9510,0.09,0.13,-0.98,3.42,0.49,1.71
45.9680,0.09,0.13,-0.98,3.60,0.67,1.71
45.9820,0.09,0.13,-0.98,3.66,0.67,1.77
45.9960,0.09,0.13,-0.98,3.54,0.79,1.65
46.0130,0.09,0.13,-0.98,3.23,0.61,1.59
46.0280,0.09,0.13,-0.98,3.17,0.73,1.71
46.0430,0.09,0.13,-0.98,3.30,0.73,1.71
46.0590,0.09,0.13,-0.98,3.36,0.55,1.77
46.0750,0.09,0.13,-0.98,3.30,0.18,1.46
46.0920,0.09,0.13,-0.98,3.30,0.79,1.77
46.1070,0.09,0.13,-0.98,3.36,0.92,1.65
46.1220,0.09,0.13,-0.98,3.42,0.61,1.71
46.1370,0.09,0.13,-0.98,3.36,0.61,1.71
46.1510,0.09,0.13,-0.98,3.48,0.43,1.65
46.1670,0.09,0.13,-0.98,3.48,0.43,1.65
46.1820,0.09,0.13,-0.98,3.42,0.61,1.65
46.2000,0.09,0.13,-0.98,3.54,0.55,1.53
46.2140,0.09,0.13,-0.98,3.60,0.55,1.77
46.2300,0.09,0.13,-0.98,3.48,0.55,1.59
46.2440,0.09,0.13,-0.98,3.23,0.85,1.65
46.2600,0.09,0.13,-0.98,3.36,0.43,1.53
46.2750,0.09,0.13,-0.98,3.23,0.79,1.53
46.2900,0.09,0.13,-0.98,2.81,0.43,1.53
46.3050,0.09,0.13,-0.98,2.69,0.92,1.59
46.3220,0.09,0.13,-0.98,2.87,0.79,1.65
46.3380,0.09,0.13,-0.98,3.42,0.37,1.65
46.3520,0.09,0.13,-0.98,3.42,0.67,1.71
46.3680,0.09,0.13,-0.98,3.48,0.98,1.65
46.3820,0.09,0.13,-0.98,3.11,0.79,1.65
46.3990,0.09,0.13,-0.98,3.11,0.85,1.40
46.4160,0.10,0.17,-0.98,3.66,0.79,-15.50
46.4310,0.09,0.14,-0.97,3.42,0.43,3.54
46.4460,0.09,0.12,-0.98,3.54,0.06,4.88
46.4630,0.08,0.12,-0.98,3.05,0.06,3.23
46.4790,0.08,0.12,-0.98,3.23,0.24,2.75
46.4960,0.09,0.13,-0.98,3.05,0.49,2.44
46.5110,0.09,0.15,-0.98,3.17,0.49,1.95
46.5260,0.09,0.13,-0.98,3.30,0.61,2.56
46.5400,0.09,0.13,-0.98,3.42,0.24,2.08
46.5560,0.08,0.11,-0.98,3.42,0.67,2.32
46.5700,0.08,0.12,-0.99,3.42,0.79,1.83
46.5860,0.09,0.13,-0.98,3.66,0.79,1.77
46.6000,0.09,0.13,-0.98,3.60,0.49,1.77
46.6150,0.09,0.13,-0.98,3.36,0.73,1.59
46.6290,0.10,0.15,-0.98,3.66,1.04,0.37
46.6440,0.09,0.13,-0.98,3.54,0.92,0.31
46.6620,0.08,0.12,-0.98,3.48,0.49,0.85
46.6760,0.08,0.12,-0.98,3.54,0.61,1.46
46.6930,0.08,0.13,-0.98,3.72,0.85,1.71
46.7080,0.09,0.13,-0.98,3.66,0.79,1.65
46.7230,0.09,0.13,-0.98,3.54,0.92,1.77
46.7390,0.11,0.14,-0.98,3.66,0.98,1.65
46.7540,0.09,0.14,-0.98,3.97,0.85,-0.24
46.7680,0.08,0.13,-0.98,3.78,0.98,0.12
46.7830,0.08,0.13,-0.98,3.72,0.61,0.49
46.7970,0.09,0.14,-0.98,3.66,0.73,0.73
46.8160,0.08,0.14,-0.98,3.17,0.79,2.14
46.8300,0.09,0.14,-0.98,3.23,0.55,4.15
46.8470,0.09,0.14,-0.98,3.05,0.12,5.19
46.8630,0.08,0.13,-0.98,3.05,0.00,4.88
46.8780,0.08,0.13,-0.98,3.17,0.24,4.52
46.8920,0.08,0.11,-0.99,3.66,0.79,3.97
46.9080,0.08,0.12,-0.98,3.42,0.55,1.89
46.9230,0.09,0.13,-0.98,3.36,0.73,1.71
46.9400,0.09,0.13,-0.98,3.30,0.73,1.83
46.9540,0.08,0.13,-0.98,3.11,0.43,1.89
46.9700,0.09,0.14,-0.98,3.05,0.24,2.26
46.9850,0.09,0.14,-0.98,3.23,0.18,4.88
47.0010,0.09,0.13,-0.98,3.05,0.49,5.49
47.0180,0.08,0.13,-0.98,3.36,0.00,3.78
47.0350,0.08,0.13,-0.98,3.42,0.37,2.56
47.0520,0.09,0.14,-0.98,3.54,0.55,2.38
47.0670,0.09,0.14,-0.98,3.17,0.73,2.99
47.0830,0.09,0.14,-0.98,3.11,0.06,4.21
47.1000,0.09,0.13,-0.98,2.99,0.43,3.91
47.1130,0.08,0.12,-0.98,3.54,0.31,2.69
47.1300,0.08,0.13,-0.98,3.60,0.55,1.89
47.1450,0.09,0.14,-0.98,3.30,0.79,1.95
47.1600,0.09,0.14,-0.98,3.48,0.31,2.87
47.1750,0.09,0.14,-0.98,3.05,-0.18,4.64
47.1900,0.09,0.13,-0.98,2.99,-0.18,5.43
47.2060,0.08,0.12,-0.98,3.30,0.37,3.91
47.2210,0.07,0.12,-0.98,3.60,0.24,2.50
47.2360,0.08,0.13,-0.98,3.78,0.61,1.59
47.2520,0.09,0.13,-0.98,3.48,0.61,1.59
47.2680,0.09,0.13,-0.98,3.54,0.43,1.65
47.2820,0.09,0.13,-0.98,3.42,0.31,1.53
47.2960,0.09,0.13,-0.98,3.54,0.18,1.59
47.3130,0.09,0.13,-0.98,3.42,0.49,1.53
47.3300,0.09,0.13,-0.98,3.54,0.55,1.65
47.3450,0.09,0.14,-0.98,3.36,0.43,1.46
47.3600,0.09,0.14,-0.98,3.17,0.73,1.59
47.3760,0.09,0.14,-0.98,3.05,0.24,2.14
47.3920,0.09,0.13,-0.98,3.36,0.06,2.99
47.4070,0.08,0.13,-0.98,3.17,0.24,3.17
47.4220,0.08,0.13,-0.98,3.30,0.43,2.93
47.4360,0.09,0.13,-0.98,3.36,0.55,2.69
47.4520,0.09,0.13,-0.98,3.54,0.06,2.75
47.4670,0.09,0.14,-0.98,3.42,0.24,2.87
47.4820,0.09,0.14,-0.98,3.42,0.31,3.23
47.4990,0.09,0.14,-0.98,3.23,-0.12,3.91
