Timestamp, AccX, AccY, AccZ, GyroX, GyroY, GyroZ
0.0130,0.07,0.11,-0.99,1.65,4.21,1.83
0.0280,0.07,0.12,-0.99,2.99,3.05,1.95
0.0430,0.07,0.13,-0.99,2.87,3.30,1.89
0.0590,0.07,0.12,-0.99,3.23,3.36,1.95
0.0730,0.07,0.12,-0.99,3.36,3.11,1.89
0.0820,0.07,0.12,-0.99,3.36,3.30,1.95
0.0990,0.07,0.12,-0.99,3.11,3.42,2.01
0.1170,0.07,0.12,-0.99,3.17,3.30,1.95
0.1330,0.07,0.13,-0.99,3.42,3.17,1.89
0.1480,0.07,0.12,-0.99,3.30,3.30,2.08
0.1630,0.07,0.13,-0.99,3.30,3.11,2.08
0.1780,0.07,0.13,-0.99,3.48,3.05,2.08
0.1820,0.07,0.13,-0.99,3.66,2.81,1.95
0.2090,0.07,0.12,-0.99,3.23,3.36,1.89
0.2240,0.07,0.12,-0.99,3.36,3.36,1.95
0.2340,0.07,0.13,-0.99,3.36,3.05,2.01
0.2490,0.07,0.12,-0.99,3.48,3.11,1.95
0.2650,0.07,0.13,-0.99,3.36,3.42,1.83
0.2830,0.07,0.12,-0.99,3.54,3.11,1.95
0.2990,0.07,0.13,-0.99,3.23,3.05,2.14
0.3140,0.07,0.12,-0.99,3.42,3.23,2.01
0.3160,0.07,0.12,-0.99,3.23,2.87,1.89
0.3330,0.07,0.12,-0.99,3.54,2.81,1.95
0.3580,0.07,0.12,-0.99,3.23,2.93,1.83
0.3760,0.07,0.12,-0.99,3.23,2.87,1.89
0.3920,0.07,0.13,-0.99,3.17,3.11,2.08
0.3990,0.07,0.13,-0.99,3.48,2.56,1.89
0.4170,0.07,0.13,-0.99,3.17,2.99,1.95
0.4330,0.07,0.13,-0.99,3.05,3.36,1.77
0.4540,0.07,0.12,-0.99,2.99,3.42,1.95
0.4710,0.07,0.12,-0.99,3.42,3.17,2.01
0.4860,0.07,0.12,-0.99,3.72,2.69,2.01
0.5030,0.07,0.12,-0.99,3.42,2.99,2.01
0.5180,0.07,0.12,-0.99,3.54,2.99,2.08
0.5340,0.07,0.13,-0.99,3.54,2.87,2.08
0.5500,0.07,0.12,-0.99,3.30,3.05,1.95
0.5550,0.07,0.13,-0.99,3.30,3.05,2.14
0.5710,0.07,0.13,-0.99,3.54,3.11,1.89
0.5940,0.07,0.13,-0.99,3.54,2.93,1.95
0.6110,0.07,0.12,-0.99,3.60,3.05,2.14
0.6270,0.07,0.12,-0.99,3.48,3.36,1.95
0.6430,0.07,0.12,-0.99,3.36,2.87,2.20
0.6590,0.07,0.12,-0.99,3.60,2.75,2.14
0.6750,0.07,0.12,-0.99,3.42,2.81,2.20
0.6900,0.07,0.12,-0.99,3.48,2.81,2.14
0.7060,0.07,0.12,-0.99,3.60,2.56,1.71
0.7220,0.07,0.12,-0.99,3.30,3.30,1.95
0.7280,0.07,0.13,-0.99,3.36,2.50,1.89
0.7520,0.07,0.13,-0.99,2.99,3.11,2.01
0.7670,0.07,0.12,-0.99,3.60,3.17,2.01
0.7780,0.07,0.12,-0.99,3.72,2.93,2.14
0.7930,0.07,0.12,-0.99,3.48,2.93,2.01
0.8120,0.07,0.13,-0.99,3.60,2.93,1.95
0.8270,0.07,0.12,-0.99,3.17,2.69,1.83
0.8420,0.07,0.13,-0.99,3.60,2.75,2.01
0.8570,0.07,0.13,-0.99,3.66,3.11,2.08
0.8620,0.07,0.13,-0.99,3.42,2.93,1.95
0.8890,0.07,0.12,-0.99,3.23,2.93,1.89
0.9050,0.07,0.12,-0.99,3.36,2.56,2.08
0.9210,0.07,0.13,-0.99,3.85,2.93,1.95
0.9370,0.07,0.12,-0.99,3.54,2.99,1.95
0.9500,0.07,0.13,-0.99,3.36,2.56,1.95
0.9590,0.07,0.13,-0.99,3.17,2.99,1.95
0.9810,0.07,0.13,-0.99,2.87,3.17,2.08
0.9970,0.07,0.12,-0.99,3.05,3.30,2.08
1.0140,0.07,0.12,-0.99,3.42,3.05,1.95
1.0310,0.07,0.12,-0.99,3.72,2.87,1.95
1.0320,0.07,0.12,-0.99,3.30,3.48,1.89
1.0610,0.07,0.12,-0.99,3.48,2.69,1.95
1.0770,0.07,0.12,-0.99,3.11,2.93,2.20
1.0810,0.07,0.12,-0.99,2.93,2.81,1.83
1.1070,0.07,0.12,-0.99,3.23,3.05,1.95
1.1230,0.07,0.12,-0.99,3.42,2.87,1.83
1.1390,0.07,0.13,-0.99,3.60,3.36,1.95
1.1560,0.07,0.12,-0.99,3.48,3.30,2.08
1.1720,0.07,0.16,-0.99,3.17,3.30,2.01
1.1810,0.07,0.12,-0.99,3.11,3.11,1.89
1.1980,0.07,0.12,-0.99,2.99,2.99,1.95
1.2150,0.07,0.12,-0.99,3.36,2.81,2.01
1.2310,0.07,0.12,-0.99,3.23,3.17,2.14
1.2500,0.07,0.12,-0.99,3.17,3.60,2.01
1.2670,0.07,0.12,-0.99,3.05,3.05,1.95
1.2830,0.07,0.12,-0.99,2.62,3.48,2.08
1.2990,0.07,0.12,-0.99,2.93,3.11,1.77
1.3010,0.07,0.12,-0.99,3.36,3.23,1.83
1.3300,0.07,0.12,-0.99,3.42,3.05,1.95
1.3330,0.07,0.13,-0.99,2.87,3.36,2.01
1.3500,0.08,0.13,-0.99,1.34,3.60,1.65
1.3710,0.07,0.13,-0.99,2.81,3.54,-0.43
1.3880,0.06,0.10,-0.99,3.85,3.36,-0.43
1.4040,0.07,0.12,-0.99,4.03,3.11,1.77
1.4210,0.07,0.12,-0.99,3.78,3.05,2.08
1.4380,0.07,0.12,-0.99,3.30,3.36,2.01
1.4540,0.07,0.13,-0.99,2.75,3.36,1.83
1.4710,0.08,0.13,-0.99,3.11,3.48,-0.24
1.4870,0.06,0.10,-1.00,3.85,2.87,0.49
1.5040,0.07,0.12,-0.99,3.66,3.17,2.01
1.5190,0.07,0.12,-0.99,3.78,2.93,2.01
1.5350,0.07,0.12,-0.99,3.05,3.17,1.89
1.5510,0.07,0.12,-0.99,2.81,3.05,1.95
1.5660,0.07,0.12,-0.99,2.87,2.93,1.95
1.5810,0.07,0.12,-0.99,3.17,3.60,2.08
1.5960,0.07,0.12,-0.99,3.42,3.30,2.01
1.6120,0.07,0.12,-0.99,3.48,3.17,1.95
1.6210,0.08,0.13,-0.99,2.56,3.05,1.89
1.6380,0.09,0.15,-0.98,2.56,3.36,1.16
1.6540,0.07,0.12,-0.99,3.78,3.23,0.18
1.6720,0.07,0.10,-0.99,3.30,2.93,1.10
1.6880,0.07,0.12,-0.99,3.30,3.11,1.46
1.7030,0.07,0.12,-0.99,3.05,3.30,1.71
1.7190,0.07,0.12,-0.99,3.17,2.87,2.01
1.7350,0.07,0.12,-0.99,3.17,2.62,2.26
1.7510,0.07,0.11,-0.99,3.54,3.05,2.08
1.7670,0.07,0.12,-0.99,3.91,3.05,2.01
1.7820,0.07,0.13,-0.99,3.30,2.93,1.89
1.7960,0.07,0.14,-0.99,3.42,3.30,1.40
1.8080,0.07,0.13,-0.99,3.30,3.11,2.20
1.8250,0.07,0.11,-0.99,3.30,3.11,1.95
1.8410,0.07,0.11,-0.99,3.48,3.17,1.89
1.8580,0.07,0.10,-0.99,3.17,3.11,1.95
1.8750,0.07,0.12,-0.99,3.30,3.11,2.14
1.8910,0.07,0.12,-0.99,2.93,2.93,2.01
1.9050,0.07,0.13,-0.99,3.54,3.42,2.01
1.9220,0.07,0.11,-0.99,3.72,3.05,1.46
1.9370,0.07,0.11,-0.99,3.54,3.17,2.14
1.9520,0.07,0.12,-0.99,3.48,2.87,2.01
1.9560,0.07,0.12,-0.99,3.54,2.81,2.01
1.9780,0.07,0.12,-0.99,3.36,3.30,2.01
1.9960,0.07,0.12,-0.99,3.60,3.17,2.01
2.0110,0.07,0.12,-0.99,3.36,2.99,2.01
2.0280,0.07,0.12,-0.99,3.66,2.99,2.14
2.0440,0.07,0.12,-0.99,3.42,2.99,2.08
2.0610,0.07,0.12,-0.99,3.30,2.75,1.83
2.0760,0.07,0.12,-0.99,3.05,2.99,1.95
2.0920,0.07,0.12,-0.99,3.30,3.11,1.89
2.1080,0.07,0.12,-0.99,3.42,2.75,2.01
2.1240,0.07,0.12,-0.99,3.30,2.99,2.08
2.1400,0.07,0.12,-0.99,3.42,3.48,2.01
2.1560,0.07,0.12,-0.99,3.85,2.69,1.89
2.1720,0.07,0.12,-0.99,4.15,2.75,1.83
2.1870,0.07,0.12,-0.99,4.09,3.11,1.95
2.2030,0.07,0.12,-0.99,3.97,2.69,1.95
2.2180,0.07,0.12,-0.99,3.72,2.87,2.01
2.2270,0.07,0.12,-0.99,3.30,3.11,2.14
2.2440,0.07,0.12,-0.99,3.36,2.93,1.95
2.2590,0.07,0.12,-0.99,3.72,2.93,1.95
2.2750,0.07,0.12,-0.99,3.48,2.99,1.95
2.2940,0.07,0.12,-0.99,3.78,2.93,2.01
2.3100,0.07,0.12,-0.99,3.60,2.69,1.89
2.3250,0.07,0.12,-0.99,3.66,3.11,1.95
2.3320,0.07,0.12,-0.99,3.72,3.05,2.01
2.3560,0.07,0.12,-0.99,3.60,2.87,1.89
2.3660,0.07,0.12,-0.99,3.66,2.69,1.89
2.3820,0.07,0.12,-0.99,3.30,2.87,1.83
2.4000,0.07,0.12,-0.99,3.42,2.93,1.95
2.4160,0.07,0.12,-0.99,3.36,2.99,1.89
2.4350,0.07,0.12,-0.99,3.48,2.56,1.89
2.4500,0.07,0.12,-0.99,3.54,2.87,1.89
2.4550,0.07,0.12,-0.99,3.30,2.87,1.95
2.4710,0.07,0.12,-0.99,3.42,2.44,1.77
2.4950,0.07,0.12,-0.99,3.48,2.75,1.83
2.5100,0.07,0.12,-0.99,3.42,2.75,1.95
2.5250,0.07,0.12,-0.99,3.48,2.93,2.01
2.5290,0.07,0.12,-0.99,3.36,2.75,2.08
2.5530,0.07,0.12,-0.99,3.60,2.69,2.08
2.5670,0.07,0.12,-0.99,3.60,2.87,1.89
2.5830,0.07,0.12,-0.99,3.48,2.93,2.01
2.6000,0.07,0.12,-0.99,3.60,3.05,1.95
2.6160,0.07,0.12,-0.99,3.60,3.11,1.89
2.6340,0.07,0.12,-0.99,3.42,2.81,1.89
2.6490,0.07,0.12,-0.99,3.48,2.56,1.89
2.6660,0.07,0.12,-0.99,3.42,2.99,1.95
2.6670,0.07,0.12,-0.99,3.42,2.32,1.95
2.6980,0.07,0.12,-0.99,3.30,2.87,2.08
2.6990,0.07,0.12,-0.99,3.30,3.05,2.01
2.7160,0.07,0.12,-0.99,3.42,2.87,1.95
2.7330,0.07,0.12,-0.99,3.30,2.93,1.95
2.7530,0.07,0.12,-0.99,3.23,2.87,2.01
2.7760,0.07,0.12,-0.99,3.30,2.69,1.95
2.7920,0.07,0.12,-0.99,3.17,3.05,2.08
2.8010,0.07,0.12,-0.99,3.23,3.36,2.08
2.8180,0.07,0.12,-0.99,3.36,3.11,2.01
2.8350,0.07,0.12,-0.99,3.54,2.87,1.95
2.8530,0.07,0.12,-0.99,3.23,3.23,2.01
2.8670,0.07,0.12,-0.99,3.23,2.93,2.01
2.8840,0.07,0.12,-0.99,3.36,2.87,1.95
2.9010,0.07,0.12,-0.99,3.60,2.75,1.95
2.9190,0.07,0.12,-0.99,3.48,2.81,1.95
2.9340,0.07,0.12,-0.99,3.54,3.23,1.89
2.9510,0.07,0.12,-0.99,3.66,2.75,2.01
2.9680,0.07,0.12,-0.99,3.36,2.99,2.08
2.9830,0.07,0.12,-0.99,3.36,2.99,2.08
2.9990,0.07,0.12,-0.99,3.66,2.87,2.01
3.0010,0.07,0.12,-0.99,3.91,2.99,1.83
3.0170,0.07,0.12,-0.99,3.78,3.17,2.08
3.0390,0.07,0.12,-0.99,3.42,3.11,2.01
3.0570,0.07,0.12,-0.99,4.15,2.81,2.01
3.0720,0.07,0.13,-0.99,3.17,2.93,1.95
3.0880,0.07,0.12,-0.99,3.42,3.23,2.01
3.1060,0.07,0.12,-0.99,3.30,2.99,2.08
3.1220,0.07,0.12,-0.99,3.54,2.62,2.08
3.1380,0.07,0.12,-0.99,3.78,3.11,1.89
3.1530,0.07,0.12,-0.99,3.91,2.69,1.95
3.1690,0.07,0.12,-0.99,3.60,2.93,2.08
3.1840,0.07,0.12,-0.99,3.36,2.75,1.95
3.2000,0.07,0.12,-0.99,3.36,2.93,1.89
3.2150,0.07,0.12,-0.99,3.60,2.87,2.14
3.2240,0.07,0.12,-0.99,3.48,2.99,2.01
3.2400,0.07,0.12,-0.99,3.48,3.23,1.89
3.2610,0.07,0.12,-0.99,3.23,3.05,1.95
3.2770,0.07,0.12,-0.99,3.23,2.75,2.01
3.2940,0.07,0.12,-0.99,3.17,2.87,1.89
3.3100,0.07,0.12,-0.99,3.48,2.81,2.01
3.3250,0.07,0.13,-0.99,3.60,2.69,1.89
3.3400,0.07,0.12,-0.99,3.48,2.81,2.01
3.3560,0.07,0.12,-0.99,3.48,2.99,2.08
3.3720,0.07,0.12,-0.99,3.42,2.93,2.01
3.3880,0.07,0.12,-0.99,3.48,3.05,1.95
3.4030,0.07,0.12,-0.99,3.42,3.05,1.95
3.4180,0.07,0.12,-0.99,3.30,2.87,2.01
3.4330,0.07,0.12,-0.99,3.36,2.99,2.01
3.4450,0.07,0.12,-0.99,3.66,2.62,1.89
3.4610,0.07,0.12,-0.99,3.48,2.99,2.14
3.4770,0.07,0.12,-0.99,3.30,2.56,1.95
3.4950,0.07,0.12,-0.99,3.11,2.99,2.08
3.5110,0.07,0.12,-0.99,3.42,2.56,1.95
3.5270,0.07,0.12,-0.99,3.30,2.62,1.95
3.5440,0.07,0.12,-0.99,3.66,2.75,1.89
3.5600,0.07,0.12,-0.99,3.42,2.87,1.95
3.5750,0.07,0.12,-0.99,3.23,2.50,2.01
3.5900,0.07,0.12,-0.99,3.05,3.17,2.14
3.6060,0.07,0.12,-0.99,3.17,2.99,2.08
3.6220,0.07,0.12,-0.99,3.36,2.75,1.95
3.6270,0.07,0.12,-0.99,3.42,2.69,1.95
3.6430,0.07,0.12,-0.99,3.48,3.23,1.83
3.6690,0.07,0.12,-0.99,3.42,3.11,2.01
3.6850,0.07,0.12,-0.99,3.48,2.81,1.95
3.6970,0.07,0.12,-0.99,3.48,3.05,1.95
3.7150,0.07,0.12,-0.99,3.30,3.05,1.83
3.7300,0.07,0.12,-0.99,3.48,2.87,1.89
3.7470,0.07,0.12,-0.99,3.23,3.05,1.95
3.7630,0.07,0.12,-0.99,3.36,2.75,1.89
3.7780,0.07,0.12,-0.99,3.36,2.75,1.89
3.7930,0.07,0.12,-0.99,3.05,2.75,1.89
3.8090,0.07,0.12,-0.99,2.99,2.93,1.89
3.8240,0.07,0.12,-0.99,2.99,3.17,1.89
3.8400,0.07,0.12,-0.99,3.17,3.17,2.01
3.8550,0.07,0.13,-0.99,3.36,3.11,1.89
3.8620,0.07,0.12,-0.99,3.36,2.93,1.65
3.8840,0.07,0.13,-0.99,3.48,2.99,1.83
3.9010,0.07,0.14,-0.99,2.93,3.30,1.83
3.9180,0.07,0.13,-0.99,3.30,2.93,1.89
3.9350,0.07,0.12,-0.99,3.48,3.05,2.20
3.9510,0.07,0.14,-0.99,3.36,2.69,2.56
3.9670,0.07,0.10,-0.99,3.78,2.93,2.08
3.9680,0.07,0.09,-0.99,3.48,3.17,2.44
3.9990,0.07,0.10,-0.99,3.54,2.62,2.38
4.0150,0.07,0.13,-0.99,3.42,2.62,2.32
4.0180,0.07,0.13,-0.99,3.17,2.69,2.75
4.0340,0.07,0.11,-0.99,3.11,2.87,3.72
4.0560,0.08,0.11,-0.99,3.60,2.75,2.87
4.0740,0.07,0.13,-0.99,3.78,2.87,2.01
4.0940,0.06,0.13,-0.99,2.81,2.99,2.08
4.1060,0.07,0.13,-0.99,2.99,3.23,3.42
4.1220,0.08,0.11,-0.99,3.17,2.75,3.54
4.1410,0.08,0.11,-0.99,3.48,2.69,2.75
4.1570,0.07,0.12,-0.99,3.42,2.81,2.38
4.1730,0.07,0.13,-0.99,3.11,2.81,2.62
4.1890,0.07,0.12,-0.99,3.30,2.81,3.05
4.2050,0.07,0.13,-0.99,2.87,2.87,2.62
4.2210,0.07,0.14,-0.99,2.81,2.62,3.97
4.2260,0.07,0.11,-0.99,3.23,2.69,4.03
4.2420,0.08,0.10,-0.99,3.42,2.50,4.33
4.2660,0.08,0.10,-0.99,3.85,2.44,3.54
4.2760,0.07,0.12,-0.99,4.33,2.75,2.20
4.2920,0.07,0.12,-0.99,3.91,2.81,2.08
4.3120,0.07,0.12,-0.99,3.36,2.81,2.14
4.3290,0.07,0.13,-0.99,3.17,2.75,3.05
4.3300,0.07,0.13,-0.99,2.99,2.38,3.36
4.3610,0.07,0.12,-0.99,3.72,2.75,2.14
4.3770,0.07,0.11,-0.99,3.85,3.05,2.08
4.3930,0.07,0.12,-0.99,3.66,2.81,2.20
4.4080,0.07,0.13,-0.99,3.60,2.69,2.50
4.4230,0.07,0.13,-0.99,3.66,2.75,3.78
4.4390,0.07,0.13,-0.99,3.30,2.44,4.46
4.4550,0.07,0.12,-0.99,3.85,3.05,3.85
4.4630,0.07,0.10,-1.00,3.85,2.81,2.87
4.4780,0.07,0.11,-0.99,3.42,2.69,2.20
4.5000,0.07,0.12,-0.99,3.42,3.05,2.01
4.5170,0.07,0.13,-0.99,3.66,2.81,2.50
4.5180,0.07,0.13,-0.99,3.54,2.75,2.56
4.5490,0.07,0.13,-0.99,3.42,2.87,2.62
4.5550,0.07,0.12,-0.99,3.85,2.50,2.69
4.5670,0.07,0.12,-0.99,3.36,2.75,2.50
4.5830,0.07,0.14,-0.99,3.60,2.50,2.62
4.6050,0.07,0.13,-0.99,3.72,2.81,2.99
4.6220,0.07,0.12,-0.99,3.91,3.05,2.69
4.6390,0.07,0.12,-0.99,3.66,3.11,2.93
4.6550,0.07,0.11,-0.99,3.30,2.44,3.05
4.6720,0.07,0.12,-0.99,3.30,2.56,2.69
4.6880,0.07,0.13,-0.99,3.17,2.75,2.69
4.7040,0.07,0.13,-0.99,3.42,2.93,2.56
4.7190,0.07,0.12,-0.99,3.72,3.30,2.44
4.7350,0.07,0.12,-0.99,3.54,3.05,2.44
4.7380,0.07,0.13,-0.99,3.42,3.23,2.81
4.7550,0.08,0.14,-0.99,3.48,2.99,3.05
4.7770,0.07,0.13,-0.99,3.23,2.93,3.36
4.7940,0.07,0.13,-0.99,3.17,2.93,3.42
4.8100,0.07,0.13,-0.99,3.23,2.62,2.62
4.8280,0.07,0.13,-0.99,3.36,3.05,2.50
4.8430,0.07,0.14,-0.99,2.81,3.11,4.09
4.8610,0.07,0.11,-0.99,3.30,2.56,4.46
4.8610,0.07,0.10,-1.00,2.93,2.69,3.78
4.8910,0.07,0.12,-0.99,2.93,3.11,2.20
4.9070,0.07,0.13,-0.99,3.54,2.99,2.20
4.9230,0.07,0.13,-0.99,3.42,3.05,2.08
4.9390,0.07,0.12,-0.99,3.85,2.87,1.95
4.9540,0.07,0.13,-0.99,3.17,2.93,2.50
4.9710,0.07,0.12,-0.99,3.48,2.69,2.01
4.9870,0.07,0.12,-0.99,3.48,3.05,2.38
5.0030,0.07,0.12,-0.99,3.42,3.17,3.05
5.0190,0.07,0.13,-0.99,3.05,3.17,2.99
5.0340,0.07,0.13,-0.99,3.36,2.87,2.50
5.0440,0.07,0.13,-0.99,3.48,2.87,2.93
5.0600,0.07,0.11,-0.99,3.42,2.69,3.17
5.0780,0.07,0.11,-0.99,3.36,2.81,3.11
5.0940,0.07,0.13,-0.99,3.23,3.11,2.81
5.1100,0.08,0.14,-0.99,3.48,2.93,3.17
5.1250,0.07,0.12,-0.99,3.54,2.81,3.72
5.1420,0.07,0.13,-0.99,3.42,2.99,4.15
5.1580,0.07,0.12,-0.99,3.48,2.87,3.42
5.1730,0.07,0.12,-0.99,3.30,2.50,3.36
5.1900,0.07,0.12,-0.99,3.36,2.93,3.36
5.2050,0.07,0.12,-0.99,3.48,2.81,3.30
5.2210,0.07,0.13,-0.99,3.11,2.87,3.11
5.2370,0.07,0.12,-0.99,3.11,2.87,2.44
5.2440,0.07,0.13,-0.99,3.11,2.99,2.69
5.2600,0.07,0.13,-0.99,3.54,2.87,2.44
5.2830,0.07,0.12,-0.99,3.54,2.93,2.50
5.2990,0.07,0.12,-0.99,3.78,3.05,2.44
5.3150,0.07,0.12,-0.99,3.23,2.81,2.08
5.3160,0.07,0.14,-0.99,3.36,2.81,2.56
5.3330,0.07,0.14,-0.99,3.05,2.69,3.54
5.3570,0.07,0.12,-0.99,3.60,2.69,3.54
5.3660,0.07,0.11,-0.99,3.72,2.56,3.48
5.3820,0.07,0.11,-0.99,3.85,3.11,2.62
5.3990,0.07,0.12,-0.99,3.30,3.36,2.81
5.4160,0.07,0.13,-0.99,3.42,3.36,3.30
5.4400,0.07,0.13,-0.99,2.69,3.11,3.11
5.4490,0.07,0.13,-0.99,3.23,3.23,2.99
5.4660,0.07,0.11,-0.99,3.30,2.87,3.05
5.4820,0.07,0.11,-0.99,3.11,2.99,2.75
5.4990,0.07,0.12,-0.99,3.05,3.11,1.95
5.5150,0.07,0.13,-0.99,3.23,3.48,2.56
5.5330,0.07,0.12,-0.99,3.54,2.93,3.05
5.5480,0.07,0.13,-0.99,3.42,2.87,3.42
5.5570,0.07,0.13,-0.99,3.11,2.81,3.17
5.5660,0.07,0.13,-0.99,2.93,3.11,2.44
5.5830,0.07,0.12,-0.99,3.36,2.69,2.26
5.5990,0.07,0.12,-0.99,3.11,3.11,2.44
5.6210,0.07,0.13,-0.99,3.23,2.87,2.87
5.6360,0.07,0.13,-0.99,3.36,2.81,3.23
5.6520,0.07,0.13,-0.99,3.05,2.87,3.30
5.6720,0.07,0.12,-0.99,3.48,2.81,2.75
5.6880,0.07,0.11,-0.99,3.30,2.75,2.87
5.7040,0.07,0.12,-0.99,3.23,2.93,3.17
5.7200,0.07,0.12,-0.99,3.23,2.93,2.75
5.7370,0.07,0.14,-0.99,3.23,3.11,3.05
5.7520,0.07,0.13,-0.99,3.60,2.69,2.87
5.7690,0.07,0.13,-0.99,3.05,3.30,2.99
5.7850,0.07,0.13,-0.99,3.30,2.75,3.11
5.7990,0.07,0.12,-0.99,3.05,2.44,3.85
5.8150,0.07,0.11,-0.99,2.99,3.17,3.48
5.8220,0.07,0.12,-0.99,3.11,2.56,3.05
5.8370,0.07,0.13,-0.99,3.54,2.50,2.81
5.8580,0.07,0.12,-0.99,3.36,2.69,2.93
5.8750,0.08,0.13,-0.99,3.36,2.75,3.30
5.8910,0.08,0.13,-0.99,3.66,2.75,2.56
5.9060,0.07,0.12,-0.99,3.48,3.05,2.56
5.9210,0.07,0.11,-0.99,3.23,3.11,2.56
5.9380,0.07,0.13,-0.99,2.99,3.05,2.69
5.9530,0.07,0.13,-0.99,3.11,2.93,2.62
5.9690,0.07,0.13,-0.99,3.42,3.11,2.26
5.9850,0.07,0.14,-0.99,3.36,2.99,2.62
5.9910,0.07,0.13,-0.99,3.30,2.75,3.11
6.0150,0.07,0.12,-0.99,3.30,2.81,3.85
6.0240,0.07,0.11,-0.99,3.11,2.93,3.78
6.0400,0.07,0.13,-0.99,3.05,2.87,3.48
6.0610,0.08,0.13,-0.99,3.30,3.30,3.72
6.0770,0.07,0.13,-0.99,3.17,2.62,3.48
6.0920,0.07,0.11,-0.99,3.42,2.75,2.93
6.1070,0.07,0.12,-0.99,3.05,2.69,2.81
6.1220,0.07,0.12,-0.99,3.66,2.75,2.69
6.1390,0.07,0.14,-0.99,3.05,2.75,3.17
6.1540,0.07,0.14,-0.99,3.30,2.81,3.78
6.1610,0.07,0.12,-0.99,3.30,2.93,4.46
6.1780,0.07,0.12,-0.99,3.11,2.99,4.09
6.1940,0.07,0.11,-0.99,3.42,2.69,3.78
6.2150,0.07,0.11,-0.99,3.23,2.99,3.42
6.2320,0.07,0.11,-0.99,3.17,2.93,2.93
6.2470,0.07,0.13,-0.99,3.30,3.11,2.56
6.2640,0.08,0.14,-0.99,3.30,3.05,2.50
6.2660,0.07,0.13,-0.99,3.23,3.17,3.11
6.2830,0.07,0.12,-0.99,3.42,2.75,4.03
6.3110,0.07,0.11,-0.99,2.87,2.99,3.66
6.3160,0.07,0.11,-0.99,3.30,3.05,2.93
6.3340,0.07,0.12,-0.99,3.36,3.11,3.42
6.3500,0.07,0.13,-0.99,3.36,3.05,3.17
6.3660,0.07,0.14,-0.99,3.42,2.75,3.66
6.3880,0.07,0.13,-0.99,3.11,2.81,3.48
6.4050,0.07,0.12,-0.99,3.11,3.11,3.97
6.4200,0.07,0.11,-0.99,2.87,2.81,3.66
6.4340,0.07,0.12,-0.99,2.93,3.05,3.42
6.4500,0.07,0.12,-0.99,3.11,2.99,2.50
6.4660,0.07,0.12,-0.99,3.30,2.99,2.87
6.4810,0.07,0.13,-0.99,3.66,3.17,3.72
6.4980,0.07,0.13,-0.99,3.11,2.62,3.30
6.5050,0.07,0.13,-0.99,3.17,2.87,3.36
6.5210,0.07,0.12,-0.99,3.05,3.05,3.42
6.5370,0.07,0.12,-0.99,3.23,3.11,3.36
6.5550,0.08,0.13,-0.99,3.05,2.81,3.17
6.5720,0.07,0.13,-0.99,3.54,3.23,3.05
6.5900,0.07,0.13,-0.99,3.48,2.93,3.97
6.6060,0.07,0.14,-0.99,3.54,2.69,4.58
6.6210,0.07,0.13,-0.99,3.36,2.50,4.70
6.6370,0.07,0.12,-0.99,3.11,2.62,4.82
6.6520,0.07,0.12,-0.99,3.17,2.75,5.43
6.6590,0.07,0.11,-0.99,3.30,2.75,4.88
6.6750,0.07,0.10,-0.99,3.23,3.11,4.33
6.6980,0.08,0.11,-0.99,3.17,2.75,2.81
6.7080,0.07,0.12,-0.99,3.30,2.99,2.44
6.7240,0.07,0.13,-0.99,3.54,2.87,2.69
6.7410,0.08,0.14,-0.99,3.54,3.11,3.23
6.7590,0.07,0.13,-0.99,3.11,2.99,3.78
6.7740,0.07,0.13,-0.99,3.11,2.75,4.09
6.7910,0.07,0.12,-0.99,3.05,2.69,3.91
6.8070,0.07,0.11,-0.99,3.11,3.11,3.72
6.8220,0.07,0.12,-0.99,3.23,2.75,2.99
6.8390,0.07,0.11,-0.99,3.42,2.93,2.26
6.8560,0.08,0.13,-0.99,3.36,3.23,2.32
6.8720,0.07,0.13,-0.99,3.48,2.99,2.50
6.8740,0.07,0.12,-0.99,3.42,2.99,2.44
6.9030,0.07,0.12,-0.99,3.54,2.75,2.44
6.9190,0.07,0.12,-0.99,3.36,2.56,2.62
6.9350,0.07,0.13,-0.99,3.17,2.87,2.56
6.9510,0.08,0.14,-0.99,3.17,2.81,2.87
6.9670,0.07,0.13,-0.99,3.23,3.17,2.75
6.9820,0.07,0.13,-0.99,3.30,2.75,3.17
6.9980,0.07,0.12,-0.99,3.30,2.81,3.11
7.0070,0.07,0.13,-0.99,3.48,2.69,2.93
7.0240,0.07,0.12,-0.99,3.60,2.87,3.17
7.0400,0.07,0.12,-0.99,3.54,2.62,3.36
7.0590,0.07,0.12,-0.99,3.48,2.81,3.48
7.0740,0.07,0.14,-0.99,3.17,3.11,4.15
7.0890,0.07,0.13,-0.99,3.23,2.38,4.70
7.1050,0.07,0.12,-0.99,3.30,2.69,4.27
7.1080,0.07,0.12,-0.99,3.17,2.87,4.46
7.1380,0.07,0.12,-0.99,3.72,2.56,3.72
7.1540,0.07,0.12,-0.99,3.30,2.75,3.36
7.1700,0.07,0.13,-0.99,3.23,3.05,3.60
7.1850,0.07,0.12,-0.99,3.23,2.87,3.66
7.2010,0.07,0.12,-0.99,3.60,2.75,4.15
7.2180,0.07,0.12,-0.99,3.11,2.81,3.60
7.2340,0.07,0.12,-0.99,3.30,2.50,2.32
7.2490,0.07,0.12,-0.99,3.72,2.93,1.71
7.2640,0.07,0.13,-0.99,3.66,3.05,1.77
7.2740,0.07,0.12,-0.99,3.54,2.87,2.01
7.2910,0.07,0.14,-0.99,3.42,2.81,2.01
7.3070,0.07,0.13,-0.99,3.42,2.93,2.08
7.3240,0.07,0.13,-0.99,3.42,3.42,2.62
7.3400,0.07,0.12,-0.99,3.48,2.87,2.87
7.3540,0.07,0.12,-0.99,3.05,2.93,2.81
7.3600,0.07,0.12,-0.99,3.17,2.75,2.38
7.3850,0.07,0.14,-0.99,3.42,2.81,3.36
7.3910,0.07,0.14,-0.99,3.36,2.87,4.58
7.4070,0.07,0.14,-0.99,3.30,2.38,5.43
7.4300,0.08,0.13,-0.99,3.23,2.93,5.74
7.4460,0.07,0.11,-0.99,3.60,2.75,4.58
7.4630,0.07,0.10,-1.00,3.48,2.50,3.91
7.4790,0.07,0.11,-0.99,3.23,2.87,3.17
7.4950,0.07,0.12,-0.99,3.11,3.17,2.50
7.5100,0.07,0.13,-0.99,3.36,3.60,2.50
7.5270,0.07,0.12,-0.99,3.54,3.30,2.56
7.5300,0.07,0.12,-0.99,3.30,2.75,2.81
7.5590,0.07,0.13,-0.99,2.93,3.23,2.81
7.5750,0.07,0.13,-0.99,3.17,3.42,3.30
7.5890,0.07,0.13,-0.99,2.93,3.17,3.66
7.6060,0.07,0.12,-0.99,3.36,3.17,3.54
7.6130,0.07,0.12,-0.99,3.23,3.05,3.05
7.6300,0.07,0.13,-0.99,2.81,3.30,2.87
7.6460,0.08,0.15,-0.99,3.05,2.93,3.97
7.6630,0.07,0.14,-0.99,2.99,2.62,4.94
7.6790,0.07,0.12,-0.99,2.99,2.44,4.88
7.6960,0.07,0.13,-0.99,3.17,3.23,3.97
7.7130,0.07,0.11,-0.99,3.11,2.93,3.48
7.7290,0.07,0.11,-0.99,3.17,3.30,3.48
7.7450,0.07,0.12,-0.99,3.36,2.93,2.99
7.7610,0.07,0.12,-0.99,3.11,3.42,2.44
7.7760,0.07,0.13,-0.99,2.99,3.23,2.56
7.7910,0.07,0.12,-0.99,3.11,2.99,2.44
7.8060,0.07,0.12,-0.99,3.17,2.99,2.20
7.8220,0.07,0.13,-0.99,3.23,2.93,2.62
7.8360,0.08,0.13,-0.99,2.99,3.36,3.17
7.8470,0.08,0.13,-0.99,2.81,3.17,4.09
7.8640,0.08,0.13,-0.99,2.87,2.93,3.85
7.8790,0.07,0.12,-0.99,3.23,3.23,2.44
7.8960,0.08,0.13,-0.99,3.66,3.17,2.32
7.9130,0.07,0.13,-0.99,3.54,2.87,2.93
7.9290,0.07,0.11,-0.99,3.54,3.11,3.23
7.9300,0.07,0.12,-0.99,2.99,2.93,3.30
7.9610,0.07,0.12,-0.99,2.93,2.81,3.11
7.9640,0.07,0.13,-0.99,3.11,2.81,3.17
7.9930,0.07,0.12,-0.99,2.99,3.05,3.36
8.0080,0.07,0.13,-0.99,3.05,3.05,3.54
8.0130,0.07,0.13,-0.99,3.17,2.69,3.48
8.0390,0.07,0.12,-0.99,3.11,2.87,2.81
8.0470,0.07,0.11,-0.99,3.36,2.99,2.75
8.0630,0.07,0.11,-0.99,2.93,3.17,2.38
8.0850,0.07,0.13,-0.99,3.11,3.36,2.01
8.0970,0.08,0.14,-0.99,3.17,3.30,2.56
8.1130,0.08,0.14,-0.99,2.99,3.11,2.99
8.1300,0.07,0.13,-0.99,3.11,3.36,3.85
8.1460,0.07,0.12,-0.99,3.11,3.05,3.72
8.1630,0.07,0.12,-0.99,3.11,2.93,2.93
8.1790,0.07,0.12,-0.99,3.05,2.93,3.05
8.1960,0.07,0.11,-0.99,2.99,3.11,3.36
8.2110,0.07,0.13,-0.99,2.81,2.99,3.36
8.2270,0.07,0.15,-0.99,2.93,2.93,3.42
8.2420,0.07,0.14,-0.99,3.05,2.81,4.76
8.2570,0.07,0.12,-0.99,3.11,2.69,4.88
8.2730,0.07,0.11,-0.99,2.75,2.69,3.54
8.2900,0.07,0.11,-0.99,2.75,2.81,3.42
8.3050,0.08,0.11,-0.99,3.11,2.56,2.87
8.3130,0.07,0.11,-0.99,3.11,3.36,2.62
8.3290,0.07,0.13,-0.99,3.11,3.05,2.75
8.3510,0.07,0.13,-0.99,3.30,2.81,2.93
8.3680,0.07,0.13,-0.99,3.05,2.69,3.17
8.3840,0.07,0.13,-0.99,3.05,2.50,3.91
8.4000,0.07,0.12,-0.99,3.17,2.87,3.54
8.4010,0.07,0.12,-0.99,3.05,2.81,2.99
8.4310,0.07,0.12,-0.99,3.23,2.99,2.87
8.4450,0.07,0.13,-0.99,3.23,2.87,3.17
8.4610,0.07,0.13,-0.99,3.36,2.99,4.39
8.4760,0.07,0.11,-0.99,3.23,2.75,4.46
8.4850,0.07,0.11,-0.99,3.30,2.62,4.03
8.5010,0.07,0.11,-0.99,3.11,2.75,3.60
8.5170,0.07,0.12,-0.99,3.17,3.11,2.75
8.5370,0.07,0.13,-0.99,3.42,3.17,2.69
8.5520,0.07,0.14,-0.99,3.11,2.69,3.42
8.5670,0.07,0.12,-0.99,2.69,2.75,4.70
8.5740,0.07,0.10,-1.00,3.11,2.81,4.33
8.5970,0.07,0.11,-0.99,2.75,2.99,2.69
8.6070,0.07,0.12,-0.99,3.17,2.87,1.95
8.6230,0.07,0.13,-0.99,3.30,2.93,2.20
8.6430,0.07,0.13,-0.99,3.54,2.99,2.50
8.6580,0.07,0.12,-0.99,3.48,2.93,2.75
8.6740,0.07,0.13,-0.99,3.42,2.99,2.50
8.6900,0.08,0.14,-0.99,2.87,2.87,3.11
8.7060,0.07,0.12,-0.99,3.11,2.87,3.11
8.7110,0.07,0.12,-0.99,3.11,3.11,3.91
8.7280,0.08,0.13,-0.98,2.44,2.99,4.09
8.7440,0.07,0.13,-0.99,3.23,2.93,3.42
8.7620,0.07,0.12,-0.99,3.30,2.93,3.72
8.7780,0.07,0.11,-0.99,3.05,2.93,3.78
8.8000,0.07,0.12,-0.99,2.87,3.11,2.62
8.8110,0.07,0.12,-0.99,2.99,3.30,2.20
8.8270,0.07,0.12,-0.99,3.05,2.93,2.08
8.8440,0.07,0.13,-0.99,3.36,2.93,2.32
8.8620,0.08,0.14,-0.99,3.11,2.99,2.75
8.8770,0.07,0.12,-0.99,3.42,2.75,3.54
8.8960,0.07,0.11,-0.99,2.87,2.81,3.91
8.9130,0.08,0.12,-0.99,2.69,3.11,3.54
8.9270,0.07,0.12,-0.99,2.99,3.17,2.62
8.9450,0.08,0.14,-0.99,2.93,2.87,2.75
8.9620,0.07,0.13,-0.99,3.17,2.69,3.85
8.9770,0.08,0.12,-0.99,3.17,2.87,4.15
8.9940,0.07,0.11,-1.00,3.30,2.62,4.03
8.9950,0.07,0.10,-1.00,3.05,2.75,2.75
9.0240,0.07,0.12,-0.99,2.93,3.05,2.50
9.0270,0.07,0.13,-0.99,3.23,2.56,2.87
9.0440,0.07,0.13,-0.99,3.30,2.93,2.81
9.0650,0.07,0.13,-0.99,3.36,2.87,3.30
9.0810,0.07,0.12,-0.99,3.11,2.99,3.36
9.1000,0.07,0.13,-0.99,2.75,2.87,2.99
9.1150,0.07,0.13,-0.99,3.17,2.44,3.72
9.1310,0.07,0.12,-0.99,3.42,2.50,3.85
9.1490,0.08,0.13,-0.99,3.42,2.62,3.60
9.1640,0.07,0.11,-0.99,3.11,3.05,2.93
9.1650,0.07,0.12,-0.99,3.17,2.93,2.93
9.1820,0.07,0.11,-0.99,3.05,2.93,2.75
9.1980,0.07,0.11,-0.99,3.05,3.05,2.93
9.2240,0.07,0.12,-0.99,3.42,2.81,2.62
9.2400,0.08,0.13,-0.99,3.17,3.30,2.75
9.2570,0.07,0.13,-0.99,3.11,2.99,2.93
9.2740,0.07,0.13,-0.99,2.93,2.99,3.36
9.2750,0.07,0.13,-0.99,3.42,3.05,3.11
9.3050,0.07,0.14,-0.99,3.48,2.81,3.30
9.3210,0.07,0.11,-0.99,3.48,2.69,3.85
9.3240,0.07,0.09,-1.00,3.05,3.30,3.72
9.3410,0.08,0.12,-0.99,2.87,3.05,2.81
9.3680,0.08,0.13,-0.99,3.23,3.23,2.50
9.3830,0.08,0.13,-0.99,3.30,3.11,2.87
9.3990,0.07,0.12,-0.99,3.11,2.81,3.36
9.4080,0.07,0.13,-0.99,3.11,3.23,4.03
9.4240,0.07,0.11,-0.99,3.36,3.05,3.48
9.4450,0.07,0.11,-0.99,3.17,2.93,3.78
9.4610,0.07,0.11,-0.99,3.30,3.05,2.87
9.4770,0.07,0.12,-0.99,3.42,2.99,2.69
9.4930,0.07,0.12,-0.99,3.30,2.93,2.20
9.4970,0.08,0.13,-0.99,3.42,3.23,2.56
9.5120,0.07,0.13,-0.99,3.42,2.75,2.81
9.5340,0.07,0.12,-1.00,3.60,2.87,3.72
9.5500,0.07,0.11,-0.99,3.05,2.99,3.97
9.5670,0.07,0.11,-0.99,2.93,3.17,3.42
9.5830,0.07,0.12,-0.99,2.99,2.56,2.26
9.5990,0.07,0.12,-0.99,3.11,3.05,2.32
9.6140,0.07,0.12,-0.99,3.60,2.81,3.05
9.6170,0.07,0.13,-0.99,3.11,3.36,3.17
9.6340,0.07,0.12,-0.99,3.05,2.99,3.11
9.6610,0.07,0.11,-0.99,2.99,2.87,2.81
9.6670,0.07,0.11,-0.99,2.87,2.93,2.50
9.6830,0.07,0.13,-0.99,3.30,2.62,2.56
9.7000,0.07,0.12,-0.99,3.17,2.75,2.99
9.7160,0.07,0.12,-0.99,3.05,2.81,3.78
9.7350,0.07,0.12,-0.99,3.23,2.81,3.17
9.7510,0.07,0.11,-0.99,3.60,2.75,2.93
9.7630,0.07,0.12,-0.99,3.11,2.81,2.69
9.7710,0.07,0.12,-0.99,3.36,2.87,2.75
9.7980,0.08,0.12,-0.99,3.23,2.87,3.42
9.8090,0.07,0.11,-0.99,3.36,3.23,2.75
9.8260,0.07,0.12,-0.99,3.17,2.75,2.93
9.8420,0.07,0.12,-1.00,3.30,2.62,2.87
9.8600,0.07,0.12,-0.99,2.99,2.81,3.66
9.8740,0.07,0.12,-0.99,2.93,2.87,3.05
9.8910,0.07,0.13,-0.99,3.05,3.05,2.75
9.9060,0.07,0.11,-0.99,3.48,2.81,2.62
9.9210,0.07,0.11,-0.99,3.36,2.99,2.44
9.9370,0.07,0.12,-0.99,3.23,2.93,2.50
9.9540,0.07,0.13,-0.99,2.99,3.23,2.93
9.9680,0.07,0.14,-0.99,3.42,2.99,3.42
9.9750,0.08,0.13,-0.99,3.42,2.93,4.39
9.9990,0.07,0.11,-1.00,3.85,2.69,3.91
10.0080,0.08,0.12,-0.99,3.23,2.69,4.09
10.0240,0.08,0.12,-0.99,3.05,2.81,4.03
10.0450,0.07,0.12,-0.99,3.30,3.23,3.66
10.0620,0.07,0.12,-0.99,3.54,3.36,3.78
10.0770,0.07,0.12,-1.00,3.72,2.69,4.52
10.0940,0.07,0.10,-1.00,3.17,3.17,3.91
10.1090,0.07,0.12,-0.99,2.81,2.99,3.48
10.1250,0.07,0.11,-0.99,3.23,3.11,2.87
10.1400,0.07,0.11,-0.99,3.36,2.87,2.32
10.1550,0.07,0.13,-0.99,3.54,2.99,2.26
10.1690,0.07,0.13,-0.99,3.54,2.75,2.26
10.1770,0.07,0.13,-0.99,3.66,2.93,2.99
10.1930,0.07,0.12,-0.99,3.72,2.69,3.36
10.2150,0.07,0.12,-0.99,2.87,2.75,3.48
10.2320,0.07,0.12,-0.99,2.99,2.75,3.54
10.2330,0.07,0.13,-0.99,2.87,2.69,3.78
10.2630,0.07,0.12,-0.99,3.23,2.93,3.42
10.2790,0.07,0.12,-0.99,3.54,2.56,3.36
10.2820,0.07,0.12,-0.99,3.60,3.30,3.60
10.3110,0.07,0.11,-0.99,3.48,3.17,3.72
10.3270,0.07,0.12,-0.99,2.81,2.93,3.23
10.3430,0.07,0.12,-0.99,2.69,2.93,2.75
10.3500,0.07,0.12,-0.99,2.99,2.75,2.62
10.3650,0.07,0.11,-1.00,3.42,3.11,2.87
10.3860,0.07,0.13,-0.99,3.17,3.11,2.75
10.4030,0.07,0.11,-0.99,3.54,2.32,2.08
10.4190,0.07,0.12,-0.99,3.11,3.23,2.93
10.4360,0.07,0.12,-0.99,2.99,3.23,3.05
10.4520,0.08,0.13,-0.99,3.05,2.93,2.99
10.4680,0.08,0.13,-0.99,3.05,3.05,2.87
10.4850,0.07,0.12,-0.99,3.36,3.05,2.56
10.4860,0.07,0.12,-0.99,3.11,2.99,2.26
10.5170,0.07,0.11,-0.99,3.30,2.81,2.69
10.5330,0.07,0.11,-0.99,3.66,2.81,3.42
10.5490,0.07,0.12,-0.99,3.54,2.75,2.93
10.5640,0.07,0.12,-0.99,2.93,2.87,2.75
10.5810,0.07,0.13,-0.99,3.11,2.69,3.11
10.5860,0.08,0.12,-0.99,2.81,3.05,3.11
10.6020,0.07,0.11,-0.99,3.36,3.05,2.56
10.6230,0.07,0.12,-0.99,3.23,3.17,2.56
10.6400,0.07,0.13,-0.99,3.85,3.11,2.69
10.6410,0.07,0.12,-0.99,3.66,2.99,2.93
10.6720,0.07,0.13,-0.99,3.48,3.42,2.50
10.6870,0.08,0.12,-0.99,3.54,3.17,2.62
10.7020,0.07,0.13,-0.99,3.78,2.99,2.81
10.7190,0.07,0.13,-0.99,2.87,2.75,3.36
10.7340,0.07,0.12,-0.99,3.11,2.75,3.66
10.7490,0.07,0.10,-0.99,2.75,3.05,3.91
10.7650,0.07,0.10,-0.99,3.17,2.87,2.99
10.7800,0.07,0.12,-0.99,3.17,2.87,2.56
10.7900,0.07,0.13,-0.99,3.36,2.81,2.44
10.8070,0.07,0.12,-0.99,3.85,3.11,2.44
10.8240,0.07,0.12,-0.99,3.11,3.11,2.75
10.8400,0.07,0.12,-0.99,2.75,3.11,2.69
10.8570,0.07,0.13,-0.99,3.17,2.62,2.93
10.8730,0.08,0.14,-0.98,3.05,2.81,3.30
10.8880,0.08,0.14,-0.99,3.66,2.75,3.85
10.9040,0.07,0.12,-0.99,4.09,2.69,3.78
10.9200,0.07,0.10,-1.00,3.23,2.87,3.78
10.9340,0.08,0.12,-0.99,2.69,2.87,3.60
10.9520,0.07,0.14,-0.99,2.81,2.87,3.48
10.9640,0.07,0.11,-0.99,3.78,2.81,4.21
10.9830,0.07,0.10,-1.00,3.30,3.05,3.97
10.9910,0.07,0.12,-0.99,3.17,2.99,2.38
11.0070,0.07,0.12,-0.99,3.05,3.05,2.81
11.0230,0.07,0.13,-0.99,3.05,3.11,2.69
11.0440,0.07,0.12,-0.99,2.93,3.05,3.05
11.0610,0.07,0.11,-0.99,3.48,3.11,3.05
11.0780,0.08,0.13,-0.99,3.11,3.11,3.05
11.0940,0.08,0.12,-0.99,3.11,2.93,2.62
11.1090,0.07,0.12,-0.99,3.30,3.17,2.62
11.1250,0.07,0.11,-0.99,3.36,3.05,3.05
11.1400,0.07,0.11,-0.99,3.23,3.30,2.93
11.1560,0.07,0.13,-0.99,3.11,3.60,2.56
11.1710,0.07,0.11,-0.99,3.42,3.11,2.14
11.1880,0.07,0.11,-0.99,3.36,3.30,2.38
11.2030,0.07,0.13,-0.99,3.42,3.11,2.20
11.2110,0.07,0.12,-0.99,3.17,3.23,2.08
11.2280,0.07,0.12,-0.99,3.42,2.69,2.62
11.2450,0.07,0.12,-0.99,3.42,2.87,3.17
11.2650,0.07,0.12,-0.99,3.36,2.93,3.23
11.2780,0.07,0.13,-0.99,3.05,2.93,3.30
11.2940,0.07,0.12,-0.99,3.60,2.38,3.30
11.3110,0.07,0.12,-0.99,3.36,2.93,3.60
11.3250,0.08,0.12,-0.99,3.42,2.75,3.72
11.3400,0.08,0.12,-0.99,3.23,3.05,3.36
11.3560,0.08,0.13,-0.99,3.05,2.99,2.93
11.3700,0.07,0.12,-0.99,3.42,3.11,2.87
11.3850,0.07,0.11,-0.99,3.11,2.93,2.87
11.4010,0.06,0.10,-1.00,3.23,3.17,2.50
11.4160,0.07,0.12,-0.99,3.48,3.05,2.99
11.4280,0.07,0.11,-0.99,3.17,2.81,2.69
11.4450,0.07,0.12,-0.99,3.23,3.11,2.32
11.4620,0.07,0.13,-0.99,3.42,2.81,2.38
11.4780,0.07,0.12,-0.99,3.48,2.81,3.17
11.4930,0.07,0.12,-0.99,3.54,2.99,3.36
11.5090,0.07,0.12,-0.99,3.36,2.99,3.30
11.5250,0.07,0.11,-0.99,2.99,2.93,2.20
11.5410,0.07,0.12,-0.99,3.36,2.99,2.69
11.5570,0.07,0.13,-0.99,3.48,2.62,2.81
11.5730,0.07,0.12,-0.99,3.54,2.62,2.87
11.5890,0.07,0.11,-0.99,2.99,2.99,3.66
11.6050,0.07,0.10,-0.99,2.93,3.17,2.99
11.6200,0.07,0.12,-0.99,2.99,2.99,2.38
11.6350,0.07,0.12,-0.99,3.54,2.99,2.32
11.6510,0.07,0.12,-0.99,3.66,2.99,2.38
11.6650,0.07,0.13,-0.99,3.42,2.87,2.93
11.6790,0.07,0.12,-0.99,2.99,2.56,3.91
11.6940,0.07,0.11,-0.99,3.11,3.30,3.36
11.7110,0.08,0.10,-0.99,3.36,2.75,2.14
11.7270,0.07,0.12,-0.99,3.48,2.87,1.95
11.7430,0.08,0.13,-0.99,3.17,3.17,1.95
11.7590,0.08,0.14,-0.99,3.72,2.99,2.14
11.7740,0.07,0.12,-0.99,4.09,2.99,2.56
11.7780,0.07,0.11,-0.99,3.11,2.56,2.56
11.7940,0.07,0.11,-0.99,2.75,2.38,2.32
11.8150,0.07,0.11,-0.99,3.11,2.81,2.62
11.8320,0.07,0.12,-0.99,3.54,2.50,2.20
11.8490,0.08,0.13,-0.99,4.09,2.99,2.14
11.8650,0.08,0.13,-0.99,3.36,2.75,2.26
11.8820,0.07,0.14,-0.99,3.30,2.87,2.44
11.8990,0.07,0.12,-0.99,3.05,2.62,3.17
11.9150,0.07,0.10,-0.99,2.93,2.99,2.44
11.9320,0.07,0.12,-0.99,3.11,2.75,2.69
11.9480,0.07,0.12,-0.99,3.23,2.93,2.20
11.9650,0.07,0.12,-0.99,3.48,3.30,2.20
11.9820,0.07,0.13,-0.99,3.42,2.62,2.38
11.9820,0.08,0.13,-0.99,3.42,2.81,2.75
12.0130,0.07,0.11,-0.99,3.54,2.56,2.75
12.0290,0.07,0.10,-0.99,3.17,2.62,2.50
12.0440,0.07,0.12,-0.99,2.75,2.87,2.20
12.0490,0.07,0.12,-0.99,3.05,3.05,2.08
12.0650,0.07,0.12,-0.99,3.30,2.75,1.95
12.0870,0.07,0.12,-0.99,3.66,2.87,2.14
12.1030,0.07,0.12,-0.99,3.72,2.69,2.50
12.1200,0.07,0.12,-0.99,3.48,3.17,2.81
12.1370,0.07,0.12,-0.99,3.05,2.93,2.81
12.1530,0.07,0.11,-0.99,3.17,2.56,3.05
12.1700,0.07,0.12,-0.99,3.05,2.87,2.44
12.1860,0.07,0.13,-0.99,3.30,2.87,2.32
12.2020,0.07,0.13,-0.99,3.48,2.69,2.99
12.2030,0.07,0.11,-0.99,3.54,2.75,2.87
12.2340,0.07,0.11,-0.99,3.36,2.81,2.56
12.2490,0.07,0.12,-0.99,3.11,2.99,2.44
12.2650,0.07,0.13,-0.99,3.54,2.93,3.42
12.2700,0.07,0.12,-0.99,3.17,2.56,4.03
12.2960,0.07,0.11,-0.99,3.17,2.62,4.15
12.3030,0.07,0.10,-0.99,2.99,3.05,3.05
12.3270,0.07,0.11,-0.99,2.69,3.05,2.32
12.3420,0.07,0.12,-0.99,3.17,2.99,2.32
12.3520,0.07,0.13,-0.99,2.81,3.30,2.38
12.3700,0.07,0.11,-0.99,2.93,3.11,2.01
12.3860,0.07,0.11,-0.99,2.87,3.11,2.75
12.4030,0.07,0.12,-1.00,3.23,3.23,2.81
12.4180,0.07,0.12,-0.99,2.87,2.93,2.87
12.4350,0.07,0.13,-0.99,2.81,2.93,2.99
12.4520,0.07,0.12,-0.99,2.62,2.81,2.75
12.4690,0.07,0.10,-0.99,2.87,2.75,2.32
12.4850,0.07,0.11,-0.99,3.05,2.93,1.77
12.5010,0.07,0.12,-0.99,4.15,2.87,1.83
12.5160,0.08,0.13,-0.99,3.11,2.87,2.32
12.5190,0.07,0.12,-0.99,3.36,3.05,2.50
12.5480,0.07,0.12,-0.99,2.99,2.87,2.26
12.5630,0.07,0.12,-0.99,3.54,2.87,2.81
12.5700,0.07,0.11,-0.99,3.42,2.50,2.69
12.5870,0.07,0.11,-1.00,3.42,2.75,2.69
12.6020,0.07,0.12,-0.99,3.23,3.11,2.20
12.6190,0.08,0.12,-0.99,3.42,2.99,2.20
12.6340,0.08,0.12,-0.99,3.91,2.99,2.01
12.6500,0.08,0.13,-0.99,3.54,3.36,2.14
12.6680,0.08,0.13,-0.99,3.36,2.99,2.32
12.6830,0.07,0.12,-0.99,3.48,2.93,2.87
12.6920,0.07,0.11,-0.99,3.54,2.75,3.05
12.7090,0.07,0.11,-0.99,3.11,2.87,3.36
12.7260,0.07,0.12,-0.99,2.99,2.81,3.48
12.7430,0.07,0.10,-0.99,3.05,2.75,2.81
12.7590,0.07,0.11,-0.99,3.05,2.99,2.56
12.7740,0.07,0.10,-0.99,3.54,3.30,1.71
12.7890,0.07,0.10,-1.00,3.60,3.11,1.59
12.8040,0.07,0.12,-0.99,3.30,3.42,1.65
12.8200,0.07,0.13,-0.99,3.11,3.11,2.08
12.8350,0.08,0.12,-0.99,2.99,2.81,2.75
12.8430,0.08,0.12,-0.99,2.93,2.93,2.32
12.8640,0.08,0.12,-0.99,3.36,3.11,2.44
12.8760,0.08,0.12,-0.99,3.54,2.75,2.62
12.8930,0.07,0.13,-1.00,4.09,3.11,2.26
12.9100,0.07,0.13,-0.99,2.93,3.11,2.75
12.9260,0.07,0.12,-0.99,3.66,3.30,1.77
12.9440,0.07,0.13,-0.99,3.66,2.87,2.56
12.9440,0.06,0.09,-0.99,3.72,2.93,2.62
12.9740,0.06,0.08,-1.00,4.15,2.81,2.20
12.9890,0.07,0.12,-0.99,3.97,3.48,1.89
13.0050,0.08,0.13,-0.99,3.91,3.05,1.95
13.0100,0.08,0.13,-0.99,3.30,3.42,1.95
13.0370,0.08,0.13,-0.99,3.11,3.36,2.93
13.0520,0.08,0.11,-0.99,2.99,2.93,3.48
13.0670,0.08,0.10,-0.99,3.23,2.75,2.56
13.0840,0.07,0.11,-0.99,3.60,2.62,2.01
13.0940,0.07,0.11,-0.99,3.48,3.17,2.08
13.1100,0.07,0.12,-1.00,4.09,3.17,2.14
13.1310,0.07,0.12,-0.99,2.69,3.05,1.77
13.1320,0.07,0.12,-0.99,3.66,3.17,1.53
13.1480,0.07,0.11,-0.99,3.05,2.99,1.59
13.1670,0.08,0.12,-0.99,3.17,2.81,1.83
13.1940,0.08,0.12,-0.99,4.21,2.81,2.20
13.1980,0.08,0.12,-0.99,4.33,2.93,2.01
13.2150,0.08,0.12,-0.99,3.42,2.93,1.95
13.2300,0.07,0.12,-0.99,3.72,2.99,2.14
13.2510,0.07,0.12,-0.99,3.60,3.72,1.89
13.2680,0.07,0.12,-0.99,3.54,3.66,2.14
13.2840,0.07,0.12,-0.99,3.48,3.05,1.89
13.3000,0.07,0.13,-0.99,3.54,3.54,1.28
13.3170,0.07,0.12,-0.99,3.48,3.36,1.65
13.3340,0.07,0.11,-0.99,3.42,3.30,1.83
13.3500,0.07,0.11,-0.99,3.17,3.17,2.08
13.3510,0.07,0.12,-0.99,3.42,3.05,2.01
13.3680,0.07,0.12,-0.99,3.23,3.11,1.71
13.3850,0.07,0.12,-0.99,3.30,2.99,1.83
13.4100,0.08,0.12,-0.99,3.11,3.42,1.46
13.4180,0.07,0.12,-0.99,3.72,2.75,2.32
13.4420,0.08,0.12,-0.99,3.36,3.11,2.08
13.4580,0.08,0.12,-0.99,2.99,2.87,1.83
13.4680,0.08,0.12,-0.99,3.17,3.36,1.89
13.4840,0.08,0.12,-0.99,3.66,2.62,2.01
13.5010,0.07,0.12,-0.99,3.78,2.87,2.01
13.5170,0.07,0.12,-0.99,3.30,2.62,1.77
13.5350,0.07,0.12,-0.99,3.17,2.87,1.83
13.5510,0.07,0.12,-0.99,2.87,3.23,1.71
13.5680,0.07,0.11,-0.99,3.05,3.23,1.65
13.5840,0.07,0.12,-0.99,3.66,3.30,1.83
13.6000,0.07,0.12,-0.99,3.60,3.17,1.95
13.6020,0.07,0.12,-0.99,3.85,3.11,1.83
13.6320,0.08,0.12,-0.99,3.85,3.17,1.89
13.6350,0.08,0.12,-0.99,3.42,3.30,2.01
13.6630,0.08,0.12,-0.99,2.81,3.30,1.83
13.6680,0.07,0.12,-0.99,3.11,3.36,1.89
13.6840,0.07,0.12,-0.99,4.03,3.17,2.01
13.7040,0.07,0.12,-0.99,4.27,2.87,1.83
13.7210,0.07,0.12,-0.99,3.78,3.17,2.01
13.7380,0.07,0.12,-0.99,3.72,2.62,1.95
13.7540,0.07,0.12,-0.99,3.42,3.11,2.01
13.7710,0.07,0.12,-0.99,3.54,3.17,2.01
13.7880,0.07,0.12,-0.99,3.66,3.42,1.89
13.8040,0.07,0.12,-0.99,3.91,2.99,1.77
13.8200,0.08,0.13,-1.00,3.72,2.81,1.77
13.8360,0.07,0.12,-0.99,3.48,3.48,1.95
13.8510,0.07,0.12,-0.99,3.36,3.42,1.89
13.8680,0.07,0.12,-0.99,2.99,3.23,2.01
13.8840,0.08,0.12,-0.99,2.93,3.11,1.83
13.9010,0.08,0.12,-0.99,3.30,3.23,1.83
13.9160,0.08,0.12,-0.99,3.66,3.36,1.83
13.9310,0.08,0.12,-0.99,3.30,2.99,1.89
13.9380,0.07,0.12,-0.99,3.23,2.99,1.77
13.9540,0.07,0.11,-0.99,3.66,3.23,1.34
13.9760,0.07,0.12,-0.99,3.42,2.93,1.95
13.9930,0.07,0.12,-0.99,3.30,3.23,1.77
14.0090,0.07,0.12,-0.99,3.17,3.30,1.83
14.0250,0.07,0.12,-0.99,3.42,3.23,2.01
14.0410,0.07,0.12,-0.99,3.48,3.30,1.89
14.0560,0.07,0.13,-0.99,3.72,2.93,1.71
14.0720,0.08,0.12,-0.99,3.66,3.30,1.04
14.0880,0.08,0.12,-0.99,3.42,3.23,1.53
14.1040,0.08,0.12,-0.99,3.42,2.56,2.01
14.1180,0.08,0.12,-0.99,3.30,2.93,2.01
14.1340,0.08,0.12,-0.99,3.48,3.11,2.01
14.1440,0.07,0.12,-0.99,3.42,3.23,1.95
14.1600,0.07,0.13,-0.99,3.48,2.93,2.01
14.1760,0.07,0.12,-0.99,3.30,2.69,1.83
14.1940,0.07,0.12,-0.99,3.48,3.17,1.89
14.2090,0.07,0.12,-0.99,3.48,3.17,1.71
14.2250,0.07,0.12,-0.99,3.30,2.62,1.95
14.2410,0.07,0.12,-0.99,3.23,3.05,1.83
14.2560,0.07,0.12,-0.99,3.36,3.30,2.01
14.2720,0.07,0.12,-0.99,3.30,2.81,1.89
14.2870,0.07,0.12,-0.99,3.36,2.75,2.01
14.3030,0.07,0.12,-0.99,3.42,2.99,1.89
14.3190,0.07,0.12,-0.99,3.36,3.17,1.83
14.3350,0.07,0.12,-0.99,3.36,2.93,1.95
14.3500,0.07,0.12,-0.99,3.30,2.81,1.89
14.3600,0.07,0.12,-0.99,3.30,2.87,2.08
14.3770,0.08,0.12,-0.99,3.54,2.87,1.95
14.3930,0.08,0.12,-0.99,3.36,3.11,1.83
14.4100,0.08,0.12,-0.99,3.48,3.11,1.65
14.4260,0.07,0.12,-0.99,3.42,3.36,1.89
14.4420,0.07,0.12,-0.99,3.42,3.11,2.01
14.4580,0.07,0.13,-0.99,3.11,3.48,1.95
14.4740,0.07,0.12,-0.99,3.85,2.99,1.77
14.4900,0.07,0.12,-0.99,3.78,3.42,1.83
14.5050,0.07,0.12,-0.99,3.85,3.36,2.08
14.5210,0.07,0.12,-0.99,3.91,3.05,2.14
14.5360,0.07,0.12,-0.99,4.09,2.75,2.20
14.5510,0.07,0.12,-0.99,3.97,3.05,2.20
14.5670,0.05,0.15,-1.00,2.69,2.81,1.95
14.5770,0.07,0.11,-0.98,1.59,2.99,0.06
14.5930,0.08,0.17,-0.99,4.39,3.48,-0.43
14.6100,0.08,0.09,-1.00,3.42,3.48,-1.77
14.6260,0.08,0.13,-0.99,2.93,3.85,1.04
14.6440,0.07,0.11,-0.99,3.23,3.05,0.06
14.6600,0.07,0.12,-0.99,3.23,3.30,1.65
14.6750,0.07,0.12,-0.99,3.54,2.99,2.20
14.6910,0.07,0.12,-0.99,3.48,3.17,2.01
14.7060,0.07,0.12,-0.99,3.48,2.62,2.01
14.7210,0.07,0.12,-0.99,3.97,2.87,2.08
14.7380,0.07,0.12,-0.99,4.27,2.81,2.01
14.7530,0.07,0.12,-0.99,4.39,2.99,2.08
14.7690,0.08,0.12,-0.99,4.21,2.99,2.01
14.7770,0.08,0.12,-0.99,3.97,3.17,2.01
14.7930,0.08,0.12,-0.99,3.72,2.75,1.83
14.8160,0.08,0.12,-0.99,3.91,2.69,2.01
14.8320,0.07,0.12,-0.99,4.21,2.50,1.89
14.8490,0.08,0.13,-0.99,3.91,2.56,1.95
14.8640,0.07,0.12,-0.99,4.15,2.56,1.95
14.8680,0.07,0.12,-0.99,4.64,2.56,1.95
14.8950,0.07,0.12,-0.99,4.64,2.38,1.89
14.9110,0.07,0.12,-0.99,3.91,2.69,1.95
14.9160,0.07,0.12,-0.99,3.60,2.81,1.77
14.9310,0.08,0.12,-0.99,3.48,2.75,1.77
14.9470,0.08,0.12,-0.99,2.75,3.60,1.83
14.9690,0.08,0.12,-0.99,2.81,3.48,1.71
14.9850,0.07,0.11,-0.99,2.14,3.78,1.83
15.0010,0.07,0.12,-0.99,2.32,3.42,2.01
15.0200,0.07,0.12,-0.99,2.26,3.23,2.01
15.0360,0.07,0.12,-0.99,2.87,3.11,1.89
15.0530,0.07,0.12,-0.99,2.93,2.81,1.89
15.0680,0.08,0.12,-0.99,3.11,2.93,1.83
15.0860,0.07,0.12,-0.99,3.42,3.05,1.89
15.1010,0.07,0.12,-0.99,3.30,2.75,1.89
15.1170,0.07,0.12,-0.99,3.23,3.42,2.01
15.1340,0.07,0.12,-0.99,3.42,3.54,2.08
15.1500,0.07,0.12,-0.99,3.42,3.17,1.89
15.1660,0.07,0.12,-0.99,3.48,3.17,1.89
15.1810,0.07,0.12,-0.99,3.66,2.81,1.65
15.1860,0.07,0.12,-0.99,3.66,2.87,1.53
15.2120,0.08,0.12,-0.99,3.60,2.93,1.59
15.2180,0.08,0.09,-0.95,4.70,2.93,1.65
15.2350,0.08,0.13,-0.99,4.46,2.87,2.01
15.2510,0.07,0.13,-0.99,3.54,3.17,2.32
15.2710,0.06,0.13,-0.99,3.60,3.05,2.44
15.2880,0.06,0.13,-0.99,3.42,2.93,2.20
15.3030,0.06,0.12,-0.99,3.42,2.56,1.89
15.3200,0.06,0.12,-0.99,3.05,2.87,1.71
15.3340,0.07,0.10,-0.99,2.75,2.75,1.59
15.3410,0.08,0.11,-0.99,3.48,2.81,1.83
15.3560,0.09,0.11,-0.99,3.60,2.81,1.83
15.3780,0.08,0.12,-0.99,3.36,3.05,1.89
15.3950,0.08,0.12,-0.99,3.36,3.05,1.89
15.4110,0.07,0.13,-0.99,3.48,2.75,1.83
15.4280,0.06,0.14,-0.99,3.66,2.75,1.89
15.4440,0.06,0.14,-0.99,3.48,2.50,1.77
15.4600,0.07,0.13,-0.99,3.42,2.87,1.71
15.4680,0.07,0.12,-0.99,3.17,2.93,1.71
15.4920,0.08,0.12,-0.99,3.36,3.05,1.89
15.5070,0.08,0.11,-0.99,3.36,2.93,1.95
15.5220,0.08,0.11,-0.99,3.17,2.93,2.01
15.5380,0.08,0.11,-0.99,3.48,3.11,2.14
15.5440,0.07,0.12,-0.99,3.42,2.87,2.08
15.5610,0.07,0.13,-0.99,3.36,2.75,2.01
15.5760,0.07,0.13,-0.99,3.36,3.17,1.89
15.5960,0.07,0.13,-0.99,3.30,3.30,1.71
15.6130,0.07,0.13,-0.99,3.23,3.11,1.77
15.6290,0.07,0.13,-0.99,3.42,3.05,1.77
15.6450,0.08,0.12,-0.99,3.23,2.81,1.89
15.6610,0.08,0.12,-0.99,3.30,2.87,2.20
15.6780,0.07,0.12,-0.99,3.11,2.93,2.08
15.6800,0.07,0.12,-0.99,3.36,2.62,2.01
15.6960,0.07,0.12,-0.99,3.48,3.23,2.01
15.7200,0.07,0.12,-0.99,3.36,3.17,1.89
15.7370,0.07,0.12,-0.99,3.30,2.93,1.89
15.7520,0.07,0.12,-0.99,3.36,3.36,1.95
15.7700,0.07,0.12,-0.99,3.54,3.36,1.95
15.7860,0.07,0.12,-0.99,3.60,3.11,1.95
15.8010,0.07,0.13,-0.99,3.78,3.54,1.89
15.8170,0.07,0.13,-0.99,3.05,3.17,2.01
15.8330,0.07,0.13,-0.99,2.99,3.11,1.95
15.8500,0.07,0.12,-0.99,3.17,3.54,2.01
15.8650,0.07,0.12,-0.99,3.23,3.36,2.01
15.8810,0.07,0.12,-0.99,3.30,3.17,1.83
15.8870,0.07,0.12,-0.99,3.36,3.23,1.83
15.9020,0.07,0.12,-0.99,3.30,3.36,2.14
15.9260,0.07,0.12,-0.99,3.36,3.23,2.01
15.9420,0.08,0.12,-0.99,3.36,3.05,1.95
15.9580,0.07,0.12,-0.99,3.60,3.05,1.95
15.9740,0.07,0.12,-0.99,3.48,2.62,1.89
15.9890,0.07,0.12,-0.99,3.30,3.11,1.89
16.0050,0.07,0.12,-0.99,3.23,3.11,2.01
16.0200,0.07,0.12,-0.99,3.05,3.05,1.83
16.0350,0.07,0.12,-0.99,3.48,2.62,1.83
16.0500,0.07,0.12,-0.99,3.60,2.93,1.77
16.0610,0.07,0.12,-0.99,3.36,2.99,1.83
16.0770,0.07,0.12,-0.99,3.72,2.87,1.83
16.0940,0.07,0.12,-0.99,3.42,2.75,1.77
16.1110,0.07,0.12,-0.99,3.17,3.05,2.08
16.1270,0.07,0.12,-0.99,3.42,3.05,2.08
16.1430,0.07,0.12,-0.99,3.48,2.69,1.59
16.1590,0.07,0.12,-0.99,3.85,3.17,1.83
16.1750,0.07,0.12,-0.99,3.60,3.42,1.77
16.1910,0.08,0.13,-0.99,3.17,3.42,1.65
16.2070,0.07,0.13,-0.99,3.11,3.66,0.73
16.2220,0.07,0.13,-0.99,2.93,3.17,0.61
16.2370,0.08,0.13,-0.99,3.23,3.36,-0.06
16.2530,0.06,0.11,-0.99,3.91,2.87,0.06
16.2610,0.07,0.12,-0.99,3.97,2.99,1.89
16.2780,0.07,0.13,-0.99,4.27,3.11,1.89
16.2930,0.07,0.12,-0.99,3.36,3.54,1.95
16.3100,0.08,0.12,-0.99,3.05,3.23,1.59
16.3260,0.09,0.14,-0.99,3.11,3.42,0.18
16.3440,0.08,0.13,-0.99,3.30,3.36,-1.71
16.3600,0.06,0.11,-0.99,3.72,3.54,-1.71
16.3770,0.06,0.11,-0.99,3.60,3.05,-0.31
16.3930,0.07,0.12,-0.99,3.78,2.99,0.49
16.3950,0.07,0.12,-0.99,3.66,2.75,0.85
16.4250,0.07,0.12,-0.99,3.72,2.75,0.92
16.4400,0.07,0.12,-0.99,3.54,2.87,1.16
16.4430,0.08,0.12,-0.99,3.60,2.75,1.28
16.4700,0.07,0.12,-0.99,3.78,3.36,0.98
16.4810,0.07,0.12,-0.99,3.78,3.30,0.98
16.4970,0.08,0.13,-0.99,3.85,3.30,0.92
16.5130,0.08,0.12,-0.99,3.60,2.75,0.49
16.5320,0.07,0.13,-0.99,3.11,3.42,0.31
16.5470,0.07,0.12,-0.99,3.36,3.17,0.06
16.5620,0.06,0.12,-0.99,3.78,3.30,0.55
16.5700,0.08,0.12,-0.99,3.60,3.54,0.92
16.5810,0.08,0.13,-0.99,3.78,2.99,0.18
16.5980,0.07,0.12,-0.99,3.78,2.93,-15.63
16.6150,0.07,0.12,-0.99,3.36,3.42,-0.31
16.6300,0.07,0.13,-0.99,3.60,3.23,-0.12
16.6520,0.07,0.13,-0.99,3.23,3.48,0.37
16.6710,0.06,0.12,-0.99,3.60,3.48,0.31
16.6860,0.07,0.12,-0.99,3.66,3.23,0.73
16.7020,0.07,0.12,-0.99,3.78,3.30,0.85
16.7190,0.07,0.12,-0.99,3.60,3.17,0.61
16.7340,0.07,0.12,-0.99,3.42,3.17,0.49
16.7370,0.07,0.13,-0.99,3.48,2.99,0.31
16.7660,0.06,0.12,-0.99,3.30,3.17,0.85
16.7810,0.07,0.12,-0.99,3.42,2.99,1.28
16.7960,0.07,0.12,-0.99,3.42,3.05,1.65
16.8120,0.07,0.12,-0.99,3.66,2.87,1.71
16.8190,0.08,0.12,-0.99,3.30,3.17,1.59
16.8350,0.08,0.12,-0.99,3.54,3.30,1.40
16.8510,0.08,0.12,-0.99,3.48,3.42,0.61
16.8730,0.07,0.12,-0.99,3.66,3.42,0.18
16.8890,0.07,0.12,-0.99,3.85,3.23,0.06
16.9050,0.07,0.12,-0.99,4.03,3.05,0.06
16.9200,0.08,0.12,-0.99,3.54,3.30,0.06
16.9350,0.07,0.13,-0.99,3.30,3.17,0.00
16.9510,0.07,0.12,-0.99,3.42,3.11,0.24
16.9670,0.06,0.12,-0.99,3.54,2.87,0.18
16.9730,0.07,0.13,-0.99,3.66,3.30,0.61
16.9900,0.06,0.13,-0.99,3.23,3.23,0.98
17.0060,0.07,0.12,-0.99,3.23,3.17,1.59
17.0210,0.07,0.12,-0.99,3.23,3.11,1.65
17.0450,0.08,0.12,-0.99,3.54,2.93,1.77
17.0620,0.08,0.12,-0.99,3.54,3.30,1.53
17.0770,0.08,0.12,-0.99,3.30,3.23,1.34
17.0930,0.07,0.12,-0.99,3.30,3.17,0.98
17.1090,0.07,0.12,-0.99,3.48,3.17,0.85
17.1240,0.07,0.12,-0.99,3.48,3.30,0.73
17.1290,0.08,0.12,-0.99,3.60,2.93,0.67
17.1450,0.08,0.12,-0.99,3.42,3.54,0.98
17.1680,0.08,0.12,-0.99,3.54,3.48,0.73
17.1840,0.07,0.13,-0.99,3.30,3.30,0.55
17.2010,0.07,0.12,-0.99,3.54,3.23,0.67
17.2170,0.07,0.12,-0.99,3.42,3.36,0.85
17.2180,0.07,0.13,-0.99,3.48,3.60,1.04
17.2480,0.07,0.13,-0.99,3.48,2.99,0.85
17.2510,0.07,0.12,-0.99,3.23,3.17,0.67
17.2720,0.07,0.12,-0.99,3.42,3.30,0.67
17.2950,0.07,0.12,-0.99,3.60,2.87,0.79
17.3020,0.07,0.12,-0.99,3.60,3.30,0.92
17.3260,0.07,0.12,-0.99,3.66,3.11,0.67
17.3420,0.07,0.12,-0.99,3.60,3.17,0.67
17.3510,0.08,0.12,-0.99,3.42,2.93,0.73
17.3710,0.07,0.12,-0.99,3.23,3.30,0.73
17.3840,0.07,0.12,-0.99,3.23,3.48,1.10
17.4010,0.07,0.12,-0.99,3.17,3.23,1.34
17.4170,0.07,0.12,-0.99,3.72,2.81,1.28
17.4350,0.08,0.12,-0.99,3.85,2.81,0.85
17.4510,0.08,0.13,-0.99,3.30,3.36,0.61
17.4520,0.07,0.13,-0.99,3.30,3.48,0.43
17.4720,0.08,0.12,-0.99,3.42,3.30,0.37
17.4990,0.07,0.12,-0.99,3.66,3.30,0.43
17.5140,0.07,0.12,-0.99,3.66,3.60,0.55
17.5310,0.08,0.12,-0.99,3.36,3.30,0.85
17.5460,0.07,0.12,-0.99,3.23,3.05,1.04
17.5520,0.07,0.12,-0.99,3.36,3.11,0.61
17.5720,0.07,0.12,-0.99,3.23,3.11,0.67
17.5910,0.07,0.12,-0.99,3.42,3.60,0.79
17.6060,0.07,0.12,-0.99,3.42,3.05,0.85
17.6080,0.07,0.12,-0.99,3.30,3.30,0.98
17.6240,0.07,0.12,-0.99,3.23,2.99,1.16
17.6460,0.07,0.12,-0.99,3.42,3.23,1.10
17.6630,0.08,0.12,-0.99,3.23,3.17,1.04
17.6800,0.07,0.12,-0.99,3.23,3.30,0.85
17.6960,0.08,0.12,-0.99,3.30,3.05,0.92
17.7130,0.08,0.12,-0.99,3.60,2.99,0.67
17.7290,0.07,0.13,-0.99,3.30,3.60,0.61
17.7460,0.07,0.12,-0.99,3.23,3.17,0.79
17.7630,0.07,0.12,-0.99,3.48,3.05,0.85
17.7790,0.07,0.12,-0.99,3.48,3.30,0.85
17.7940,0.07,0.12,-0.99,3.60,3.78,1.28
17.8100,0.08,0.12,-0.99,3.48,3.17,1.28
17.8250,0.08,0.12,-0.99,3.17,3.36,0.98
17.8410,0.07,0.12,-0.99,3.36,3.36,0.79
17.8560,0.07,0.12,-0.99,3.30,2.99,0.79
17.8740,0.07,0.12,-0.99,3.42,3.42,0.92
17.8880,0.07,0.12,-0.99,3.42,3.17,0.79
17.8960,0.07,0.12,-0.99,3.60,3.17,0.98
17.9130,0.08,0.12,-0.99,3.36,3.30,0.98
17.9290,0.06,0.12,-0.99,3.23,3.23,0.67
17.9460,0.07,0.12,-0.99,3.78,2.93,0.85
17.9630,0.07,0.12,-0.99,3.30,3.23,1.22
17.9800,0.07,0.12,-0.99,3.36,3.11,1.40
17.9950,0.08,0.12,-0.99,3.30,2.69,1.22
18.0100,0.07,0.12,-0.99,3.60,3.23,0.79
18.0120,0.08,0.12,-0.99,3.72,3.05,0.79
18.0290,0.08,0.12,-0.99,3.60,3.48,0.85
18.0530,0.08,0.12,-0.99,3.05,3.42,0.73
18.0690,0.08,0.12,-0.99,2.99,3.85,0.37
18.0870,0.07,0.12,-0.99,3.17,3.42,0.24
18.1030,0.07,0.12,-0.99,3.60,3.54,0.61
18.1180,0.07,0.12,-0.99,3.30,3.30,0.79
18.1340,0.07,0.12,-0.99,3.42,3.85,0.98
18.1500,0.08,0.12,-0.99,3.36,3.42,0.98
18.1660,0.07,0.12,-0.99,3.54,3.05,0.98
18.1730,0.08,0.13,-0.99,3.42,3.30,0.92
18.1860,0.07,0.13,-0.99,3.30,3.54,0.79
18.2010,0.07,0.12,-0.99,3.54,3.36,0.43
18.2220,0.06,0.12,-0.99,3.54,3.11,0.61
18.2390,0.07,0.12,-0.99,3.23,3.48,0.85
18.2550,0.07,0.12,-0.99,3.11,3.05,0.73
18.2730,0.08,0.12,-0.99,3.17,3.60,0.73
18.2890,0.08,0.12,-0.99,3.42,3.11,0.61
18.3040,0.07,0.12,-0.99,3.54,2.99,0.61
18.3190,0.07,0.12,-0.99,3.36,3.54,0.61
18.3350,0.07,0.12,-0.99,3.23,3.30,0.67
18.3510,0.07,0.12,-0.99,3.30,3.30,0.61
18.3670,0.07,0.12,-0.99,3.11,3.42,0.61
18.3740,0.07,0.12,-0.99,3.54,3.72,0.85
18.3990,0.07,0.12,-0.99,3.78,3.48,1.10
18.4070,0.07,0.12,-0.99,3.42,3.36,1.04
18.4230,0.08,0.12,-0.99,3.36,3.23,0.61
18.4400,0.08,0.12,-0.99,3.36,3.23,0.31
18.4560,0.07,0.12,-0.99,3.48,3.48,0.37
18.4740,0.07,0.12,-0.99,3.17,3.23,0.73
18.4900,0.07,0.12,-0.99,3.48,2.69,0.98
18.5060,0.07,0.12,-0.99,3.54,3.36,0.98
18.5210,0.06,0.12,-0.99,3.60,3.30,1.22
18.5370,0.06,0.12,-0.99,3.66,2.99,1.71
18.5400,0.07,0.12,-0.99,3.66,3.36,1.77
18.5690,0.08,0.12,-0.99,3.23,3.30,1.89
18.5840,0.08,0.12,-0.99,3.42,2.99,1.34
18.6000,0.08,0.12,-0.99,3.48,3.23,0.85
18.6170,0.07,0.12,-0.99,3.48,2.81,0.61
18.6230,0.07,0.12,-0.99,3.48,3.17,0.67
18.6400,0.07,0.12,-0.99,3.23,3.23,0.37
18.6560,0.06,0.12,-0.99,3.66,3.05,0.49
18.6740,0.07,0.12,-0.99,3.66,2.69,1.22
18.6950,0.08,0.12,-0.99,3.54,2.99,1.28
18.7110,0.07,0.12,-0.99,3.48,2.93,1.16
18.7270,0.07,0.12,-0.99,3.60,2.62,0.98
18.7430,0.07,0.12,-0.99,3.60,2.81,0.98
18.7600,0.07,0.12,-0.99,3.17,3.11,1.10
18.7740,0.07,0.12,-0.99,3.78,2.38,1.28
18.7840,0.09,0.13,-0.99,3.48,3.11,1.10
18.8010,0.08,0.12,-0.99,3.78,2.99,0.49
18.8170,0.07,0.12,-0.99,3.85,2.81,0.31
18.8350,0.07,0.12,-0.99,3.54,3.05,0.49
18.8520,0.07,0.12,-0.99,3.23,3.36,0.61
18.8670,0.08,0.12,-0.99,3.36,3.05,0.92
18.8840,0.07,0.12,-0.99,3.23,3.30,0.85
18.9000,0.07,0.12,-0.99,3.36,3.23,0.92
18.9020,0.07,0.12,-0.99,3.60,3.30,1.10
18.9170,0.07,0.12,-0.99,3.48,3.11,1.40
18.9340,0.07,0.12,-0.99,3.48,2.87,1.83
18.9500,0.07,0.12,-0.99,3.36,3.11,1.89
18.9740,0.07,0.12,-0.99,3.60,2.81,1.89
18.9890,0.07,0.12,-0.99,3.36,3.23,2.01
19.0050,0.08,0.12,-0.99,3.23,2.99,1.71
19.0070,0.07,0.12,-0.99,3.54,3.11,1.16
19.0370,0.07,0.12,-0.99,3.36,3.48,0.92
19.0530,0.07,0.12,-0.99,3.36,3.30,0.98
19.0550,0.07,0.12,-0.99,3.30,2.87,1.53
19.0740,0.07,0.12,-0.99,3.54,2.56,1.53
19.0940,0.07,0.12,-0.99,3.42,2.99,1.34
19.1110,0.08,0.12,-0.99,3.66,2.93,1.40
19.1270,0.08,0.12,-0.99,3.42,2.93,0.92
19.1460,0.07,0.12,-0.99,3.48,3.11,0.67
19.1610,0.07,0.12,-0.99,3.48,3.30,0.79
19.1740,0.07,0.12,-0.99,3.85,2.81,0.49
19.1810,0.07,0.12,-0.99,3.30,3.23,0.37
19.2020,0.07,0.12,-0.99,3.42,3.36,0.55
19.2200,0.07,0.12,-0.99,3.60,3.11,0.79
19.2360,0.07,0.12,-0.99,3.17,3.54,1.16
19.2520,0.07,0.12,-0.99,3.66,2.75,1.04
19.2700,0.07,0.12,-0.99,3.60,2.87,0.98
19.2870,0.08,0.12,-0.99,3.60,3.11,0.98
19.3020,0.08,0.12,-0.99,3.54,2.81,0.73
19.3040,0.07,0.12,-0.99,3.30,2.69,0.49
19.3200,0.07,0.12,-0.99,3.48,2.87,0.73
19.3490,0.08,0.12,-0.99,3.54,2.81,0.31
19.3650,0.08,0.13,-0.99,3.48,3.17,-0.49
19.3810,0.07,0.13,-0.99,3.30,2.93,-0.61
19.3960,0.07,0.12,-0.99,3.36,3.23,-0.31
19.4120,0.07,0.12,-0.99,3.54,2.99,0.00
19.4200,0.07,0.12,-0.99,3.66,3.30,0.31
19.4360,0.08,0.12,-0.99,3.54,3.23,0.73
19.4530,0.08,0.12,-0.99,3.60,3.11,0.37
19.4700,0.07,0.12,-0.99,3.42,3.30,0.61
19.4860,0.07,0.12,-0.99,3.36,3.11,0.85
19.5030,0.07,0.12,-0.99,3.17,2.87,1.22
19.5040,0.07,0.12,-0.99,3.36,2.81,1.34
19.5200,0.08,0.12,-0.99,3.66,2.62,1.40
19.5510,0.08,0.12,-0.99,3.48,3.54,1.04
19.5650,0.08,0.12,-0.99,3.66,3.30,0.31
19.5810,0.08,0.12,-0.99,3.60,2.87,-0.12
19.5860,0.08,0.12,-0.99,3.54,2.99,-0.73
19.6030,0.07,0.12,-0.99,3.05,3.66,-0.79
19.6190,0.07,0.12,-0.99,3.36,3.30,-0.55
19.6380,0.07,0.12,-0.99,3.48,2.99,-0.49
19.6530,0.07,0.12,-0.99,3.66,2.81,-0.61
19.6690,0.07,0.12,-0.99,3.85,3.54,-0.55
19.6870,0.06,0.12,-0.99,3.60,3.30,-0.55
19.7020,0.06,0.12,-0.99,3.54,2.75,0.24
19.7210,0.07,0.12,-0.99,3.36,2.99,0.79
19.7360,0.08,0.12,-0.99,3.30,3.11,1.16
19.7530,0.08,0.12,-0.99,3.66,2.99,0.79
19.7540,0.08,0.12,-0.99,3.54,3.36,0.24
19.7740,0.07,0.12,-0.99,3.42,3.36,-0.37
19.7990,0.07,0.12,-0.99,3.30,3.23,-0.24
19.8150,0.07,0.12,-0.99,3.36,3.17,0.18
19.8310,0.07,0.12,-0.99,3.60,3.48,0.67
19.8460,0.07,0.12,-0.99,3.54,3.42,1.04
19.8530,0.07,0.12,-0.99,3.54,2.81,1.65
19.8750,0.08,0.12,-0.99,3.36,3.30,1.59
19.8900,0.08,0.12,-0.99,3.60,2.75,0.92
19.9050,0.08,0.12,-0.99,3.48,2.50,0.37
19.9100,0.07,0.12,-0.99,3.48,2.87,-0.12
19.9250,0.07,0.12,-0.99,3.17,3.17,0.31
19.9500,0.07,0.12,-0.99,3.23,3.23,0.79
19.9660,0.07,0.12,-0.99,3.48,2.99,0.92
19.9830,0.07,0.12,-0.99,3.72,2.99,0.92
19.9990,0.07,0.12,-0.99,3.72,3.05,0.55
20.0160,0.07,0.12,-0.99,3.48,3.30,0.49
20.0330,0.07,0.12,-0.99,3.42,3.17,0.73
20.0500,0.07,0.12,-0.99,3.36,2.93,0.79
20.0650,0.07,0.12,-0.99,3.42,2.81,0.61
20.0750,0.07,0.12,-0.99,3.48,3.42,0.92
20.0980,0.08,0.12,-0.99,3.48,3.05,0.85
20.0990,0.07,0.12,-0.99,3.78,3.05,0.12
20.1160,0.07,0.12,-0.99,3.36,3.05,0.12
20.1330,0.07,0.12,-0.99,3.60,3.54,0.06
20.1490,0.08,0.12,-0.99,3.66,3.42,0.37
20.1760,0.08,0.12,-0.99,3.54,3.60,0.18
20.1900,0.07,0.12,-0.99,3.42,3.42,-0.12
20.2060,0.07,0.12,-0.99,3.85,2.99,-0.06
20.2230,0.08,0.12,-0.99,3.78,3.17,-0.06
20.2390,0.07,0.13,-0.99,3.48,3.11,-0.85
20.2550,0.07,0.12,-0.99,3.42,3.48,-0.98
20.2710,0.07,0.12,-0.99,3.78,3.36,-1.28
20.2870,0.07,0.12,-0.99,4.03,3.17,-0.49
20.2890,0.08,0.12,-0.99,3.91,3.23,-0.12
20.3050,0.08,0.12,-0.99,3.60,3.05,-0.12
20.3270,0.08,0.12,-0.99,3.36,3.23,-0.06
20.3440,0.09,0.13,-0.99,3.42,3.42,-0.92
20.3600,0.08,0.12,-0.99,3.72,3.72,-2.01
20.3770,0.07,0.12,-0.99,3.66,3.97,-2.20
20.3940,0.06,0.12,-0.99,3.66,3.48,-1.89
20.4110,0.06,0.12,-0.99,3.54,3.36,-1.53
20.4270,0.08,0.12,-0.99,3.66,3.60,-1.34
20.4430,0.08,0.12,-0.99,3.60,3.48,-1.59
20.4450,0.07,0.12,-0.97,4.03,3.48,-1.71
20.4750,0.05,0.13,-1.04,3.78,3.72,0.18
20.4910,0.08,0.12,-0.99,3.05,3.23,1.71
20.5070,0.07,0.11,-0.98,3.17,2.81,1.04
20.5220,0.09,0.12,-0.99,3.17,3.48,0.00
20.5380,0.07,0.12,-1.00,3.54,3.42,-0.73
20.5450,0.08,0.12,-0.98,3.48,3.30,-0.98
20.5610,0.05,0.13,-1.00,3.54,3.60,-1.89
20.5840,0.07,0.13,-0.98,3.23,3.36,-1.46
20.6000,0.06,0.13,-1.00,3.66,3.17,-1.16
20.6170,0.09,0.12,-0.99,3.42,3.23,-0.18
20.6320,0.09,0.12,-0.99,3.72,3.11,-0.61
20.6330,0.08,0.12,-0.99,3.60,3.17,-0.73
20.6500,0.07,0.11,-0.99,3.72,3.11,-0.49
20.6790,0.07,0.11,-0.99,3.42,3.54,0.67
20.6840,0.07,0.12,-0.99,3.48,3.11,0.85
20.6990,0.08,0.12,-0.99,3.72,3.05,0.79
20.7200,0.08,0.12,-0.99,3.78,2.75,-0.06
20.7380,0.08,0.13,-0.99,3.72,2.99,-0.55
20.7540,0.07,0.13,-0.99,3.60,3.17,-1.95
20.7690,0.05,0.12,-0.99,3.78,3.30,-1.28
20.7840,0.05,0.13,-0.99,3.54,3.42,0.12
20.8010,0.06,0.12,-0.99,3.11,3.17,1.59
20.8170,0.08,0.12,-0.99,3.17,3.17,2.01
20.8200,0.08,0.12,-0.99,3.30,3.23,2.20
20.8360,0.08,0.12,-0.99,3.48,3.23,2.08
20.8590,0.09,0.12,-0.99,3.66,3.36,1.71
20.8760,0.07,0.12,-0.99,3.48,2.99,0.49
20.8930,0.07,0.12,-0.99,3.42,2.99,0.18
20.9090,0.08,0.12,-0.99,3.48,2.99,0.31
20.9260,0.08,0.12,-0.99,3.66,3.17,-0.06
20.9420,0.08,0.12,-0.99,3.78,3.42,-0.12
20.9590,0.07,0.12,-0.99,3.72,2.99,-0.43
20.9760,0.07,0.13,-0.99,3.91,3.17,-0.79
20.9920,0.07,0.12,-0.99,3.54,3.11,-0.85
21.0080,0.08,0.13,-0.99,3.54,2.93,-0.43
21.0240,0.06,0.12,-0.99,3.11,3.60,-0.43
21.0400,0.06,0.12,-0.99,3.36,3.30,0.18
21.0560,0.07,0.12,-0.99,3.17,2.93,0.98
21.0710,0.08,0.12,-0.99,3.36,2.99,1.59
21.0760,0.08,0.12,-0.99,3.72,3.42,1.71
21.0920,0.09,0.12,-0.99,3.78,2.93,1.28
21.1150,0.07,0.12,-0.99,3.66,3.36,0.12
21.1250,0.07,0.12,-0.99,3.60,2.69,0.61
21.1420,0.07,0.12,-0.99,3.36,3.36,0.98
21.1590,0.07,0.13,-0.99,3.85,2.99,1.10
21.1760,0.07,0.12,-0.99,3.66,2.93,0.79
21.1920,0.07,0.12,-0.99,3.36,2.93,0.85
21.2090,0.07,0.12,-0.99,3.05,3.17,0.98
21.2260,0.07,0.12,-0.99,3.42,3.23,1.34
21.2410,0.08,0.12,-0.99,3.54,2.93,1.53
21.2580,0.08,0.12,-0.99,3.78,2.99,1.16
21.2740,0.08,0.12,-0.99,3.97,2.87,0.73
21.2890,0.07,0.13,-0.99,3.85,3.23,0.43
21.3030,0.07,0.13,-0.99,3.36,3.23,0.98
21.3190,0.08,0.12,-0.99,3.17,3.36,0.85
21.3350,0.07,0.12,-0.99,3.23,3.48,0.61
21.3420,0.07,0.13,-0.99,3.42,3.23,0.61
21.3580,0.07,0.13,-0.99,3.30,2.99,0.24
21.3780,0.06,0.12,-0.99,3.05,3.54,0.61
21.3940,0.06,0.12,-0.99,3.48,2.99,1.04
21.4110,0.07,0.12,-0.99,3.54,2.81,1.65
21.4280,0.08,0.12,-1.00,4.15,3.30,1.77
21.4440,0.08,0.12,-0.99,3.42,3.36,1.59
21.4600,0.08,0.12,-0.99,3.60,3.42,1.16
21.4760,0.07,0.12,-0.99,4.09,2.87,1.16
21.4920,0.08,0.12,-0.99,4.03,3.54,1.16
21.5080,0.08,0.13,-1.00,3.91,3.17,0.85
21.5120,0.07,0.13,-0.99,3.30,2.93,0.37
21.5380,0.06,0.13,-0.99,2.99,3.48,0.37
21.5450,0.07,0.12,-0.99,2.99,3.23,0.73
21.5610,0.07,0.12,-0.99,3.30,3.30,0.98
21.5780,0.08,0.12,-0.99,3.66,3.11,1.10
21.5950,0.08,0.11,-0.99,4.33,3.42,0.98
21.6110,0.09,0.12,-0.99,4.64,2.75,0.92
21.6280,0.07,0.12,-0.99,4.46,3.05,0.85
21.6450,0.07,0.13,-0.99,3.54,3.30,1.16
21.6610,0.07,0.12,-0.99,2.81,3.30,1.46
21.6620,0.08,0.12,-0.99,2.87,3.05,1.04
21.6800,0.08,0.13,-0.99,3.54,3.05,0.37
21.6960,0.08,0.13,-0.99,3.66,2.87,0.12
21.7180,0.06,0.13,-0.99,3.66,2.75,-0.12
21.7380,0.05,0.12,-0.99,3.91,2.93,0.43
21.7520,0.07,0.12,-0.99,2.99,3.05,1.28
21.7690,0.08,0.12,-0.99,2.81,3.23,1.46
21.7850,0.08,0.12,-0.99,3.05,2.99,1.46
21.8020,0.07,0.12,-0.99,3.42,3.11,1.53
21.8180,0.07,0.12,-0.99,3.60,3.11,1.65
21.8340,0.08,0.12,-0.99,3.48,2.69,2.08
21.8490,0.08,0.13,-0.99,3.30,3.05,1.77
21.8650,0.08,0.13,-0.99,3.05,3.17,1.22
21.8820,0.07,0.12,-0.99,3.36,2.99,0.79
21.8970,0.07,0.12,-0.99,3.66,3.05,0.85
21.9030,0.07,0.12,-0.99,3.85,2.87,1.22
21.9180,0.08,0.13,-0.99,3.54,2.93,1.04
21.9420,0.08,0.12,-0.99,3.42,2.56,0.79
21.9600,0.08,0.12,-0.99,3.30,3.17,1.10
21.9760,0.07,0.12,-0.99,3.30,3.17,1.22
21.9920,0.07,0.12,-0.99,3.30,3.23,1.34
21.9930,0.07,0.12,-0.99,3.60,2.93,1.59
22.0240,0.08,0.12,-0.99,3.42,2.93,1.46
22.0390,0.08,0.13,-0.99,3.72,3.48,0.85
22.0530,0.07,0.12,-0.99,3.78,2.81,1.10
22.0690,0.07,0.13,-0.99,3.66,2.75,1.28
22.0840,0.08,0.13,-0.99,3.42,2.93,1.28
22.0990,0.08,0.12,-0.99,3.48,2.87,0.73
22.1150,0.07,0.12,-0.99,3.36,2.99,0.98
22.1250,0.07,0.12,-0.99,3.42,2.75,1.16
22.1420,0.08,0.12,-0.99,3.36,2.93,1.53
22.1590,0.07,0.12,-0.99,3.48,3.42,1.40
22.1750,0.08,0.12,-0.99,3.54,2.81,0.79
22.1910,0.07,0.12,-0.99,3.66,3.23,0.92
22.2070,0.09,0.14,-1.00,3.30,3.60,1.04
22.2230,0.07,0.13,-0.99,3.66,2.50,-0.55
22.2400,0.06,0.12,-0.99,3.17,2.69,0.43
22.2550,0.07,0.12,-0.99,3.30,3.36,1.71
22.2580,0.08,0.12,-0.99,3.36,3.23,1.83
22.2770,0.08,0.12,-0.99,3.66,3.23,1.89
22.2960,0.08,0.12,-0.99,3.72,3.48,1.89
22.3130,0.08,0.12,-0.99,3.66,3.17,1.89
22.3300,0.08,0.12,-0.99,3.66,3.11,0.92
22.3460,0.08,0.13,-1.00,3.30,3.36,0.31
22.3620,0.06,0.12,-0.99,4.03,2.75,0.24
22.3790,0.06,0.13,-0.99,3.78,3.36,0.85
22.3950,0.07,0.13,-0.99,3.36,3.48,1.16
22.4120,0.07,0.13,-0.99,3.36,3.17,0.92
22.4280,0.07,0.13,-0.99,3.42,2.87,0.61
22.4440,0.07,0.12,-0.99,3.42,3.05,0.85
22.4460,0.08,0.12,-0.99,3.48,3.23,1.59
22.4620,0.08,0.12,-0.99,3.30,3.11,2.01
22.4850,0.09,0.12,-0.99,3.36,3.42,1.77
22.5010,0.09,0.12,-0.99,3.11,3.30,1.71
22.5180,0.07,0.11,-0.98,3.66,2.32,-0.06
22.5340,0.06,0.12,-1.00,4.03,3.48,1.16
22.5510,0.07,0.13,-0.99,4.03,3.66,2.08
22.5680,0.07,0.13,-1.00,3.91,2.93,1.46
22.5850,0.06,0.12,-0.99,3.23,3.23,0.98
22.6010,0.07,0.13,-0.99,3.23,2.93,0.43
22.6160,0.08,0.12,-0.99,3.42,2.81,0.24
22.6320,0.07,0.12,-0.99,3.54,2.75,0.79
22.6350,0.08,0.12,-0.99,3.78,3.36,1.89
22.6620,0.08,0.12,-0.99,3.54,3.36,1.95
22.6690,0.08,0.12,-0.99,3.48,3.36,1.65
22.6850,0.09,0.12,-0.99,3.42,3.66,1.59
22.7020,0.09,0.13,-1.00,3.66,3.30,1.40
22.7190,0.07,0.12,-0.98,3.66,3.11,0.43
22.7350,0.08,0.12,-0.99,3.48,3.42,1.10
22.7540,0.08,0.12,-1.00,3.60,3.17,0.85
22.7690,0.07,0.12,-0.99,3.72,2.56,0.00
22.7840,0.07,0.12,-0.99,3.72,2.87,0.37
22.7990,0.07,0.13,-0.99,3.17,3.36,0.67
22.8050,0.07,0.13,-0.99,3.11,2.50,0.55
22.8220,0.07,0.12,-0.99,3.11,2.81,0.73
22.8380,0.08,0.12,-0.99,3.48,3.17,0.98
22.8600,0.08,0.12,-0.99,3.78,2.93,1.10
22.8760,0.07,0.12,-0.99,3.91,3.30,1.34
22.8920,0.08,0.12,-0.99,3.42,3.66,1.95
22.9080,0.08,0.12,-0.99,3.17,3.11,1.77
22.9240,0.08,0.12,-0.99,2.75,3.23,1.53
22.9390,0.10,0.15,-1.01,3.11,3.36,1.34
22.9550,0.07,0.10,-0.98,4.03,0.49,-1.83
22.9710,0.09,0.13,-0.99,3.66,2.93,0.85
22.9860,0.07,0.12,-0.99,3.42,3.36,1.40
23.0000,0.07,0.13,-0.99,3.30,3.48,1.53
23.0100,0.07,0.13,-0.99,3.23,3.11,1.22
23.0260,0.07,0.13,-0.99,3.17,2.87,1.10
23.0480,0.08,0.13,-0.99,3.30,3.11,1.46
23.0630,0.08,0.12,-0.99,3.30,3.23,1.77
23.0790,0.08,0.12,-0.99,3.17,3.30,1.83
23.0810,0.08,0.12,-0.99,3.42,3.17,1.83
23.1100,0.09,0.12,-0.99,3.66,3.23,1.77
23.1250,0.08,0.12,-0.99,3.85,3.42,1.28
23.1360,0.07,0.13,-0.99,3.36,3.23,1.59
23.1530,0.08,0.12,-0.99,3.17,3.11,1.83
23.1690,0.08,0.12,-0.99,3.17,3.11,1.10
23.1870,0.08,0.13,-0.99,4.03,2.26,0.12
23.2020,0.07,0.12,-0.98,4.46,2.32,-0.37
23.2180,0.07,0.13,-0.99,3.97,3.05,0.67
23.2230,0.08,0.13,-0.99,3.66,3.30,1.71
23.2380,0.08,0.12,-0.99,3.48,3.30,2.08
23.2630,0.08,0.12,-0.99,3.60,3.05,2.01
23.2790,0.08,0.12,-0.99,3.23,2.93,1.77
23.2800,0.08,0.12,-0.99,3.48,2.81,1.77
23.3100,0.08,0.12,-0.99,3.30,3.17,1.77
23.3260,0.09,0.14,-1.00,3.85,2.50,1.34
23.3290,0.07,0.11,-0.98,4.03,1.71,0.18
23.3450,0.08,0.12,-0.99,3.54,2.99,1.46
23.3670,0.08,0.12,-0.99,3.60,3.30,1.59
23.3830,0.07,0.13,-0.99,3.42,3.30,1.59
23.4020,0.08,0.12,-0.99,2.93,3.05,1.77
23.4170,0.08,0.12,-0.99,3.05,2.62,1.71
23.4340,0.09,0.12,-0.99,3.36,2.75,1.71
23.4510,0.09,0.12,-0.99,3.48,2.62,1.77
23.4680,0.09,0.13,-0.99,3.60,2.75,2.08
23.4830,0.08,0.13,-0.99,3.42,3.05,2.20
23.5000,0.07,0.14,-0.99,3.30,2.87,2.44
23.5010,0.07,0.14,-0.99,3.17,2.75,2.32
23.5170,0.07,0.13,-0.99,3.05,2.69,2.14
23.5350,0.07,0.12,-0.99,3.17,2.93,2.08
23.5640,0.07,0.12,-0.99,3.54,2.99,1.83
23.5790,0.08,0.11,-0.99,3.54,2.75,1.77
23.5830,0.09,0.11,-0.99,3.72,2.99,1.77
23.6050,0.09,0.11,-0.99,3.36,2.93,1.89
23.6220,0.09,0.12,-0.99,3.36,3.17,2.01
23.6390,0.09,0.12,-0.99,3.30,2.93,2.08
23.6550,0.08,0.13,-0.99,3.42,2.81,2.08
23.6700,0.08,0.14,-0.99,3.17,3.11,1.95
23.6860,0.07,0.14,-0.99,3.42,3.30,2.08
23.6890,0.07,0.13,-0.99,3.36,3.42,2.01
23.7040,0.07,0.13,-0.99,3.36,3.30,1.95
23.7280,0.07,0.12,-0.99,3.23,3.23,1.95
23.7440,0.08,0.12,-0.99,3.11,3.30,2.44
23.7620,0.09,0.11,-0.99,3.23,2.62,2.56
23.7780,0.09,0.12,-0.99,3.30,2.44,2.50
23.7950,0.09,0.12,-0.99,3.36,2.99,2.26
23.8110,0.08,0.13,-0.99,3.42,2.87,2.32
23.8260,0.08,0.13,-0.99,3.42,3.11,2.01
23.8290,0.08,0.13,-0.99,3.54,3.23,2.01
23.8450,0.08,0.13,-0.99,3.66,3.23,1.95
23.8670,0.08,0.12,-0.99,3.42,3.11,1.89
23.8840,0.08,0.12,-0.99,3.60,3.17,2.01
23.9000,0.08,0.12,-0.99,3.48,2.99,2.32
23.9170,0.09,0.12,-0.99,3.42,2.81,2.44
23.9330,0.08,0.12,-0.99,3.36,2.93,2.38
23.9510,0.08,0.12,-0.99,3.60,2.87,2.32
23.9680,0.08,0.14,-1.00,3.97,2.81,2.08
23.9840,0.07,0.14,-1.00,4.21,2.44,2.01
23.9990,0.08,0.13,-0.99,3.78,2.62,1.89
24.0160,0.08,0.12,-0.99,3.54,2.62,1.95
24.0330,0.08,0.12,-0.99,3.30,3.30,1.95
24.0500,0.08,0.12,-0.99,2.81,3.11,2.01
24.0660,0.09,0.12,-0.99,2.69,3.36,2.75
24.0820,0.09,0.14,-1.02,2.81,3.11,2.69
24.0840,0.08,0.11,-0.97,2.69,3.30,3.11
24.1000,0.08,0.11,-0.98,2.93,3.17,2.81
24.1300,0.07,0.14,-1.00,4.46,3.17,1.95
24.1460,0.08,0.13,-0.99,3.05,2.81,1.83
24.1610,0.07,0.12,-0.99,3.30,2.99,1.89
24.1670,0.08,0.12,-0.99,3.36,3.17,2.14
24.1840,0.08,0.12,-0.99,3.11,2.87,2.26
24.1990,0.08,0.12,-0.99,3.42,2.69,2.38
24.2210,0.08,0.12,-0.99,3.23,2.93,2.69
24.2370,0.09,0.12,-0.99,3.42,2.93,2.62
24.2540,0.08,0.13,-0.99,3.48,3.11,2.20
24.2560,0.08,0.13,-0.99,3.42,3.23,2.14
24.2860,0.08,0.13,-0.99,3.42,3.11,2.08
24.3010,0.08,0.13,-0.99,3.36,2.93,1.95
24.3180,0.08,0.12,-0.99,3.54,2.75,1.89
24.3210,0.08,0.12,-0.99,3.72,3.17,1.71
24.3380,0.08,0.13,-0.99,3.72,3.36,1.34
24.3600,0.08,0.13,-0.99,3.36,3.42,1.40
24.3770,0.08,0.13,-0.99,3.48,3.30,1.34
24.3930,0.07,0.13,-0.99,3.48,3.42,1.22
24.4100,0.08,0.13,-0.99,3.48,3.60,1.46
24.4260,0.08,0.13,-0.99,3.48,3.42,1.34
24.4420,0.08,0.13,-0.99,3.48,3.05,1.10
24.4430,0.08,0.13,-0.99,3.17,3.48,1.65
24.4730,0.08,0.12,-0.99,2.99,2.75,1.65
24.4890,0.08,0.12,-0.99,3.05,3.23,1.95
24.5040,0.08,0.12,-0.99,3.11,3.11,2.01
24.5200,0.08,0.12,-0.99,2.99,3.36,1.53
24.5350,0.08,0.12,-0.99,3.17,3.17,0.98
24.5510,0.07,0.12,-0.99,3.42,3.17,0.43
24.5590,0.08,0.12,-0.99,3.05,3.54,1.16
24.5800,0.08,0.12,-0.99,3.23,3.42,1.65
24.5930,0.08,0.12,-0.99,3.54,3.17,1.40
24.6090,0.08,0.13,-0.99,3.48,3.54,1.46
24.6260,0.07,0.13,-0.99,3.23,3.66,1.77
24.6430,0.08,0.13,-0.99,3.23,3.54,1.89
24.6590,0.08,0.12,-0.99,3.30,3.30,1.89
24.6760,0.08,0.12,-0.99,3.23,3.42,1.59
24.6800,0.09,0.12,-0.99,3.23,3.60,1.04
24.7080,0.08,0.12,-0.99,3.48,3.66,-0.06
24.7250,0.08,0.12,-0.99,3.48,3.66,-0.24
24.7400,0.08,0.12,-0.99,3.23,3.66,-0.79
24.7560,0.08,0.13,-0.99,2.99,3.36,-0.49
24.7720,0.08,0.13,-0.99,3.17,3.48,-0.37
24.7810,0.08,0.12,-0.99,3.30,3.17,-0.43
24.7920,0.08,0.13,-0.99,3.48,3.42,-1.10
24.8140,0.08,0.12,-0.99,3.66,3.48,-1.53
24.8320,0.08,0.13,-0.99,4.33,3.66,-2.75
24.8470,0.07,0.14,-0.98,3.42,3.78,-2.26
24.8650,0.08,0.13,-0.99,3.30,3.23,0.49
24.8810,0.08,0.12,-0.99,3.23,3.54,0.85
24.8970,0.09,0.11,-0.99,3.72,3.11,-0.37
24.9130,0.08,0.12,-0.99,3.97,3.78,-1.28
24.9300,0.08,0.12,-0.99,4.03,3.42,-1.40
24.9310,0.07,0.13,-0.99,3.66,3.48,-0.61
24.9480,0.07,0.13,-0.99,3.85,3.60,0.12
24.9630,0.07,0.13,-0.99,2.99,3.36,1.34
24.9810,0.08,0.12,-0.99,3.11,3.60,1.22
25.0030,0.08,0.13,-0.99,3.42,3.42,0.98
25.0180,0.08,0.13,-0.99,3.60,3.11,1.34
25.0350,0.08,0.12,-0.99,3.30,3.23,1.77
25.0510,0.08,0.12,-0.99,3.30,3.23,1.83
25.0670,0.08,0.12,-0.99,3.11,3.30,1.89
25.0810,0.08,0.12,-0.99,3.48,3.05,1.77
25.0940,0.08,0.12,-0.99,3.36,3.05,1.77
25.1110,0.08,0.13,-0.99,3.48,3.05,1.53
25.1270,0.08,0.12,-0.99,3.48,2.69,1.71
25.1440,0.08,0.13,-0.99,3.48,2.87,1.71
25.1600,0.08,0.13,-0.99,3.54,2.81,1.77
25.1770,0.08,0.13,-0.99,3.30,3.11,1.65
25.1930,0.08,0.12,-0.99,3.48,3.36,1.71
25.1940,0.08,0.12,-0.99,3.54,3.17,1.65
25.2260,0.08,0.12,-0.99,3.54,3.30,1.28
25.2420,0.08,0.12,-0.99,3.54,3.36,1.04
25.2580,0.08,0.13,-0.99,3.48,3.23,0.98
25.2740,0.08,0.12,-0.99,3.30,3.05,1.34
25.2890,0.08,0.12,-0.99,3.17,3.42,1.28
25.3050,0.08,0.12,-0.99,3.78,3.36,0.49
25.3200,0.08,0.12,-0.99,3.78,3.36,-0.61
25.3270,0.08,0.14,-0.99,4.15,4.39,-2.62
25.3440,0.07,0.13,-0.99,4.09,3.78,-1.53
25.3600,0.08,0.13,-0.99,3.42,3.48,-0.85
25.3820,0.08,0.13,-0.99,3.48,3.36,0.12
25.3930,0.08,0.12,-0.99,3.54,3.42,0.73
25.4120,0.08,0.12,-0.99,3.60,3.36,0.37
25.4280,0.08,0.12,-0.99,3.54,3.48,-0.67
25.4420,0.08,0.13,-0.99,3.60,3.66,-1.04
25.4580,0.08,0.13,-0.99,4.03,3.36,-0.55
25.4650,0.08,0.13,-0.99,3.72,3.23,0.85
25.4820,0.08,0.13,-0.99,3.48,3.54,1.46
25.4970,0.08,0.12,-0.99,3.54,3.30,1.34
25.5170,0.08,0.12,-0.98,3.54,3.72,1.16
25.5330,0.08,0.13,-0.99,3.78,3.36,0.67
25.5480,0.08,0.12,-0.99,3.97,3.30,0.12
25.5550,0.08,0.13,-0.99,3.72,3.66,0.12
25.5730,0.08,0.12,-0.99,3.54,3.30,0.55
25.5880,0.08,0.12,-0.99,3.48,3.11,0.85
25.6050,0.08,0.12,-0.99,2.93,3.17,0.79
25.6220,0.08,0.12,-0.99,3.30,3.54,0.55
25.6380,0.08,0.12,-0.99,3.78,3.66,-0.24
25.6550,0.08,0.14,-0.99,4.27,3.72,-1.28
25.6720,0.08,0.14,-0.99,3.91,3.54,-0.73
25.6870,0.08,0.13,-0.99,3.72,3.48,0.00
25.7030,0.08,0.13,-0.99,3.54,3.48,0.55
25.7190,0.08,0.12,-0.99,3.23,3.91,0.61
25.7330,0.08,0.12,-0.99,3.36,3.11,1.04
25.7490,0.09,0.11,-0.99,3.78,3.48,0.85
25.7550,0.09,0.11,-0.99,3.78,3.66,-0.06
25.7710,0.09,0.11,-0.99,3.66,3.30,-1.34
25.7930,0.08,0.13,-0.99,4.03,3.54,-2.08
25.8100,0.08,0.13,-0.99,3.91,3.66,-0.85
25.8250,0.08,0.13,-0.99,3.30,3.42,-0.31
25.8420,0.08,0.13,-0.99,3.48,3.78,-1.34
25.8560,0.08,0.14,-0.99,3.72,3.91,-2.14
25.8730,0.08,0.14,-0.99,4.03,3.36,-1.10
25.8880,0.08,0.14,-0.99,3.78,3.17,-0.06
25.8920,0.08,0.13,-0.99,3.30,2.87,1.34
25.9080,0.08,0.12,-0.99,3.54,2.99,1.10
25.9330,0.08,0.12,-0.99,3.54,3.48,0.18
25.9490,0.08,0.12,-0.99,3.72,2.99,0.00
25.9650,0.08,0.12,-0.99,3.78,3.11,0.00
25.9810,0.08,0.12,-0.99,3.66,3.11,0.61
25.9980,0.08,0.11,-0.99,3.30,3.66,0.55
25.9990,0.08,0.12,-0.99,3.66,3.78,-0.92
26.0300,0.08,0.13,-0.99,3.78,3.54,-1.77
26.0320,0.08,0.14,-0.99,3.91,3.66,-2.01
26.0610,0.08,0.14,-0.99,3.66,3.36,-1.28
26.0780,0.08,0.13,-0.99,3.60,3.54,-0.18
26.0820,0.08,0.13,-0.99,3.60,3.66,-0.37
26.0990,0.08,0.13,-0.99,3.48,3.54,0.24
26.1260,0.08,0.13,-0.99,3.78,3.23,1.65
26.1320,0.08,0.12,-0.99,3.30,2.99,1.77
26.1490,0.08,0.12,-0.99,3.36,3.23,1.34
26.1690,0.07,0.10,-0.98,2.14,4.03,2.14
26.1860,0.09,0.13,-0.99,3.05,4.39,0.24
26.2020,0.08,0.14,-0.99,3.85,3.54,-0.31
26.2190,0.08,0.13,-0.99,3.72,3.48,1.28
26.2350,0.08,0.13,-0.99,3.30,2.93,1.53
26.2510,0.08,0.12,-0.98,3.17,3.60,1.71
26.2520,0.09,0.14,-0.99,2.99,3.91,1.83
26.2830,0.09,0.14,-0.99,3.60,3.60,1.34
26.2990,0.08,0.13,-0.99,3.78,3.11,1.95
26.3150,0.08,0.12,-0.99,3.54,3.36,1.95
26.3310,0.08,0.12,-0.99,3.36,3.36,1.40
26.3470,0.08,0.11,-1.00,2.32,4.46,2.62
26.3630,0.08,0.10,-0.99,3.05,4.52,0.00
26.3690,0.09,0.16,-1.00,2.99,4.76,0.06
26.3850,0.08,0.15,-0.99,3.66,4.39,-0.12
26.4020,0.08,0.13,-0.99,3.66,3.42,0.55
26.4180,0.08,0.13,-0.99,3.17,3.23,1.53
26.4350,0.08,0.13,-0.99,3.36,3.11,1.71
26.4510,0.08,0.13,-0.99,3.36,3.17,1.40
26.4710,0.08,0.12,-0.99,3.36,3.30,1.16
26.4860,0.07,0.12,-0.99,3.54,3.30,0.67
26.5020,0.08,0.14,-1.00,2.75,4.39,1.65
26.5170,0.08,0.14,-0.99,3.36,4.21,0.49
26.5340,0.08,0.12,-0.99,3.66,2.99,1.46
26.5500,0.08,0.12,-0.99,3.36,3.48,1.83
26.5660,0.08,0.12,-0.99,3.30,3.60,1.40
26.5810,0.08,0.12,-0.99,3.72,3.48,0.73
26.5900,0.07,0.11,-0.99,3.36,3.85,0.98
26.6070,0.07,0.13,-0.99,3.54,3.54,0.43
26.6220,0.07,0.13,-0.99,3.54,3.42,0.73
26.6400,0.07,0.13,-0.99,3.23,3.72,0.85
26.6560,0.07,0.10,-0.99,3.42,3.05,0.61
26.6730,0.08,0.15,-0.99,2.50,4.46,2.50
26.6890,0.08,0.14,-0.99,3.05,3.60,1.40
26.6910,0.08,0.13,-0.99,3.54,3.42,1.53
26.7210,0.08,0.12,-0.99,3.60,2.99,1.16
26.7370,0.08,0.11,-0.99,3.54,3.11,0.73
26.7530,0.08,0.12,-0.99,3.05,3.85,1.16
26.7690,0.08,0.13,-0.99,3.66,3.66,0.06
26.7850,0.07,0.13,-0.99,3.36,3.60,1.10
26.7900,0.07,0.13,-0.99,3.17,3.48,0.73
26.8160,0.07,0.12,-0.99,3.54,3.48,0.73
26.8230,0.08,0.12,-0.99,3.72,3.23,0.31
26.8390,0.08,0.12,-0.99,2.87,3.72,1.89
26.8630,0.09,0.14,-0.99,2.75,4.09,2.08
26.8800,0.08,0.13,-0.99,3.85,3.66,-0.49
26.8950,0.08,0.12,-0.99,3.17,3.85,0.67
26.9120,0.08,0.14,-0.99,3.11,4.52,1.04
26.9280,0.08,0.14,-0.99,3.11,4.03,1.34
26.9280,0.07,0.12,-0.99,3.30,3.48,0.98
26.9600,0.07,0.12,-0.99,3.54,3.48,0.43
26.9760,0.07,0.11,-0.99,3.78,3.48,-0.61
26.9920,0.08,0.11,-0.99,4.15,3.78,-2.14
27.0090,0.07,0.10,-0.99,3.91,4.03,-1.46
27.0260,0.08,0.15,-0.99,3.05,3.78,-0.31
27.0410,0.07,0.13,-0.99,3.42,3.66,-0.31
27.0570,0.08,0.13,-0.99,3.30,3.17,0.98
27.0730,0.08,0.12,-0.99,3.66,3.42,-0.18
27.0890,0.07,0.11,-0.99,3.60,3.85,-0.43
27.1040,0.08,0.14,-0.99,2.99,4.15,0.92
27.1120,0.07,0.14,-0.99,3.42,3.48,1.83
27.1280,0.08,0.13,-0.99,3.48,3.48,2.01
27.1510,0.08,0.12,-0.99,3.36,3.23,1.83
27.1660,0.07,0.12,-0.98,3.66,3.42,0.98
27.1830,0.08,0.12,-1.00,3.17,3.60,1.28
27.1840,0.07,0.12,-0.99,3.42,3.91,-0.12
27.2140,0.08,0.14,-0.99,2.93,3.78,1.22
27.2300,0.08,0.12,-0.99,3.23,3.60,0.49
27.2340,0.07,0.11,-0.99,3.36,3.36,0.43
27.2490,0.08,0.13,-0.99,3.11,3.60,0.98
27.2720,0.07,0.13,-0.99,3.54,3.42,0.31
27.2890,0.07,0.13,-0.99,3.17,3.72,1.40
27.3050,0.07,0.12,-0.99,3.11,3.42,1.16
27.3220,0.07,0.13,-0.99,2.56,3.91,1.28
27.3390,0.07,0.13,-0.99,3.72,3.72,0.61
27.3540,0.07,0.11,-0.99,3.48,3.72,0.43
27.3560,0.07,0.12,-0.99,3.23,3.78,-0.31
27.3860,0.07,0.12,-0.99,3.23,3.66,-0.37
27.4020,0.07,0.13,-0.99,3.60,3.72,-0.37
27.4050,0.08,0.14,-0.99,3.60,3.72,0.06
27.4340,0.07,0.13,-0.99,3.66,3.30,0.49
27.4500,0.07,0.12,-0.99,3.42,3.11,0.98
27.4660,0.07,0.11,-0.99,3.17,3.85,0.31
27.4820,0.08,0.12,-0.99,3.72,3.97,-1.22
27.4970,0.08,0.16,-0.99,3.78,3.72,-0.37
27.5130,0.07,0.16,-0.99,3.91,3.36,0.61
27.5220,0.07,0.13,-0.99,3.17,3.36,2.01
27.5380,0.08,0.12,-0.99,3.17,3.23,1.89
27.5550,0.07,0.11,-0.99,2.99,3.30,0.85
27.5720,0.07,0.09,-0.99,3.54,3.54,-0.49
27.5880,0.07,0.11,-0.99,3.60,4.03,-1.65
27.6050,0.06,0.13,-0.99,3.66,3.97,-0.79
27.6210,0.07,0.15,-0.99,3.36,3.11,1.22
27.6370,0.07,0.13,-0.99,3.48,3.23,1.16
27.6520,0.07,0.12,-0.99,2.99,3.54,1.77
27.6560,0.07,0.09,-0.99,2.87,3.72,0.43
27.6830,0.08,0.12,-0.99,2.75,4.64,-1.65
27.6890,0.07,0.13,-0.99,3.66,4.15,-2.44
27.7160,0.07,0.14,-0.99,3.78,3.30,-0.43
27.7320,0.08,0.15,-0.99,3.85,2.99,-0.12
27.7470,0.07,0.13,-0.99,3.60,2.62,0.49
27.7550,0.07,0.12,-0.99,3.42,2.99,1.71
27.7710,0.07,0.12,-0.99,3.48,2.93,1.89
27.7930,0.07,0.11,-0.99,3.48,3.17,1.04
27.7940,0.07,0.11,-0.99,3.17,3.66,1.16
27.8250,0.07,0.13,-0.99,3.54,3.42,0.06
27.8410,0.07,0.13,-0.99,3.30,3.36,0.37
27.8440,0.07,0.12,-0.99,3.23,3.23,0.85
27.8590,0.07,0.13,-0.99,3.36,3.30,0.85
27.8830,0.07,0.14,-0.99,3.42,3.23,1.10
27.8990,0.07,0.13,-0.99,3.48,3.23,1.22
27.9150,0.07,0.11,-0.99,2.81,3.42,0.92
27.9320,0.07,0.11,-0.99,2.81,3.36,1.34
27.9490,0.07,0.11,-0.99,3.05,3.48,0.55
27.9640,0.07,0.13,-0.99,3.66,3.36,-0.79
27.9660,0.07,0.14,-0.99,3.48,3.17,0.85
27.9960,0.07,0.12,-0.99,3.17,2.99,0.79
27.9990,0.07,0.12,-0.99,3.30,3.42,0.37
28.0140,0.07,0.12,-0.99,3.91,2.69,0.24
28.0370,0.07,0.12,-0.99,3.72,3.36,0.24
28.0540,0.07,0.13,-0.99,3.17,3.60,1.16
28.0710,0.07,0.13,-0.99,3.05,3.11,1.04
28.0870,0.07,0.12,-0.99,2.87,3.30,1.04
28.1030,0.07,0.11,-0.99,3.72,3.30,0.00
28.1190,0.07,0.10,-0.99,4.27,3.11,-1.71
28.1360,0.08,0.13,-0.99,4.03,3.30,-0.55
28.1520,0.07,0.13,-0.99,3.66,3.54,0.37
28.1680,0.07,0.13,-0.99,3.05,3.11,1.28
28.1830,0.07,0.11,-0.99,2.81,3.23,0.79
28.2000,0.07,0.11,-0.99,3.42,3.60,-0.24
28.2140,0.07,0.12,-0.99,3.42,3.66,-0.24
28.2290,0.07,0.14,-0.99,3.54,3.48,-0.18
28.2440,0.07,0.14,-0.99,3.48,3.17,-0.12
28.2540,0.07,0.13,-0.99,3.36,3.11,0.31
28.2710,0.07,0.12,-0.99,3.36,2.87,0.06
28.2880,0.07,0.12,-0.99,3.72,3.66,-0.43
28.3060,0.07,0.13,-0.99,3.54,3.30,0.55
28.3220,0.07,0.13,-0.99,3.36,3.30,1.53
28.3380,0.07,0.13,-0.99,2.93,3.23,1.65
28.3530,0.07,0.12,-0.99,3.42,3.05,1.16
28.3690,0.07,0.10,-0.99,3.42,3.30,0.67
28.3840,0.07,0.11,-0.99,3.54,3.72,-1.46
28.4000,0.07,0.14,-0.99,3.48,3.54,-0.18
28.4160,0.07,0.14,-0.99,3.48,2.99,0.92
28.4230,0.07,0.13,-0.99,3.36,2.93,1.77
28.4480,0.07,0.13,-0.99,3.11,2.99,1.10
28.4630,0.07,0.12,-0.99,3.05,3.23,0.43
28.4720,0.07,0.12,-0.99,3.11,3.54,0.12
28.4890,0.07,0.12,-0.99,3.78,3.36,0.12
28.5060,0.07,0.12,-0.99,4.21,2.81,0.31
28.5220,0.07,0.12,-0.99,3.78,2.69,0.85
28.5390,0.07,0.11,-0.99,3.36,2.87,0.92
28.5550,0.07,0.12,-0.99,2.62,3.72,1.04
28.5720,0.07,0.12,-0.99,3.30,3.36,0.43
28.5840,0.07,0.12,-0.99,3.23,3.54,-1.04
28.6030,0.08,0.14,-0.99,3.54,4.09,-1.04
28.6200,0.07,0.14,-0.99,3.97,3.48,-0.24
28.6360,0.07,0.13,-0.99,3.42,3.30,1.34
28.6520,0.07,0.12,-0.99,3.30,2.93,1.77
28.6680,0.07,0.12,-0.99,3.42,2.81,1.53
28.6830,0.07,0.12,-0.99,3.60,3.11,1.28
28.6890,0.07,0.12,-1.00,3.60,2.99,1.10
28.7040,0.06,0.11,-1.00,3.23,3.17,0.55
28.7290,0.07,0.11,-1.00,2.87,4.03,-1.04
28.7450,0.07,0.12,-0.99,3.42,3.91,-2.44
28.7630,0.08,0.14,-0.99,3.97,3.97,-2.01
28.7780,0.07,0.14,-0.99,3.60,3.48,0.00
28.7950,0.07,0.13,-0.99,3.17,3.11,1.71
28.8110,0.07,0.12,-0.99,2.99,3.05,1.40
28.8270,0.07,0.11,-0.99,3.17,3.30,0.37
28.8290,0.07,0.12,-0.99,3.97,3.78,-1.22
28.8590,0.07,0.14,-0.99,3.60,3.36,0.73
28.8760,0.07,0.13,-0.99,3.42,3.23,1.53
28.8920,0.07,0.12,-0.99,3.42,2.93,1.71
28.9080,0.07,0.12,-0.99,3.05,3.05,1.65
28.9120,0.07,0.10,-0.99,3.36,3.36,-0.12
28.9380,0.07,0.09,-0.99,3.78,4.09,-2.44
28.9540,0.08,0.13,-0.98,3.72,3.91,-2.99
28.9630,0.07,0.14,-0.99,3.91,3.97,-2.26
28.9790,0.08,0.13,-0.99,3.60,4.15,-2.26
28.9990,0.06,0.13,-0.99,3.48,4.03,-2.99
29.0160,0.06,0.13,-0.99,3.30,4.09,-2.32
29.0170,0.07,0.14,-0.99,3.11,3.97,-1.04
29.0340,0.07,0.12,-0.99,3.48,3.36,0.06
29.0500,0.06,0.10,-0.99,3.60,3.72,-2.32
29.0800,0.08,0.13,-0.99,4.09,3.85,-3.97
29.0960,0.08,0.14,-0.98,3.85,3.30,-2.26
29.1000,0.08,0.17,-0.98,3.78,2.56,0.98
29.1170,0.07,0.13,-0.99,3.30,2.81,1.77
29.1320,0.07,0.12,-0.99,3.23,2.99,1.59
29.1550,0.07,0.11,-0.99,2.81,3.30,1.22
29.1730,0.07,0.10,-0.99,3.30,3.91,-0.43
29.1890,0.07,0.12,-0.99,3.54,4.33,-2.08
29.1890,0.07,0.13,-0.99,3.48,3.60,-1.22
29.2200,0.07,0.14,-0.99,3.42,3.54,-0.61
29.2370,0.07,0.14,-0.99,3.97,2.99,0.49
29.2530,0.07,0.12,-0.99,3.17,3.36,1.83
29.2700,0.07,0.12,-0.99,2.93,3.23,1.95
29.2860,0.07,0.11,-0.99,2.62,3.72,2.08
29.2890,0.07,0.11,-0.99,3.23,3.11,0.67
29.3050,0.07,0.11,-0.99,3.36,3.97,-1.89
29.3270,0.07,0.14,-0.99,3.17,3.60,-1.77
29.3450,0.07,0.13,-0.99,3.30,3.60,-1.04
29.3610,0.07,0.13,-0.99,3.66,3.66,-0.61
29.3770,0.07,0.12,-0.99,3.11,3.54,0.06
29.3950,0.08,0.12,-0.99,3.30,3.60,-0.85
29.4110,0.07,0.13,-0.99,3.72,3.72,-1.22
29.4270,0.07,0.13,-0.99,3.91,3.54,0.06
29.4440,0.07,0.13,-0.99,3.48,3.05,1.10
29.4600,0.07,0.12,-0.99,3.17,2.93,1.04
29.4750,0.07,0.11,-0.99,3.48,3.72,0.61
29.4860,0.07,0.11,-0.99,3.36,3.66,-0.18
29.5070,0.07,0.12,-0.99,3.78,3.78,-0.18
29.5230,0.07,0.13,-0.99,3.78,3.54,0.61
29.5390,0.07,0.13,-0.99,3.23,3.85,1.34
29.5540,0.07,0.12,-0.99,3.17,3.30,1.34
29.5700,0.07,0.11,-0.99,3.17,3.42,0.31
29.5780,0.06,0.11,-0.99,3.30,3.66,-0.55
29.5950,0.07,0.12,-0.99,3.36,3.78,-0.85
29.6110,0.07,0.12,-0.99,3.11,3.85,-0.92
29.6290,0.07,0.12,-0.99,3.42,3.72,-0.98
29.6440,0.07,0.12,-0.99,3.36,3.42,-1.71
29.6610,0.07,0.10,-0.99,3.30,4.09,-3.23
29.6770,0.08,0.11,-0.99,3.97,4.58,-5.19
29.6930,0.07,0.16,-0.99,3.97,3.60,-2.75
29.7090,0.07,0.15,-0.98,3.54,3.78,-0.67
29.7250,0.07,0.14,-0.99,3.42,3.48,0.49
29.7280,0.07,0.12,-0.99,2.93,3.36,0.92
29.7440,0.07,0.11,-0.99,3.30,3.30,0.85
29.7590,0.07,0.11,-1.00,3.36,3.42,0.67
29.7870,0.07,0.11,-0.99,3.11,3.72,-0.18
29.7990,0.07,0.13,-0.99,2.99,4.09,-1.65
29.8150,0.07,0.13,-0.99,3.72,3.72,-1.95
29.8320,0.07,0.13,-0.99,3.78,3.78,-1.40
29.8490,0.07,0.13,-0.99,3.85,3.36,-0.61
29.8670,0.07,0.12,-0.99,3.36,2.75,0.67
29.8820,0.07,0.11,-1.00,3.17,2.99,0.24
29.8980,0.07,0.11,-0.99,2.99,3.60,-1.10
29.9150,0.07,0.11,-0.99,3.78,3.72,-2.38
29.9320,0.07,0.14,-0.99,4.09,3.66,-2.14
29.9490,0.07,0.14,-0.99,4.09,3.05,-0.31
29.9650,0.07,0.13,-0.99,3.66,2.81,1.59
29.9820,0.07,0.12,-0.99,3.11,2.99,1.83
29.9980,0.07,0.10,-0.99,2.81,3.05,1.22
30.0150,0.07,0.09,-0.99,4.09,3.30,-0.85
30.0320,0.07,0.14,-0.99,4.33,3.17,-1.77
30.0480,0.07,0.14,-0.99,3.85,3.36,0.37
30.0490,0.07,0.13,-0.99,3.54,3.11,2.01
30.0660,0.07,0.12,-0.99,3.30,3.11,1.89
30.0870,0.07,0.12,-0.99,3.17,3.42,1.65
30.0990,0.07,0.12,-0.99,3.36,3.23,0.92
30.1160,0.07,0.11,-0.99,3.36,3.48,0.61
30.1320,0.07,0.13,-0.99,3.66,2.87,0.18
30.1540,0.07,0.12,-0.99,3.97,2.81,0.73
30.1710,0.07,0.12,-0.99,3.48,3.11,0.79
30.1870,0.07,0.13,-0.99,3.36,3.54,0.37
30.2030,0.07,0.12,-0.99,3.36,3.11,0.37
30.2220,0.07,0.12,-0.99,3.78,3.30,-0.31
30.2380,0.07,0.12,-0.99,3.66,3.60,-0.61
30.2540,0.07,0.13,-0.99,3.60,3.54,-0.55
30.2690,0.07,0.13,-0.99,3.60,3.54,0.12
30.2790,0.09,0.09,-1.00,3.85,3.36,-0.49
30.2940,0.06,0.13,-0.99,3.66,3.48,-2.32
30.3160,0.07,0.15,-0.99,3.36,3.78,-1.34
30.3320,0.07,0.15,-0.99,3.11,3.72,0.06
30.3480,0.07,0.12,-0.99,3.17,3.60,0.73
30.3640,0.07,0.12,-0.99,2.93,3.48,1.04
30.3670,0.07,0.12,-0.99,3.36,2.99,0.24
30.3880,0.07,0.12,-0.99,3.91,3.23,-0.43
30.4010,0.06,0.11,-1.00,4.39,2.93,-0.43
30.4220,0.07,0.13,-0.99,3.91,3.48,0.31
30.4390,0.07,0.14,-0.99,3.17,3.72,1.53
30.4560,0.07,0.12,-0.99,2.99,3.72,0.98
30.4730,0.07,0.11,-0.99,2.87,3.72,0.61
30.4890,0.07,0.10,-1.00,3.36,3.60,-1.65
30.5050,0.07,0.12,-0.99,3.36,3.85,-2.26
30.5210,0.06,0.12,-0.99,3.97,3.60,-1.65
30.5230,0.07,0.14,-0.99,2.75,3.85,-0.43
30.5530,0.07,0.14,-0.99,3.36,3.66,0.55
30.5690,0.07,0.12,-0.99,3.30,3.23,1.53
30.5850,0.07,0.12,-0.99,3.11,3.30,1.40
30.6010,0.07,0.11,-0.99,3.30,3.42,0.85
30.6180,0.07,0.10,-0.99,3.66,3.36,0.06
30.6220,0.08,0.13,-0.99,3.36,3.91,-0.43
30.6490,0.08,0.13,-0.99,3.05,3.54,-0.37
30.6560,0.07,0.13,-0.99,3.66,3.72,-0.31
30.6820,0.07,0.12,-0.99,3.60,3.60,0.24
30.6980,0.06,0.12,-0.99,3.48,3.36,0.43
30.7140,0.07,0.12,-0.99,3.17,2.99,0.61
30.7220,0.07,0.12,-0.99,3.36,3.23,0.06
30.7440,0.07,0.12,-0.99,3.42,3.23,-0.61
30.7560,0.08,0.13,-0.99,3.23,3.54,-0.31
30.7720,0.07,0.13,-0.99,3.23,3.66,-0.37
30.7890,0.07,0.13,-0.99,3.42,3.30,0.43
30.8060,0.07,0.13,-0.99,3.60,3.78,0.98
30.8210,0.07,0.11,-0.99,3.05,3.42,0.92
30.8380,0.07,0.10,-0.99,3.66,3.11,-0.24
30.8540,0.07,0.11,-0.99,3.72,3.30,-1.28
30.8700,0.07,0.13,-0.99,4.03,3.42,-1.28
30.8720,0.07,0.14,-0.99,3.54,3.42,0.12
30.9020,0.07,0.12,-0.99,2.93,3.48,1.46
30.9180,0.07,0.12,-0.99,3.48,3.30,1.46
30.9330,0.07,0.11,-0.99,3.60,3.11,0.85
30.9490,0.07,0.12,-0.99,4.03,3.17,0.92
30.9660,0.07,0.12,-0.99,3.05,3.72,0.49
30.9820,0.07,0.13,-0.99,3.05,3.30,-0.37
30.9980,0.06,0.13,-0.99,3.60,3.48,-0.31
31.0140,0.07,0.13,-0.99,3.72,3.30,0.37
31.0220,0.07,0.12,-0.99,3.91,3.23,0.61
31.0460,0.07,0.13,-0.99,3.54,3.30,1.22
31.0550,0.07,0.12,-0.99,3.23,3.17,1.40
31.0720,0.07,0.12,-0.99,3.78,2.93,0.61
31.0890,0.07,0.12,-0.99,3.72,3.17,0.24
31.1050,0.07,0.12,-0.99,3.72,3.54,-0.37
31.1230,0.07,0.13,-0.99,3.48,3.60,-0.06
31.1390,0.07,0.13,-0.99,3.11,3.66,1.22
31.1550,0.07,0.13,-0.99,3.36,3.54,1.59
31.1550,0.07,0.12,-0.99,3.30,3.54,1.71
31.1860,0.07,0.11,-0.99,3.30,3.48,1.04
31.2020,0.07,0.12,-0.99,3.17,3.85,0.00
31.2050,0.07,0.12,-0.99,3.48,3.60,-0.61
31.2350,0.07,0.13,-0.99,3.97,3.42,-0.18
31.2500,0.07,0.12,-0.99,3.42,3.54,0.49
31.2550,0.08,0.12,-0.99,3.05,3.17,0.67
31.2830,0.07,0.11,-0.99,3.85,3.48,-0.31
31.2900,0.08,0.10,-1.00,3.97,3.42,-0.98
31.3060,0.06,0.12,-0.99,3.48,4.09,-2.81
31.3290,0.07,0.15,-0.99,3.36,3.78,-1.04
31.3390,0.07,0.14,-0.99,3.11,3.42,1.10
31.3550,0.07,0.12,-0.99,3.05,3.30,1.59
31.3720,0.07,0.12,-0.99,2.87,3.85,0.98
31.3900,0.07,0.11,-0.99,3.23,3.60,0.43
31.4050,0.07,0.11,-0.99,3.36,3.60,0.24
31.4220,0.07,0.12,-0.99,3.91,3.85,-0.98
31.4230,0.07,0.14,-0.99,3.42,3.60,0.12
31.4390,0.07,0.13,-0.99,3.17,3.23,1.22
31.4690,0.07,0.11,-0.99,3.30,3.17,0.79
31.4850,0.07,0.11,-0.99,4.03,2.99,-0.18
31.5000,0.06,0.11,-1.00,4.21,3.23,-0.98
31.5160,0.07,0.13,-0.99,3.66,3.66,-0.79
31.5220,0.08,0.14,-0.99,3.48,3.66,0.43
31.5460,0.07,0.12,-0.99,3.23,3.30,1.40
31.5550,0.07,0.12,-0.99,3.05,3.36,1.40
31.5710,0.07,0.12,-0.99,3.17,3.54,0.18
31.5910,0.07,0.11,-0.99,3.72,3.48,-0.31
31.6080,0.06,0.13,-0.99,3.78,3.17,-0.12
31.6250,0.07,0.13,-0.99,3.72,3.17,1.04
31.6410,0.07,0.12,-0.99,3.72,3.11,1.10
31.6560,0.07,0.12,-0.99,3.36,3.11,1.46
31.6710,0.07,0.12,-0.99,3.30,2.93,1.59
31.6860,0.07,0.12,-0.99,3.66,3.30,1.16
31.6940,0.07,0.12,-0.99,3.72,3.54,0.55
31.7110,0.07,0.12,-0.99,4.03,3.30,0.12
31.7280,0.07,0.12,-0.99,3.72,3.30,-0.06
31.7440,0.07,0.12,-0.99,3.85,2.87,0.31
31.7610,0.07,0.11,-0.99,3.54,3.60,-0.61
31.7770,0.07,0.12,-0.99,3.54,3.54,-1.53
31.7940,0.07,0.11,-0.99,3.36,3.54,-1.77
31.8100,0.07,0.13,-0.99,3.91,3.72,-2.08
31.8250,0.08,0.12,-0.99,4.21,3.36,-1.95
31.8400,0.07,0.15,-0.99,3.72,3.48,-1.28
31.8550,0.07,0.12,-0.99,3.54,3.72,-0.73
31.8700,0.07,0.13,-0.99,3.48,3.60,-0.73
31.8860,0.07,0.13,-0.99,3.36,3.48,-0.24
31.8940,0.07,0.12,-0.99,3.42,3.36,0.37
31.9110,0.07,0.12,-0.99,3.23,3.36,0.31
31.9270,0.07,0.12,-0.99,3.42,3.60,0.73
31.9440,0.07,0.12,-0.99,3.11,3.78,0.73
31.9600,0.07,0.12,-0.99,3.23,4.09,0.73
31.9750,0.07,0.11,-0.99,2.93,3.66,0.61
31.9910,0.07,0.13,-0.99,2.56,3.48,0.73
32.0060,0.07,0.13,-0.99,3.30,3.60,0.79
32.0210,0.07,0.13,-0.99,3.23,3.42,1.22
32.0360,0.07,0.12,-0.99,3.11,3.48,1.89
32.0520,0.07,0.12,-0.99,2.87,3.48,1.46
32.0610,0.07,0.11,-0.99,3.17,3.85,0.43
32.0780,0.07,0.11,-0.99,3.11,3.91,-0.79
32.0940,0.07,0.13,-0.99,2.99,3.85,-0.43
32.1120,0.07,0.14,-0.99,3.72,3.48,-0.06
32.1270,0.07,0.13,-0.99,3.66,3.11,0.85
32.1450,0.07,0.13,-0.99,3.54,3.11,1.10
32.1610,0.07,0.12,-0.99,2.99,3.42,1.40
32.1770,0.07,0.12,-0.99,3.42,3.05,0.92
32.1940,0.07,0.13,-0.99,3.42,3.42,1.40
32.2090,0.07,0.12,-0.99,3.42,3.36,1.46
32.2250,0.07,0.12,-0.99,3.60,3.17,1.46
32.2280,0.07,0.13,-0.99,3.48,3.78,1.59
32.2440,0.07,0.12,-0.99,3.60,3.05,1.40
32.2650,0.07,0.12,-0.99,3.54,3.05,0.85
32.2830,0.07,0.12,-0.99,3.11,3.78,0.31
32.3000,0.07,0.13,-0.99,3.17,3.97,0.18
32.3160,0.07,0.13,-0.99,3.11,3.60,0.31
32.3330,0.07,0.13,-0.99,3.30,3.23,1.04
32.3500,0.07,0.12,-0.99,3.30,3.05,0.92
32.3660,0.07,0.11,-0.99,3.48,3.23,-0.18
32.3830,0.06,0.11,-0.99,4.27,3.17,-0.92
32.3920,0.07,0.13,-0.99,3.97,3.23,-0.85
32.4130,0.07,0.13,-0.99,3.48,3.17,0.67
32.4170,0.07,0.13,-0.99,3.17,3.05,0.37
32.4320,0.07,0.12,-0.99,3.66,3.11,-0.37
32.4480,0.07,0.13,-0.99,3.54,3.42,0.24
32.4720,0.07,0.13,-0.99,3.85,3.48,0.73
32.4920,0.07,0.12,-0.99,3.54,3.54,0.92
32.5040,0.07,0.12,-0.99,2.93,3.85,0.98
32.5200,0.07,0.12,-0.99,3.05,3.42,0.31
32.5380,0.07,0.12,-0.99,3.17,3.36,0.00
32.5540,0.07,0.11,-0.99,3.78,3.11,-0.67
32.5550,0.06,0.11,-0.99,4.09,3.23,-1.04
32.5860,0.07,0.13,-0.99,3.97,3.11,-0.61
32.6020,0.07,0.14,-0.99,3.78,3.11,-0.06
32.6180,0.07,0.11,-0.99,2.93,3.48,0.61
32.6340,0.08,0.14,-0.99,2.81,3.30,0.49
32.6490,0.07,0.13,-0.99,3.36,3.60,-0.06
32.6550,0.07,0.12,-0.99,3.17,3.66,0.31
32.6820,0.07,0.12,-0.99,3.42,3.91,-0.85
32.6930,0.07,0.12,-0.99,4.09,3.36,-0.85
32.7040,0.07,0.13,-0.99,3.42,2.93,0.61
32.7250,0.07,0.13,-0.99,3.17,3.23,1.40
32.7410,0.07,0.13,-0.99,3.11,3.05,1.59
32.7570,0.07,0.12,-0.99,3.36,2.81,1.46
32.7740,0.07,0.11,-0.99,3.54,2.93,0.98
32.7910,0.07,0.12,-0.99,3.11,3.36,0.67
32.8070,0.07,0.12,-0.99,3.60,3.60,0.12
32.8220,0.07,0.12,-0.99,3.60,3.42,-0.18
32.8370,0.07,0.12,-0.99,3.60,3.36,-0.79
32.8530,0.08,0.12,-0.99,3.85,3.78,-1.59
32.8690,0.07,0.12,-0.99,3.78,3.91,-1.28
32.8850,0.07,0.14,-0.99,3.42,3.91,0.18
32.8930,0.07,0.12,-0.99,2.93,3.48,0.49
32.9070,0.07,0.11,-0.99,3.36,2.87,0.37
32.9300,0.07,0.11,-0.99,3.42,3.23,-0.43
32.9320,0.07,0.13,-0.99,3.85,3.66,-1.16
32.9490,0.07,0.14,-0.99,3.66,3.17,0.06
32.9640,0.07,0.12,-0.99,3.36,3.11,0.18
32.9880,0.07,0.12,-0.99,3.72,3.36,-0.49
33.0050,0.07,0.12,-0.99,3.60,3.60,-0.55
33.0220,0.07,0.11,-0.99,3.42,3.60,-0.67
33.0400,0.08,0.10,-0.99,3.42,4.27,-1.22
33.0400,0.07,0.12,-1.00,2.93,4.27,-2.56
33.0700,0.07,0.13,-0.99,3.05,4.70,-3.05
33.0860,0.08,0.16,-0.99,3.30,3.85,-2.01
33.1020,0.07,0.14,-0.98,3.78,3.54,1.04
33.1170,0.07,0.12,-0.99,3.23,3.54,1.77
33.1220,0.07,0.12,-0.99,3.60,2.87,1.65
33.1490,0.07,0.12,-0.99,3.72,2.93,1.46
33.1550,0.07,0.11,-1.00,3.66,2.99,1.16
33.1710,0.07,0.12,-0.99,3.05,2.93,1.40
33.1930,0.07,0.11,-0.99,2.93,3.66,0.79
33.2080,0.07,0.12,-0.99,3.48,3.42,0.24
33.2250,0.07,0.13,-0.99,3.72,2.87,0.67
33.2410,0.07,0.13,-0.99,3.78,3.05,0.73
33.2430,0.07,0.12,-0.99,3.30,3.17,1.46
33.2590,0.07,0.12,-0.99,2.69,3.54,1.22
33.2750,0.07,0.11,-0.99,3.17,3.54,0.00
33.2970,0.07,0.13,-0.99,3.23,3.78,-0.43
33.3140,0.07,0.13,-0.99,3.48,3.42,0.37
33.3300,0.07,0.12,-0.99,3.36,3.54,0.92
33.3470,0.07,0.12,-1.00,3.66,3.48,1.65
33.3630,0.07,0.12,-0.99,3.05,3.23,2.14
33.3800,0.07,0.12,-0.99,2.69,3.42,1.95
33.3950,0.07,0.12,-0.99,2.75,3.30,1.65
33.3980,0.07,0.12,-0.99,3.42,3.11,1.34
33.4140,0.07,0.11,-0.99,3.60,3.42,0.61
33.4360,0.08,0.12,-0.99,3.48,3.85,-0.92
33.4540,0.07,0.13,-0.99,3.60,3.30,-0.55
33.4700,0.07,0.13,-0.99,3.72,3.30,1.22
33.4880,0.07,0.12,-0.99,3.30,2.69,1.59
33.4940,0.07,0.12,-0.99,2.99,2.81,0.98
33.5040,0.07,0.11,-0.99,3.36,3.36,0.12
33.5340,0.07,0.12,-0.99,3.60,4.09,-1.40
33.5380,0.07,0.13,-0.99,3.60,3.42,-0.43
33.5540,0.07,0.13,-0.99,3.78,3.42,1.10
33.5760,0.07,0.12,-0.99,2.99,3.60,1.46
33.5940,0.07,0.12,-0.99,3.48,3.17,0.67
33.6090,0.07,0.11,-0.99,3.42,3.17,-0.24
33.6260,0.07,0.11,-0.99,3.66,3.72,-1.95
33.6430,0.07,0.12,-0.99,3.72,4.33,-2.08
33.6590,0.08,0.14,-0.99,3.36,4.39,-0.67
33.6750,0.07,0.12,-0.99,3.66,4.21,-1.22
33.6910,0.06,0.13,-0.99,3.48,3.54,-1.16
33.6940,0.07,0.14,-0.98,2.69,3.85,0.73
33.7220,0.07,0.13,-0.98,3.48,3.17,0.73
33.7370,0.07,0.12,-0.99,3.54,2.93,0.61
33.7520,0.07,0.12,-0.99,3.48,2.93,0.85
33.7600,0.07,0.11,-0.99,3.72,3.42,0.43
33.7770,0.07,0.12,-0.99,3.48,3.60,0.00
33.7980,0.07,0.13,-0.99,3.36,3.36,0.12
33.8090,0.07,0.12,-0.99,3.54,3.54,-0.06
33.8260,0.07,0.11,-0.99,3.54,3.23,-0.06
33.8430,0.07,0.13,-0.99,3.36,3.17,0.73
33.8600,0.07,0.12,-0.99,3.30,3.30,1.04
33.8750,0.07,0.11,-0.99,3.36,2.75,0.79
33.8760,0.07,0.11,-0.99,3.23,3.60,0.18
33.9070,0.07,0.11,-0.99,4.03,3.66,-0.31
33.9240,0.07,0.13,-0.99,4.03,3.36,-0.06
33.9400,0.07,0.12,-0.99,3.48,3.42,0.37
33.9550,0.07,0.12,-0.99,3.30,3.05,0.24
33.9700,0.07,0.13,-0.99,3.85,3.66,-0.12
33.9850,0.07,0.12,-0.99,4.03,3.17,-0.06
34.0010,0.07,0.12,-0.99,4.09,3.60,-0.67
34.0160,0.06,0.11,-1.00,4.03,3.60,-0.79
34.0270,0.07,0.12,-0.99,2.87,3.91,-0.55
34.0430,0.07,0.12,-0.99,3.66,3.36,-0.55
34.0590,0.07,0.11,-0.99,3.91,3.30,-0.79
34.0780,0.06,0.12,-0.99,3.91,3.11,-2.26
34.0800,0.07,0.13,-0.99,3.48,3.60,-0.73
34.0980,0.07,0.14,-0.98,3.54,2.99,0.73
34.1250,0.07,0.14,-0.99,3.54,2.93,0.85
34.1310,0.07,0.12,-0.99,3.30,3.11,1.40
34.1470,0.07,0.12,-0.99,3.36,3.17,1.34
34.1640,0.07,0.11,-0.99,3.17,3.23,1.04
34.1790,0.07,0.10,-0.99,3.23,3.85,0.12
34.2010,0.07,0.12,-0.99,3.17,4.15,-0.61
34.2160,0.07,0.14,-0.99,3.60,3.36,-0.55
34.2330,0.07,0.13,-0.99,3.72,3.30,0.79
34.2490,0.07,0.12,-0.99,3.54,3.23,0.73
34.2650,0.07,0.11,-0.99,2.93,3.66,0.85
34.2820,0.07,0.10,-0.99,3.30,3.48,-0.49
34.2970,0.07,0.13,-0.99,3.78,3.36,-1.22
34.3000,0.07,0.14,-0.99,3.91,3.23,-0.67
34.3170,0.07,0.14,-0.99,3.66,3.36,-0.12
34.3330,0.07,0.13,-0.99,3.36,2.69,0.61
34.3540,0.07,0.12,-0.99,3.05,3.42,1.10
34.3710,0.07,0.11,-0.99,3.60,3.36,0.18
34.3880,0.06,0.11,-1.00,3.60,3.36,-0.98
34.4050,0.07,0.14,-0.99,3.30,3.54,-0.73
34.4200,0.07,0.14,-0.99,3.54,3.17,1.16
34.4350,0.07,0.13,-0.99,3.48,3.42,1.95
34.4520,0.07,0.12,-0.99,2.93,3.17,1.89
34.4550,0.07,0.12,-0.99,2.87,3.17,1.40
34.4830,0.07,0.12,-0.99,3.23,3.36,0.98
34.4950,0.07,0.12,-0.99,3.42,3.30,0.73
34.5030,0.07,0.12,-0.99,3.78,3.17,0.67
34.5250,0.07,0.13,-0.99,3.66,3.30,1.16
34.5420,0.07,0.13,-0.99,3.30,3.42,1.40
34.5580,0.07,0.11,-0.99,2.99,3.66,0.67
34.5740,0.07,0.10,-0.99,3.48,3.60,-1.46
34.5900,0.06,0.13,-0.99,3.42,3.78,-1.77
34.6060,0.06,0.14,-0.99,3.36,3.17,1.40
34.6210,0.07,0.13,-0.99,3.42,2.99,2.32
34.6250,0.07,0.12,-0.99,3.72,2.81,2.01
34.6400,0.07,0.12,-0.99,3.42,2.75,1.28
34.6630,0.07,0.10,-1.00,3.42,2.99,-0.24
34.6800,0.06,0.11,-1.00,3.36,4.46,-2.32
34.6960,0.07,0.13,-0.99,3.54,4.03,0.06
34.7130,0.08,0.14,-0.98,3.91,3.42,0.73
34.7290,0.07,0.12,-1.00,4.03,2.93,0.43
34.7450,0.08,0.13,-0.99,3.11,3.72,0.31
34.7610,0.07,0.11,-0.99,2.87,4.27,-0.43
34.7640,0.07,0.11,-0.99,3.30,3.72,-1.04
34.7800,0.06,0.12,-0.99,4.09,3.48,-1.10
34.7960,0.06,0.15,-0.99,3.17,3.54,0.61
34.8230,0.07,0.14,-0.99,3.42,3.48,1.40
34.8290,0.07,0.12,-0.99,3.23,2.93,1.95
34.8450,0.07,0.12,-0.99,3.11,2.75,1.53
34.8670,0.07,0.10,-0.99,2.93,2.75,0.79
34.8840,0.06,0.08,-1.00,3.97,3.42,-1.77
34.9000,0.06,0.12,-1.00,3.72,3.66,-1.53
34.9150,0.07,0.15,-0.98,3.85,3.48,-0.12
34.9160,0.08,0.14,-0.99,3.66,3.05,1.71
34.9470,0.07,0.12,-0.99,2.99,3.42,1.59
34.9630,0.07,0.11,-0.99,2.87,3.60,1.10
34.9790,0.07,0.11,-0.99,3.48,3.36,0.37
34.9940,0.07,0.12,-0.99,3.91,3.17,0.37
35.0000,0.07,0.13,-0.99,3.72,3.05,1.34
35.0160,0.07,0.12,-0.99,3.72,3.42,1.46
35.0320,0.07,0.12,-0.99,3.30,3.11,1.40
35.0520,0.07,0.11,-1.00,3.60,3.60,0.49
35.0670,0.08,0.11,-0.99,3.30,3.60,-0.49
35.0840,0.07,0.11,-0.99,3.66,3.48,-2.38
35.1000,0.07,0.12,-0.99,3.72,3.78,-2.56
35.1160,0.09,0.12,-0.98,4.33,4.27,-2.81
35.1330,0.05,0.13,-0.99,3.85,3.78,-2.69
35.1500,0.07,0.13,-0.99,3.11,3.91,-0.37
35.1670,0.07,0.13,-0.98,3.23,3.66,0.49
35.1820,0.07,0.12,-0.99,3.66,3.17,1.16
35.1960,0.07,0.13,-0.99,3.48,2.99,1.95
35.2010,0.07,0.12,-0.99,3.48,3.66,2.01
35.2280,0.07,0.12,-0.99,3.11,3.42,1.40
35.2340,0.07,0.12,-0.99,3.36,3.48,1.22
35.2500,0.07,0.11,-0.99,3.85,3.23,0.24
35.2670,0.07,0.11,-0.99,3.97,3.60,-0.18
35.2840,0.07,0.13,-0.99,3.78,3.30,-0.61
35.2990,0.07,0.12,-0.99,3.72,3.23,-0.37
35.3180,0.07,0.13,-0.99,2.75,4.09,0.49
35.3330,0.07,0.13,-0.99,2.87,3.91,0.79
35.3490,0.07,0.12,-0.99,3.30,3.60,0.98
35.3500,0.07,0.11,-0.99,3.30,3.60,0.06
35.3670,0.07,0.12,-0.99,3.78,3.30,-0.73
35.3960,0.06,0.14,-0.99,3.60,3.11,1.10
35.4130,0.07,0.13,-0.99,4.09,2.81,2.08
35.4290,0.07,0.12,-0.99,3.48,3.42,2.01
35.4460,0.07,0.12,-0.99,3.17,3.11,1.83
35.4490,0.07,0.12,-0.99,3.11,3.11,1.95
35.4770,0.07,0.12,-0.99,3.78,3.05,1.89
35.4830,0.07,0.12,-0.99,3.36,3.05,1.22
35.5080,0.07,0.12,-0.99,2.99,3.36,0.85
35.5160,0.07,0.12,-0.99,3.11,3.42,0.43
35.5330,0.07,0.12,-0.99,2.93,3.05,0.31
35.5490,0.07,0.12,-0.99,3.66,2.93,0.55
35.5700,0.07,0.12,-0.99,3.66,3.05,1.04
35.5860,0.07,0.12,-0.99,3.48,3.42,1.65
35.5970,0.06,0.11,-1.00,3.17,3.23,1.89
35.6180,0.08,0.12,-0.99,2.81,3.23,1.65
35.6200,0.07,0.10,-0.99,3.36,3.48,0.00
35.6380,0.07,0.10,-0.99,3.72,3.54,-2.38
35.6540,0.06,0.11,-0.99,4.21,3.78,-2.87
35.6820,0.08,0.15,-0.99,4.09,3.78,0.24
35.6980,0.07,0.14,-0.99,4.09,3.11,0.92
35.7130,0.07,0.12,-0.99,3.17,3.42,1.53
35.7290,0.07,0.12,-0.99,2.87,3.05,1.22
35.7440,0.06,0.11,-0.99,3.36,2.81,0.31
35.7530,0.07,0.12,-0.99,3.72,2.81,0.18
35.7690,0.07,0.13,-0.99,4.03,3.17,0.12
35.7870,0.08,0.13,-0.99,4.03,2.62,2.01
35.8030,0.07,0.12,-0.99,3.36,3.11,1.95
35.8190,0.07,0.12,-0.99,3.23,3.11,1.59
35.8350,0.07,0.11,-0.99,3.11,2.99,0.55
35.8510,0.07,0.11,-0.99,3.05,3.23,0.00
35.8670,0.07,0.12,-0.99,3.85,3.48,-0.06
35.8700,0.08,0.13,-0.99,3.78,2.93,1.46
35.8970,0.07,0.12,-0.99,3.66,3.05,2.20
35.9100,0.07,0.12,-0.99,3.30,3.11,1.77
35.9260,0.07,0.11,-0.99,3.05,3.30,1.22
35.9430,0.07,0.11,-0.99,3.72,3.05,-0.92
35.9600,0.06,0.12,-1.00,4.33,3.54,-2.62
35.9760,0.07,0.14,-0.99,3.60,3.11,0.37
35.9920,0.07,0.13,-0.99,4.03,2.87,2.75
36.0100,0.07,0.12,-0.99,4.15,2.50,2.87
36.0260,0.07,0.12,-0.99,3.66,2.87,2.14
36.0420,0.07,0.12,-0.99,3.72,2.01,1.59
36.0580,0.07,0.12,-0.99,3.11,2.69,1.34
36.0750,0.07,0.12,-0.99,3.23,3.05,1.71
36.0910,0.07,0.12,-0.99,3.36,2.81,2.14
36.1080,0.07,0.12,-0.99,3.60,2.99,2.32
36.1230,0.07,0.12,-0.99,3.60,2.56,1.83
36.1260,0.07,0.12,-0.99,2.81,3.05,1.83
36.1420,0.07,0.12,-0.99,3.36,2.93,1.77
36.1660,0.07,0.12,-0.99,3.54,2.93,1.95
36.1830,0.07,0.12,-0.99,3.72,3.11,1.83
36.2000,0.07,0.12,-0.99,3.85,2.93,1.77
36.2170,0.07,0.12,-0.99,3.48,2.87,1.83
36.2320,0.07,0.12,-0.99,2.87,3.36,1.53
36.2490,0.07,0.12,-0.99,2.93,2.99,1.46
36.2650,0.07,0.12,-0.99,3.23,3.54,1.53
36.2660,0.07,0.12,-0.99,3.54,2.93,1.59
36.2970,0.07,0.12,-0.99,3.60,2.99,1.59
36.3130,0.07,0.12,-0.99,3.17,3.11,0.37
36.3170,0.07,0.12,-0.99,3.66,3.30,-0.49
36.3450,0.07,0.12,-0.99,4.46,3.05,-1.71
36.3600,0.07,0.13,-0.99,3.78,3.05,0.79
36.3660,0.07,0.12,-0.99,3.23,2.93,2.01
36.3810,0.07,0.12,-0.99,3.23,2.99,1.65
36.4050,0.07,0.12,-0.99,3.11,3.30,1.59
36.4070,0.07,0.12,-0.99,3.05,3.36,0.98
36.4350,0.07,0.12,-0.99,3.42,3.36,1.59
36.4400,0.07,0.12,-0.99,3.48,2.99,1.95
36.4560,0.07,0.12,-0.99,3.23,2.93,2.20
36.4780,0.07,0.12,-0.99,3.11,3.05,2.08
36.4940,0.07,0.12,-0.99,2.81,3.17,1.89
36.5100,0.07,0.12,-0.99,3.72,2.75,1.89
36.5290,0.07,0.12,-0.99,3.91,2.62,2.14
36.5440,0.07,0.12,-0.99,3.78,2.75,2.14
36.5610,0.07,0.12,-0.99,3.54,2.50,1.83
36.5770,0.07,0.13,-0.99,3.66,2.93,1.71
36.5930,0.07,0.12,-0.99,3.66,3.17,1.95
36.5980,0.07,0.12,-0.99,4.27,2.38,1.83
36.6120,0.07,0.12,-0.99,4.76,2.50,2.08
36.6290,0.07,0.12,-0.99,4.82,1.95,1.89
36.6450,0.08,0.14,-1.01,4.46,1.77,1.77
36.6730,0.07,0.13,-0.99,4.03,2.93,2.08
36.6840,0.07,0.12,-0.99,3.97,2.87,1.95
36.7000,0.07,0.13,-0.99,3.66,3.05,2.01
36.7170,0.07,0.13,-0.99,3.05,3.30,1.95
36.7350,0.07,0.13,-0.99,2.26,3.36,1.95
36.7500,0.07,0.12,-0.99,1.83,3.78,1.83
36.7670,0.06,0.11,-0.98,2.56,3.36,1.77
36.7830,0.07,0.13,-0.99,2.32,3.85,1.89
36.7990,0.07,0.13,-0.99,2.75,3.78,2.01
36.8010,0.07,0.12,-0.99,2.81,3.60,2.38
36.8170,0.07,0.12,-0.99,2.99,3.05,1.83
36.8470,0.07,0.12,-0.99,3.23,3.30,1.83
36.8620,0.07,0.12,-0.99,3.05,3.11,1.95
36.8680,0.07,0.12,-0.99,3.23,3.05,1.95
36.8930,0.07,0.12,-0.99,3.23,3.17,1.89
36.9010,0.07,0.12,-0.99,3.30,3.05,2.14
36.9170,0.07,0.12,-0.99,3.36,2.62,1.83
36.9350,0.07,0.12,-0.99,3.11,3.23,1.83
36.9510,0.07,0.12,-0.99,2.81,3.54,1.89
36.9680,0.07,0.12,-0.99,2.81,3.23,1.89
36.9840,0.07,0.12,-0.99,3.23,3.36,1.95
37.0010,0.07,0.12,-0.99,3.30,3.54,2.08
37.0180,0.07,0.12,-0.99,3.17,3.23,2.38
37.0330,0.07,0.12,-0.99,3.48,2.99,2.08
37.0490,0.07,0.12,-0.99,3.05,2.99,2.32
37.0510,0.07,0.12,-0.99,2.69,3.17,2.32
37.0820,0.06,0.12,-0.99,2.69,2.93,2.01
37.0850,0.08,0.12,-0.99,2.93,2.99,1.59
37.1120,0.06,0.12,-0.99,2.87,3.23,1.95
37.1280,0.08,0.13,-1.00,3.11,3.36,2.38
37.1420,0.06,0.12,-0.99,2.50,3.66,3.48
37.1580,0.08,0.12,-0.99,2.50,3.42,3.54
37.1680,0.07,0.12,-0.99,3.54,2.87,3.36
37.1840,0.07,0.12,-0.99,3.66,2.93,3.60
37.2010,0.08,0.12,-0.99,2.69,3.23,4.09
37.2170,0.07,0.12,-0.99,2.81,2.99,2.99
37.2340,0.08,0.12,-0.99,2.81,3.17,2.44
37.2500,0.07,0.12,-0.99,3.30,2.87,2.01
37.2670,0.07,0.12,-0.99,3.05,3.36,2.32
37.2830,0.06,0.12,-0.99,2.69,2.99,2.81
37.2840,0.07,0.12,-0.99,3.60,2.93,2.93
37.3140,0.07,0.12,-0.99,3.60,2.87,3.05
37.3170,0.07,0.12,-0.99,3.60,2.75,2.87
37.3470,0.08,0.12,-0.99,2.81,3.54,2.62
37.3500,0.07,0.12,-0.99,3.36,3.17,1.83
37.3790,0.07,0.12,-0.99,2.93,3.05,2.32
37.3840,0.06,0.12,-1.00,2.93,3.11,2.26
37.4000,0.06,0.12,-1.00,2.62,2.99,2.87
37.4160,0.07,0.12,-0.99,2.08,3.42,2.81
37.4370,0.08,0.12,-0.98,2.56,3.17,2.44
37.4540,0.07,0.13,-0.99,4.39,2.69,2.87
37.4700,0.06,0.12,-0.99,3.66,2.93,3.97
37.4860,0.08,0.12,-0.99,3.30,2.99,4.27
37.5030,0.07,0.11,-0.99,3.72,3.05,2.62
37.5190,0.07,0.12,-0.99,4.03,2.75,1.16
37.5210,0.07,0.13,-1.00,3.17,3.23,1.46
37.5520,0.07,0.12,-0.99,2.56,3.72,2.32
37.5680,0.06,0.12,-0.99,2.69,3.23,2.99
37.5840,0.06,0.12,-0.99,2.87,3.30,3.36
37.5990,0.07,0.12,-0.99,3.23,2.75,3.42
37.6050,0.08,0.12,-0.99,3.54,2.81,3.36
37.6310,0.07,0.12,-0.99,3.72,2.62,3.36
37.6460,0.06,0.12,-1.00,3.05,2.99,3.36
37.6540,0.07,0.12,-0.99,2.75,3.11,2.99
37.6700,0.06,0.12,-0.99,3.36,2.99,2.44
37.6900,0.07,0.12,-0.99,3.48,3.17,2.38
37.7080,0.07,0.12,-0.99,3.23,3.23,2.93
37.7240,0.06,0.12,-0.99,2.93,3.23,2.44
37.7240,0.06,0.12,-1.00,3.30,3.11,2.01
37.7560,0.07,0.12,-0.99,2.81,2.62,2.14
37.7570,0.07,0.12,-0.99,3.11,3.23,2.99
37.7730,0.07,0.12,-0.99,3.11,3.05,3.72
37.7990,0.08,0.12,-0.99,2.56,3.72,4.39
37.8120,0.08,0.11,-0.98,2.62,3.42,2.69
37.8290,0.07,0.12,-1.00,4.15,2.50,2.14
37.8470,0.06,0.12,-0.99,3.42,2.99,1.71
37.8630,0.06,0.12,-0.99,3.72,3.11,2.08
37.8810,0.07,0.12,-0.99,3.23,2.99,2.81
37.8960,0.07,0.12,-0.99,3.42,3.60,3.42
37.9120,0.07,0.12,-1.00,2.93,3.11,3.42
37.9270,0.07,0.12,-0.99,2.44,3.05,3.05
37.9300,0.07,0.12,-0.99,3.05,3.17,2.14
37.9460,0.07,0.12,-0.99,3.05,2.69,1.95
37.9690,0.06,0.12,-0.99,3.36,2.99,2.62
37.9850,0.06,0.11,-0.98,3.42,2.69,3.36
38.0020,0.07,0.12,-0.99,3.48,2.69,3.72
38.0190,0.07,0.13,-0.99,2.99,3.05,3.23
38.0200,0.07,0.12,-0.99,2.93,2.99,2.26
38.0510,0.07,0.12,-0.99,2.87,2.99,2.20
38.0530,0.07,0.12,-0.99,3.05,2.87,3.05
38.0830,0.07,0.11,-0.99,3.05,3.42,3.05
38.0990,0.07,0.12,-0.99,3.54,3.05,2.62
38.1150,0.07,0.12,-0.99,3.17,3.36,2.56
38.1310,0.07,0.12,-0.99,2.56,3.23,2.56
38.1450,0.07,0.12,-0.99,2.62,3.23,3.17
38.1620,0.07,0.11,-0.99,3.11,3.11,2.62
38.1770,0.06,0.12,-1.00,3.97,2.69,2.69
38.1860,0.07,0.12,-0.99,3.60,2.93,3.17
38.2020,0.07,0.12,-0.99,2.56,2.81,2.81
38.2190,0.08,0.12,-0.99,2.32,3.54,1.77
38.2360,0.07,0.12,-0.99,2.32,3.48,1.95
38.2520,0.07,0.12,-0.99,3.85,2.56,2.87
38.2680,0.07,0.12,-0.99,3.97,2.93,3.60
38.2840,0.06,0.12,-0.99,3.17,3.05,3.54
38.3010,0.07,0.12,-0.99,3.05,3.54,3.66
38.3030,0.08,0.12,-0.99,2.93,3.05,2.87
38.3320,0.07,0.12,-0.99,3.05,3.05,2.81
38.3470,0.07,0.12,-0.99,3.05,3.17,3.11
38.3630,0.07,0.12,-0.99,3.54,2.99,2.87
38.3790,0.07,0.12,-1.00,2.93,3.11,2.99
38.3870,0.07,0.11,-0.99,2.20,3.30,2.87
38.4030,0.07,0.12,-0.99,2.99,3.42,2.44
38.4240,0.06,0.12,-0.99,3.23,2.81,2.44
38.4400,0.07,0.12,-0.99,3.78,2.32,2.56
38.4560,0.07,0.12,-0.99,3.11,2.87,2.93
38.4710,0.07,0.12,-0.99,2.75,3.36,3.42
38.4750,0.07,0.12,-0.99,3.30,2.99,3.72
38.5000,0.07,0.12,-0.99,2.69,3.11,3.78
38.5070,0.07,0.11,-0.99,2.62,3.17,3.85
38.5310,0.06,0.12,-0.99,2.87,2.93,3.11
38.5470,0.07,0.12,-0.99,3.72,2.50,3.36
38.5630,0.06,0.12,-0.99,4.15,2.75,3.05
38.5650,0.06,0.12,-1.00,3.66,3.05,2.81
38.5810,0.07,0.12,-0.99,2.32,3.05,1.89
38.6000,0.09,0.12,-0.99,1.71,3.42,2.14
38.6140,0.07,0.11,-0.98,2.44,3.11,2.38
38.6310,0.07,0.12,-0.99,4.21,2.50,2.20
38.6470,0.07,0.12,-0.99,4.21,2.20,2.44
38.6640,0.08,0.12,-0.99,3.36,2.87,3.36
38.6810,0.07,0.12,-0.99,3.11,2.93,2.93
38.7000,0.07,0.11,-0.99,2.75,3.11,2.75
38.7140,0.08,0.12,-0.99,3.30,3.17,2.08
38.7310,0.08,0.12,-0.99,3.66,2.93,1.71
38.7480,0.07,0.12,-0.99,3.17,3.36,1.95
38.7640,0.06,0.12,-1.00,3.23,3.23,2.62
38.7800,0.06,0.11,-0.99,2.93,2.93,3.11
38.7820,0.06,0.11,-0.99,2.99,2.81,3.42
38.8100,0.08,0.12,-0.99,3.36,3.17,3.36
38.8250,0.06,0.11,-0.99,3.54,2.81,2.62
38.8310,0.07,0.12,-0.99,3.72,2.56,2.81
38.8470,0.06,0.12,-1.00,3.23,2.75,2.69
38.8710,0.06,0.11,-0.99,2.99,3.36,2.26
38.8720,0.06,0.12,-0.99,2.81,2.99,2.56
38.9030,0.07,0.12,-0.99,3.11,2.87,3.11
38.9050,0.07,0.12,-0.99,3.11,2.81,2.93
38.9350,0.07,0.12,-0.99,2.75,3.23,2.93
38.9380,0.07,0.12,-0.99,3.05,2.75,3.54
38.9670,0.07,0.11,-0.99,2.56,3.23,4.03
38.9820,0.07,0.11,-0.99,3.17,3.05,2.99
38.9980,0.06,0.11,-0.99,3.17,2.69,2.87
39.0040,0.07,0.12,-0.99,3.36,2.99,2.75
39.0290,0.07,0.12,-1.00,3.54,2.81,2.87
39.0380,0.07,0.12,-0.99,2.56,3.23,2.50
39.0550,0.07,0.12,-0.99,3.23,2.93,2.32
39.0710,0.07,0.12,-0.99,3.42,2.69,2.26
39.0880,0.07,0.12,-0.99,3.30,3.11,1.83
39.1050,0.06,0.12,-0.99,3.17,2.75,1.83
39.1210,0.06,0.12,-0.99,3.36,3.05,2.69
39.1370,0.06,0.11,-0.99,3.78,2.44,2.99
39.1380,0.08,0.12,-0.99,4.21,2.62,2.93
39.1680,0.07,0.12,-1.00,3.91,2.56,2.81
39.1850,0.07,0.12,-0.99,2.99,3.11,2.69
39.2020,0.07,0.11,-0.99,2.38,2.99,2.87
39.2180,0.08,0.11,-0.99,2.75,3.42,2.87
39.2330,0.08,0.11,-0.99,3.66,2.93,2.44
39.2500,0.07,0.12,-0.99,3.60,2.93,2.26
39.2550,0.07,0.12,-1.00,3.05,2.99,2.32
39.2810,0.07,0.12,-0.99,2.62,3.17,2.56
39.2960,0.07,0.12,-0.99,2.99,2.93,2.81
39.3110,0.06,0.12,-0.99,3.78,2.62,2.26
39.3210,0.06,0.12,-0.99,3.60,2.69,2.14
39.3380,0.06,0.12,-1.00,3.60,2.87,2.26
39.3540,0.06,0.11,-0.99,3.23,2.81,2.50
39.3710,0.07,0.11,-0.99,2.93,3.11,2.99
39.3870,0.08,0.12,-0.99,2.93,2.99,3.30
39.4030,0.07,0.12,-0.99,3.11,2.93,3.30
39.4190,0.07,0.12,-0.99,3.23,3.17,3.30
39.4350,0.07,0.12,-0.99,3.91,2.69,3.05
39.4390,0.07,0.12,-0.99,3.78,2.99,2.81
39.4550,0.07,0.12,-0.99,3.36,3.17,2.32
39.4710,0.06,0.12,-0.99,2.87,3.17,2.38
39.4870,0.05,0.11,-0.99,2.50,3.11,2.93
39.5050,0.07,0.11,-0.99,2.62,3.23,3.36
39.5210,0.07,0.11,-0.99,3.72,2.56,3.05
39.5380,0.07,0.11,-0.99,3.91,2.50,2.81
39.5530,0.07,0.12,-1.00,3.72,2.75,2.62
39.5690,0.06,0.12,-0.99,3.30,2.99,2.32
39.5900,0.06,0.12,-0.99,2.69,3.05,2.75
39.6060,0.08,0.12,-0.99,2.81,3.05,3.11
39.6230,0.07,0.11,-0.99,2.99,3.11,2.69
39.6390,0.07,0.12,-0.99,3.54,2.81,2.26
39.6550,0.07,0.12,-1.00,3.72,2.62,2.26
39.6570,0.07,0.12,-0.99,2.69,3.11,2.93
39.6870,0.07,0.12,-0.99,2.44,3.36,3.30
39.7020,0.07,0.11,-0.99,2.38,3.23,4.27
39.7180,0.06,0.11,-0.99,3.72,2.62,3.97
39.7330,0.08,0.12,-0.99,3.48,2.81,3.97
39.7390,0.07,0.12,-0.99,3.23,2.50,2.99
39.7650,0.08,0.12,-0.99,2.81,3.42,2.81
39.7810,0.07,0.11,-0.99,2.75,3.36,2.56
39.7890,0.07,0.12,-0.99,3.11,2.99,2.44
39.8060,0.07,0.12,-0.99,2.62,3.48,2.26
39.8230,0.07,0.11,-0.99,2.14,3.23,2.38
39.8390,0.07,0.11,-0.99,3.11,3.17,2.20
39.8560,0.06,0.12,-1.00,4.33,2.56,2.08
39.8730,0.06,0.11,-0.99,3.42,3.17,2.69
39.8890,0.06,0.12,-1.00,3.42,3.05,3.42
39.9050,0.07,0.11,-0.99,2.75,3.11,3.66
39.9200,0.07,0.12,-0.99,2.44,3.11,3.36
39.9370,0.07,0.11,-0.99,2.14,3.30,2.99
39.9520,0.06,0.11,-0.99,3.05,2.93,2.81
39.9680,0.07,0.12,-0.99,3.54,2.69,3.17
39.9840,0.07,0.11,-0.99,2.93,3.17,3.30
39.9990,0.07,0.12,-0.99,3.11,2.87,3.11
40.0150,0.07,0.11,-0.99,3.17,2.87,2.93
40.0310,0.07,0.11,-0.99,3.23,2.69,3.11
40.0390,0.07,0.12,-0.99,3.54,2.81,3.54
40.0570,0.07,0.11,-0.99,3.05,2.99,3.97
40.0730,0.06,0.12,-0.99,3.11,2.81,3.85
40.0900,0.07,0.11,-0.99,2.44,2.87,3.54
40.1060,0.07,0.12,-0.99,3.30,2.62,3.36
40.1240,0.07,0.12,-0.99,3.30,2.93,3.30
40.1390,0.07,0.12,-0.99,3.60,2.56,3.30
40.1550,0.07,0.12,-0.99,3.23,2.75,3.60
40.1580,0.06,0.11,-0.99,3.30,2.87,3.48
40.1850,0.07,0.11,-0.99,3.05,2.81,3.97
40.1920,0.08,0.12,-0.99,2.93,2.99,3.72
40.2160,0.08,0.12,-0.99,2.26,3.42,3.54
40.2250,0.06,0.11,-0.99,2.44,3.05,3.42
40.2420,0.06,0.11,-0.99,2.99,2.99,4.21
40.2590,0.06,0.11,-0.99,3.72,2.38,3.72
40.2760,0.06,0.11,-0.99,4.21,2.38,4.09
40.2920,0.07,0.12,-1.00,4.21,2.50,4.09
40.3080,0.08,0.12,-0.99,3.42,2.69,3.60
40.3240,0.08,0.12,-0.99,3.30,2.75,3.11
40.3400,0.08,0.11,-0.99,3.48,2.93,2.99
40.3570,0.07,0.12,-0.99,3.97,3.05,2.81
40.3720,0.07,0.11,-0.99,3.66,3.17,2.69
40.3870,0.07,0.12,-0.99,4.03,2.75,2.81
40.4020,0.07,0.12,-0.99,3.60,2.93,2.93
40.4170,0.07,0.12,-0.99,3.23,2.87,2.93
40.4320,0.08,0.11,-0.99,2.87,2.93,2.81
40.4420,0.06,0.11,-0.99,3.36,2.99,2.56
40.4590,0.06,0.11,-0.99,2.93,2.93,3.17
40.4750,0.07,0.11,-0.99,3.23,2.87,3.36
40.4920,0.07,0.11,-0.99,3.54,2.87,3.48
40.5080,0.06,0.11,-0.99,3.72,2.50,3.78
40.5250,0.07,0.12,-0.99,3.60,2.87,4.21
40.5410,0.07,0.11,-0.99,3.17,2.87,3.60
40.5570,0.07,0.12,-0.99,3.48,2.62,2.93
40.5720,0.07,0.12,-0.99,3.23,2.93,3.48
40.5880,0.07,0.12,-0.99,3.05,2.69,3.54
40.6040,0.07,0.12,-0.99,2.99,2.99,3.66
40.6200,0.07,0.12,-0.99,3.11,2.81,3.54
40.6360,0.07,0.12,-0.99,2.87,3.30,3.48
40.6520,0.07,0.11,-0.99,2.56,2.93,3.60
40.6680,0.07,0.12,-0.99,2.69,2.93,3.54
40.6830,0.07,0.12,-0.99,2.38,2.81,3.48
40.6920,0.07,0.11,-0.99,2.99,3.05,4.09
40.7080,0.07,0.11,-0.99,3.54,2.50,3.85
40.7250,0.06,0.11,-0.99,3.66,2.81,4.21
40.7420,0.06,0.12,-0.99,3.66,2.56,4.52
40.7580,0.08,0.12,-0.99,3.11,2.50,4.76
40.7750,0.07,0.12,-0.99,3.30,2.62,3.54
40.7930,0.06,0.11,-0.99,3.48,2.38,3.48
40.8090,0.06,0.12,-1.00,3.66,2.50,4.09
40.8250,0.06,0.11,-0.99,3.23,2.50,4.76
40.8400,0.06,0.12,-0.99,3.05,2.32,5.43
40.8420,0.09,0.12,-0.99,3.11,2.44,5.37
40.8700,0.08,0.12,-0.99,3.54,2.38,3.72
40.8750,0.07,0.11,-0.99,3.48,2.87,3.05
40.8910,0.07,0.12,-0.99,3.78,2.99,3.23
40.9150,0.07,0.12,-0.99,3.42,2.69,3.30
40.9310,0.07,0.12,-0.99,3.54,2.87,3.60
40.9480,0.07,0.12,-0.99,3.42,2.99,3.66
40.9640,0.07,0.12,-0.99,3.72,2.75,3.48
40.9790,0.08,0.12,-0.99,3.60,2.87,3.11
40.9820,0.06,0.12,-0.99,3.23,3.11,2.93
41.0030,0.07,0.12,-0.99,2.99,2.87,3.48
41.0280,0.07,0.12,-0.99,2.93,2.75,3.30
41.0430,0.07,0.11,-0.99,3.11,3.17,3.54
41.0480,0.06,0.12,-0.99,3.72,2.81,3.11
41.0630,0.06,0.12,-0.99,3.42,2.44,3.36
41.0870,0.07,0.12,-0.99,3.48,2.62,3.66
41.1040,0.07,0.12,-0.99,2.62,3.11,3.66
41.1190,0.07,0.12,-0.99,2.69,2.44,3.42
41.1360,0.08,0.11,-0.99,3.05,3.17,3.17
41.1370,0.07,0.12,-0.99,3.30,2.62,2.50
41.1680,0.07,0.12,-0.99,3.05,2.87,2.44
41.1840,0.07,0.12,-0.99,3.30,2.75,2.38
41.2000,0.07,0.11,-0.99,2.75,3.05,2.44
41.2040,0.07,0.12,-0.99,3.23,3.05,2.44
41.2200,0.06,0.11,-0.99,3.30,2.62,2.99
41.2350,0.06,0.11,-0.99,3.23,3.11,4.15
41.2600,0.08,0.12,-0.99,2.75,3.17,5.00
41.2770,0.08,0.12,-0.99,1.95,3.05,4.09
41.2930,0.08,0.12,-0.99,2.20,2.56,2.99
41.3090,0.07,0.12,-0.99,2.87,2.20,2.81
41.3250,0.07,0.12,-0.99,3.48,2.44,2.50
41.3270,0.07,0.12,-0.99,3.54,2.87,2.87
41.3440,0.06,0.11,-0.99,3.05,2.81,3.11
41.3610,0.07,0.12,-0.99,3.36,2.69,3.78
41.3770,0.08,0.12,-0.99,3.05,2.50,3.36
41.4030,0.07,0.12,-0.99,3.72,2.56,2.62
41.4170,0.07,0.12,-0.99,3.78,2.44,2.44
41.4340,0.07,0.11,-0.99,3.60,2.75,2.50
41.4500,0.07,0.11,-0.99,3.11,2.81,2.56
41.4670,0.08,0.12,-0.99,3.17,3.17,2.81
41.4830,0.07,0.11,-0.99,3.11,2.93,2.44
41.5000,0.07,0.12,-0.99,3.54,2.75,2.50
41.5030,0.07,0.12,-1.00,3.17,2.62,2.50
41.5320,0.06,0.12,-1.00,2.69,3.05,2.99
41.5340,0.06,0.11,-0.99,2.26,2.87,3.78
41.5500,0.06,0.11,-0.99,2.14,3.17,4.15
41.5670,0.07,0.11,-0.99,2.87,2.62,4.52
41.5830,0.08,0.11,-0.99,2.93,2.81,4.15
41.6030,0.08,0.12,-0.99,3.42,2.56,3.17
41.6170,0.07,0.11,-0.99,2.99,3.11,2.75
41.6380,0.06,0.11,-0.99,3.30,2.81,2.81
41.6550,0.07,0.11,-0.99,3.54,2.62,2.99
41.6700,0.07,0.12,-0.99,3.78,2.81,3.05
41.6880,0.06,0.12,-0.99,3.11,2.56,2.99
41.7040,0.07,0.11,-0.99,2.56,3.30,3.11
41.7200,0.07,0.11,-0.99,3.05,3.11,3.05
41.7360,0.07,0.11,-0.99,2.93,2.81,3.05
41.7520,0.08,0.12,-0.99,3.48,3.05,2.93
41.7670,0.07,0.12,-0.99,3.17,2.93,2.81
41.7840,0.08,0.11,-0.99,3.11,2.93,2.81
41.8000,0.07,0.12,-0.99,3.17,2.99,2.69
41.8160,0.06,0.11,-0.99,3.30,2.69,2.93
41.8310,0.07,0.12,-0.99,3.60,2.93,2.93
41.8470,0.07,0.12,-0.99,3.42,3.05,3.23
41.8630,0.06,0.12,-0.99,2.99,2.99,3.42
41.8710,0.07,0.11,-0.99,3.42,2.93,3.66
41.8880,0.07,0.12,-0.99,3.42,2.69,3.17
41.9030,0.07,0.11,-0.99,3.17,2.38,2.81
41.9250,0.08,0.11,-0.99,3.60,2.81,2.44
41.9420,0.07,0.11,-0.99,3.17,2.93,2.50
41.9580,0.06,0.12,-0.99,3.72,3.11,2.69
41.9740,0.07,0.12,-0.99,3.54,3.17,3.11
41.9910,0.07,0.12,-0.99,2.81,2.62,3.54
42.0080,0.07,0.11,-0.99,2.87,2.75,3.30
42.0240,0.07,0.12,-0.99,3.17,3.11,2.87
42.0400,0.07,0.11,-0.99,3.11,3.05,2.99
42.0550,0.06,0.11,-0.99,4.09,2.50,2.69
42.0710,0.08,0.11,-0.99,4.15,2.44,2.62
42.0860,0.07,0.11,-0.99,3.78,2.38,2.38
42.1010,0.08,0.12,-1.00,3.48,2.99,2.38
42.1090,0.08,0.11,-0.99,3.60,2.62,2.32
42.1260,0.07,0.12,-0.99,3.72,2.87,2.62
42.1410,0.07,0.11,-0.99,3.42,3.05,2.69
42.1610,0.07,0.12,-0.99,3.17,3.30,2.81
42.1660,0.08,0.12,-0.99,3.05,3.11,2.62
42.1910,0.07,0.12,-0.99,3.30,2.93,2.20
42.2070,0.07,0.11,-0.99,3.11,2.87,2.20
42.2160,0.07,0.11,-0.99,3.05,2.93,2.20
42.2320,0.06,0.11,-0.99,3.60,3.17,2.14
42.2490,0.07,0.11,-0.99,3.17,2.81,2.32
42.2670,0.07,0.11,-0.99,3.42,2.99,2.50
42.2830,0.07,0.12,-0.99,2.87,3.05,2.62
42.2990,0.07,0.11,-0.99,2.38,2.69,2.69
42.3160,0.08,0.11,-0.99,2.50,3.05,2.32
42.3320,0.07,0.11,-0.99,3.48,2.99,2.08
42.3480,0.07,0.11,-0.99,3.66,2.87,2.01
42.3640,0.07,0.12,-0.99,3.48,2.62,1.89
42.3790,0.07,0.12,-0.99,2.81,3.05,2.08
42.3830,0.07,0.11,-0.99,2.56,3.05,2.20
42.4040,0.06,0.12,-0.99,2.87,2.81,2.50
42.4280,0.06,0.11,-0.99,3.05,2.93,3.17
42.4330,0.07,0.11,-0.99,3.66,2.75,3.36
42.4490,0.08,0.11,-0.99,3.78,2.50,2.99
42.4660,0.08,0.12,-0.99,3.48,2.56,2.26
42.4870,0.08,0.12,-1.00,3.66,2.14,2.01
42.5050,0.07,0.12,-0.99,2.50,3.05,2.14
42.5210,0.08,0.11,-0.99,2.87,3.30,2.32
42.5370,0.07,0.11,-0.99,3.60,2.87,2.01
42.5530,0.07,0.12,-1.00,3.66,2.26,2.14
42.5680,0.07,0.12,-1.00,2.75,2.99,2.32
42.5710,0.08,0.11,-0.99,2.87,2.81,2.20
42.5870,0.07,0.11,-0.99,3.17,3.05,2.14
42.6110,0.07,0.12,-0.99,3.30,3.30,2.38
42.6290,0.07,0.11,-0.99,3.05,3.17,2.38
42.6450,0.07,0.11,-0.99,2.99,2.87,2.20
42.6610,0.06,0.12,-1.00,4.09,2.56,2.32
42.6770,0.07,0.12,-0.99,3.11,2.93,2.56
42.6930,0.08,0.12,-0.99,2.50,2.75,2.50
42.7040,0.08,0.11,-0.99,2.44,3.30,1.89
42.7110,0.07,0.11,-0.99,3.05,2.62,1.89
42.7390,0.08,0.11,-0.99,3.17,2.87,2.14
42.7450,0.07,0.11,-0.99,3.60,3.05,1.95
42.7610,0.07,0.11,-0.99,4.03,2.69,1.95
42.7780,0.07,0.12,-0.99,3.97,2.44,1.95
42.8030,0.07,0.12,-0.99,3.36,3.05,1.83
42.8190,0.07,0.11,-0.99,3.23,2.93,1.83
42.8270,0.07,0.12,-0.99,4.09,2.81,2.08
42.8460,0.07,0.12,-0.99,3.23,2.75,2.26
42.8610,0.07,0.11,-0.99,3.48,2.81,2.20
42.8780,0.07,0.11,-0.99,3.72,2.75,2.14
42.8940,0.07,0.11,-0.99,3.85,2.44,2.01
42.9130,0.07,0.12,-1.00,3.85,2.44,2.14
42.9150,0.08,0.12,-0.99,3.48,2.87,2.14
42.9320,0.07,0.12,-0.99,3.30,2.75,2.26
42.9470,0.07,0.11,-0.99,3.11,2.81,2.50
42.9710,0.07,0.11,-0.99,3.42,2.99,2.44
42.9880,0.07,0.12,-0.99,3.72,2.69,2.50
43.0050,0.07,0.11,-0.99,3.85,2.99,2.50
43.0200,0.07,0.11,-0.99,4.09,2.56,2.26
43.0370,0.07,0.12,-0.99,3.60,2.75,2.14
43.0520,0.07,0.12,-0.99,3.05,3.05,2.38
43.0680,0.07,0.12,-0.99,3.05,2.81,2.14
43.0840,0.07,0.12,-0.99,3.11,2.69,2.26
43.1000,0.07,0.12,-0.99,3.11,3.36,2.38
43.1150,0.07,0.11,-0.99,3.66,2.69,2.32
43.1210,0.07,0.12,-0.99,3.72,2.81,2.08
43.1380,0.07,0.11,-0.99,3.05,2.50,2.08
43.1540,0.07,0.11,-0.99,3.05,2.81,2.08
43.1770,0.07,0.11,-0.99,3.78,2.69,2.26
43.1940,0.07,0.11,-0.99,4.03,2.56,2.20
43.2100,0.07,0.12,-1.00,4.33,2.62,2.08
43.2110,0.07,0.12,-0.99,3.17,3.23,2.08
43.2410,0.07,0.11,-0.99,2.62,3.30,2.26
43.2570,0.07,0.11,-0.99,2.08,3.17,2.32
43.2600,0.08,0.11,-0.99,2.81,2.87,2.20
43.2780,0.07,0.11,-0.99,3.23,2.50,2.14
43.2940,0.08,0.11,-0.99,3.23,2.87,1.83
43.3150,0.07,0.11,-0.99,3.78,2.44,1.89
43.3340,0.07,0.11,-0.99,3.60,3.05,1.95
43.3490,0.07,0.12,-0.99,3.23,2.87,1.95
43.3660,0.07,0.12,-1.00,3.30,3.05,2.01
43.3830,0.07,0.12,-0.99,2.75,3.48,2.08
43.4000,0.06,0.12,-0.99,2.50,3.23,2.01
43.4160,0.07,0.11,-0.99,3.36,2.87,2.20
43.4320,0.07,0.11,-0.99,4.27,3.05,2.08
43.4480,0.07,0.12,-0.99,4.33,2.81,2.08
43.4500,0.07,0.12,-0.99,3.66,2.81,2.14
43.4650,0.08,0.11,-0.99,3.66,2.81,2.14
43.4960,0.07,0.12,-0.99,3.66,2.75,1.89
43.5060,0.07,0.12,-1.00,3.11,3.23,2.01
43.5160,0.07,0.11,-0.99,2.50,3.11,1.77
43.5320,0.07,0.11,-0.99,2.93,2.69,1.71
43.5530,0.07,0.11,-0.99,4.09,2.56,1.83
43.5710,0.07,0.11,-0.99,4.09,2.50,1.83
43.5870,0.07,0.11,-0.99,4.70,2.56,2.01
43.6030,0.07,0.12,-0.99,4.46,2.44,1.83
43.6200,0.07,0.12,-1.00,3.85,2.75,1.95
43.6360,0.07,0.11,-0.99,3.42,2.87,1.95
43.6510,0.07,0.12,-0.99,4.09,2.87,2.01
43.6670,0.07,0.11,-0.99,4.21,2.38,1.89
43.6840,0.07,0.12,-0.99,4.64,2.75,1.83
43.6990,0.07,0.12,-0.99,5.13,2.62,2.01
43.7060,0.07,0.12,-0.99,4.21,2.69,1.95
43.7200,0.07,0.12,-0.99,3.78,2.75,1.95
43.7450,0.07,0.12,-0.99,3.54,2.99,2.08
43.7610,0.07,0.12,-0.99,3.97,2.69,1.77
43.7770,0.07,0.12,-0.99,4.39,2.69,1.95
43.7930,0.07,0.11,-0.99,4.64,2.81,1.95
43.8060,0.07,0.12,-0.99,4.70,2.38,1.89
43.8110,0.07,0.12,-0.99,4.21,2.38,1.89
43.8410,0.07,0.12,-0.99,3.54,3.11,2.01
43.8560,0.07,0.12,-0.99,4.03,3.17,1.89
43.8650,0.07,0.14,-1.00,5.55,2.08,1.83
43.8810,0.07,0.12,-0.99,4.82,1.77,1.89
43.8970,0.07,0.12,-0.99,4.70,1.95,1.95
43.9150,0.07,0.12,-0.99,4.70,2.14,1.77
43.9320,0.08,0.12,-0.99,4.46,2.38,1.71
43.9470,0.08,0.12,-0.99,3.97,2.50,1.89
43.9630,0.08,0.12,-0.99,3.48,2.99,1.89
43.9640,0.08,0.12,-0.99,3.17,3.36,2.08
43.9820,0.08,0.12,-0.99,2.93,3.78,1.95
44.0070,0.07,0.12,-0.99,2.69,3.48,1.95
44.0150,0.08,0.14,-0.99,3.05,4.39,1.95
44.0410,0.07,0.12,-0.99,3.11,4.27,1.77
44.0480,0.07,0.12,-0.99,3.23,3.17,1.83
44.0640,0.07,0.12,-0.99,3.23,3.30,1.77
44.0810,0.07,0.12,-0.99,3.11,3.17,1.95
44.0970,0.07,0.12,-0.99,2.93,3.17,2.01
44.1150,0.07,0.12,-0.99,3.11,2.99,1.77
44.1310,0.07,0.12,-0.99,3.36,3.42,2.01
44.1500,0.07,0.12,-0.99,3.17,3.30,1.95
44.1650,0.07,0.12,-0.99,3.36,3.05,1.89
44.1810,0.07,0.12,-0.99,3.60,3.05,1.95
44.1970,0.07,0.12,-0.99,3.60,3.23,2.14
44.2080,0.07,0.12,-0.99,3.42,2.62,2.08
44.2140,0.07,0.12,-0.99,3.60,2.81,2.01
44.2460,0.07,0.12,-0.99,3.48,3.72,2.08
44.2490,0.07,0.12,-0.99,3.97,2.87,2.08
44.2640,0.07,0.12,-0.99,3.85,3.05,2.20
44.2800,0.07,0.12,-0.99,3.66,2.93,1.89
44.3030,0.07,0.13,-1.00,3.11,2.99,1.95
44.3190,0.08,0.15,-1.01,1.46,3.91,1.83
44.3360,0.07,0.11,-0.99,2.01,3.42,2.01
44.3530,0.07,0.12,-0.99,3.30,2.93,2.01
44.3690,0.07,0.12,-0.99,2.20,3.72,1.95
44.3860,0.07,0.11,-0.99,2.81,3.48,1.83
44.4020,0.07,0.12,-0.99,4.27,3.23,1.89
44.4180,0.07,0.12,-0.99,4.52,2.99,1.83
44.4340,0.07,0.13,-0.99,4.03,2.75,1.89
44.4510,0.07,0.10,-0.99,3.36,3.23,2.08
44.4660,0.07,0.12,-0.99,3.05,3.30,2.01
44.4810,0.07,0.12,-0.99,3.60,2.87,2.14
44.4960,0.07,0.12,-0.99,3.60,3.23,2.20
44.5130,0.07,0.12,-0.99,3.54,3.17,1.95
44.5300,0.07,0.12,-0.99,3.23,3.17,1.95
44.5460,0.07,0.11,-0.99,2.99,2.93,2.01
44.5620,0.08,0.12,-0.99,3.30,2.87,2.01
44.5700,0.07,0.12,-0.99,3.48,2.69,2.08
44.5870,0.07,0.12,-0.99,3.48,2.69,1.89
44.6030,0.07,0.12,-0.99,3.85,2.93,2.01
44.6230,0.07,0.12,-0.99,3.54,3.23,2.01
44.6390,0.07,0.12,-0.99,3.17,3.05,1.95
44.6540,0.07,0.12,-0.99,3.11,2.75,1.83
44.6580,0.07,0.12,-0.99,2.75,3.05,1.77
44.6750,0.07,0.12,-0.99,2.81,3.36,1.95
44.6910,0.07,0.12,-0.99,3.05,2.87,1.95
44.7090,0.07,0.12,-0.99,3.11,3.05,1.95
44.7240,0.07,0.12,-0.99,3.23,3.05,1.89
44.7410,0.07,0.12,-0.99,3.54,3.23,2.01
44.7580,0.07,0.12,-0.99,3.85,2.99,1.95
44.7750,0.07,0.12,-0.99,3.72,2.56,1.95
44.7900,0.07,0.12,-0.99,3.17,3.11,1.95
44.8070,0.08,0.12,-0.99,3.78,2.87,1.83
44.8250,0.07,0.12,-0.99,3.30,2.69,1.77
44.8400,0.07,0.12,-0.99,3.48,2.75,1.83
44.8560,0.07,0.11,-0.99,3.85,2.62,1.83
44.8710,0.07,0.12,-0.99,4.15,2.44,1.77
44.8740,0.07,0.12,-0.99,4.21,2.62,1.46
44.8910,0.09,0.12,-0.99,4.03,2.81,0.61
44.9120,0.07,0.12,-0.99,4.46,3.42,-1.16
44.9300,0.07,0.13,-0.99,3.97,3.36,-1.22
44.9460,0.06,0.13,-0.99,3.42,3.48,-0.73
44.9630,0.06,0.12,-0.99,2.87,3.05,0.73
44.9800,0.06,0.12,-0.99,2.75,3.11,1.59
44.9940,0.07,0.12,-0.99,3.05,3.05,1.95
45.0110,0.08,0.12,-0.99,3.78,2.93,1.89
45.0260,0.08,0.12,-0.99,3.85,3.23,1.95
45.0300,0.08,0.12,-0.99,3.60,3.42,2.14
45.0450,0.07,0.12,-0.99,3.36,2.93,1.95
45.0650,0.07,0.12,-0.99,2.87,3.23,2.08
45.0820,0.07,0.12,-0.99,2.62,2.99,1.95
45.1000,0.07,0.12,-0.99,2.69,3.11,2.08
45.1160,0.07,0.12,-0.99,3.60,2.99,2.08
45.1330,0.07,0.12,-0.99,3.54,2.81,2.01
45.1500,0.07,0.12,-0.99,3.54,2.99,2.08
45.1660,0.07,0.12,-0.99,3.91,2.75,1.83
45.1820,0.07,0.12,-0.99,3.60,2.87,2.01
45.1970,0.07,0.12,-0.99,3.36,3.23,1.95
45.2150,0.08,0.12,-0.99,3.30,2.99,2.01
45.2320,0.08,0.12,-0.99,3.17,2.93,2.01
45.2470,0.08,0.12,-0.99,3.42,2.81,1.95
45.2630,0.07,0.12,-0.99,3.48,2.87,2.01
45.2780,0.07,0.12,-0.99,3.17,2.81,1.89
45.2940,0.07,0.12,-0.99,3.05,3.05,1.95
45.3000,0.07,0.12,-0.99,3.17,3.30,1.95
45.3170,0.07,0.12,-0.99,3.11,3.48,2.01
45.3320,0.07,0.12,-0.99,3.36,3.42,1.89
45.3490,0.07,0.12,-0.99,3.36,3.17,2.01
45.3650,0.07,0.12,-0.99,3.42,3.17,2.08
45.3860,0.07,0.12,-0.99,3.72,2.75,1.95
45.4010,0.07,0.12,-0.99,3.23,2.75,1.89
45.4160,0.08,0.12,-0.99,2.99,2.75,1.95
45.4310,0.08,0.12,-0.99,3.30,2.62,1.83
45.4460,0.08,0.12,-0.99,3.05,2.62,2.08
45.4540,0.08,0.12,-0.99,3.30,2.81,1.83
45.4700,0.08,0.12,-0.99,3.72,2.81,1.95
45.4870,0.07,0.12,-0.99,3.36,2.99,1.95
45.5020,0.07,0.12,-0.99,3.36,2.87,1.95
45.5240,0.07,0.12,-0.99,3.42,2.93,1.89
45.5390,0.06,0.12,-0.99,3.17,3.11,1.83
45.5560,0.06,0.13,-0.99,3.23,3.30,1.83
45.5580,0.06,0.12,-0.99,3.05,3.11,1.95
45.5740,0.07,0.12,-0.99,3.17,2.81,1.83
45.5980,0.07,0.12,-0.99,3.36,3.05,1.77
45.6160,0.07,0.12,-0.99,3.42,3.17,1.83
45.6320,0.08,0.12,-0.99,3.66,2.75,1.83
45.6480,0.08,0.12,-0.99,3.48,2.93,1.95
45.6650,0.08,0.12,-0.99,3.48,3.36,1.89
45.6810,0.08,0.12,-0.99,3.36,3.17,1.89
45.6970,0.07,0.12,-0.99,2.93,3.36,2.01
45.7140,0.07,0.12,-0.99,3.36,3.17,1.89
45.7300,0.07,0.12,-0.99,3.85,3.23,1.95
45.7330,0.06,0.12,-0.99,3.72,3.05,1.95
45.7480,0.07,0.12,-1.00,3.11,2.93,1.89
45.7650,0.07,0.12,-0.99,3.36,3.05,1.95
45.7820,0.07,0.13,-0.99,3.48,3.05,1.95
45.7980,0.07,0.13,-0.99,3.48,3.11,1.89
45.8210,0.07,0.13,-0.99,3.48,2.62,1.83
45.8370,0.07,0.12,-0.99,3.48,2.81,1.95
45.8540,0.08,0.12,-0.99,3.36,3.17,1.83
45.8700,0.08,0.11,-0.99,3.17,2.99,1.83
45.8860,0.08,0.11,-0.99,3.60,3.17,1.77
45.9020,0.07,0.12,-0.99,3.48,3.30,2.01
45.9180,0.07,0.12,-0.99,3.42,2.93,1.83
45.9340,0.07,0.12,-0.99,3.48,3.23,1.83
45.9490,0.07,0.12,-0.99,3.72,2.99,1.89
45.9640,0.07,0.12,-0.99,3.85,3.17,1.89
45.9810,0.07,0.13,-0.99,3.85,2.69,1.83
45.9970,0.07,0.13,-0.99,3.30,3.05,1.89
46.0130,0.07,0.13,-0.99,3.54,2.93,2.08
46.0280,0.07,0.12,-0.99,3.36,2.99,1.95
46.0440,0.07,0.12,-0.99,3.66,2.87,1.89
46.0530,0.07,0.12,-0.99,3.48,3.17,1.95
46.0700,0.08,0.12,-0.99,3.72,3.42,1.83
46.0870,0.08,0.12,-0.99,3.85,3.54,2.01
46.1040,0.08,0.12,-0.99,3.66,3.23,2.08
46.1200,0.07,0.12,-0.99,3.60,2.93,1.89
46.1370,0.07,0.12,-0.99,3.78,2.93,2.01
46.1520,0.07,0.12,-0.99,3.66,3.17,1.95
46.1680,0.07,0.12,-0.99,3.60,2.75,1.89
46.1830,0.07,0.12,-0.99,3.54,2.87,1.77
46.1860,0.07,0.13,-0.99,3.42,2.93,1.95
46.2120,0.07,0.13,-0.99,3.36,2.81,1.89
46.2260,0.07,0.12,-0.99,3.48,2.75,1.77
46.2430,0.07,0.12,-0.99,3.48,3.11,2.08
46.2600,0.08,0.12,-0.99,3.36,2.93,1.89
46.2770,0.08,0.12,-0.99,3.30,2.99,1.95
46.2930,0.08,0.12,-0.99,3.36,3.11,1.83
46.3090,0.08,0.12,-0.99,3.36,3.17,2.01
46.3120,0.07,0.12,-0.99,3.42,3.30,1.95
46.3270,0.07,0.12,-0.99,3.30,3.11,1.83
46.3440,0.07,0.12,-0.99,3.30,2.99,1.83
46.3600,0.07,0.12,-0.99,3.30,3.36,1.89
46.3830,0.06,0.12,-0.99,3.30,3.05,1.95
46.4000,0.07,0.12,-0.99,3.78,2.93,1.77
46.4160,0.07,0.13,-0.99,3.48,2.93,1.83
46.4330,0.07,0.12,-0.99,3.30,2.69,1.95
46.4500,0.07,0.12,-0.99,3.42,3.05,1.83
46.4660,0.08,0.12,-0.99,3.42,3.30,2.01
46.4820,0.08,0.12,-0.99,3.36,2.99,1.89
46.4970,0.07,0.12,-0.99,3.42,3.11,1.95
46.5140,0.07,0.12,-0.99,3.48,2.38,1.89
46.5300,0.07,0.12,-0.99,3.36,3.05,1.95
46.5330,0.07,0.12,-0.99,3.60,3.05,1.89
46.5490,0.07,0.12,-0.99,3.36,2.75,1.89
46.5780,0.07,0.12,-0.99,3.36,3.17,1.83
46.5890,0.07,0.12,-0.99,3.42,3.23,1.95
46.6050,0.07,0.12,-0.99,3.42,3.30,1.95
46.6230,0.07,0.13,-0.99,3.17,3.23,1.89
46.6380,0.07,0.12,-0.99,3.36,2.99,1.77
46.6550,0.07,0.12,-0.99,3.23,2.93,1.89
46.6710,0.07,0.12,-0.99,3.42,3.17,2.08
46.6720,0.07,0.12,-0.99,3.42,3.36,1.89
46.7020,0.07,0.12,-0.99,3.48,3.30,1.83
46.7180,0.07,0.12,-0.99,3.48,2.75,1.95
46.7340,0.07,0.12,-0.99,3.48,2.93,1.83
46.7390,0.07,0.12,-0.99,3.54,2.75,1.89
46.7660,0.07,0.12,-0.99,3.91,2.75,1.83
46.7820,0.07,0.13,-0.99,4.03,2.93,1.89
46.7890,0.07,0.13,-0.99,3.60,2.75,2.01
46.8120,0.07,0.13,-0.99,3.48,2.87,1.95
46.8210,0.07,0.13,-0.99,3.54,3.23,1.95
46.8390,0.07,0.12,-0.99,3.42,3.05,1.83
46.8550,0.07,0.12,-0.99,3.60,2.99,1.71
46.8720,0.07,0.12,-0.99,3.48,3.23,1.77
46.8880,0.07,0.12,-0.99,3.36,3.17,1.95
46.9060,0.07,0.12,-0.99,3.05,3.17,1.77
46.9220,0.07,0.12,-0.99,3.48,2.81,1.71
46.9220,0.07,0.12,-0.99,3.54,2.99,1.89
46.9520,0.07,0.12,-0.99,3.72,2.69,1.83
46.9680,0.07,0.12,-0.99,3.60,3.11,1.89
46.9830,0.07,0.12,-0.99,3.42,2.81,1.95
46.9990,0.07,0.13,-0.99,3.11,3.23,1.83
47.0140,0.07,0.12,-0.99,3.05,3.11,1.95
47.0290,0.07,0.12,-0.99,3.17,3.11,1.95
47.0390,0.07,0.12,-0.99,3.42,3.23,1.95
47.0540,0.07,0.12,-0.99,3.42,3.36,2.08
47.0720,0.07,0.12,-0.99,3.72,2.87,1.83
47.0890,0.07,0.12,-0.99,3.48,3.05,1.95
47.1040,0.07,0.12,-0.99,3.30,3.36,1.83
47.1210,0.07,0.12,-0.99,3.17,3.11,1.95
47.1380,0.07,0.12,-0.99,3.30,3.23,2.01
47.1530,0.07,0.12,-0.99,2.93,3.78,2.01
47.1680,0.07,0.12,-0.99,2.87,3.42,2.01
47.1840,0.07,0.12,-0.99,3.05,3.11,2.08
47.1990,0.07,0.12,-0.99,3.05,3.11,1.95
47.2150,0.07,0.12,-0.99,3.42,3.11,2.01
47.2300,0.07,0.12,-0.99,3.30,3.30,1.89
47.2460,0.07,0.12,-0.99,3.54,3.30,1.77
47.2550,0.07,0.12,-0.99,3.23,3.17,2.01
47.2710,0.07,0.12,-0.99,2.99,3.66,2.08
47.2880,0.07,0.12,-0.99,3.30,3.30,2.08
47.3050,0.07,0.12,-0.99,3.17,3.23,1.89
47.3210,0.07,0.12,-0.99,3.36,2.93,2.01
47.3230,0.07,0.12,-0.99,3.36,2.99,1.89
47.3520,0.07,0.12,-0.99,3.36,2.93,1.77
47.3680,0.07,0.12,-0.99,3.23,2.87,1.83
47.3830,0.07,0.12,-0.99,3.30,2.75,1.95
47.3990,0.07,0.12,-0.99,3.54,3.30,1.95
47.4150,0.07,0.12,-0.99,3.23,3.05,1.89
47.4300,0.07,0.12,-0.99,3.23,2.99,1.89
47.4390,0.07,0.12,-0.99,3.23,2.93,1.77
47.4550,0.07,0.12,-0.99,3.23,2.93,1.95
47.4720,0.07,0.12,-0.99,3.36,3.05,2.01
47.4900,0.07,0.12,-0.99,3.17,2.93,1.95
47.5050,0.07,0.12,-0.99,3.30,2.87,2.08
47.5220,0.07,0.12,-0.99,3.42,3.11,2.01
47.5380,0.07,0.12,-0.99,3.30,3.05,1.89
47.5540,0.07,0.12,-0.99,3.42,2.56,1.89
47.5690,0.07,0.12,-0.99,3.36,2.99,2.01
47.5850,0.07,0.12,-0.99,3.36,2.93,1.95
47.6010,0.07,0.12,-0.99,3.42,3.05,1.83
47.6180,0.07,0.12,-0.99,3.42,3.05,1.83
47.6330,0.07,0.12,-0.99,3.36,2.87,1.83
47.6500,0.07,0.12,-0.99,3.36,3.42,2.01
47.6650,0.07,0.12,-0.99,3.30,3.05,1.95
47.6810,0.07,0.12,-0.99,3.54,2.99,1.83
47.6960,0.07,0.12,-0.99,3.48,2.99,1.89
47.7120,0.07,0.12,-0.99,3.36,3.17,2.01
47.7220,0.07,0.12,-0.99,3.42,2.50,2.01
47.7380,0.07,0.12,-0.99,3.36,2.93,1.77
47.7550,0.07,0.12,-0.99,3.54,2.69,2.01
47.7720,0.07,0.12,-0.99,3.42,2.75,2.01
47.7880,0.07,0.12,-0.99,3.23,3.42,1.89
47.8050,0.07,0.12,-0.99,3.36,3.11,1.83
47.8220,0.07,0.12,-0.99,3.36,2.93,1.95
47.8380,0.07,0.12,-0.99,3.60,3.05,1.83
47.8530,0.07,0.12,-0.99,3.66,3.05,1.89
47.8690,0.07,0.12,-0.99,3.60,3.11,1.89
47.8850,0.07,0.12,-0.99,3.54,2.99,1.89
47.9010,0.07,0.12,-0.99,3.42,3.05,1.95
47.9160,0.07,0.12,-0.99,3.36,2.81,1.89
47.9230,0.07,0.12,-0.99,3.30,2.87,2.01
47.9470,0.07,0.12,-0.99,3.23,2.81,2.01
47.9560,0.07,0.12,-0.99,3.60,3.23,1.95
47.9720,0.07,0.12,-0.99,3.42,3.30,2.08
47.9880,0.07,0.12,-0.99,3.48,3.36,2.08
48.0050,0.07,0.12,-0.99,3.60,3.23,1.89
48.0270,0.07,0.12,-0.99,3.30,3.17,1.95
48.0420,0.07,0.12,-0.99,3.36,3.30,2.01
48.0440,0.07,0.12,-0.99,3.48,3.05,1.95
48.0740,0.07,0.12,-0.99,3.23,2.99,1.89
48.0780,0.07,0.12,-0.99,3.30,3.17,2.08
48.1060,0.07,0.12,-0.99,3.42,2.99,1.89
48.1140,0.07,0.12,-0.99,3.23,3.17,1.95
48.1270,0.07,0.12,-0.99,3.30,3.11,1.95
48.1510,0.07,0.12,-0.99,3.48,2.87,1.95
