Timestamp, AccX, AccY, AccZ, GyroX, GyroY, GyroZ
0.0100,0.07,0.12,-0.99,0.31,3.42,1.83
0.0230,0.07,0.11,-0.97,1.04,3.05,1.89
0.0330,0.07,0.13,-0.98,2.81,3.54,2.20
0.0500,0.07,0.12,-0.98,2.26,3.85,1.89
0.0670,0.07,0.12,-0.98,3.05,3.60,2.01
0.0840,0.07,0.13,-0.99,3.17,3.85,2.01
0.0990,0.07,0.12,-0.98,2.69,3.60,1.89
0.1140,0.07,0.12,-0.98,2.99,3.91,1.95
0.1290,0.07,0.13,-0.99,3.05,4.15,2.20
0.1450,0.07,0.12,-0.98,2.99,3.48,2.01
0.1590,0.07,0.12,-0.98,3.05,3.72,2.01
0.1740,0.07,0.12,-0.98,3.05,3.48,2.14
0.1830,0.07,0.12,-0.99,3.05,3.72,1.95
0.2000,0.07,0.12,-0.98,2.93,3.48,1.89
0.2170,0.07,0.13,-0.98,2.93,3.72,1.89
0.2350,0.07,0.12,-0.99,2.93,3.85,2.08
0.2500,0.07,0.12,-0.98,2.75,3.78,2.01
0.2650,0.07,0.12,-0.98,2.87,3.91,2.08
0.2670,0.07,0.13,-0.99,3.11,3.66,2.01
0.2840,0.07,0.12,-0.98,3.11,3.60,1.95
0.3110,0.07,0.12,-0.99,2.99,3.78,1.95
0.3270,0.07,0.12,-0.99,2.93,3.78,1.95
0.3420,0.07,0.13,-0.98,2.93,3.54,1.95
0.3580,0.07,0.13,-0.99,2.93,3.60,2.08
0.3670,0.07,0.12,-0.98,3.17,3.85,2.01
0.3830,0.07,0.12,-0.98,3.05,3.60,2.01
0.4020,0.07,0.12,-0.98,3.11,3.48,2.20
0.4190,0.07,0.12,-0.99,2.99,3.54,2.08
0.4340,0.07,0.12,-0.98,2.93,3.85,2.01
0.4370,0.07,0.12,-0.98,3.23,3.91,2.08
0.4650,0.07,0.12,-0.99,2.81,3.66,2.01
0.4800,0.07,0.12,-0.98,2.99,3.91,2.01
0.4870,0.07,0.13,-0.99,2.87,3.85,2.01
0.5100,0.07,0.12,-0.98,3.05,3.66,2.01
0.5210,0.07,0.12,-0.98,2.81,3.78,2.01
0.5370,0.07,0.12,-0.99,2.93,3.78,2.08
0.5530,0.07,0.12,-0.98,2.93,3.72,2.01
0.5700,0.07,0.12,-0.98,3.05,3.78,2.01
0.5850,0.07,0.12,-0.98,2.81,3.60,1.95
0.6000,0.07,0.12,-0.98,2.99,3.66,2.01
0.6160,0.07,0.12,-0.99,2.93,3.66,2.08
0.6320,0.07,0.13,-0.98,3.05,3.48,1.95
0.6380,0.07,0.12,-0.99,2.87,3.48,2.08
0.6620,0.07,0.13,-0.98,2.87,3.72,2.14
0.6780,0.07,0.13,-0.98,3.17,3.54,2.08
0.6870,0.07,0.12,-0.98,2.93,3.42,2.08
0.7030,0.07,0.12,-0.98,2.99,3.72,2.01
0.7200,0.07,0.13,-0.99,3.05,3.54,1.89
0.7360,0.07,0.13,-0.98,2.93,3.54,2.08
0.7530,0.07,0.12,-0.99,2.93,3.78,1.89
0.7680,0.07,0.12,-0.99,3.11,3.72,1.95
0.7840,0.07,0.12,-0.98,2.99,3.78,2.01
0.8000,0.07,0.16,-0.99,2.99,3.72,1.83
0.8170,0.07,0.13,-0.99,3.05,3.54,1.95
0.8320,0.07,0.13,-0.99,2.93,3.66,2.08
0.8480,0.07,0.12,-0.98,2.87,3.78,1.95
0.8630,0.07,0.12,-0.98,3.05,3.30,1.95
0.8730,0.07,0.12,-0.98,3.05,3.36,1.89
0.8890,0.07,0.12,-0.99,3.05,3.54,2.08
0.9080,0.07,0.12,-0.99,2.87,3.85,2.14
0.9230,0.07,0.12,-0.98,3.05,3.85,2.14
0.9390,0.07,0.12,-0.99,2.81,3.66,2.08
0.9420,0.07,0.12,-0.98,2.99,3.72,2.08
0.9700,0.07,0.13,-0.98,2.99,3.66,2.01
0.9850,0.07,0.12,-0.98,3.05,3.54,1.95
1.0000,0.07,0.12,-0.98,3.17,3.78,2.01
1.0140,0.07,0.12,-0.98,3.05,3.42,2.01
1.0250,0.07,0.12,-0.98,3.11,3.78,2.08
1.0440,0.07,0.12,-0.98,2.93,3.60,2.26
1.0620,0.07,0.12,-0.99,2.69,3.48,2.01
1.0770,0.07,0.12,-0.98,2.81,3.78,2.01
1.0930,0.07,0.12,-0.98,2.93,3.78,2.08
1.1080,0.07,0.12,-0.99,2.99,3.66,2.08
1.1140,0.07,0.12,-0.98,2.81,3.66,2.08
1.1400,0.07,0.12,-0.98,2.93,3.72,2.01
1.1550,0.07,0.12,-0.98,3.05,3.66,2.01
1.1640,0.07,0.12,-0.98,2.93,3.42,2.01
1.1810,0.07,0.12,-0.98,2.99,3.66,2.08
1.1990,0.07,0.12,-0.98,2.99,3.48,1.89
1.2150,0.07,0.12,-0.98,3.11,3.42,2.08
1.2310,0.07,0.12,-0.98,2.99,3.54,1.89
1.2480,0.07,0.12,-0.99,3.05,3.78,2.14
1.2640,0.07,0.12,-0.98,3.23,3.48,2.08
1.2800,0.07,0.12,-0.99,3.17,3.60,2.14
1.2980,0.07,0.12,-0.99,2.93,3.72,2.14
1.3130,0.07,0.12,-0.98,2.99,3.85,2.14
1.3290,0.07,0.12,-0.99,3.05,3.72,2.01
1.3450,0.07,0.12,-0.98,2.87,3.78,2.08
1.3610,0.07,0.12,-0.99,2.99,3.60,2.01
1.3760,0.07,0.12,-0.98,3.17,3.60,2.20
1.3830,0.07,0.13,-0.99,3.05,3.66,2.14
1.3990,0.07,0.12,-0.98,3.05,3.72,1.95
1.4190,0.07,0.12,-0.98,3.11,3.60,1.83
1.4340,0.07,0.12,-0.98,2.87,3.91,1.95
1.4510,0.07,0.13,-0.98,2.99,3.60,1.95
1.4670,0.07,0.12,-0.99,2.99,3.66,2.01
1.4820,0.07,0.12,-0.98,3.17,3.54,2.14
1.4970,0.07,0.12,-0.98,3.11,3.54,2.08
1.5120,0.07,0.12,-0.99,2.87,3.36,2.08
1.5280,0.07,0.12,-0.98,3.05,3.72,2.08
1.5440,0.07,0.12,-0.99,2.87,3.66,2.01
1.5600,0.07,0.12,-0.98,3.05,3.66,2.14
1.5700,0.07,0.12,-0.99,2.99,3.97,2.08
1.5850,0.07,0.12,-0.98,3.05,3.72,2.01
1.6020,0.07,0.12,-0.98,3.11,3.72,2.01
1.6190,0.07,0.13,-0.99,3.05,3.54,2.01
1.6360,0.07,0.12,-0.98,3.11,3.78,2.08
1.6510,0.07,0.13,-0.99,3.11,3.78,2.01
1.6670,0.07,0.12,-0.98,3.05,3.66,1.95
1.6810,0.07,0.12,-0.99,2.87,3.66,2.14
1.6970,0.07,0.12,-0.99,3.05,3.72,2.01
1.7120,0.07,0.13,-0.98,2.93,3.85,2.08
1.7270,0.07,0.12,-0.99,2.87,3.85,2.14
1.7350,0.07,0.13,-0.98,2.99,3.54,2.08
1.7520,0.07,0.12,-0.98,2.99,3.66,1.95
1.7700,0.07,0.12,-0.99,2.93,3.60,2.01
1.7860,0.07,0.12,-0.98,3.05,3.66,1.95
1.8030,0.07,0.12,-0.99,3.11,3.72,2.01
1.8190,0.07,0.15,-0.98,3.11,3.60,2.20
1.8350,0.07,0.12,-0.98,2.99,3.60,2.14
1.8510,0.07,0.12,-0.99,2.99,3.54,1.95
1.8530,0.07,0.12,-0.98,3.11,3.42,2.01
1.8690,0.07,0.12,-0.99,3.05,3.54,2.08
1.8970,0.07,0.12,-0.98,2.99,3.60,2.08
1.9120,0.07,0.13,-0.99,2.87,3.78,2.01
1.9230,0.07,0.12,-0.99,2.93,3.60,1.89
1.9400,0.07,0.13,-0.98,3.05,3.54,2.08
1.9560,0.07,0.13,-0.98,2.99,3.36,1.89
1.9730,0.07,0.12,-0.98,3.11,3.72,2.01
1.9890,0.07,0.12,-0.99,2.99,3.30,2.01
2.0050,0.07,0.12,-0.98,2.99,3.54,2.14
2.0210,0.07,0.13,-0.98,3.11,3.54,2.08
2.0360,0.07,0.12,-0.99,2.99,3.60,2.08
2.0510,0.07,0.12,-0.98,2.99,3.60,2.08
2.0670,0.07,0.12,-0.99,2.93,3.60,2.01
2.0730,0.07,0.12,-0.98,3.17,3.54,2.14
2.0880,0.07,0.12,-0.99,2.93,3.78,2.01
2.1140,0.07,0.12,-0.99,2.93,3.85,2.01
2.1240,0.07,0.12,-0.98,2.93,3.91,1.89
2.1410,0.07,0.12,-0.99,2.99,3.72,2.20
2.1570,0.07,0.13,-0.98,2.87,3.72,2.08
2.1750,0.07,0.12,-0.98,3.05,3.66,2.14
2.1910,0.07,0.12,-0.98,2.93,3.72,2.08
2.2070,0.07,0.13,-0.98,2.93,3.78,2.01
2.2220,0.07,0.12,-0.98,2.99,3.72,2.14
2.2370,0.07,0.12,-0.98,3.17,3.78,2.08
2.2420,0.07,0.12,-0.98,3.05,3.60,1.95
2.2690,0.07,0.12,-0.98,3.11,3.91,2.14
2.2850,0.07,0.13,-0.99,2.99,3.60,1.89
2.3010,0.07,0.12,-0.98,3.05,3.48,1.95
2.3160,0.07,0.12,-0.98,2.93,3.60,2.01
2.3240,0.07,0.12,-0.99,3.05,3.85,2.20
2.3440,0.07,0.12,-0.98,3.17,3.54,2.01
2.3610,0.07,0.12,-0.99,2.87,3.85,2.01
2.3790,0.07,0.12,-0.98,3.17,3.78,2.20
2.3940,0.07,0.12,-0.98,2.93,3.66,1.89
2.4110,0.07,0.12,-0.98,2.99,3.48,2.08
2.4270,0.07,0.12,-0.98,2.93,3.85,2.01
2.4440,0.07,0.12,-0.98,2.93,3.78,2.01
2.4590,0.07,0.12,-0.98,2.99,3.72,2.08
2.4760,0.07,0.12,-0.98,2.99,3.72,1.95
2.4780,0.07,0.12,-0.98,2.93,3.91,1.95
2.4930,0.07,0.12,-0.98,2.99,3.91,1.89
2.5220,0.07,0.12,-0.99,3.05,3.66,2.01
2.5310,0.07,0.12,-0.98,3.11,3.78,2.14
2.5480,0.07,0.12,-0.99,2.99,3.85,2.20
2.5640,0.07,0.13,-0.99,3.05,3.78,2.20
2.5800,0.07,0.12,-0.98,3.05,3.72,2.08
2.5990,0.07,0.12,-0.99,2.87,3.97,2.08
2.6150,0.07,0.12,-0.98,2.81,3.85,2.14
2.6310,0.07,0.12,-0.99,2.87,3.48,2.01
2.6470,0.07,0.12,-0.98,2.93,3.78,2.01
2.6620,0.07,0.12,-0.99,2.99,3.60,2.14
2.6800,0.07,0.12,-0.98,3.17,3.91,2.14
2.6810,0.07,0.12,-0.98,3.11,3.78,2.01
2.6970,0.07,0.12,-0.99,3.17,3.60,2.01
2.7270,0.07,0.12,-0.98,3.05,3.72,2.01
2.7420,0.07,0.12,-0.99,3.11,3.60,2.08
2.7500,0.07,0.12,-0.98,3.17,3.72,2.01
2.7680,0.07,0.12,-0.99,2.87,3.78,2.01
2.7830,0.07,0.12,-0.99,3.05,3.78,2.08
2.8010,0.07,0.12,-0.98,2.93,3.48,2.01
2.8170,0.07,0.12,-0.99,2.99,3.66,1.95
2.8340,0.07,0.12,-0.98,2.93,3.66,2.01
2.8350,0.07,0.12,-0.98,2.87,3.66,1.95
2.8660,0.07,0.12,-0.99,2.99,3.78,2.01
2.8820,0.07,0.12,-0.99,3.11,3.72,2.20
2.8980,0.07,0.12,-0.98,3.17,3.78,2.08
2.9010,0.07,0.12,-0.98,3.17,3.78,1.95
2.9300,0.07,0.13,-0.99,3.05,3.60,2.14
2.9460,0.07,0.12,-0.98,3.05,3.66,2.20
2.9500,0.07,0.12,-0.99,3.05,3.54,2.08
2.9660,0.07,0.12,-0.98,2.99,3.60,2.01
2.9930,0.07,0.12,-0.99,2.99,3.85,1.95
3.0040,0.07,0.12,-0.98,2.99,3.60,1.95
3.0190,0.07,0.12,-0.98,2.93,3.60,2.01
3.0360,0.07,0.12,-0.99,2.99,3.78,2.01
3.0530,0.07,0.12,-0.98,2.93,3.54,1.95
3.0680,0.07,0.12,-0.98,3.11,3.72,1.89
3.0850,0.07,0.13,-0.98,2.93,3.78,2.01
3.1010,0.07,0.12,-0.98,2.99,3.60,2.01
3.1170,0.07,0.13,-0.99,2.93,3.54,1.83
3.1320,0.07,0.12,-0.98,2.93,3.72,2.01
3.1490,0.07,0.12,-0.98,2.99,3.42,2.08
3.1530,0.07,0.13,-0.99,2.87,3.48,2.01
3.1800,0.07,0.12,-0.98,3.05,3.42,1.95
3.1890,0.07,0.12,-0.98,2.69,3.72,2.01
3.2050,0.07,0.12,-0.98,3.11,3.60,2.01
3.2220,0.07,0.12,-0.98,3.05,3.66,1.95
3.2390,0.07,0.12,-0.98,2.99,3.72,1.89
3.2560,0.07,0.12,-0.99,3.11,3.66,2.08
3.2720,0.07,0.12,-0.99,2.81,3.72,2.08
3.2880,0.07,0.12,-0.98,2.99,3.54,2.01
3.3030,0.07,0.12,-0.99,2.99,3.54,2.01
3.3200,0.07,0.12,-0.98,3.17,3.66,1.89
3.3340,0.07,0.12,-0.98,3.05,3.91,1.95
3.3500,0.07,0.12,-0.98,2.81,3.78,1.89
3.3560,0.07,0.12,-0.98,2.87,3.48,2.01
3.3710,0.07,0.12,-0.99,2.81,3.72,2.01
3.3980,0.07,0.12,-0.98,2.87,3.72,1.89
3.4080,0.07,0.12,-0.99,2.93,3.60,2.08
3.4250,0.07,0.12,-0.99,2.99,3.78,1.89
3.4410,0.07,0.12,-0.98,2.93,3.72,2.14
3.4580,0.07,0.12,-0.98,3.05,3.66,2.08
3.4750,0.07,0.12,-0.98,2.99,3.97,2.08
3.4900,0.07,0.12,-0.99,2.87,3.54,1.95
3.5050,0.07,0.12,-0.98,2.99,3.60,2.08
3.5190,0.07,0.12,-0.99,2.93,3.60,2.01
3.5350,0.07,0.12,-0.98,2.93,3.60,2.08
3.5500,0.07,0.12,-0.98,2.87,3.54,1.83
3.5640,0.07,0.12,-0.99,2.87,3.60,2.01
3.5800,0.07,0.12,-0.98,3.17,3.78,2.14
3.5920,0.07,0.12,-0.99,3.05,3.66,1.95
3.6100,0.07,0.12,-0.99,3.05,3.66,2.20
3.6250,0.07,0.12,-0.98,2.93,3.66,2.01
3.6400,0.07,0.12,-0.99,2.93,3.91,1.95
3.6540,0.07,0.12,-0.98,2.99,3.72,2.01
3.6700,0.07,0.13,-0.98,3.23,3.54,1.95
3.6850,0.07,0.12,-0.98,2.93,3.54,2.08
3.7000,0.07,0.13,-0.98,3.11,3.72,2.08
3.7150,0.07,0.13,-0.98,2.81,3.78,2.01
3.7250,0.07,0.12,-0.98,2.93,3.66,2.01
3.7410,0.07,0.12,-0.99,2.87,3.66,1.95
3.7580,0.07,0.12,-0.98,2.81,4.03,2.08
3.7750,0.07,0.12,-0.98,3.05,3.72,2.14
3.7750,0.07,0.12,-0.99,3.05,3.60,1.89
3.8050,0.07,0.12,-0.98,2.81,4.03,2.01
3.8200,0.07,0.12,-0.98,3.05,3.85,2.01
3.8250,0.07,0.13,-0.99,2.93,3.54,1.89
3.8500,0.07,0.13,-0.98,2.81,3.66,1.89
3.8650,0.07,0.12,-0.99,3.05,3.66,2.01
3.8800,0.07,0.12,-0.98,3.05,3.60,1.89
3.8920,0.07,0.12,-0.98,2.93,3.60,2.01
3.9090,0.07,0.12,-0.99,2.99,3.78,2.08
3.9250,0.07,0.12,-0.98,2.87,3.72,2.14
3.9430,0.07,0.12,-0.98,2.87,3.48,1.95
3.9580,0.07,0.12,-0.98,2.87,3.91,1.89
3.9760,0.07,0.13,-0.98,2.87,3.91,2.14
3.9920,0.07,0.12,-0.98,3.05,3.48,2.14
4.0080,0.07,0.12,-0.99,3.05,3.78,1.95
4.0230,0.07,0.12,-0.98,2.99,3.54,2.08
4.0390,0.07,0.13,-0.99,2.99,3.72,2.08
4.0430,0.07,0.13,-0.99,2.93,3.60,2.01
4.0710,0.07,0.12,-0.98,3.05,3.23,1.95
4.0860,0.07,0.12,-0.99,2.93,3.91,2.14
4.1010,0.07,0.12,-0.98,3.17,3.78,2.14
4.1170,0.07,0.12,-0.98,3.05,3.72,2.01
4.1320,0.07,0.12,-0.99,3.05,3.97,2.08
4.1480,0.07,0.12,-0.98,2.93,3.72,2.01
4.1590,0.07,0.12,-0.99,2.87,3.60,2.08
4.1760,0.07,0.13,-0.98,2.99,3.42,2.20
4.1930,0.07,0.12,-0.98,2.99,3.54,2.01
4.1930,0.07,0.12,-0.98,2.87,3.54,1.89
4.2230,0.07,0.13,-0.98,2.87,3.72,2.14
4.2380,0.07,0.13,-0.98,3.11,3.85,2.20
4.2540,0.07,0.12,-0.98,3.05,3.85,2.14
4.2700,0.07,0.12,-0.99,2.99,3.66,1.89
4.2860,0.07,0.12,-0.98,3.11,3.54,2.08
4.3020,0.07,0.13,-0.98,2.93,3.60,2.01
4.3170,0.07,0.12,-0.99,2.87,3.66,1.89
4.3320,0.07,0.12,-0.98,3.11,3.60,1.95
4.3430,0.07,0.12,-0.99,2.99,3.54,2.01
4.3590,0.07,0.12,-0.99,2.99,3.72,2.01
4.3760,0.07,0.12,-0.98,2.99,3.30,2.01
4.3930,0.07,0.12,-0.98,2.87,3.54,2.01
4.4090,0.07,0.12,-0.98,2.87,3.60,2.08
4.4240,0.07,0.12,-0.98,2.69,3.66,2.01
4.4390,0.07,0.12,-0.99,2.87,4.03,2.08
4.4550,0.07,0.12,-0.98,2.93,3.78,2.14
4.4710,0.07,0.12,-0.98,2.99,3.72,1.95
4.4870,0.07,0.12,-0.98,2.93,3.66,2.01
4.5020,0.07,0.12,-0.99,2.81,3.54,2.01
4.5180,0.07,0.12,-0.98,3.11,3.78,2.01
4.5340,0.07,0.13,-0.99,2.93,3.42,2.01
4.5430,0.07,0.12,-0.99,2.87,3.66,2.01
4.5600,0.07,0.12,-0.98,2.93,3.60,1.95
4.5770,0.07,0.12,-0.99,3.05,3.36,2.14
4.5930,0.07,0.12,-0.98,2.99,3.72,2.01
4.6090,0.07,0.12,-0.99,2.81,3.85,1.95
4.6250,0.07,0.12,-0.98,2.93,3.60,2.01
4.6420,0.07,0.12,-0.98,2.87,3.91,1.95
4.6570,0.07,0.12,-0.99,2.81,3.97,1.95
4.6720,0.07,0.12,-0.98,2.87,3.66,1.95
4.6760,0.07,0.12,-0.98,2.87,3.72,2.01
4.6920,0.07,0.12,-0.98,2.99,3.48,1.89
4.7190,0.07,0.13,-0.99,2.93,3.54,1.89
4.7300,0.07,0.12,-0.98,2.93,3.78,2.14
4.7470,0.07,0.12,-0.99,2.93,3.66,2.08
4.7640,0.07,0.13,-0.98,2.99,3.54,1.95
4.7790,0.07,0.13,-0.98,2.99,3.60,1.95
4.7940,0.07,0.12,-0.99,2.81,3.66,1.95
4.8090,0.07,0.12,-0.98,2.93,3.60,1.95
4.8250,0.07,0.12,-0.99,3.11,3.66,2.08
4.8400,0.07,0.12,-0.99,2.93,3.54,1.95
4.8560,0.07,0.12,-0.98,3.05,3.48,2.01
4.8730,0.07,0.12,-0.99,2.99,3.72,2.14
4.8800,0.07,0.12,-0.98,2.87,3.60,1.89
4.8960,0.07,0.13,-0.99,2.99,3.78,2.01
4.9170,0.07,0.12,-0.99,3.11,3.42,2.01
4.9350,0.07,0.12,-0.98,2.93,3.48,2.08
4.9490,0.07,0.12,-0.99,2.99,3.60,2.08
4.9670,0.07,0.13,-0.98,2.93,3.54,2.08
4.9820,0.07,0.12,-0.99,2.99,3.78,2.01
4.9840,0.07,0.12,-0.98,3.05,3.60,2.08
5.0150,0.07,0.12,-0.98,3.05,3.48,2.01
5.0210,0.07,0.12,-0.98,2.93,3.60,1.89
5.0330,0.07,0.12,-0.98,2.81,3.66,1.95
5.0550,0.07,0.12,-0.99,2.93,3.78,2.14
5.0720,0.07,0.12,-0.98,2.99,3.60,1.95
5.0880,0.07,0.12,-0.99,3.05,3.60,1.83
5.1050,0.07,0.12,-0.98,2.93,3.54,2.08
5.1210,0.07,0.12,-0.98,2.93,3.54,2.01
5.1390,0.07,0.12,-0.98,2.93,3.60,1.95
5.1550,0.07,0.12,-0.98,3.17,3.60,2.01
5.1720,0.07,0.12,-0.99,3.11,3.30,2.01
5.1880,0.07,0.12,-0.99,2.87,3.48,2.14
5.1890,0.07,0.13,-0.98,2.99,3.48,2.01
5.2190,0.07,0.12,-0.98,2.87,3.78,2.01
5.2340,0.07,0.12,-0.98,2.93,3.42,2.01
5.2500,0.07,0.12,-0.98,2.99,3.48,2.01
5.2550,0.07,0.13,-0.98,2.93,3.54,1.95
5.2710,0.07,0.12,-0.98,2.75,3.42,2.08
5.2940,0.07,0.12,-0.98,2.93,3.42,2.08
5.3100,0.07,0.12,-0.99,3.17,3.42,2.14
5.3260,0.07,0.12,-0.98,2.99,3.48,1.95
5.3420,0.07,0.12,-0.98,2.99,3.54,2.08
5.3580,0.07,0.12,-0.99,2.99,3.54,1.95
5.3740,0.07,0.12,-0.98,2.99,3.48,2.08
5.3900,0.07,0.13,-0.98,3.05,3.66,2.14
5.4050,0.07,0.12,-0.99,2.81,3.66,2.01
5.4210,0.07,0.12,-0.98,2.99,3.66,1.95
5.4270,0.07,0.12,-0.99,2.93,3.72,2.14
5.4430,0.07,0.12,-0.98,2.99,3.85,2.01
5.4690,0.07,0.13,-0.98,3.11,3.78,2.08
5.4810,0.07,0.12,-0.98,2.87,3.36,2.08
5.4970,0.07,0.12,-0.99,2.93,3.60,2.08
5.5140,0.07,0.12,-0.98,2.99,3.54,1.89
5.5300,0.07,0.13,-0.98,3.05,3.72,2.01
5.5460,0.07,0.12,-0.99,2.99,3.48,1.95
5.5610,0.07,0.12,-0.98,2.99,3.91,2.01
5.5770,0.07,0.12,-0.98,3.05,3.66,2.08
5.5930,0.07,0.13,-0.98,2.93,3.91,2.01
5.6090,0.07,0.12,-0.98,2.93,3.78,2.20
5.6240,0.07,0.12,-0.99,2.87,3.72,2.01
5.6400,0.07,0.12,-0.98,3.05,3.42,2.14
5.6550,0.07,0.12,-0.98,2.99,3.85,1.83
5.6640,0.07,0.12,-0.98,2.93,3.60,2.01
5.6800,0.07,0.12,-0.99,2.93,3.54,2.01
5.7020,0.07,0.12,-0.99,2.81,3.36,2.01
5.7180,0.07,0.12,-0.98,2.99,3.42,1.95
5.7230,0.07,0.12,-0.98,2.93,3.66,1.95
5.7480,0.07,0.13,-0.98,2.93,3.66,1.83
5.7520,0.07,0.12,-0.99,2.87,3.66,2.14
5.7680,0.07,0.12,-0.99,2.69,3.60,2.14
5.7890,0.07,0.12,-0.98,2.93,3.78,1.95
5.8060,0.07,0.12,-0.98,2.99,3.66,2.20
5.8240,0.07,0.12,-0.98,2.87,3.48,1.95
5.8390,0.07,0.12,-0.99,2.93,3.72,2.20
5.8560,0.07,0.12,-0.98,2.99,3.91,1.95
5.8720,0.07,0.12,-0.98,2.99,3.48,1.95
5.8900,0.07,0.12,-0.99,2.93,3.66,2.01
5.9060,0.07,0.12,-0.98,3.05,3.66,2.08
5.9220,0.07,0.12,-0.99,2.99,3.72,2.14
5.9240,0.07,0.12,-0.98,3.17,3.48,2.01
5.9410,0.07,0.12,-0.99,2.99,3.48,1.95
5.9710,0.07,0.13,-0.98,2.87,3.60,2.08
5.9730,0.07,0.12,-0.98,2.75,3.60,2.08
5.9890,0.07,0.12,-0.98,2.87,3.66,2.01
6.0110,0.07,0.12,-0.99,2.99,3.48,1.89
6.0280,0.07,0.12,-0.99,3.05,3.42,1.95
6.0440,0.07,0.12,-0.98,2.75,3.60,1.95
6.0610,0.07,0.12,-0.99,2.93,3.36,2.14
6.0760,0.07,0.12,-0.98,3.05,3.54,2.01
6.0820,0.07,0.13,-0.98,2.93,3.78,1.95
6.0980,0.07,0.12,-0.99,3.05,3.48,2.01
6.1180,0.07,0.12,-0.98,2.99,3.42,1.89
6.1360,0.07,0.12,-0.99,2.99,3.66,2.08
6.1510,0.07,0.12,-0.99,2.99,3.72,2.08
6.1690,0.07,0.13,-0.98,2.93,3.54,2.14
6.1850,0.07,0.12,-0.99,2.93,3.66,2.08
6.2010,0.07,0.12,-0.98,3.11,3.36,2.08
6.2030,0.07,0.12,-0.98,3.05,3.54,2.14
6.2240,0.07,0.13,-0.98,3.05,3.60,2.08
6.2350,0.07,0.13,-0.98,2.93,3.60,2.08
6.2520,0.07,0.12,-0.98,2.99,3.54,2.14
6.2680,0.07,0.13,-0.98,2.99,3.91,2.20
6.2840,0.07,0.12,-0.99,2.93,3.30,1.95
6.3120,0.07,0.13,-0.98,2.99,3.66,2.20
6.3250,0.07,0.12,-0.99,3.05,3.66,2.14
6.3390,0.07,0.12,-0.98,2.93,3.66,2.14
6.3560,0.07,0.13,-0.99,3.05,3.60,2.01
6.3740,0.07,0.12,-0.99,3.05,3.85,2.14
6.3900,0.07,0.12,-0.98,2.93,3.72,2.08
6.4060,0.07,0.12,-0.99,3.05,3.78,2.20
6.4230,0.07,0.12,-0.98,2.93,3.78,2.14
6.4380,0.07,0.13,-0.99,2.99,3.72,2.14
6.4550,0.07,0.12,-0.98,3.11,3.48,2.01
6.4710,0.07,0.12,-0.98,2.99,3.66,1.95
6.4740,0.07,0.12,-0.99,2.99,3.66,1.89
6.5030,0.07,0.12,-0.98,3.05,3.48,1.95
6.5190,0.07,0.12,-0.99,2.99,3.72,1.95
6.5350,0.07,0.12,-0.98,3.11,3.72,2.01
6.5400,0.07,0.12,-0.98,3.05,3.60,2.08
6.5560,0.07,0.12,-0.98,2.99,3.66,2.01
6.5790,0.07,0.12,-0.98,2.87,3.97,1.89
6.5960,0.07,0.13,-0.99,2.75,3.66,1.83
6.6120,0.07,0.12,-0.98,2.99,3.78,2.08
6.6280,0.07,0.12,-0.99,2.87,3.72,1.95
6.6440,0.07,0.12,-0.99,2.99,3.66,2.20
6.6590,0.07,0.12,-0.98,3.11,3.91,1.89
6.6620,0.07,0.13,-0.99,3.11,3.72,2.01
6.6770,0.07,0.12,-0.98,3.11,3.66,1.83
6.7050,0.07,0.13,-0.99,3.05,3.48,1.95
6.7150,0.07,0.13,-0.98,3.23,3.60,2.20
6.7320,0.07,0.12,-0.99,3.05,3.78,2.08
6.7490,0.07,0.12,-0.98,2.81,3.85,1.89
6.7650,0.07,0.12,-0.98,2.99,3.48,2.14
6.7820,0.07,0.12,-0.99,3.11,3.85,2.08
6.7970,0.07,0.12,-0.98,3.17,3.60,2.14
6.8140,0.07,0.12,-0.99,3.11,3.66,1.95
6.8300,0.07,0.12,-0.98,2.99,3.72,2.01
6.8460,0.07,0.12,-0.99,2.99,3.60,2.01
6.8630,0.07,0.12,-0.98,3.05,3.66,2.08
6.8780,0.07,0.12,-0.98,2.93,3.54,2.01
6.8930,0.07,0.12,-0.99,2.87,3.78,2.01
6.8990,0.07,0.12,-0.98,3.11,3.54,2.08
6.9230,0.07,0.13,-0.98,3.05,3.72,2.14
6.9400,0.07,0.12,-0.99,3.11,3.48,2.14
6.9490,0.07,0.12,-0.98,2.93,3.42,2.08
6.9650,0.07,0.12,-0.99,3.05,3.72,2.01
6.9820,0.07,0.13,-0.98,2.93,3.78,2.01
6.9980,0.07,0.13,-0.99,2.87,3.66,1.89
7.0150,0.07,0.12,-0.98,3.05,3.66,2.01
7.0320,0.07,0.12,-0.98,2.87,4.09,1.95
7.0480,0.07,0.12,-0.98,2.99,3.78,1.95
7.0640,0.07,0.13,-0.99,2.99,3.60,2.01
7.0800,0.07,0.12,-0.99,2.93,3.91,2.08
7.0950,0.07,0.12,-0.98,2.99,3.48,2.01
7.0990,0.07,0.12,-0.98,2.99,3.60,1.95
7.1140,0.07,0.12,-0.99,2.87,3.85,2.01
7.1390,0.07,0.12,-0.98,2.99,3.54,1.95
7.1540,0.07,0.12,-0.98,2.99,3.66,1.95
7.1710,0.07,0.12,-0.98,3.11,3.72,1.95
7.1730,0.07,0.12,-0.99,2.93,3.66,2.01
7.1890,0.07,0.12,-0.99,3.23,3.54,2.01
7.2060,0.07,0.12,-0.98,3.05,3.48,2.08
7.2250,0.07,0.12,-0.98,2.81,3.91,2.14
7.2380,0.07,0.12,-0.98,3.11,3.72,2.14
7.2600,0.07,0.13,-0.99,2.93,3.97,2.08
7.2760,0.07,0.13,-0.98,2.99,3.72,2.08
7.2930,0.07,0.12,-0.99,2.93,3.60,2.01
7.3090,0.07,0.12,-0.98,2.87,3.60,2.08
7.3260,0.07,0.12,-0.98,2.99,3.85,2.08
7.3420,0.07,0.13,-0.99,2.99,3.78,2.08
7.3570,0.07,0.12,-0.98,2.75,3.60,2.01
7.3730,0.07,0.12,-0.99,2.99,3.78,1.95
7.3880,0.07,0.12,-0.98,3.23,3.72,1.95
7.3930,0.07,0.12,-0.99,2.93,3.97,2.08
7.4090,0.07,0.12,-0.99,2.87,3.85,2.01
7.4310,0.07,0.12,-0.98,3.11,3.85,2.08
7.4470,0.07,0.13,-0.99,3.11,3.72,1.95
7.4630,0.07,0.13,-0.98,3.05,3.72,2.08
7.4800,0.07,0.13,-0.98,2.99,3.78,2.20
7.4970,0.07,0.12,-0.98,3.05,3.66,2.20
7.5130,0.07,0.12,-0.98,3.05,3.60,2.08
7.5300,0.07,0.12,-0.98,3.05,4.03,2.20
7.5470,0.07,0.12,-0.98,3.05,3.78,2.14
7.5630,0.07,0.12,-0.99,3.17,3.78,1.95
7.5790,0.07,0.12,-0.98,2.93,3.54,2.08
7.5950,0.07,0.12,-0.99,2.93,3.36,1.95
7.6100,0.07,0.12,-0.98,3.05,3.54,2.01
7.6250,0.07,0.12,-0.98,3.11,3.60,2.01
7.6410,0.07,0.12,-0.99,2.99,3.42,1.89
7.6570,0.07,0.12,-0.98,3.11,3.60,2.08
7.6720,0.07,0.12,-0.99,2.99,3.85,1.95
7.6870,0.07,0.12,-0.99,3.11,3.54,2.01
7.7020,0.07,0.12,-0.98,3.11,3.36,2.01
7.7130,0.07,0.12,-0.99,3.11,3.72,2.01
7.7300,0.07,0.13,-0.98,3.11,3.54,2.08
7.7460,0.07,0.12,-0.98,3.05,3.97,2.20
7.7640,0.07,0.12,-0.98,3.05,3.54,2.01
7.7800,0.07,0.12,-0.98,2.81,3.72,2.20
7.7970,0.07,0.12,-0.98,2.87,3.78,2.20
7.8120,0.07,0.12,-0.98,2.87,3.66,2.01
7.8290,0.07,0.12,-0.99,2.93,3.66,1.89
7.8450,0.07,0.12,-0.98,3.11,3.78,2.20
7.8600,0.07,0.12,-0.99,3.11,3.66,1.89
7.8740,0.07,0.12,-0.98,3.05,3.66,1.95
7.8900,0.07,0.12,-0.98,2.99,3.66,2.08
7.9060,0.07,0.12,-0.99,2.99,3.78,2.08
7.9130,0.07,0.12,-0.98,2.99,3.48,2.08
7.9380,0.07,0.12,-0.98,2.99,3.54,2.08
7.9490,0.07,0.12,-0.98,2.99,3.54,2.14
7.9660,0.07,0.12,-0.99,2.87,3.72,2.14
7.9820,0.07,0.12,-0.99,2.81,3.60,2.08
7.9980,0.07,0.12,-0.98,2.99,3.66,2.08
8.0140,0.07,0.13,-0.99,3.23,3.85,1.95
8.0310,0.07,0.12,-0.98,3.11,3.42,2.14
8.0480,0.07,0.12,-0.98,2.87,3.54,2.14
8.0630,0.07,0.12,-0.98,3.05,3.66,2.01
8.0660,0.07,0.12,-0.98,3.05,3.48,2.08
8.0820,0.07,0.12,-0.98,2.93,3.78,2.14
8.1040,0.07,0.13,-0.98,3.05,3.66,2.14
8.1250,0.07,0.12,-0.99,2.99,3.30,2.01
8.1370,0.07,0.13,-0.98,3.05,3.48,2.14
8.1550,0.07,0.12,-0.99,2.99,3.72,2.14
8.1700,0.07,0.12,-0.98,2.93,3.78,2.08
8.1870,0.07,0.12,-0.99,3.05,3.72,1.95
8.2040,0.07,0.12,-0.99,2.99,3.78,2.14
8.2190,0.07,0.12,-0.98,3.05,3.36,1.95
8.2360,0.07,0.12,-0.99,3.17,3.42,2.08
8.2520,0.07,0.12,-0.98,3.05,3.48,2.08
8.2690,0.07,0.13,-0.99,2.75,3.60,2.01
8.2700,0.07,0.12,-0.98,3.17,3.54,1.89
8.2860,0.07,0.12,-0.98,2.93,3.66,2.01
8.3100,0.07,0.12,-0.99,2.93,3.54,1.95
8.3280,0.07,0.12,-0.98,2.99,3.48,2.01
8.3430,0.07,0.13,-0.98,3.05,3.42,2.08
8.3610,0.07,0.12,-0.98,2.87,3.78,2.01
8.3760,0.07,0.12,-0.98,2.93,3.48,2.08
8.3920,0.07,0.12,-0.98,3.11,3.60,2.14
8.4070,0.07,0.13,-0.99,2.99,3.60,2.01
8.4170,0.07,0.12,-0.99,2.81,3.66,2.08
8.4330,0.07,0.12,-0.98,2.81,3.66,2.14
8.4500,0.07,0.12,-0.99,2.99,3.60,1.95
8.4660,0.07,0.12,-0.99,3.05,3.78,2.01
8.4830,0.07,0.13,-0.98,2.87,3.66,1.89
8.4990,0.07,0.12,-0.99,3.17,3.60,2.14
8.5160,0.07,0.12,-0.98,2.99,3.72,2.01
8.5330,0.07,0.12,-0.98,2.99,3.78,2.08
8.5470,0.07,0.12,-0.99,2.99,3.66,2.01
8.5620,0.07,0.13,-0.98,2.99,3.72,1.95
8.5770,0.07,0.12,-0.98,2.93,3.60,2.08
8.5920,0.07,0.12,-0.98,2.81,3.54,2.08
8.6080,0.07,0.12,-0.98,3.17,3.54,2.14
8.6220,0.07,0.13,-0.98,3.11,3.60,2.14
8.6330,0.07,0.12,-0.99,2.99,3.66,2.08
8.6520,0.07,0.12,-0.99,2.93,3.60,2.08
8.6660,0.07,0.12,-0.98,3.05,3.60,1.89
8.6830,0.07,0.16,-0.99,2.93,3.66,2.14
8.7000,0.07,0.13,-0.98,2.81,3.42,1.95
8.7160,0.07,0.12,-0.98,2.99,3.66,2.08
8.7320,0.07,0.12,-0.99,2.99,3.72,1.95
8.7470,0.07,0.13,-0.98,2.93,3.54,2.08
8.7490,0.07,0.12,-0.99,3.11,3.72,2.14
8.7650,0.07,0.12,-0.98,3.05,3.60,2.08
8.7940,0.07,0.12,-0.98,2.87,3.54,2.08
8.8040,0.07,0.12,-0.98,2.99,3.72,2.08
8.8260,0.07,0.13,-0.98,2.99,3.72,2.08
8.8360,0.07,0.12,-0.98,2.87,3.48,2.08
8.8520,0.07,0.12,-0.98,3.11,3.72,2.08
8.8730,0.07,0.12,-0.98,2.93,3.91,1.95
8.8880,0.07,0.12,-0.98,2.99,3.60,2.08
8.9050,0.07,0.12,-0.99,2.93,3.36,1.95
8.9210,0.07,0.12,-0.98,3.05,3.42,1.95
8.9380,0.07,0.12,-0.99,2.99,3.60,2.14
8.9530,0.07,0.12,-0.99,2.93,3.85,2.08
8.9680,0.07,0.12,-0.98,3.05,3.78,1.77
8.9760,0.07,0.12,-0.99,2.93,4.03,2.08
8.9930,0.07,0.12,-0.98,2.99,3.54,2.08
9.0100,0.07,0.13,-0.99,3.05,3.42,1.95
9.0260,0.07,0.12,-0.98,2.87,3.54,2.08
9.0430,0.07,0.12,-0.98,3.11,3.48,2.08
9.0590,0.07,0.12,-0.99,2.87,3.78,2.01
9.0740,0.07,0.12,-0.98,3.05,3.36,2.01
9.0910,0.07,0.12,-0.99,2.87,3.85,2.08
9.1060,0.07,0.12,-0.98,2.75,3.66,2.08
9.1210,0.07,0.12,-0.99,2.87,3.60,2.08
9.1380,0.07,0.12,-0.99,2.87,3.54,1.89
9.1540,0.07,0.12,-0.98,2.93,3.72,2.01
9.1700,0.07,0.12,-0.99,3.17,3.72,2.14
9.1860,0.07,0.12,-0.98,3.05,3.66,2.14
9.1920,0.07,0.12,-0.99,2.93,3.78,1.95
9.2080,0.07,0.12,-0.99,3.05,3.42,2.08
9.2310,0.07,0.12,-0.98,2.93,3.60,1.89
9.2470,0.07,0.12,-0.99,2.93,3.48,2.08
9.2620,0.07,0.12,-0.98,3.05,3.85,2.14
9.2790,0.07,0.12,-0.98,2.93,3.54,1.95
9.2950,0.07,0.13,-0.98,2.99,3.66,2.20
9.3110,0.07,0.12,-0.98,3.11,3.42,2.08
9.3270,0.07,0.12,-0.99,2.81,3.42,2.08
9.3420,0.07,0.12,-0.98,2.87,3.54,1.95
9.3570,0.07,0.13,-0.98,2.99,3.42,1.95
9.3730,0.07,0.12,-0.98,3.05,3.78,2.01
9.3800,0.07,0.12,-0.99,2.93,3.60,2.01
9.3960,0.07,0.12,-0.98,2.93,3.60,1.95
9.4180,0.07,0.13,-0.99,2.99,3.48,2.08
9.4350,0.07,0.12,-0.98,2.81,3.78,2.08
9.4520,0.07,0.13,-0.98,2.99,3.36,2.08
9.4530,0.07,0.12,-0.99,2.81,3.66,1.83
9.4840,0.07,0.12,-0.98,3.05,3.78,2.01
9.4850,0.07,0.13,-0.99,2.81,3.54,2.08
9.5030,0.07,0.12,-0.99,2.93,3.78,2.01
9.5270,0.07,0.12,-0.98,2.87,3.78,1.95
9.5340,0.07,0.12,-0.99,2.81,3.60,2.08
9.5520,0.07,0.12,-0.98,3.05,3.54,2.14
9.5680,0.07,0.12,-0.99,2.87,3.48,2.01
9.5840,0.07,0.12,-0.98,2.87,3.48,2.08
9.6050,0.07,0.13,-0.98,2.99,3.85,1.95
9.6220,0.07,0.13,-0.98,3.05,3.78,2.01
9.6380,0.07,0.13,-0.98,2.99,3.60,1.95
9.6550,0.07,0.13,-0.99,2.93,3.60,2.01
9.6720,0.07,0.12,-0.98,2.99,3.36,1.95
9.6890,0.07,0.12,-0.99,2.75,3.54,1.83
9.7050,0.07,0.12,-0.98,2.99,3.42,1.83
9.7230,0.07,0.12,-0.98,2.93,3.48,2.14
9.7390,0.07,0.12,-0.98,3.05,3.66,2.01
9.7390,0.07,0.12,-0.98,3.05,3.60,1.95
9.7700,0.07,0.12,-0.99,2.93,3.48,2.01
9.7860,0.07,0.12,-0.98,2.93,3.72,2.14
9.8030,0.07,0.12,-0.98,2.93,3.60,2.01
9.8050,0.07,0.12,-0.98,2.81,3.66,2.01
9.8280,0.07,0.12,-0.98,2.87,3.78,2.01
9.8440,0.07,0.12,-0.98,3.11,3.42,1.95
9.8600,0.07,0.12,-0.99,2.93,3.66,2.14
9.8760,0.07,0.12,-0.98,2.93,3.48,2.01
9.8940,0.07,0.12,-0.98,2.87,3.91,2.01
9.9100,0.07,0.12,-0.99,3.05,3.66,2.14
9.9240,0.07,0.12,-0.98,2.99,3.54,2.08
9.9290,0.07,0.12,-0.98,2.87,3.72,2.08
9.9470,0.07,0.12,-0.99,3.05,3.66,1.89
9.9630,0.07,0.12,-0.98,3.11,3.23,1.83
9.9860,0.07,0.13,-0.98,2.93,3.60,2.01
9.9950,0.07,0.12,-0.99,3.11,3.54,2.08
10.0120,0.07,0.12,-0.98,2.93,3.60,2.08
10.0300,0.07,0.12,-0.98,2.93,3.72,2.08
10.0450,0.07,0.12,-0.98,2.93,3.66,2.14
10.0610,0.07,0.12,-0.99,2.99,3.72,2.08
10.0760,0.07,0.12,-0.98,2.87,3.42,2.08
10.0800,0.07,0.12,-0.98,2.99,3.54,1.95
10.1070,0.07,0.12,-0.98,2.99,3.48,1.89
10.1210,0.07,0.13,-0.98,3.17,3.78,2.08
10.1380,0.07,0.12,-0.99,2.99,3.66,2.20
10.1530,0.07,0.12,-0.98,3.11,3.60,2.01
10.1630,0.07,0.12,-0.99,2.99,3.42,1.95
10.1800,0.07,0.12,-0.98,3.17,3.78,2.08
10.1960,0.07,0.12,-0.98,3.05,3.72,1.95
10.2130,0.07,0.12,-0.99,2.93,3.48,2.01
10.2300,0.07,0.12,-0.98,3.11,3.42,1.95
10.2470,0.07,0.12,-0.99,3.11,3.66,2.01
10.2620,0.07,0.13,-0.99,3.05,3.36,2.08
10.2770,0.07,0.13,-0.98,2.99,3.48,2.01
10.2920,0.07,0.12,-0.98,2.99,3.66,2.14
10.3070,0.07,0.12,-0.99,2.93,3.60,2.01
10.3230,0.07,0.12,-0.98,2.93,3.60,2.08
10.3380,0.07,0.12,-0.98,2.93,3.60,2.08
10.3460,0.07,0.12,-0.99,3.05,3.66,2.01
10.3610,0.07,0.12,-0.98,2.93,3.72,2.08
10.3830,0.07,0.13,-0.98,2.99,3.78,2.14
10.4010,0.07,0.12,-0.99,2.87,3.78,2.08
10.4170,0.07,0.13,-0.98,3.17,3.48,2.08
10.4330,0.07,0.12,-0.99,2.99,3.85,2.01
10.4500,0.07,0.12,-0.98,2.81,3.72,2.14
10.4660,0.07,0.12,-0.98,3.11,3.72,1.95
10.4830,0.07,0.12,-0.99,3.05,3.60,2.01
10.4980,0.07,0.12,-0.98,3.05,3.42,1.95
10.5150,0.07,0.12,-0.98,2.87,3.85,2.20
10.5320,0.07,0.12,-0.98,2.87,3.66,1.89
10.5470,0.07,0.12,-0.99,2.93,3.72,2.08
10.5500,0.07,0.12,-0.98,3.05,3.85,2.08
10.5660,0.07,0.13,-0.99,2.99,3.60,2.01
10.5880,0.07,0.12,-0.99,2.93,3.60,1.89
10.6050,0.07,0.12,-0.98,2.99,3.54,2.08
10.6220,0.07,0.12,-0.98,2.87,3.54,1.95
10.6390,0.07,0.12,-0.98,2.99,3.54,2.01
10.6400,0.07,0.12,-0.99,2.93,3.66,2.14
10.6710,0.07,0.12,-0.98,3.11,3.42,2.08
10.6870,0.07,0.12,-0.98,3.11,3.66,2.14
10.6880,0.07,0.12,-0.99,3.05,3.72,1.95
10.7060,0.07,0.12,-0.98,3.17,3.78,2.01
10.7290,0.07,0.13,-0.99,2.87,3.42,2.01
10.7510,0.07,0.12,-0.98,2.99,3.54,2.01
10.7660,0.07,0.12,-0.98,2.87,3.72,2.14
10.7820,0.07,0.12,-0.99,2.81,3.54,1.95
10.7880,0.07,0.12,-0.98,2.93,3.85,2.08
10.8030,0.07,0.12,-0.99,2.93,3.54,2.01
10.8240,0.07,0.12,-0.98,2.93,3.66,2.01
10.8410,0.07,0.12,-0.98,2.81,3.66,1.89
10.8580,0.07,0.12,-0.98,2.99,3.36,2.01
10.8740,0.07,0.12,-0.98,3.05,3.30,2.08
10.8900,0.07,0.12,-0.98,2.93,3.60,2.08
10.9070,0.07,0.12,-0.98,3.17,3.78,2.14
10.9230,0.07,0.12,-0.98,2.99,3.60,1.89
10.9380,0.07,0.13,-0.98,2.99,3.60,1.83
10.9540,0.07,0.12,-0.99,2.87,3.48,1.89
10.9710,0.07,0.13,-0.98,2.93,3.42,1.89
10.9870,0.07,0.12,-0.98,2.93,3.72,2.01
11.0030,0.07,0.12,-0.99,2.81,3.66,2.14
11.0080,0.07,0.12,-0.98,2.93,4.03,2.14
11.0350,0.07,0.13,-0.99,2.99,3.48,1.95
11.0410,0.07,0.12,-0.98,2.93,3.42,2.08
11.0570,0.07,0.12,-0.99,2.93,3.48,1.95
11.0760,0.07,0.12,-0.98,2.99,3.91,1.83
11.0930,0.07,0.12,-0.98,2.93,3.54,2.01
11.1100,0.07,0.13,-0.99,2.99,3.60,1.89
11.1260,0.07,0.12,-0.98,2.93,3.72,2.01
11.1430,0.07,0.12,-0.98,3.11,3.54,2.08
11.1600,0.07,0.12,-0.98,2.93,3.66,2.14
11.1770,0.07,0.12,-0.99,2.81,3.78,2.14
11.1920,0.07,0.12,-0.98,2.87,3.78,2.01
11.2070,0.07,0.12,-0.98,2.93,3.85,2.20
11.2230,0.07,0.12,-0.99,2.87,3.54,1.95
11.2300,0.07,0.12,-0.98,2.93,3.48,1.95
11.2420,0.07,0.13,-0.99,2.93,3.78,2.01
11.2700,0.07,0.12,-0.99,2.87,3.48,2.14
11.2860,0.07,0.13,-0.98,2.93,3.85,2.08
11.2960,0.07,0.12,-0.99,3.11,3.85,2.14
11.3130,0.07,0.12,-0.99,3.17,3.54,2.14
11.3300,0.07,0.12,-0.99,2.87,3.78,2.01
11.3470,0.07,0.13,-0.98,2.99,3.66,1.89
11.3630,0.07,0.12,-0.99,3.05,3.72,2.08
11.3800,0.07,0.12,-0.98,2.99,3.66,2.08
11.3960,0.07,0.12,-0.98,2.99,3.48,2.01
11.4120,0.07,0.12,-0.99,2.87,3.66,1.89
11.4280,0.07,0.12,-0.98,3.05,3.54,2.01
11.4430,0.07,0.12,-0.98,2.99,3.72,2.01
11.4580,0.07,0.12,-0.98,3.05,3.72,2.01
11.4750,0.07,0.12,-0.98,3.05,3.60,1.89
11.4910,0.07,0.12,-0.99,2.87,3.48,2.08
11.5060,0.07,0.12,-0.98,2.99,3.78,2.08
11.5220,0.07,0.12,-0.99,2.93,3.72,2.08
11.5380,0.07,0.13,-0.98,3.23,3.42,2.01
11.5540,0.07,0.12,-0.99,3.05,3.36,2.01
11.5640,0.07,0.12,-0.99,3.11,3.66,1.95
11.5800,0.07,0.12,-0.98,3.17,3.78,1.89
11.5980,0.07,0.12,-0.98,2.69,3.72,1.95
11.6130,0.07,0.12,-0.98,2.81,3.97,2.08
11.6300,0.07,0.12,-0.99,2.87,3.66,2.01
11.6460,0.07,0.12,-0.98,2.93,3.78,2.01
11.6620,0.07,0.12,-0.99,2.93,3.78,2.08
11.6780,0.07,0.12,-0.99,2.93,3.60,2.08
11.6930,0.07,0.13,-0.99,2.81,3.66,1.95
11.6970,0.07,0.12,-0.99,2.93,3.78,2.14
11.7130,0.07,0.12,-0.98,2.87,3.78,1.95
11.7360,0.07,0.12,-0.99,3.17,3.60,2.01
11.7530,0.07,0.12,-0.98,3.05,3.60,2.01
11.7690,0.07,0.12,-0.98,2.99,4.03,1.89
11.7850,0.07,0.12,-0.99,2.81,3.54,2.08
11.8020,0.07,0.12,-0.98,2.93,3.85,2.01
11.8200,0.07,0.12,-0.99,3.11,3.72,2.01
11.8350,0.07,0.12,-0.98,3.11,3.60,1.83
11.8510,0.07,0.13,-0.99,2.93,3.72,2.08
11.8660,0.07,0.12,-0.98,2.99,3.91,2.01
11.8690,0.07,0.12,-0.98,2.87,3.72,2.01
11.8840,0.07,0.12,-0.98,2.93,3.60,2.01
11.9070,0.07,0.12,-0.98,2.87,3.42,1.95
11.9240,0.07,0.12,-0.98,2.69,3.85,1.89
11.9390,0.07,0.12,-0.98,2.87,3.85,2.08
11.9600,0.07,0.12,-0.99,2.87,3.85,2.08
11.9760,0.07,0.12,-0.98,2.99,3.66,2.01
11.9920,0.06,0.13,-0.98,2.81,3.36,2.14
12.0080,0.08,0.12,-0.99,2.56,2.93,7.26
12.0250,0.09,0.10,-0.98,2.75,3.36,3.97
12.0400,0.06,0.13,-0.98,2.81,3.85,2.93
12.0550,0.07,0.13,-0.99,2.62,3.11,4.33
12.0610,0.02,0.16,-0.99,2.93,3.54,4.33
12.0850,0.10,0.11,-0.98,2.69,2.93,6.96
12.1010,0.08,0.11,-0.98,2.75,3.36,4.21
12.1100,0.08,0.12,-0.98,2.99,3.30,2.93
12.1270,0.08,0.12,-0.98,2.81,3.36,2.93
12.1440,0.07,0.12,-0.99,2.81,3.48,2.99
12.1600,0.08,0.12,-0.98,2.93,3.36,2.93
12.1760,0.07,0.12,-0.99,2.99,3.42,2.87
12.1920,0.07,0.12,-0.99,2.75,3.42,3.17
12.2080,0.08,0.12,-0.98,2.87,3.48,2.81
12.2230,0.07,0.12,-0.98,3.11,3.42,2.20
12.2390,0.07,0.12,-0.99,2.99,3.60,2.26
12.2450,0.07,0.12,-0.98,2.93,3.54,2.26
12.2710,0.07,0.12,-0.99,2.93,3.60,2.01
12.2870,0.07,0.12,-0.98,2.87,3.72,2.08
12.3020,0.07,0.12,-0.99,3.11,3.85,1.89
12.3170,0.07,0.12,-0.99,2.99,3.72,1.77
12.3330,0.07,0.13,-0.98,2.93,3.72,1.77
12.3430,0.07,0.14,-0.98,3.17,3.60,1.22
12.3600,0.07,0.12,-0.98,3.23,3.91,0.18
12.3770,0.07,0.13,-0.99,3.17,3.85,0.37
12.3930,0.07,0.12,-0.98,3.05,3.85,0.24
12.4090,0.07,0.12,-0.99,3.23,3.72,0.00
12.4240,0.07,0.12,-0.98,3.17,3.72,0.37
12.4410,0.07,0.12,-0.98,3.05,3.78,0.49
12.4560,0.07,0.13,-0.98,2.99,3.72,0.37
12.4720,0.07,0.12,-0.98,3.11,3.97,0.61
12.4880,0.07,0.12,-0.99,2.99,3.72,0.85
12.4940,0.07,0.12,-0.98,3.05,3.78,1.16
12.5100,0.07,0.12,-0.98,3.11,3.66,1.28
12.5320,0.07,0.12,-0.99,3.11,3.54,1.10
12.5470,0.07,0.12,-0.98,2.99,3.48,1.28
12.5640,0.07,0.13,-0.99,2.87,3.85,1.46
12.5810,0.07,0.13,-0.98,2.75,3.54,2.56
12.5970,0.07,0.12,-0.99,2.99,3.48,2.87
12.6140,0.07,0.13,-0.98,3.17,3.60,1.83
12.6290,0.07,0.12,-0.98,3.11,3.78,1.46
12.6450,0.07,0.12,-0.98,3.05,3.85,1.22
12.6480,0.07,0.12,-0.98,2.93,3.60,1.34
12.6760,0.07,0.13,-0.98,3.30,3.54,1.46
12.6850,0.07,0.13,-0.98,2.99,3.54,1.46
12.7010,0.07,0.12,-0.99,3.30,3.54,1.34
12.7220,0.07,0.12,-0.99,3.11,3.78,1.53
12.7400,0.07,0.12,-0.98,3.11,3.72,1.59
12.7540,0.07,0.12,-0.98,3.11,3.91,1.53
12.7720,0.07,0.12,-0.98,3.05,3.66,1.40
12.7890,0.07,0.12,-0.99,2.99,3.97,1.34
12.8050,0.07,0.12,-0.98,3.05,3.72,1.40
12.8220,0.07,0.12,-0.98,2.93,3.78,1.71
12.8380,0.07,0.12,-0.98,2.99,3.78,1.89
12.8390,0.07,0.12,-0.98,3.17,4.03,2.01
12.8700,0.07,0.12,-0.99,2.99,3.91,1.95
12.8860,0.08,0.13,-0.98,3.05,3.60,1.83
12.9030,0.07,0.12,-0.99,3.11,3.85,1.46
12.9180,0.07,0.12,-0.98,3.11,3.72,1.59
12.9330,0.07,0.13,-0.98,3.05,3.72,1.46
12.9370,0.07,0.12,-0.98,3.05,3.66,1.22
12.9640,0.07,0.12,-0.98,3.05,3.85,1.40
12.9750,0.07,0.13,-0.98,3.17,3.85,1.16
12.9920,0.07,0.12,-0.98,3.17,4.03,1.10
13.0100,0.07,0.13,-0.99,2.81,3.85,1.28
13.0260,0.07,0.13,-0.98,2.99,3.60,1.22
13.0410,0.07,0.13,-0.98,3.17,3.66,1.16
13.0580,0.07,0.12,-0.99,3.23,3.85,1.40
13.0740,0.07,0.12,-0.98,2.99,3.85,1.65
13.0900,0.07,0.13,-0.98,3.17,3.48,1.40
13.1060,0.07,0.13,-0.98,2.99,3.85,1.28
13.1200,0.07,0.12,-0.98,2.99,3.72,1.16
13.1360,0.07,0.12,-0.99,3.05,3.78,1.34
13.1520,0.07,0.12,-0.98,2.87,3.60,1.40
13.1590,0.07,0.12,-0.99,3.05,3.97,1.71
13.1750,0.07,0.12,-0.98,2.99,3.72,1.89
13.1970,0.07,0.12,-0.98,2.93,3.72,1.71
13.2140,0.07,0.13,-0.98,3.17,3.42,1.83
13.2300,0.07,0.12,-0.99,2.75,3.72,2.01
13.2460,0.07,0.13,-0.98,2.87,3.54,2.20
13.2620,0.07,0.12,-0.98,3.05,3.60,2.38
13.2790,0.07,0.12,-0.99,3.05,3.42,2.20
13.2950,0.07,0.12,-0.98,2.99,3.54,2.20
13.3120,0.07,0.12,-0.99,3.11,3.66,2.14
13.3270,0.07,0.13,-0.98,2.99,3.78,2.14
13.3420,0.07,0.13,-0.98,2.93,3.85,2.20
13.3580,0.07,0.13,-0.98,2.99,3.78,2.26
13.3750,0.07,0.13,-0.98,3.11,3.66,2.69
13.3900,0.07,0.12,-0.99,2.69,3.66,2.69
13.4070,0.07,0.12,-0.98,3.05,3.72,2.38
13.4210,0.07,0.12,-0.99,3.05,3.60,2.01
13.4370,0.07,0.12,-0.98,3.05,3.85,1.71
13.4470,0.07,0.13,-0.98,3.05,3.78,1.65
13.4640,0.07,0.12,-0.99,2.87,3.66,1.65
13.4800,0.07,0.13,-0.98,2.87,3.54,1.65
13.4970,0.07,0.12,-0.99,3.05,3.60,1.71
13.5140,0.07,0.12,-0.98,2.99,3.66,1.95
13.5300,0.07,0.12,-0.99,2.99,3.60,2.01
13.5460,0.07,0.12,-0.98,3.05,3.72,2.08
13.5630,0.07,0.13,-0.98,2.99,3.91,2.01
13.5790,0.07,0.13,-0.98,2.93,3.72,1.95
13.5940,0.07,0.12,-0.98,2.87,3.72,2.44
13.5970,0.07,0.13,-0.98,2.99,3.66,2.01
13.6120,0.07,0.12,-0.98,3.05,3.78,1.95
13.6420,0.07,0.12,-0.99,2.99,3.72,2.14
13.6510,0.07,0.13,-0.98,2.87,3.48,2.44
13.6670,0.07,0.12,-0.99,2.81,3.54,2.50
13.6860,0.07,0.12,-0.99,2.87,3.30,2.20
13.7040,0.07,0.13,-0.98,2.81,3.66,2.14
13.7210,0.07,0.13,-0.99,2.87,3.48,2.44
13.7360,0.07,0.13,-0.98,2.93,3.60,2.81
13.7520,0.07,0.13,-0.99,2.99,3.42,3.17
13.7540,0.07,0.12,-0.99,2.99,3.17,3.85
13.7710,0.07,0.12,-0.98,2.81,3.23,3.05
13.8000,0.07,0.12,-0.99,2.93,3.72,1.89
13.8160,0.07,0.13,-0.98,3.05,3.30,2.26
13.8320,0.07,0.12,-0.98,3.05,3.17,2.44
13.8470,0.07,0.12,-0.98,2.87,3.72,2.44
13.8540,0.07,0.13,-0.98,2.99,3.60,2.56
13.8690,0.07,0.12,-0.99,2.99,3.54,2.50
13.8960,0.07,0.12,-0.98,2.93,3.36,3.05
13.9120,0.07,0.12,-0.99,2.75,3.66,2.75
13.9270,0.07,0.12,-0.98,2.93,3.48,2.44
13.9360,0.07,0.12,-0.99,3.05,3.66,2.20
13.9520,0.07,0.12,-0.98,2.93,3.60,1.95
13.9740,0.07,0.12,-0.98,2.99,3.78,1.89
13.9910,0.07,0.12,-0.99,2.87,3.54,1.83
14.0060,0.07,0.13,-0.98,3.11,3.85,1.77
14.0100,0.07,0.13,-0.99,2.99,4.21,1.77
14.0380,0.07,0.12,-0.98,3.11,3.54,1.83
14.0540,0.07,0.12,-0.99,3.05,3.66,1.71
14.0700,0.07,0.12,-0.98,2.93,3.54,1.89
14.0860,0.07,0.12,-0.98,3.05,3.54,1.95
14.1030,0.07,0.12,-0.99,3.36,3.60,1.89
14.1200,0.07,0.12,-0.98,2.87,3.97,1.89
14.1350,0.07,0.12,-0.99,3.05,3.72,1.83
14.1510,0.07,0.12,-0.98,2.75,3.54,1.89
14.1580,0.07,0.12,-0.98,3.05,3.66,1.95
14.1800,0.07,0.12,-0.98,2.69,3.72,1.95
14.1930,0.07,0.12,-0.98,3.11,3.78,1.89
14.2090,0.07,0.12,-0.98,2.93,3.54,1.95
14.2260,0.07,0.12,-0.98,2.99,3.48,2.01
14.2420,0.07,0.12,-0.99,2.93,3.72,1.89
14.2580,0.07,0.12,-0.98,2.99,3.72,2.01
14.2730,0.07,0.12,-0.99,2.87,3.54,1.95
14.2890,0.07,0.12,-0.98,2.81,3.66,2.14
14.3040,0.07,0.13,-0.98,2.81,3.60,2.14
14.3200,0.09,0.21,-0.97,3.17,3.66,1.53
14.3370,0.05,0.12,-0.99,3.36,3.42,2.14
14.3430,0.07,0.11,-0.98,2.50,3.23,4.58
14.3600,0.07,0.12,-0.99,2.81,2.87,5.37
14.3820,0.07,0.08,-0.99,2.50,3.36,3.54
14.3930,0.07,0.12,-0.98,3.11,3.72,2.01
14.4090,0.07,0.12,-0.98,2.87,3.91,1.77
14.4250,0.07,0.12,-0.99,2.87,3.66,1.89
14.4420,0.07,0.12,-0.98,2.87,3.48,1.95
14.4590,0.07,0.12,-0.99,2.81,3.78,1.83
14.4740,0.07,0.12,-0.98,3.05,3.42,1.89
14.4910,0.07,0.12,-0.98,2.75,3.60,1.83
14.5070,0.07,0.12,-0.99,2.93,3.66,2.01
14.5220,0.07,0.12,-0.98,2.99,3.54,2.14
14.5370,0.07,0.12,-0.99,2.99,3.42,1.95
14.5540,0.07,0.12,-0.99,2.75,3.78,1.89
14.5700,0.08,0.14,-0.98,2.87,3.66,1.83
14.5860,0.07,0.12,-0.99,2.93,3.60,2.44
14.5920,0.07,0.12,-0.98,2.99,3.42,2.44
14.6080,0.07,0.12,-0.99,2.99,3.48,2.08
14.6310,0.07,0.12,-0.99,2.93,3.66,2.38
14.6470,0.07,0.12,-0.99,3.05,3.78,2.20
14.6630,0.07,0.12,-0.98,3.11,3.78,2.26
14.6810,0.07,0.13,-0.98,2.75,3.54,2.44
14.6970,0.07,0.13,-0.99,2.69,3.48,4.09
14.7120,0.07,0.12,-0.98,2.87,3.23,4.03
14.7280,0.07,0.12,-0.99,2.87,3.42,3.30
14.7430,0.07,0.12,-0.98,2.93,3.36,3.60
14.7580,0.07,0.13,-0.98,2.87,3.42,3.66
14.7740,0.07,0.12,-0.99,2.69,3.54,3.66
14.7800,0.07,0.12,-0.98,2.81,3.54,3.60
14.8050,0.07,0.12,-0.99,2.93,3.36,3.48
14.8200,0.07,0.12,-0.98,2.93,3.30,3.48
14.8350,0.07,0.11,-0.99,2.81,3.54,2.93
14.8460,0.07,0.12,-0.99,3.05,3.78,1.95
14.8630,0.07,0.12,-0.98,2.99,3.54,1.89
14.8810,0.07,0.13,-0.98,3.11,3.78,2.01
14.8970,0.08,0.18,-0.97,2.99,3.54,1.65
14.9110,0.07,0.10,-0.99,3.42,3.54,2.20
14.9270,0.07,0.13,-0.98,2.50,3.11,4.21
14.9350,0.07,0.12,-0.99,2.56,3.23,4.15
14.9570,0.07,0.11,-0.98,2.93,3.30,3.60
14.9720,0.07,0.12,-0.98,2.99,3.48,2.93
14.9880,0.07,0.13,-0.99,3.05,3.66,2.87
14.9970,0.07,0.13,-0.98,2.81,3.23,2.87
15.0140,0.07,0.13,-0.98,2.62,3.30,3.48
15.0310,0.07,0.11,-0.99,2.56,3.66,4.03
15.0470,0.07,0.11,-0.98,2.87,3.60,2.99
15.0620,0.07,0.12,-0.98,2.75,3.42,2.26
15.0780,0.07,0.12,-0.99,3.05,3.54,2.38
15.0920,0.07,0.13,-0.98,2.87,3.30,2.56
15.1080,0.07,0.13,-0.99,2.87,3.48,3.30
15.1230,0.07,0.13,-0.98,2.81,3.11,4.70
15.1360,0.07,0.11,-0.99,2.69,3.30,4.46
15.1540,0.07,0.11,-0.98,2.62,3.36,3.78
15.1630,0.08,0.11,-0.98,2.75,3.42,2.93
15.1800,0.07,0.12,-0.99,3.17,3.78,1.71
15.1970,0.07,0.14,-0.98,3.05,3.85,2.26
15.2130,0.07,0.14,-0.98,2.81,3.42,4.27
15.2300,0.07,0.14,-0.98,2.81,2.75,7.32
15.2470,0.07,0.12,-0.99,2.50,2.93,7.63
15.2630,0.08,0.10,-0.99,2.62,3.17,5.31
15.2790,0.08,0.10,-0.99,2.87,3.30,4.21
15.2950,0.07,0.11,-0.99,3.11,3.78,1.59
15.2970,0.07,0.12,-0.98,3.11,3.54,1.89
15.3120,0.07,0.13,-0.98,2.99,3.78,1.77
15.3420,0.07,0.13,-0.98,3.05,3.78,1.89
15.3500,0.07,0.12,-0.98,2.99,3.85,1.89
15.3670,0.07,0.12,-0.99,2.81,3.54,1.65
15.3830,0.07,0.12,-0.98,2.99,3.78,1.46
15.4040,0.08,0.13,-0.99,3.11,3.72,1.77
15.4210,0.08,0.13,-0.98,3.11,3.66,1.89
15.4370,0.07,0.13,-0.99,2.93,3.54,2.32
15.4530,0.07,0.12,-0.99,2.99,3.85,1.71
15.4690,0.07,0.12,-0.98,2.99,3.78,2.01
15.4840,0.07,0.12,-0.98,2.93,3.72,1.89
15.5000,0.07,0.12,-0.98,3.11,3.72,2.14
15.5150,0.07,0.13,-0.99,2.87,3.72,2.14
15.5300,0.07,0.12,-0.98,3.05,3.66,1.95
15.5380,0.07,0.12,-0.99,2.93,3.66,2.08
15.5600,0.07,0.12,-0.98,2.93,3.72,2.26
15.5710,0.07,0.13,-0.98,2.93,3.66,2.20
15.5870,0.07,0.13,-0.99,3.11,3.54,2.87
15.6050,0.08,0.13,-0.98,2.99,3.54,2.81
15.6210,0.07,0.13,-0.98,2.87,3.66,2.81
15.6380,0.07,0.13,-0.98,2.75,3.30,4.33
15.6550,0.07,0.12,-0.98,2.75,3.36,4.82
15.6700,0.07,0.12,-0.98,2.75,3.42,3.97
15.6850,0.07,0.11,-0.99,2.87,3.23,4.64
15.7010,0.07,0.11,-0.98,2.93,3.54,3.17
15.7170,0.07,0.12,-0.98,2.99,3.78,2.81
15.7210,0.07,0.12,-0.99,2.87,3.36,3.17
15.7380,0.07,0.13,-0.98,2.99,3.42,3.42
15.7550,0.07,0.13,-0.98,2.75,3.30,3.85
15.7710,0.07,0.11,-0.99,2.87,3.72,3.66
15.7900,0.07,0.12,-0.98,2.75,3.72,2.93
15.8070,0.07,0.11,-0.99,2.81,3.42,3.30
15.8240,0.07,0.12,-0.99,2.93,3.54,3.66
15.8400,0.07,0.12,-0.98,2.99,3.60,3.05
15.8410,0.07,0.14,-0.98,2.81,3.85,4.03
15.8710,0.07,0.14,-0.98,2.75,3.30,5.74
15.8860,0.07,0.13,-0.98,2.75,3.05,6.10
15.9020,0.07,0.13,-0.98,2.75,2.99,6.59
15.9180,0.07,0.12,-0.98,2.75,3.17,6.35
15.9240,0.07,0.11,-0.98,2.69,3.17,6.47
15.9400,0.07,0.12,-0.98,2.93,3.05,6.16
15.9560,0.08,0.11,-0.99,2.69,3.42,4.94
15.9770,0.07,0.12,-0.98,2.87,3.54,3.42
15.9920,0.07,0.12,-0.99,3.05,3.85,3.66
16.0100,0.07,0.13,-0.98,2.93,3.42,4.09
16.0260,0.07,0.12,-0.98,2.81,3.30,4.15
16.0370,0.07,0.12,-0.99,2.81,3.60,3.72
16.0580,0.08,0.11,-0.98,2.81,3.30,3.85
16.0740,0.07,0.12,-0.99,2.99,3.42,2.56
16.0890,0.07,0.12,-0.98,3.17,3.66,2.08
16.1040,0.07,0.12,-0.98,2.93,3.60,2.26
16.1200,0.07,0.13,-0.99,2.99,3.48,2.26
16.1370,0.07,0.12,-0.98,2.93,3.72,2.08
16.1530,0.07,0.12,-0.98,2.93,3.78,2.26
16.1680,0.07,0.12,-0.98,2.87,3.23,3.42
16.1750,0.07,0.12,-0.98,2.75,3.54,2.75
16.1990,0.07,0.13,-0.98,2.99,3.36,2.56
16.2090,0.07,0.16,-0.98,2.87,3.60,3.05
16.2260,0.07,0.12,-0.99,2.87,3.54,2.93
16.2420,0.07,0.12,-0.98,2.93,3.42,2.44
16.2590,0.07,0.12,-0.99,2.93,3.60,2.08
16.2740,0.08,0.13,-0.98,3.05,3.85,1.95
16.2910,0.08,0.13,-0.98,3.05,3.85,2.32
16.3070,0.07,0.13,-0.98,2.87,3.54,2.50
16.3230,0.08,0.13,-0.98,2.87,3.48,3.05
16.3390,0.07,0.11,-0.99,2.69,3.72,2.87
16.3540,0.07,0.11,-0.99,2.99,3.54,1.71
16.3700,0.07,0.13,-0.98,2.93,3.85,1.40
16.3860,0.08,0.13,-0.98,3.36,3.91,1.22
16.4010,0.08,0.13,-0.98,3.30,3.78,1.10
16.4150,0.07,0.11,-0.98,3.05,3.54,1.46
16.4260,0.06,0.13,-0.99,3.42,3.48,2.32
16.4420,0.06,0.12,-0.99,2.69,3.48,1.95
16.4580,0.07,0.12,-0.98,2.99,3.78,1.95
16.4760,0.07,0.12,-0.98,2.93,3.72,2.01
16.4920,0.07,0.12,-0.98,2.81,4.03,2.08
16.5070,0.07,0.12,-0.98,2.99,3.72,1.83
16.5240,0.07,0.12,-0.98,2.81,3.54,1.83
16.5400,0.08,0.13,-0.98,2.87,3.78,2.08
16.5540,0.07,0.13,-0.98,2.93,3.66,2.38
16.5690,0.07,0.12,-0.98,3.11,3.17,2.26
16.5850,0.07,0.12,-0.98,3.05,3.72,2.01
16.5920,0.07,0.12,-0.99,2.99,3.85,1.83
16.6090,0.08,0.13,-0.98,2.93,3.42,1.89
16.6240,0.07,0.12,-0.98,3.11,3.36,1.77
16.6450,0.07,0.12,-0.99,3.05,3.60,1.89
16.6620,0.07,0.12,-0.98,3.11,3.36,1.83
16.6770,0.07,0.12,-0.99,2.93,3.78,1.83
16.6940,0.07,0.12,-0.98,2.99,3.66,1.89
16.7100,0.07,0.13,-0.98,2.93,3.60,2.01
16.7250,0.07,0.13,-0.98,3.05,3.66,2.32
16.7410,0.07,0.13,-0.98,2.93,3.36,3.11
16.7570,0.07,0.14,-0.98,2.99,3.36,3.23
16.7620,0.07,0.12,-0.99,3.05,3.23,4.09
16.7800,0.07,0.11,-0.99,2.87,3.48,3.54
16.8050,0.08,0.12,-0.98,2.69,3.48,2.81
16.8200,0.07,0.14,-0.99,2.99,3.60,2.38
16.8290,0.07,0.13,-0.98,3.17,3.42,3.91
16.8460,0.07,0.12,-0.98,2.81,3.17,4.64
16.8630,0.08,0.11,-0.99,2.87,3.42,4.15
16.8790,0.08,0.12,-0.98,3.05,3.85,2.32
16.8960,0.07,0.12,-0.99,3.17,3.60,2.08
16.9130,0.07,0.12,-0.98,2.99,3.78,1.89
16.9280,0.07,0.12,-0.98,2.75,3.78,2.01
16.9430,0.07,0.12,-0.99,2.99,4.09,1.77
16.9580,0.07,0.12,-0.98,3.05,3.72,2.08
16.9730,0.07,0.12,-0.98,2.75,3.60,2.01
16.9800,0.07,0.12,-0.98,2.87,3.60,1.89
16.9960,0.07,0.12,-0.99,2.93,3.48,1.95
17.0130,0.07,0.12,-0.98,2.99,3.72,1.71
17.0300,0.07,0.13,-0.98,2.81,3.85,1.89
17.0460,0.07,0.13,-0.99,3.11,3.36,3.66
17.0630,0.07,0.12,-0.98,2.81,3.48,3.36
17.0790,0.07,0.13,-0.99,2.93,3.11,2.93
17.0940,0.08,0.12,-0.98,2.75,3.60,3.66
17.1090,0.07,0.12,-0.98,2.87,3.66,2.93
17.1240,0.08,0.13,-0.99,2.81,3.36,2.69
17.1410,0.07,0.13,-0.98,2.99,3.23,3.72
17.1460,0.07,0.12,-0.99,2.81,3.17,4.76
17.1720,0.07,0.11,-0.99,2.69,3.66,3.23
17.1790,0.07,0.12,-0.98,2.87,3.60,2.14
17.1960,0.07,0.13,-0.98,3.17,3.54,2.44
17.2180,0.07,0.12,-0.98,2.93,3.48,2.75
17.2290,0.07,0.12,-0.99,2.87,3.48,2.32
17.2460,0.07,0.12,-0.98,2.75,3.48,2.62
17.2620,0.07,0.12,-0.99,2.75,3.66,2.14
17.2800,0.07,0.12,-0.98,2.93,3.60,1.95
17.2960,0.07,0.12,-0.98,2.99,3.72,1.89
17.3110,0.07,0.12,-0.99,3.05,3.66,1.77
17.3270,0.07,0.12,-0.98,3.05,3.60,1.83
17.3390,0.07,0.12,-0.99,2.81,3.78,2.01
17.3460,0.07,0.12,-0.98,2.87,3.66,1.89
17.3700,0.07,0.13,-0.99,2.93,3.60,2.32
17.3850,0.07,0.12,-0.99,3.05,3.48,2.56
17.4030,0.07,0.13,-0.98,2.87,3.66,2.81
17.4210,0.07,0.12,-0.99,2.87,3.42,3.23
17.4370,0.07,0.12,-0.98,2.75,3.78,2.50
17.4530,0.07,0.12,-0.99,2.87,3.54,2.14
17.4700,0.07,0.12,-0.98,3.05,3.54,2.01
17.4850,0.07,0.13,-0.98,2.87,3.42,1.89
17.5000,0.08,0.14,-0.98,3.05,3.05,2.87
17.5030,0.07,0.13,-0.98,3.05,3.30,3.23
17.5300,0.07,0.13,-0.98,2.87,3.48,3.85
17.5390,0.07,0.11,-0.98,3.05,3.36,2.87
17.5600,0.07,0.12,-0.99,2.93,3.42,2.69
17.5690,0.07,0.12,-0.99,2.93,3.36,3.11
17.5860,0.07,0.12,-0.98,2.81,3.72,3.11
17.6040,0.07,0.12,-0.98,2.87,3.48,3.42
17.6190,0.07,0.11,-0.99,2.81,3.30,2.26
17.6360,0.07,0.12,-0.99,2.50,3.54,1.59
17.6510,0.07,0.12,-0.99,2.75,3.78,1.71
17.6540,0.07,0.13,-0.98,2.99,3.91,1.77
17.6830,0.07,0.14,-0.98,3.05,3.48,2.08
17.6870,0.07,0.12,-0.98,2.81,3.30,3.42
17.7020,0.07,0.13,-0.98,2.69,3.23,3.42
17.7180,0.07,0.12,-0.99,2.93,3.42,3.36
17.7410,0.07,0.11,-0.98,2.87,3.36,2.20
17.7590,0.07,0.13,-0.98,3.05,3.72,2.01
17.7740,0.07,0.13,-0.98,2.93,3.72,3.05
17.7910,0.07,0.13,-0.98,2.93,3.17,3.85
17.8060,0.07,0.12,-0.98,2.75,3.36,4.46
17.8220,0.07,0.11,-0.99,2.75,3.60,3.54
17.8240,0.07,0.12,-0.98,2.93,3.60,2.56
17.8540,0.07,0.12,-0.98,2.87,3.48,2.62
17.8690,0.07,0.12,-0.99,2.93,3.48,2.75
17.8860,0.07,0.13,-0.98,3.05,3.42,2.99
17.9020,0.07,0.14,-0.98,2.99,3.30,3.17
17.9180,0.08,0.14,-0.98,2.81,3.17,4.39
17.9320,0.07,0.13,-0.98,2.81,3.05,5.00
17.9480,0.07,0.11,-0.99,2.69,3.17,4.76
17.9630,0.07,0.11,-0.99,2.69,3.11,4.21
17.9740,0.07,0.09,-0.99,2.56,3.48,3.42
17.9900,0.07,0.12,-0.98,3.05,3.60,2.01
18.0080,0.07,0.13,-0.99,3.05,3.54,1.89
18.0240,0.07,0.13,-0.98,2.99,3.48,1.65
18.0400,0.07,0.12,-0.99,2.93,3.54,1.59
18.0570,0.07,0.12,-0.99,2.93,3.66,2.01
18.0720,0.07,0.12,-0.98,2.93,3.60,1.89
18.0880,0.07,0.12,-0.99,2.87,3.72,1.65
18.1040,0.07,0.13,-0.98,3.05,3.85,1.71
18.1200,0.07,0.13,-0.98,3.11,3.85,2.08
18.1370,0.07,0.11,-0.99,2.81,3.72,2.50
18.1540,0.07,0.12,-0.98,2.81,3.60,1.89
18.1690,0.07,0.12,-0.99,3.11,3.48,2.08
18.1840,0.07,0.12,-0.98,3.05,3.36,1.95
18.2010,0.08,0.15,-0.98,2.93,3.60,1.95
18.2170,0.07,0.13,-0.98,2.99,3.60,3.48
18.2250,0.08,0.14,-0.98,2.62,3.60,3.66
18.2410,0.07,0.14,-0.98,2.93,3.36,3.91
18.2570,0.06,0.13,-0.98,2.93,3.30,3.30
18.2740,0.07,0.11,-0.99,2.75,3.17,4.94
18.2910,0.08,0.10,-0.98,2.75,3.36,3.48
18.3070,0.07,0.12,-0.99,2.99,3.54,3.36
18.3240,0.08,0.12,-0.99,3.05,2.99,3.78
18.3250,0.07,0.15,-0.98,3.36,3.42,3.36
18.3560,0.06,0.11,-0.99,3.05,3.23,5.13
18.3710,0.07,0.12,-0.99,1.46,2.93,5.13
18.3870,0.08,0.10,-0.99,2.81,3.60,3.05
18.4030,0.07,0.12,-0.98,2.99,3.78,1.89
18.4180,0.07,0.12,-0.98,2.93,3.78,2.38
18.4340,0.07,0.13,-0.99,2.87,3.66,2.26
18.4500,0.07,0.12,-0.98,2.75,3.54,2.01
18.4660,0.08,0.15,-0.98,2.87,3.48,3.48
18.4750,0.07,0.13,-0.98,3.05,3.05,4.33
18.4920,0.07,0.14,-0.98,2.75,2.93,4.27
18.5080,0.07,0.11,-0.99,2.62,2.75,5.74
18.5240,0.07,0.11,-0.98,2.81,3.23,4.27
18.5410,0.07,0.11,-0.98,2.62,3.05,4.33
18.5570,0.07,0.11,-0.98,2.75,2.93,4.33
18.5730,0.07,0.11,-0.98,2.75,3.66,3.48
18.5890,0.07,0.12,-0.99,2.81,3.78,2.56
18.6060,0.07,0.13,-0.98,2.93,3.66,2.81
18.6220,0.07,0.13,-0.99,2.81,3.54,3.17
18.6380,0.08,0.13,-0.98,2.38,2.38,4.03
18.6530,0.07,0.11,-0.98,2.69,2.62,3.36
18.6700,0.07,0.11,-0.99,2.75,2.93,3.11
18.6860,0.07,0.10,-0.98,2.81,3.05,2.56
18.7020,0.07,0.13,-0.99,3.05,3.97,2.14
18.7190,0.07,0.15,-0.98,3.11,3.78,2.50
18.7350,0.07,0.12,-0.98,3.05,3.97,1.71
18.7410,0.08,0.14,-0.98,3.36,3.78,1.89
18.7570,0.07,0.13,-0.98,3.05,3.11,2.62
18.7790,0.07,0.13,-0.98,3.17,3.11,2.01
18.7950,0.07,0.11,-0.98,2.87,3.36,1.95
18.8110,0.07,0.12,-0.98,2.81,3.48,2.20
18.8270,0.07,0.12,-0.98,2.93,3.42,2.26
18.8420,0.08,0.13,-0.99,2.93,3.72,1.95
18.8570,0.08,0.13,-0.98,2.99,3.05,2.26
18.8730,0.07,0.12,-0.99,2.81,3.17,2.32
18.8890,0.07,0.12,-0.98,2.93,3.05,2.75
18.9030,0.07,0.12,-0.98,2.99,2.93,2.81
18.9190,0.07,0.12,-0.99,2.87,3.54,2.50
18.9300,0.07,0.12,-0.98,2.75,3.66,2.26
18.9470,0.08,0.14,-0.99,2.87,3.78,2.44
18.9650,0.08,0.14,-0.98,2.93,2.87,2.87
18.9800,0.08,0.13,-0.98,2.69,2.44,2.87
18.9960,0.07,0.12,-0.98,2.87,2.50,3.30
19.0140,0.08,0.12,-0.98,2.81,2.93,2.81
19.0290,0.08,0.12,-0.98,2.75,2.81,2.38
19.0460,0.08,0.13,-0.98,2.87,2.50,2.20
19.0630,0.08,0.13,-0.98,2.99,2.38,2.14
19.0640,0.07,0.11,-0.98,2.87,2.26,1.95
19.0930,0.07,0.11,-0.99,2.81,3.42,2.01
19.1100,0.07,0.12,-0.98,2.99,3.85,1.46
19.1250,0.08,0.13,-0.99,2.93,4.39,1.22
19.1300,0.07,0.12,-0.99,2.99,3.97,1.59
19.1460,0.08,0.13,-0.99,2.93,3.66,1.71
19.1680,0.08,0.13,-0.99,2.81,2.99,1.77
19.1840,0.08,0.13,-0.98,2.87,2.62,2.14
19.2000,0.07,0.12,-0.98,2.75,2.50,2.32
19.2020,0.07,0.11,-0.98,3.05,3.78,2.08
19.2190,0.07,0.11,-0.99,2.99,3.85,2.20
19.2420,0.08,0.12,-0.98,2.87,3.78,2.20
19.2510,0.08,0.12,-0.99,2.99,4.33,2.38
19.2790,0.08,0.12,-0.99,2.99,3.91,2.20
19.2850,0.07,0.13,-0.98,3.05,3.97,3.11
19.3020,0.07,0.12,-0.99,2.87,4.03,4.33
19.3190,0.08,0.13,-0.99,2.81,3.97,4.58
19.3360,0.09,0.11,-0.98,2.81,4.03,3.66
19.3530,0.08,0.12,-0.98,2.93,3.85,2.32
19.3710,0.08,0.13,-0.99,3.11,4.03,2.01
19.3860,0.08,0.14,-0.98,2.93,3.23,2.08
19.4020,0.07,0.13,-0.99,2.99,2.87,3.11
19.4180,0.08,0.11,-0.98,2.99,2.62,3.05
19.4340,0.08,0.11,-0.98,2.75,3.30,2.32
19.4500,0.08,0.12,-0.99,2.87,4.03,2.20
19.4520,0.08,0.13,-0.98,3.17,4.03,2.20
19.4680,0.08,0.13,-0.99,2.81,3.91,1.83
19.4900,0.08,0.13,-0.98,2.93,3.23,1.34
19.5060,0.08,0.12,-0.99,3.11,3.54,1.53
19.5250,0.08,0.12,-0.99,3.05,3.48,1.71
19.5390,0.08,0.12,-0.98,2.99,3.48,1.83
19.5570,0.08,0.12,-0.98,2.93,3.72,1.89
19.5720,0.08,0.13,-0.99,2.99,3.42,1.83
19.5900,0.08,0.13,-0.99,3.11,3.17,2.14
19.6060,0.08,0.13,-0.98,2.93,2.93,2.32
19.6220,0.07,0.12,-0.98,2.81,3.05,2.69
19.6370,0.08,0.12,-0.99,2.69,3.05,2.81
19.6540,0.08,0.13,-0.98,2.87,3.11,2.81
19.6700,0.08,0.13,-0.99,2.99,3.17,3.30
19.6850,0.08,0.13,-0.98,2.75,2.44,4.09
19.7010,0.08,0.12,-0.99,2.75,2.87,3.54
19.7070,0.08,0.13,-0.98,3.05,2.62,4.21
19.7220,0.07,0.12,-0.98,2.62,3.23,4.82
19.7460,0.07,0.12,-0.98,2.81,3.54,5.62
19.7560,0.08,0.11,-0.99,2.75,3.54,4.70
19.7720,0.08,0.12,-0.98,2.69,3.66,3.60
19.7910,0.08,0.12,-0.98,2.99,3.23,4.39
19.8070,0.08,0.12,-1.00,2.99,3.97,2.99
19.8230,0.08,0.12,-0.98,2.81,3.66,2.26
19.8230,0.08,0.12,-0.99,2.99,4.21,2.14
19.8550,0.08,0.12,-0.99,3.05,4.09,2.14
19.8710,0.08,0.12,-0.98,2.81,3.42,2.20
19.8870,0.08,0.12,-0.99,3.05,3.97,2.08
19.9020,0.08,0.13,-0.98,2.87,3.66,2.69
19.9180,0.07,0.13,-0.99,2.93,3.72,3.72
19.9330,0.08,0.13,-0.99,2.69,3.17,4.76
19.9490,0.08,0.13,-0.98,2.44,2.81,5.25
19.9640,0.08,0.11,-0.98,2.56,3.30,4.46
19.9730,0.08,0.11,-0.98,2.69,3.42,2.93
19.9890,0.08,0.12,-0.98,2.99,4.03,2.38
20.0060,0.07,0.13,-0.99,2.93,4.03,2.56
20.0220,0.07,0.13,-0.98,3.05,3.60,3.78
20.0410,0.07,0.13,-0.98,2.93,3.66,4.70
20.0560,0.08,0.13,-0.98,2.87,3.42,4.94
20.0720,0.08,0.11,-0.99,2.69,3.72,4.21
20.0880,0.08,0.12,-0.98,2.56,3.78,3.60
20.1050,0.08,0.12,-0.99,2.75,4.27,2.50
20.1070,0.08,0.12,-0.98,2.93,3.85,1.95
20.1230,0.08,0.13,-0.98,2.87,3.78,2.32
20.1520,0.08,0.12,-0.99,3.05,3.97,2.01
20.1670,0.08,0.12,-0.98,2.93,3.48,1.95
20.1780,0.08,0.12,-0.99,2.93,3.85,2.08
20.1950,0.08,0.13,-0.98,2.93,3.85,1.77
20.2110,0.08,0.13,-0.98,2.99,3.78,1.83
20.2270,0.07,0.13,-0.99,2.99,3.54,3.05
20.2450,0.08,0.12,-0.98,2.87,2.99,3.05
20.2610,0.08,0.12,-0.98,2.99,3.30,3.05
20.2760,0.08,0.13,-0.98,3.11,3.36,3.72
20.2910,0.08,0.12,-0.99,2.81,3.30,3.48
20.3070,0.08,0.12,-0.98,2.87,3.36,2.62
20.3230,0.08,0.12,-0.99,2.93,3.42,2.38
20.3390,0.08,0.13,-0.98,2.93,3.36,2.26
20.3550,0.08,0.12,-0.98,2.93,3.42,1.95
20.3610,0.08,0.12,-0.99,3.11,3.78,2.08
20.3770,0.08,0.12,-0.98,2.93,3.23,1.95
20.3990,0.08,0.12,-0.98,2.81,3.48,2.01
20.4160,0.08,0.12,-0.98,3.23,3.78,2.14
20.4320,0.08,0.13,-0.98,3.11,3.66,2.81
20.4490,0.07,0.12,-0.99,3.11,3.17,2.50
20.4650,0.08,0.12,-0.98,2.20,3.17,2.08
20.4820,0.08,0.12,-0.99,2.81,4.15,1.95
20.4980,0.08,0.13,-0.98,3.11,3.72,1.89
20.5140,0.08,0.14,-0.99,3.54,3.60,2.62
20.5300,0.08,0.13,-0.98,3.78,3.30,3.48
20.5460,0.07,0.14,-0.98,3.60,3.17,4.82
20.5610,0.08,0.13,-0.98,2.93,2.50,6.47
20.5650,0.08,0.10,-0.99,1.83,3.30,5.19
20.5810,0.08,0.11,-0.98,2.26,3.30,3.23
20.6050,0.08,0.11,-0.98,3.05,4.03,2.50
20.6220,0.08,0.12,-0.99,2.69,4.21,1.89
20.6380,0.08,0.13,-0.99,3.30,3.54,2.01
20.6540,0.08,0.13,-0.98,3.42,3.60,2.50
20.6710,0.08,0.12,-0.99,2.69,3.05,2.99
20.6860,0.08,0.11,-0.98,2.56,3.42,2.50
20.7030,0.08,0.12,-0.98,2.14,3.72,2.01
20.7180,0.08,0.12,-0.99,2.99,4.15,1.71
20.7220,0.08,0.12,-0.98,2.69,3.85,1.83
20.7510,0.08,0.12,-0.99,3.23,3.72,2.14
20.7670,0.08,0.12,-0.98,2.87,3.78,1.89
20.7830,0.08,0.12,-0.99,3.11,3.48,2.08
20.7980,0.08,0.13,-0.99,3.42,3.66,2.20
20.8050,0.08,0.13,-0.98,3.42,3.78,2.38
20.8210,0.08,0.12,-0.98,3.36,3.23,2.62
20.8430,0.08,0.12,-0.98,2.93,3.42,2.44
20.8590,0.08,0.12,-0.99,3.11,3.36,2.56
20.8750,0.08,0.12,-0.98,2.50,3.60,2.26
20.8910,0.08,0.12,-0.98,2.20,3.60,1.95
20.9070,0.08,0.12,-0.98,2.44,3.54,2.08
20.9230,0.08,0.12,-0.98,2.50,3.60,2.32
20.9390,0.08,0.12,-0.99,2.81,3.78,2.14
20.9560,0.08,0.12,-0.98,2.87,3.42,2.08
20.9730,0.08,0.12,-0.99,3.17,3.72,1.89
20.9770,0.08,0.12,-0.98,2.99,3.66,2.08
20.9920,0.08,0.12,-0.98,3.17,4.21,2.20
21.0130,0.08,0.13,-0.99,3.11,4.03,1.83
21.0300,0.08,0.13,-0.98,2.93,3.91,1.53
21.0470,0.08,0.12,-0.98,2.93,4.15,1.46
21.0630,0.08,0.12,-0.97,3.05,3.85,1.53
21.0800,0.08,0.13,-0.98,3.36,4.94,1.16
21.0970,0.08,0.14,-0.94,4.15,5.55,0.79
21.0970,0.02,0.12,-1.31,3.11,10.93,-0.06
21.1290,0.07,0.13,-1.00,3.78,4.33,0.85
21.1450,0.07,0.12,-0.98,2.38,3.85,1.22
21.1610,0.07,0.12,-0.98,3.05,3.48,1.59
21.1760,0.07,0.12,-0.98,3.11,3.72,1.89
21.1800,0.07,0.12,-0.99,2.69,3.60,1.77
21.1960,0.07,0.12,-0.98,2.99,3.78,1.89
21.2190,0.07,0.12,-0.98,3.17,3.72,2.01
21.2370,0.07,0.12,-0.98,2.50,3.36,1.83
21.2530,0.07,0.12,-0.98,2.99,3.48,1.95
21.2700,0.07,0.12,-0.99,2.87,3.97,1.77
21.2860,0.07,0.13,-0.98,2.81,3.60,1.77
21.3020,0.07,0.12,-0.99,3.05,3.91,1.46
21.3190,0.07,0.12,-0.98,3.05,3.54,1.46
21.3350,0.07,0.12,-0.98,2.87,3.48,1.95
21.3450,0.07,0.12,-0.98,3.05,3.72,1.89
21.3520,0.07,0.13,-0.98,2.93,3.66,1.65
21.3820,0.07,0.12,-0.99,2.93,3.54,1.53
21.3860,0.07,0.12,-0.98,3.17,3.54,1.77
21.4110,0.07,0.12,-0.99,3.05,3.60,1.95
21.4230,0.08,0.12,-0.98,3.05,3.72,1.77
21.4390,0.07,0.13,-0.98,3.05,4.21,0.18
21.4560,0.07,0.12,-0.98,3.36,3.60,1.59
21.4730,0.07,0.11,-0.99,3.30,3.54,1.65
21.4890,0.07,0.14,-0.98,2.81,3.48,2.26
21.5070,0.07,0.10,-0.98,2.93,3.91,1.16
21.5230,0.07,0.13,-0.99,2.93,3.85,1.59
21.5380,0.07,0.12,-0.98,2.81,3.97,1.95
21.5540,0.07,0.12,-0.98,2.26,3.72,1.89
21.5710,0.07,0.12,-0.98,3.05,3.36,2.08
21.5860,0.07,0.12,-0.98,3.23,3.72,2.08
21.6030,0.07,0.12,-0.99,3.23,3.97,2.14
21.6190,0.07,0.12,-0.98,3.05,3.91,1.34
21.6340,0.07,0.14,-0.99,2.38,3.60,1.71
21.6510,0.07,0.12,-0.98,2.81,3.66,1.95
21.6560,0.07,0.12,-0.99,2.87,3.66,2.08
21.6720,0.07,0.12,-0.99,2.93,3.78,2.01
21.6950,0.08,0.11,-1.00,3.85,3.85,2.14
21.7110,0.07,0.11,-0.98,2.14,3.60,-0.73
21.7270,0.07,0.12,-0.98,2.56,3.97,-0.43
21.7440,0.07,0.12,-0.98,2.87,3.42,1.40
21.7610,0.07,0.12,-0.99,2.99,3.85,1.95
21.7760,0.07,0.13,-0.99,2.93,3.48,1.83
21.7930,0.07,0.12,-0.98,2.99,3.42,1.89
21.8070,0.07,0.12,-0.98,3.05,3.66,1.95
21.8110,0.07,0.12,-0.98,2.99,3.54,2.01
21.8270,0.07,0.12,-0.98,2.93,3.85,1.95
21.8500,0.07,0.12,-0.99,2.99,3.48,2.08
21.8680,0.07,0.12,-0.98,3.05,3.66,1.95
21.8840,0.07,0.12,-0.99,2.93,3.85,1.95
21.9000,0.07,0.12,-0.99,2.93,3.85,1.89
21.9160,0.07,0.12,-0.98,2.93,3.97,1.83
21.9180,0.07,0.12,-0.99,2.99,3.66,1.83
21.9460,0.07,0.12,-0.98,2.99,3.72,1.77
21.9500,0.07,0.12,-0.98,2.99,3.54,1.83
21.9680,0.07,0.12,-0.99,2.93,3.42,1.77
21.9840,0.07,0.12,-0.98,2.93,3.85,1.83
22.0000,0.07,0.12,-0.99,2.93,3.48,1.77
22.0220,0.07,0.12,-0.98,3.11,3.72,1.83
22.0380,0.07,0.12,-0.98,3.05,3.72,1.89
22.0550,0.07,0.12,-0.99,2.99,3.72,2.08
22.0720,0.07,0.12,-0.98,3.11,3.36,1.77
22.0900,0.07,0.12,-0.98,2.93,3.60,1.77
22.1060,0.07,0.12,-0.98,3.05,3.48,1.95
22.1220,0.07,0.12,-0.99,2.75,3.66,1.89
22.1220,0.07,0.12,-0.98,3.11,3.66,1.95
22.1460,0.07,0.12,-0.99,3.11,3.72,1.89
22.1560,0.07,0.12,-0.98,3.05,3.60,1.95
22.1850,0.07,0.12,-0.98,2.99,3.78,1.95
22.2010,0.07,0.12,-0.99,2.99,3.60,2.01
22.2170,0.07,0.12,-0.98,2.93,3.72,2.08
22.2220,0.07,0.12,-0.99,2.93,3.72,1.95
22.2460,0.07,0.12,-0.98,2.75,3.85,1.89
22.2540,0.07,0.12,-0.99,2.87,3.78,1.95
22.2760,0.07,0.12,-0.99,2.99,3.60,1.95
22.2940,0.07,0.12,-0.98,3.05,3.60,1.95
22.3090,0.07,0.12,-0.98,2.87,3.66,1.95
22.3240,0.07,0.12,-0.98,3.05,3.48,2.01
22.3270,0.07,0.12,-0.99,2.99,3.66,1.95
22.3460,0.07,0.12,-0.98,2.99,3.66,1.89
22.3640,0.07,0.12,-0.98,3.11,3.60,1.95
22.3810,0.07,0.12,-0.99,2.93,3.48,2.01
22.3980,0.07,0.12,-0.98,3.11,3.54,2.08
22.4150,0.07,0.12,-0.99,2.93,3.78,1.89
22.4310,0.07,0.12,-0.98,3.17,3.48,2.01
22.4470,0.07,0.12,-0.98,2.87,3.60,2.01
22.4630,0.07,0.12,-0.98,2.93,3.60,2.01
22.4650,0.07,0.12,-0.98,3.05,3.60,2.08
22.4800,0.07,0.12,-0.99,2.93,3.11,1.83
22.5030,0.07,0.12,-0.98,2.93,3.54,1.83
22.5200,0.07,0.12,-0.99,2.99,3.66,1.89
22.5360,0.07,0.12,-0.98,3.11,3.54,2.08
22.5530,0.07,0.12,-0.98,2.99,3.97,2.01
22.5690,0.07,0.12,-0.98,2.99,3.78,2.08
22.5870,0.07,0.12,-0.98,2.99,3.66,2.08
22.6020,0.07,0.12,-0.99,3.05,3.85,1.95
22.6180,0.07,0.12,-0.98,2.75,3.72,1.89
22.6350,0.07,0.12,-0.98,2.93,3.78,1.83
22.6500,0.07,0.12,-0.98,2.81,3.48,1.95
22.6660,0.07,0.12,-0.98,2.81,3.78,2.14
22.6820,0.07,0.12,-0.99,2.87,3.85,2.14
22.6850,0.07,0.12,-0.98,2.99,3.66,2.08
22.7010,0.07,0.12,-0.99,3.05,3.66,2.08
22.7240,0.07,0.12,-0.98,3.05,3.85,2.08
22.7400,0.07,0.12,-0.98,3.05,3.66,1.95
22.7570,0.07,0.12,-0.99,2.99,3.91,2.14
22.7730,0.07,0.12,-0.98,3.05,3.60,1.89
22.7890,0.07,0.12,-0.98,2.93,3.85,2.01
22.8050,0.07,0.12,-0.99,3.05,3.72,2.08
22.8200,0.07,0.12,-0.98,3.05,3.48,2.01
22.8360,0.07,0.12,-0.98,2.87,3.66,1.83
22.8530,0.07,0.12,-0.98,2.87,3.66,2.01
22.8570,0.07,0.12,-0.98,3.05,3.60,2.01
22.8730,0.08,0.12,-0.97,2.99,3.54,2.08
22.8950,0.07,0.13,-1.00,2.87,3.54,1.95
22.9110,0.07,0.12,-0.98,2.93,3.60,1.95
22.9280,0.07,0.12,-0.99,2.81,3.66,1.95
22.9440,0.07,0.12,-0.99,3.05,3.42,2.08
22.9600,0.07,0.12,-0.98,3.05,3.72,2.14
22.9770,0.07,0.12,-0.99,2.87,3.66,1.95
22.9930,0.07,0.12,-0.99,2.87,3.72,1.95
23.0100,0.07,0.10,-0.95,3.23,3.78,2.01
23.0260,0.07,0.13,-0.99,4.94,4.09,2.20
23.0410,0.07,0.12,-0.99,3.72,3.85,2.32
23.0570,0.07,0.12,-0.98,3.54,4.09,2.14
23.0610,0.07,0.12,-0.98,3.42,3.97,1.95
23.0770,0.07,0.13,-0.99,2.20,3.48,2.01
23.1000,0.07,0.13,-0.99,1.46,3.30,1.83
23.1170,0.07,0.11,-0.98,1.04,2.99,1.89
23.1320,0.07,0.12,-0.98,2.62,3.66,2.01
23.1480,0.07,0.12,-0.98,2.87,3.78,2.01
23.1650,0.07,0.12,-0.99,2.93,3.54,1.95
23.1810,0.07,0.12,-0.98,2.93,3.30,2.01
23.1830,0.07,0.12,-0.98,4.33,4.15,2.32
23.2000,0.07,0.12,-0.98,3.48,4.09,2.20
23.2160,0.07,0.12,-0.98,3.66,3.60,1.95
23.2440,0.07,0.12,-0.99,3.42,3.97,2.14
23.2540,0.07,0.12,-0.98,3.42,3.97,2.01
23.2700,0.07,0.12,-0.98,3.48,3.66,2.08
23.2890,0.07,0.13,-0.98,3.54,3.60,2.14
23.3040,0.07,0.13,-0.99,3.17,3.54,2.08
23.3190,0.07,0.12,-0.99,2.69,3.85,2.08
23.3340,0.07,0.12,-0.98,2.44,4.03,2.01
23.3480,0.07,0.12,-0.98,1.95,3.91,1.89
23.3630,0.07,0.13,-0.98,1.77,3.60,1.95
23.3780,0.07,0.12,-0.98,2.01,3.72,1.95
23.3950,0.07,0.12,-0.98,3.23,4.03,1.46
23.4120,0.07,0.13,-0.98,3.30,4.33,0.31
23.4270,0.07,0.12,-0.98,2.81,3.91,1.83
23.4430,0.07,0.13,-0.98,3.17,3.91,2.26
23.4580,0.07,0.12,-0.99,2.69,3.97,2.08
23.4740,0.07,0.12,-0.99,2.62,3.78,1.95
23.4900,0.08,0.13,-0.98,2.75,3.48,1.95
23.5060,0.07,0.12,-0.99,3.23,4.15,-0.92
23.5220,0.07,0.13,-0.98,3.05,3.48,-0.31
23.5370,0.07,0.11,-0.99,2.99,3.85,0.67
23.5520,0.07,0.12,-0.98,3.05,3.78,1.40
23.5680,0.07,0.13,-0.98,3.05,3.42,1.83
23.5780,0.07,0.13,-0.98,2.99,3.66,2.32
23.5950,0.08,0.13,-0.98,3.17,3.30,2.69
23.6130,0.07,0.13,-0.99,2.75,3.30,3.85
23.6300,0.07,0.13,-0.98,2.75,2.93,4.88
23.6450,0.07,0.12,-0.99,2.93,3.11,5.19
23.6620,0.07,0.12,-0.99,2.81,3.42,4.70
23.6770,0.07,0.12,-0.99,2.87,3.36,3.60
23.6930,0.07,0.12,-0.99,3.05,3.66,2.87
23.7090,0.07,0.12,-0.99,3.11,3.48,2.75
23.7250,0.07,0.12,-0.99,2.87,3.48,2.26
23.7400,0.07,0.12,-0.98,3.11,3.60,2.56
23.7490,0.07,0.12,-0.99,2.62,3.30,2.56
23.7610,0.07,0.12,-0.99,2.81,3.66,2.62
23.7850,0.07,0.12,-0.98,2.87,3.72,2.38
23.8010,0.07,0.12,-0.98,2.93,3.42,2.26
23.8020,0.07,0.13,-0.99,2.81,3.85,2.69
23.8320,0.07,0.13,-0.98,2.81,3.48,3.30
23.8480,0.07,0.13,-0.98,2.87,3.30,4.27
23.8520,0.07,0.13,-0.99,2.75,3.23,5.07
23.8670,0.08,0.11,-0.99,2.75,3.17,5.43
23.8830,0.07,0.12,-0.98,2.62,3.54,2.50
23.9060,0.07,0.12,-0.98,2.99,3.60,1.95
23.9230,0.07,0.12,-0.98,2.81,3.42,2.01
23.9390,0.07,0.12,-0.99,2.81,3.54,2.14
23.9570,0.07,0.13,-0.98,2.75,3.66,2.81
23.9570,0.07,0.12,-0.98,2.81,3.60,3.30
23.9860,0.07,0.12,-0.99,2.81,3.66,2.87
24.0020,0.07,0.12,-0.99,2.93,3.36,2.50
24.0080,0.07,0.13,-0.98,3.05,3.60,2.44
24.0340,0.07,0.12,-0.99,2.75,3.30,3.36
24.0520,0.07,0.13,-0.97,3.05,3.17,3.42
24.0670,0.07,0.12,-0.99,2.75,3.54,3.42
24.0830,0.07,0.13,-0.99,2.69,3.66,2.75
24.0980,0.07,0.12,-0.98,2.62,3.91,2.93
24.1150,0.07,0.12,-0.98,2.81,3.85,2.93
24.1240,0.07,0.15,-0.98,2.62,3.48,3.54
24.1460,0.07,0.13,-0.98,3.11,3.48,4.15
24.1560,0.07,0.12,-0.99,2.81,3.54,3.97
24.1720,0.07,0.13,-0.99,2.81,3.36,4.21
24.1900,0.07,0.12,-0.98,2.93,3.48,4.27
24.2060,0.07,0.13,-0.99,2.87,3.42,4.64
24.2230,0.07,0.12,-0.98,2.81,3.60,5.80
24.2390,0.07,0.12,-0.98,2.81,3.60,5.80
24.2480,0.08,0.12,-0.99,2.75,3.66,5.07
24.2700,0.08,0.12,-0.98,2.69,3.60,3.23
24.2870,0.07,0.12,-0.99,2.87,3.60,2.01
24.3030,0.07,0.12,-0.98,2.81,3.72,2.01
24.3190,0.07,0.12,-0.98,2.93,3.42,1.95
24.3350,0.07,0.12,-0.99,2.93,3.54,2.20
24.3510,0.07,0.12,-0.99,3.11,3.72,2.20
24.3570,0.07,0.13,-0.98,3.11,3.30,3.17
24.3810,0.07,0.13,-0.98,2.99,3.30,3.54
24.3970,0.07,0.12,-0.99,2.87,3.30,3.11
24.4130,0.07,0.12,-0.98,2.93,3.54,2.20
24.4280,0.07,0.12,-0.98,2.93,3.72,2.08
24.4390,0.07,0.12,-0.98,2.87,3.97,2.08
24.4550,0.07,0.13,-0.98,2.75,3.42,2.75
24.4730,0.07,0.13,-0.98,2.93,3.66,3.42
24.4890,0.07,0.13,-0.98,3.54,3.23,3.42
24.4900,0.07,0.13,-0.98,3.05,3.11,4.15
24.5190,0.07,0.13,-0.99,3.17,3.30,5.07
24.5240,0.07,0.11,-0.99,2.81,2.93,4.52
24.5490,0.07,0.11,-0.99,2.75,3.48,3.66
24.5640,0.07,0.12,-0.98,2.99,3.42,2.99
24.5790,0.07,0.13,-0.98,2.99,3.60,3.17
24.5910,0.07,0.13,-0.99,2.99,3.48,4.76
24.6060,0.07,0.13,-0.95,2.93,2.99,6.04
24.6230,0.06,0.13,-1.03,2.62,3.30,6.41
24.6390,0.07,0.13,-0.99,2.56,3.30,5.68
24.6550,0.07,0.11,-0.95,2.99,2.99,5.62
24.6710,0.08,0.10,-1.01,2.32,3.60,3.60
24.6860,0.07,0.12,-0.98,3.05,3.60,1.77
24.7010,0.07,0.13,-0.97,3.11,3.78,1.77
24.7160,0.07,0.13,-1.00,3.11,3.85,2.01
24.7240,0.08,0.14,-0.98,3.23,3.66,2.20
24.7470,0.07,0.13,-0.97,3.11,3.36,3.60
24.7570,0.07,0.13,-1.00,2.87,3.05,5.68
24.7730,0.07,0.13,-0.99,2.99,2.93,5.92
24.7890,0.07,0.11,-0.98,2.75,2.93,5.37
24.8070,0.07,0.11,-1.00,2.62,3.23,2.93
24.8080,0.07,0.12,-0.98,2.99,3.85,1.77
24.8230,0.07,0.12,-0.98,3.11,3.85,2.08
24.8510,0.07,0.13,-0.99,3.17,3.48,2.14
24.8570,0.07,0.13,-0.98,3.17,3.60,2.38
24.8830,0.07,0.13,-0.98,3.05,3.54,3.17
24.8980,0.07,0.12,-0.99,2.99,3.42,4.09
24.9130,0.07,0.12,-0.99,2.99,3.30,4.03
24.9240,0.07,0.12,-0.99,2.87,3.36,3.48
24.9390,0.07,0.12,-0.98,2.93,3.85,2.62
24.9560,0.07,0.12,-0.99,3.11,3.60,2.50
24.9720,0.07,0.13,-0.98,2.99,3.30,2.81
24.9900,0.07,0.12,-0.99,3.05,3.48,3.05
25.0060,0.07,0.12,-0.98,2.99,3.42,2.87
25.0220,0.07,0.13,-0.98,2.87,3.60,2.32
25.0380,0.07,0.13,-0.99,2.87,3.78,2.01
25.0540,0.07,0.13,-0.98,3.17,3.78,2.01
25.0690,0.07,0.13,-0.98,2.99,3.54,2.44
25.0840,0.07,0.13,-0.98,3.30,3.54,2.81
25.0990,0.07,0.12,-0.99,3.05,3.23,2.93
25.1060,0.07,0.12,-0.98,3.05,3.54,2.87
25.1220,0.07,0.12,-0.99,2.62,3.66,2.32
25.1460,0.07,0.12,-0.99,2.56,3.85,2.08
25.1610,0.07,0.12,-0.98,2.69,3.66,1.89
25.1770,0.08,0.14,-0.98,2.93,3.78,1.65
25.1940,0.07,0.13,-0.98,3.23,3.66,1.53
25.2100,0.07,0.12,-0.99,2.93,3.78,1.77
25.2250,0.07,0.12,-0.98,2.81,3.60,1.34
25.2400,0.07,0.12,-0.98,2.99,3.60,1.22
25.2560,0.07,0.13,-0.99,2.93,3.85,1.16
25.2710,0.07,0.13,-0.98,3.23,3.66,1.40
25.2880,0.07,0.12,-0.98,3.23,3.30,2.08
25.2940,0.07,0.12,-0.99,2.99,3.85,2.38
25.3090,0.07,0.13,-0.98,2.99,3.66,2.26
25.3310,0.07,0.14,-0.98,3.17,3.85,2.81
25.3490,0.07,0.13,-0.98,3.17,3.30,3.48
25.3650,0.07,0.12,-0.98,3.11,3.36,3.78
25.3810,0.07,0.12,-0.98,2.93,3.36,3.11
25.3970,0.07,0.11,-0.98,2.93,3.48,2.56
25.4140,0.07,0.12,-0.98,2.99,3.85,1.77
25.4300,0.07,0.12,-0.99,3.11,3.78,1.65
25.4450,0.07,0.13,-0.98,3.11,3.78,1.65
25.4600,0.07,0.13,-0.98,3.11,3.60,1.53
25.4750,0.07,0.13,-0.98,2.87,3.42,1.40
25.4820,0.07,0.13,-0.98,3.05,3.85,1.46
25.4980,0.07,0.12,-0.98,2.99,3.42,1.65
25.5200,0.07,0.13,-0.98,3.17,3.72,2.69
25.5220,0.07,0.13,-0.99,2.87,3.42,3.54
25.5500,0.07,0.12,-0.99,2.62,3.36,3.54
25.5560,0.07,0.12,-0.99,2.75,3.54,2.99
25.5840,0.07,0.11,-0.98,2.87,3.60,2.81
25.5990,0.07,0.12,-0.99,2.87,3.60,2.38
25.6140,0.07,0.13,-0.98,3.05,3.60,2.14
25.6290,0.07,0.13,-0.99,3.23,3.54,2.50
25.6380,0.07,0.13,-0.98,3.11,3.30,3.42
25.6540,0.07,0.13,-0.98,2.99,3.42,3.66
25.6750,0.07,0.13,-0.98,3.05,3.42,3.85
25.6910,0.07,0.12,-0.98,2.93,3.36,3.72
25.7060,0.07,0.12,-0.99,2.81,3.23,3.23
25.7220,0.07,0.12,-0.98,2.99,3.66,3.05
25.7360,0.07,0.13,-0.98,2.87,3.66,2.75
25.7500,0.07,0.13,-0.98,3.23,3.30,3.48
25.7650,0.07,0.13,-0.98,2.99,3.17,4.46
25.7760,0.07,0.12,-0.99,2.75,3.23,4.03
25.7920,0.07,0.12,-0.98,2.99,3.05,3.78
25.8120,0.07,0.12,-0.99,2.87,3.42,3.78
25.8290,0.07,0.12,-0.99,2.93,3.60,3.30
25.8450,0.07,0.12,-0.98,2.75,3.54,2.62
25.8610,0.07,0.13,-0.99,3.11,3.72,2.44
25.8770,0.07,0.13,-0.98,2.81,3.54,2.99
25.8920,0.07,0.12,-0.99,2.69,3.66,2.93
25.9070,0.07,0.12,-0.98,2.62,3.78,1.95
25.9230,0.07,0.12,-0.99,2.81,3.66,1.89
25.9390,0.07,0.12,-0.98,2.62,3.54,1.77
25.9550,0.07,0.13,-0.98,2.75,3.66,1.59
25.9690,0.07,0.12,-0.98,2.81,3.97,1.46
25.9790,0.07,0.12,-0.98,3.17,3.60,1.59
25.9950,0.07,0.12,-0.99,2.87,3.54,1.95
26.0150,0.07,0.13,-0.98,3.05,3.78,2.08
26.0300,0.07,0.13,-0.98,2.87,3.42,2.08
26.0460,0.07,0.12,-0.99,2.81,3.60,2.20
26.0610,0.07,0.12,-0.98,2.75,3.78,1.89
26.0760,0.07,0.12,-0.99,2.93,3.72,2.08
26.0810,0.07,0.13,-0.98,3.11,3.66,1.95
26.0960,0.07,0.12,-0.99,3.17,3.60,2.01
26.1180,0.07,0.13,-0.98,2.99,3.60,2.87
26.1350,0.07,0.13,-0.98,3.11,3.30,3.85
26.1510,0.07,0.12,-0.98,2.44,3.48,3.72
26.1690,0.07,0.12,-0.98,2.87,3.23,3.05
26.1850,0.07,0.13,-0.99,3.11,3.42,3.85
26.2000,0.07,0.13,-0.98,2.87,2.93,4.76
26.2160,0.07,0.13,-0.98,2.99,3.17,5.37
26.2330,0.07,0.13,-0.99,2.99,3.30,5.37
26.2340,0.07,0.12,-0.98,2.81,3.11,5.00
26.2520,0.07,0.11,-0.99,2.56,3.30,3.54
26.2800,0.07,0.12,-0.98,2.93,3.30,2.87
26.2840,0.07,0.12,-0.99,3.11,3.48,3.36
26.3110,0.07,0.13,-0.98,2.99,3.48,3.54
26.3270,0.07,0.14,-0.98,2.99,3.60,5.07
26.3350,0.07,0.12,-0.99,3.05,3.42,5.07
26.3520,0.07,0.12,-0.98,2.87,3.42,4.70
26.3680,0.08,0.11,-0.99,2.99,3.54,4.27
26.3870,0.08,0.11,-0.99,2.62,3.23,2.38
26.4020,0.07,0.12,-0.98,3.05,3.60,1.89
26.4190,0.07,0.12,-0.98,3.05,3.85,1.95
26.4350,0.07,0.13,-0.99,2.93,3.66,1.95
26.4520,0.07,0.13,-0.98,2.75,3.60,2.01
26.4690,0.07,0.13,-0.98,2.81,3.60,2.01
26.4840,0.07,0.13,-0.99,3.11,3.97,2.20
26.4850,0.07,0.13,-0.98,3.05,3.66,2.93
26.5030,0.07,0.12,-0.98,2.93,3.23,2.75
26.5190,0.07,0.13,-0.99,3.11,3.48,2.44
26.5490,0.07,0.13,-0.98,3.17,3.36,2.62
26.5650,0.07,0.12,-0.99,2.93,3.72,2.93
26.5800,0.07,0.13,-0.98,3.05,3.23,3.05
26.5950,0.07,0.12,-0.98,2.69,3.36,2.69
26.6100,0.07,0.13,-0.99,2.99,3.30,2.62
26.6190,0.07,0.13,-0.98,3.11,3.60,2.87
26.6350,0.07,0.12,-0.98,2.93,3.42,3.17
26.6530,0.07,0.12,-0.99,3.23,3.48,3.23
26.6680,0.07,0.12,-0.99,2.99,3.48,2.69
26.6840,0.07,0.12,-0.98,2.75,3.42,2.26
26.7000,0.07,0.12,-0.98,2.69,3.60,1.89
26.7090,0.07,0.13,-0.99,2.87,3.91,1.77
26.7240,0.07,0.12,-0.98,2.93,3.66,1.77
26.7450,0.07,0.12,-0.98,2.87,3.78,1.89
26.7610,0.08,0.13,-0.98,3.17,3.66,1.95
26.7770,0.07,0.12,-0.98,3.11,3.66,2.01
26.7920,0.07,0.13,-0.99,3.05,3.66,1.95
26.7960,0.07,0.13,-0.98,2.93,3.54,1.89
26.8110,0.07,0.13,-0.98,2.99,3.91,2.14
26.8320,0.07,0.13,-0.98,3.17,3.72,2.26
26.8520,0.07,0.13,-0.98,2.93,3.78,2.44
26.8660,0.07,0.13,-0.98,3.30,3.48,2.56
26.8820,0.07,0.12,-0.98,3.17,3.54,2.56
26.9000,0.07,0.12,-0.99,2.81,3.85,2.32
26.9160,0.07,0.13,-0.98,3.17,3.48,2.50
26.9320,0.07,0.12,-0.99,2.99,3.42,2.32
26.9480,0.07,0.13,-0.98,2.81,3.48,2.01
26.9650,0.07,0.13,-0.98,3.23,3.60,1.83
26.9660,0.07,0.13,-0.98,3.42,3.60,1.83
26.9950,0.07,0.13,-0.98,3.85,3.72,1.83
26.9990,0.07,0.12,-0.99,3.72,3.54,2.62
27.0160,0.07,0.13,-0.98,3.23,3.48,2.99
27.0340,0.07,0.11,-0.99,2.14,3.72,2.62
27.0520,0.07,0.13,-0.98,3.17,3.54,2.56
27.0700,0.07,0.13,-0.98,3.17,3.72,2.38
27.0870,0.07,0.14,-0.98,3.11,3.85,2.26
27.1030,0.07,0.14,-0.98,4.15,3.66,2.99
27.1190,0.07,0.14,-0.99,4.39,3.05,3.78
27.1360,0.06,0.13,-0.98,4.03,2.87,4.27
27.1520,0.07,0.11,-0.99,3.23,3.36,3.91
27.1670,0.07,0.11,-0.99,2.62,3.78,2.08
27.1820,0.07,0.12,-0.98,3.05,3.85,2.01
27.1860,0.07,0.13,-0.98,2.87,3.48,2.26
27.2010,0.07,0.13,-0.98,3.30,3.60,2.44
27.2250,0.07,0.13,-0.98,2.99,3.85,2.26
27.2410,0.07,0.13,-0.98,3.05,3.36,2.08
27.2580,0.07,0.13,-0.98,3.11,3.72,2.14
27.2730,0.07,0.12,-0.99,1.28,3.85,1.77
27.2890,0.07,0.12,-0.98,2.26,3.60,1.59
27.3050,0.07,0.12,-0.99,3.05,3.85,1.89
27.3200,0.07,0.13,-0.98,2.99,3.36,2.08
27.3350,0.07,0.13,-0.98,3.30,3.78,2.08
27.3500,0.07,0.13,-0.99,3.23,3.91,2.20
27.3650,0.07,0.13,-0.98,3.60,3.11,2.50
27.3810,0.07,0.13,-0.98,3.97,3.23,3.05
27.3920,0.07,0.13,-0.98,3.66,3.66,3.11
27.4080,0.07,0.13,-0.98,3.42,3.36,2.81
27.4250,0.07,0.13,-0.98,3.30,3.48,2.87
27.4420,0.07,0.13,-0.98,3.23,3.66,3.11
27.4580,0.07,0.13,-0.98,3.42,2.99,3.30
27.4740,0.08,0.15,-0.98,3.85,3.42,3.85
27.4890,0.07,0.15,-0.98,4.46,2.69,5.98
27.5040,0.07,0.12,-0.98,3.48,2.50,7.45
27.5190,0.07,0.12,-0.98,2.87,2.50,6.84
27.5340,0.07,0.10,-0.99,2.62,2.87,4.94
27.5500,0.07,0.10,-0.98,2.56,3.30,3.05
27.5650,0.07,0.13,-0.99,2.32,3.91,1.77
27.5750,0.07,0.14,-0.98,2.38,3.66,1.71
27.5920,0.07,0.13,-0.98,2.32,3.54,1.34
27.6090,0.07,0.13,-0.99,2.26,3.85,1.40
27.6250,0.07,0.13,-0.98,2.93,3.48,1.65
27.6410,0.07,0.13,-0.98,3.66,3.48,2.38
27.6570,0.07,0.13,-0.98,3.72,3.54,2.56
27.6730,0.07,0.13,-0.98,3.72,3.42,3.05
27.6890,0.07,0.13,-0.98,3.48,3.36,2.93
27.6920,0.07,0.13,-0.98,2.93,3.60,2.69
27.7070,0.07,0.13,-0.99,2.69,3.60,2.32
27.7350,0.07,0.13,-0.98,2.62,3.66,2.08
27.7450,0.07,0.14,-0.98,3.23,4.03,2.62
27.7620,0.07,0.14,-0.98,3.97,3.36,3.91
27.7780,0.07,0.14,-0.98,3.36,2.99,4.39
27.7950,0.07,0.12,-0.99,2.99,3.36,4.46
27.8120,0.07,0.12,-0.98,2.56,3.66,3.11
27.8290,0.07,0.13,-0.98,2.32,3.85,2.08
27.8450,0.07,0.13,-0.99,3.11,4.09,1.95
27.8600,0.07,0.13,-0.98,2.87,3.72,2.26
27.8770,0.07,0.13,-0.99,2.93,3.85,2.20
27.8920,0.07,0.13,-0.98,2.75,3.91,2.08
27.9070,0.07,0.13,-0.98,2.62,3.78,2.01
27.9230,0.07,0.13,-0.98,2.62,3.72,1.95
27.9390,0.07,0.13,-0.99,2.87,3.36,2.08
27.9540,0.07,0.13,-0.98,3.23,3.48,2.20
27.9690,0.07,0.14,-0.98,3.54,3.72,2.50
27.9840,0.07,0.13,-0.98,3.23,3.72,3.97
27.9950,0.07,0.13,-0.98,3.11,3.48,4.15
28.0120,0.07,0.13,-0.99,2.99,3.48,3.36
28.0280,0.07,0.13,-0.98,2.62,3.78,2.56
28.0450,0.07,0.14,-0.98,3.17,3.72,2.44
28.0620,0.07,0.14,-0.98,3.91,3.30,3.97
28.0780,0.07,0.13,-0.98,3.60,3.36,5.00
28.0940,0.07,0.13,-0.98,2.81,3.36,4.70
28.1110,0.07,0.13,-0.98,2.50,3.36,4.03
28.1270,0.07,0.12,-0.98,2.32,3.48,2.62
28.1420,0.07,0.13,-0.98,2.75,3.66,2.50
28.1580,0.07,0.14,-0.98,3.11,3.66,2.93
28.1740,0.07,0.14,-0.98,3.23,3.54,3.36
28.1890,0.07,0.14,-0.98,3.42,3.36,3.42
28.2060,0.07,0.15,-0.98,2.62,3.42,4.82
28.2220,0.07,0.14,-0.98,2.01,3.23,4.94
28.2370,0.07,0.12,-0.99,1.95,3.17,4.88
28.2530,0.08,0.13,-0.98,1.16,2.93,4.82
28.2620,0.07,0.11,-0.99,-0.06,3.11,4.52
28.2790,0.07,0.11,-0.99,2.81,3.11,4.39
28.2960,0.08,0.11,-0.98,3.05,3.42,3.36
28.3140,0.07,0.13,-0.99,2.32,3.85,2.14
28.3290,0.07,0.13,-0.98,2.75,3.85,2.26
28.3450,0.07,0.13,-0.99,2.99,3.05,3.05
28.3610,0.07,0.13,-0.99,3.30,3.36,3.11
28.3760,0.07,0.13,-0.98,3.36,3.17,3.05
28.3920,0.07,0.13,-0.99,3.30,3.23,3.05
28.3950,0.07,0.12,-0.98,3.23,3.48,2.93
28.4240,0.07,0.13,-0.98,2.87,3.23,2.14
28.4390,0.07,0.14,-0.98,3.11,3.54,2.08
28.4540,0.07,0.14,-0.98,3.85,3.42,2.93
28.4690,0.07,0.14,-0.98,3.97,3.36,3.05
28.4800,0.07,0.14,-0.98,4.58,3.54,3.72
28.4970,0.07,0.13,-0.98,4.82,3.23,4.15
28.5120,0.07,0.13,-0.98,3.36,3.17,4.15
28.5310,0.07,0.12,-0.99,2.75,3.48,4.46
28.5460,0.07,0.12,-0.98,2.75,3.48,3.23
28.5620,0.07,0.13,-0.98,3.05,3.54,3.11
28.5780,0.07,0.13,-0.99,3.42,3.42,4.15
28.5930,0.07,0.14,-0.98,3.48,3.30,4.52
28.6090,0.07,0.13,-0.98,2.87,3.17,4.52
28.6250,0.08,0.13,-0.98,2.69,3.23,4.52
28.6400,0.07,0.13,-0.98,3.66,3.48,4.52
28.6560,0.07,0.14,-0.98,3.72,3.48,4.52
28.6720,0.07,0.14,-0.98,4.09,3.11,5.00
28.6800,0.07,0.14,-0.98,4.39,2.87,5.80
28.7020,0.07,0.14,-0.98,3.17,2.93,5.80
28.7130,0.07,0.14,-0.98,3.05,2.87,6.47
28.7300,0.07,0.12,-0.98,3.78,2.81,7.51
28.7460,0.08,0.11,-0.98,3.66,2.81,5.31
28.7640,0.09,0.10,-0.99,1.95,3.42,3.66
28.7800,0.07,0.13,-0.98,3.11,3.72,2.08
28.7950,0.07,0.14,-0.99,2.81,3.78,2.01
28.8110,0.07,0.15,-0.98,3.30,3.11,3.36
28.8130,0.07,0.14,-0.98,4.52,2.87,5.07
28.8290,0.07,0.13,-0.99,3.17,3.05,5.19
28.8520,0.07,0.13,-0.98,3.30,2.99,4.64
28.8670,0.07,0.13,-0.98,3.17,3.36,3.36
28.8840,0.08,0.13,-0.99,2.81,3.42,2.50
28.9010,0.07,0.14,-0.98,4.27,3.17,3.05
28.9170,0.07,0.13,-0.99,4.33,3.17,4.03
28.9340,0.07,0.13,-0.98,4.52,3.36,3.30
28.9510,0.07,0.14,-0.98,3.36,3.23,2.26
28.9670,0.08,0.14,-0.98,3.54,3.72,2.01
28.9820,0.08,0.14,-0.98,3.91,3.54,2.20
28.9970,0.07,0.15,-0.98,5.31,3.42,3.48
29.0010,0.07,0.14,-0.98,5.80,3.17,4.58
29.0300,0.07,0.12,-0.99,4.58,3.48,3.66
29.0340,0.07,0.13,-0.98,3.72,3.60,1.77
29.0530,0.07,0.14,-0.98,2.93,3.78,1.46
29.0660,0.07,0.14,-0.98,2.93,3.48,1.46
29.0930,0.07,0.14,-0.98,2.99,3.60,1.83
29.1030,0.07,0.14,-0.98,3.42,3.85,2.08
29.1190,0.07,0.14,-0.98,3.23,3.78,2.08
29.1370,0.07,0.14,-0.98,2.87,3.72,2.14
29.1530,0.08,0.14,-0.98,2.50,3.60,1.83
29.1700,0.07,0.14,-0.98,2.50,3.48,1.65
29.1860,0.07,0.14,-0.98,2.81,4.03,1.71
29.2020,0.07,0.14,-0.98,3.05,3.85,2.01
29.2180,0.07,0.14,-0.98,2.87,3.60,2.01
29.2330,0.05,0.14,-0.98,3.05,3.48,1.71
29.2380,0.07,0.14,-0.98,2.56,3.54,1.65
29.2530,0.07,0.14,-0.98,2.93,3.66,1.46
29.2690,0.07,0.14,-0.98,3.36,3.72,1.71
29.2900,0.07,0.14,-0.98,3.23,3.85,1.89
29.3070,0.07,0.14,-0.98,3.36,3.54,2.08
29.3240,0.07,0.14,-0.98,2.87,3.85,1.95
29.3400,0.07,0.14,-0.98,2.93,3.48,1.89
29.3560,0.07,0.14,-0.98,2.75,3.48,2.01
29.3720,0.08,0.15,-0.98,-0.98,3.48,2.20
29.3880,0.07,0.13,-0.99,-2.62,3.48,2.14
29.4020,0.07,0.14,-0.98,1.59,3.97,1.83
29.4190,0.07,0.15,-0.97,-0.61,4.27,1.65
29.4340,0.07,0.14,-0.98,-3.97,4.64,1.46
29.4490,0.07,0.13,-0.99,-3.72,4.39,1.46
29.4640,0.07,0.13,-0.98,-1.40,4.03,0.98
29.4800,0.07,0.12,-0.99,-0.12,4.21,1.16
29.4900,0.07,0.12,-0.99,0.49,3.91,1.28
29.5060,0.07,0.14,-0.99,-2.93,4.58,-1.65
29.5240,0.07,0.13,-0.98,-1.04,3.66,-1.28
29.5400,0.07,0.12,-0.99,2.87,3.60,1.77
29.5570,0.07,0.12,-0.98,2.81,3.60,1.59
29.5720,0.07,0.13,-0.98,2.87,3.66,1.34
29.5890,0.07,0.12,-0.99,2.26,3.91,1.40
29.6040,0.07,0.12,-0.98,2.50,3.66,0.73
29.6200,0.07,0.13,-0.99,2.38,3.66,0.12
29.6230,0.07,0.12,-0.98,1.83,3.66,0.00
29.6510,0.07,0.12,-0.98,2.26,3.85,0.61
29.6670,0.08,0.11,-0.98,2.75,4.15,-0.49
29.6780,0.08,0.12,-0.98,2.93,4.15,-2.69
29.6940,0.07,0.12,-0.98,3.05,4.33,-3.11
29.7110,0.08,0.12,-0.99,3.48,4.70,-3.05
29.7290,0.07,0.11,-0.95,3.23,4.58,-3.85
29.7440,0.07,0.11,-0.98,4.46,4.52,-2.44
29.7600,0.08,0.11,-0.98,3.60,4.46,-2.75
29.7780,0.07,0.13,-0.98,3.85,4.39,-3.72
29.7930,0.07,0.13,-0.99,3.60,4.58,-2.69
29.8090,0.07,0.12,-0.99,3.60,4.09,-1.34
29.8250,0.07,0.13,-0.98,3.54,4.09,-0.24
29.8390,0.07,0.12,-0.99,2.93,3.91,0.06
29.8540,0.07,0.12,-0.98,2.93,4.09,0.55
29.8700,0.08,0.12,-0.98,3.30,3.97,0.24
29.8780,0.07,0.13,-0.99,3.30,4.27,-0.24
29.8960,0.07,0.13,-0.99,3.11,3.54,0.37
29.9110,0.07,0.13,-0.99,2.75,3.60,0.92
29.9270,0.07,0.12,-0.99,2.81,3.78,1.65
29.9430,0.07,0.12,-0.98,3.17,3.78,1.77
29.9630,0.07,0.12,-0.98,2.99,3.91,2.01
29.9800,0.07,0.12,-0.99,3.23,3.54,1.89
29.9960,0.07,0.12,-0.98,2.81,3.97,1.83
30.0120,0.07,0.12,-0.99,3.11,3.54,1.83
30.0280,0.07,0.12,-0.99,3.11,3.48,1.83
30.0430,0.07,0.12,-0.98,2.93,3.54,1.77
30.0590,0.07,0.12,-0.98,2.93,3.91,1.65
30.0740,0.07,0.12,-0.99,2.99,3.48,1.53
30.0890,0.07,0.12,-0.98,3.17,3.66,1.65
30.1050,0.07,0.12,-0.99,2.87,3.66,1.59
30.1140,0.07,0.12,-0.99,3.05,3.60,1.65
30.1300,0.07,0.12,-0.98,2.93,3.78,1.53
30.1480,0.07,0.12,-0.99,2.87,3.97,1.71
30.1640,0.07,0.12,-0.99,3.05,3.54,1.83
30.1810,0.07,0.12,-0.98,3.11,3.60,1.71
30.1970,0.07,0.13,-0.99,3.05,3.54,1.95
30.2130,0.07,0.12,-0.98,2.99,3.78,1.83
30.2290,0.07,0.12,-0.98,2.99,3.66,1.95
30.2450,0.07,0.12,-0.98,2.99,3.78,1.83
30.2540,0.07,0.12,-0.99,3.05,3.66,1.83
30.2630,0.07,0.12,-0.98,3.05,3.85,1.59
30.2850,0.07,0.12,-0.99,3.05,3.91,1.53
30.3020,0.07,0.12,-0.98,3.05,3.72,1.53
30.3190,0.07,0.12,-0.99,3.05,3.85,0.98
30.3350,0.07,0.12,-0.99,3.11,3.72,0.98
30.3550,0.07,0.13,-0.98,3.05,3.91,1.28
30.3670,0.07,0.12,-0.99,3.05,3.72,1.59
30.3860,0.07,0.12,-0.98,3.11,3.54,1.89
30.4020,0.07,0.12,-0.98,3.17,3.78,1.95
30.4180,0.07,0.12,-0.98,2.99,3.60,1.95
30.4340,0.07,0.12,-0.98,3.30,3.91,1.95
30.4500,0.07,0.12,-0.99,2.93,3.72,1.89
30.4660,0.07,0.12,-0.98,2.93,3.30,1.89
30.4810,0.07,0.12,-0.98,2.93,3.66,2.01
30.4840,0.07,0.12,-0.98,3.17,3.66,1.95
30.5000,0.07,0.12,-0.98,2.87,3.66,1.89
30.5240,0.07,0.12,-0.98,2.93,3.66,2.01
30.5400,0.07,0.12,-0.99,2.99,3.42,2.01
30.5570,0.07,0.12,-0.99,2.87,3.91,1.95
30.5720,0.07,0.13,-0.98,2.93,3.48,1.95
30.5890,0.07,0.12,-0.99,2.87,3.54,1.95
30.5910,0.07,0.12,-0.99,2.87,3.60,2.01
30.6070,0.07,0.12,-0.98,3.05,3.72,2.01
30.6350,0.07,0.12,-0.99,2.87,3.85,2.01
30.6450,0.07,0.12,-0.99,3.17,3.78,2.01
30.6620,0.07,0.12,-0.98,3.05,4.09,1.95
30.6810,0.07,0.12,-0.98,3.05,3.66,1.77
30.6950,0.07,0.12,-0.99,2.93,3.72,2.01
30.7120,0.08,0.13,-0.98,3.17,3.78,2.14
30.7280,0.06,0.12,-0.99,3.05,3.54,1.83
30.7440,0.08,0.12,-0.99,3.05,3.60,1.95
30.7590,0.08,0.12,-0.98,3.17,3.54,2.20
30.7620,0.07,0.12,-0.98,3.17,3.72,2.08
30.7780,0.07,0.12,-0.99,2.99,3.48,2.14
30.8000,0.07,0.12,-0.98,2.99,3.72,1.83
30.8170,0.07,0.12,-0.99,2.93,3.48,2.14
30.8330,0.07,0.12,-0.99,3.11,3.60,2.14
30.8510,0.07,0.13,-0.99,3.05,3.66,2.08
30.8670,0.07,0.13,-0.98,2.99,3.60,2.01
30.8840,0.07,0.12,-0.98,2.93,3.54,1.95
30.9000,0.07,0.12,-0.98,3.17,3.42,1.95
30.9160,0.07,0.12,-0.98,2.87,3.54,2.08
30.9170,0.07,0.13,-0.99,2.99,3.60,2.01
30.9330,0.07,0.13,-0.98,3.05,3.91,2.14
30.9620,0.08,0.12,-0.97,2.81,3.66,2.14
30.9790,0.07,0.12,-1.00,2.81,3.72,1.95
30.9840,0.07,0.12,-0.99,3.05,4.09,2.01
30.9990,0.07,0.13,-0.98,3.05,3.85,1.95
31.0210,0.07,0.12,-0.99,2.99,3.78,2.01
31.0380,0.07,0.12,-0.98,3.11,3.54,1.95
31.0560,0.07,0.12,-0.98,2.99,3.78,2.08
31.0720,0.07,0.12,-0.98,2.81,4.09,2.08
31.0870,0.07,0.12,-0.98,2.99,3.91,2.01
31.1050,0.08,0.12,-0.99,3.05,3.66,2.01
31.1210,0.07,0.12,-0.99,2.93,3.66,2.08
31.1380,0.07,0.12,-0.97,2.81,3.54,1.95
31.1540,0.07,0.12,-0.99,2.81,3.66,1.89
31.1560,0.07,0.12,-0.98,3.05,3.72,2.08
31.1720,0.07,0.12,-0.98,3.17,3.78,2.01
31.2010,0.07,0.12,-0.98,3.05,3.85,1.95
31.2160,0.07,0.12,-0.98,2.99,3.60,2.01
31.2270,0.07,0.12,-0.98,3.11,3.66,1.83
31.2440,0.07,0.12,-0.98,2.99,3.66,1.95
31.2600,0.07,0.12,-0.99,2.87,3.91,2.01
31.2750,0.07,0.12,-0.98,2.99,3.60,2.01
31.2770,0.07,0.12,-0.98,2.93,3.66,2.01
31.3060,0.07,0.12,-0.99,2.87,3.60,2.08
31.3210,0.07,0.12,-0.98,3.23,3.54,2.08
31.3360,0.07,0.12,-0.98,3.05,3.97,2.14
31.3510,0.07,0.12,-0.99,2.93,3.85,2.01
31.3600,0.07,0.13,-0.98,3.17,3.30,2.01
31.3760,0.07,0.12,-0.98,2.99,3.72,2.14
31.3930,0.07,0.12,-0.99,2.99,3.48,2.01
31.4100,0.07,0.12,-0.99,3.11,3.60,1.95
31.4260,0.07,0.12,-0.99,2.81,3.66,2.08
31.4430,0.07,0.12,-0.98,2.87,3.60,1.95
31.4590,0.07,0.12,-0.98,2.93,3.54,2.01
31.4760,0.07,0.12,-0.99,3.05,3.85,2.14
31.4920,0.07,0.12,-0.97,2.99,3.54,2.01
31.5070,0.07,0.12,-0.98,2.99,3.36,2.01
31.5230,0.07,0.12,-0.99,2.99,3.66,2.08
31.5280,0.07,0.12,-0.98,3.05,3.72,1.95
31.5430,0.07,0.12,-0.99,3.11,3.85,2.01
31.5590,0.07,0.13,-0.99,2.99,3.60,2.08
31.5800,0.07,0.12,-0.98,3.05,3.66,2.01
31.5970,0.07,0.12,-0.98,2.87,3.72,2.08
31.6140,0.07,0.12,-1.00,3.05,3.91,2.01
31.6300,0.07,0.12,-0.97,3.11,3.72,1.95
31.6470,0.07,0.12,-1.00,2.87,3.78,2.08
31.6620,0.07,0.12,-0.98,2.99,3.48,2.01
31.6770,0.07,0.12,-0.98,2.87,3.54,2.01
31.6930,0.07,0.12,-0.99,3.05,3.66,2.08
31.7070,0.07,0.12,-0.99,3.05,3.60,1.95
31.7230,0.07,0.12,-0.98,2.87,3.72,2.08
31.7380,0.07,0.12,-0.99,2.99,3.60,1.95
31.7520,0.07,0.12,-0.98,2.93,3.85,1.95
31.7640,0.07,0.12,-0.97,2.99,3.66,2.01
31.7810,0.07,0.12,-1.01,2.99,4.03,2.08
31.7970,0.07,0.12,-0.98,3.05,3.60,2.01
31.8140,0.07,0.12,-0.99,3.05,3.48,1.83
31.8300,0.07,0.12,-1.00,2.99,3.54,2.20
31.8470,0.08,0.13,-0.96,3.30,3.66,1.95
31.8630,0.07,0.12,-1.00,2.75,3.85,2.08
31.8790,0.07,0.12,-0.97,3.23,3.66,2.14
31.8950,0.07,0.12,-0.97,3.05,3.97,2.08
31.9110,0.07,0.12,-1.00,2.93,4.03,2.01
31.9260,0.07,0.13,-0.98,3.23,3.54,2.01
31.9410,0.07,0.12,-0.98,3.05,3.60,1.95
31.9560,0.07,0.12,-1.00,2.93,3.85,1.83
31.9640,0.07,0.13,-0.99,3.11,3.42,2.08
31.9800,0.08,0.12,-0.97,3.11,3.48,2.01
31.9970,0.07,0.12,-0.99,2.93,3.60,2.01
32.0140,0.07,0.12,-0.98,2.93,3.72,1.95
32.0300,0.07,0.12,-0.99,2.87,3.72,1.95
32.0470,0.07,0.12,-0.99,3.05,3.48,2.08
32.0630,0.07,0.12,-0.98,2.93,3.66,2.01
32.0800,0.07,0.12,-0.98,3.05,3.66,2.14
32.0960,0.07,0.12,-0.98,3.05,3.78,2.08
32.1120,0.07,0.12,-0.98,2.99,3.78,1.89
32.1280,0.07,0.12,-0.98,2.93,3.66,2.08
32.1430,0.07,0.12,-0.98,2.99,3.66,1.95
32.1590,0.07,0.12,-0.99,2.81,3.97,1.89
32.1750,0.07,0.12,-0.98,2.93,3.72,2.08
32.1900,0.07,0.12,-0.98,2.99,3.54,2.01
32.2060,0.07,0.12,-0.99,3.05,3.54,2.01
32.2210,0.07,0.12,-0.98,2.75,3.78,2.08
32.2300,0.07,0.12,-0.99,3.11,3.85,1.95
32.2460,0.07,0.12,-0.98,2.99,3.42,1.95
32.2670,0.07,0.12,-0.99,2.93,3.85,2.01
32.2820,0.07,0.12,-0.98,2.93,3.85,2.01
32.2970,0.07,0.12,-0.99,2.87,3.72,1.83
32.3020,0.07,0.12,-0.99,3.17,3.66,2.14
32.3290,0.07,0.12,-0.98,2.93,3.72,2.01
32.3440,0.07,0.12,-0.99,2.93,3.78,2.01
32.3570,0.07,0.12,-0.98,2.99,3.54,1.83
32.3690,0.07,0.12,-0.98,2.93,3.72,1.95
32.3850,0.07,0.12,-0.99,2.99,3.85,2.20
32.4020,0.07,0.12,-0.98,2.87,3.60,2.08
32.4190,0.07,0.12,-0.99,2.87,3.66,1.89
32.4350,0.07,0.12,-0.98,2.99,3.54,1.95
32.4510,0.07,0.12,-0.99,2.69,3.42,1.89
32.4670,0.07,0.12,-0.99,2.99,3.54,1.95
32.4830,0.07,0.12,-0.98,3.05,3.66,2.01
32.4990,0.07,0.12,-0.98,2.99,3.72,1.95
32.5020,0.07,0.12,-0.97,3.11,3.66,1.83
32.5170,0.06,0.13,-1.00,2.87,3.78,1.89
32.5380,0.08,0.13,-0.98,2.87,3.72,1.89
32.5580,0.08,0.12,-0.97,2.93,3.42,1.83
32.5720,0.07,0.12,-0.99,2.87,3.97,2.08
32.5910,0.08,0.12,-0.98,3.05,3.72,1.95
32.6060,0.07,0.13,-0.98,2.99,3.48,1.83
32.6220,0.08,0.13,-0.99,2.75,3.72,1.95
32.6250,0.07,0.12,-0.98,2.93,3.60,1.89
32.6410,0.07,0.12,-0.99,2.99,3.97,2.08
32.6630,0.07,0.12,-0.98,2.87,3.91,1.89
32.6800,0.07,0.13,-0.99,2.99,3.72,1.89
32.6960,0.07,0.13,-0.98,3.11,3.72,1.77
32.7140,0.07,0.12,-0.99,3.05,3.66,1.89
32.7280,0.07,0.12,-0.98,2.99,3.48,2.01
32.7450,0.07,0.13,-0.99,2.93,3.97,1.89
32.7610,0.07,0.13,-0.99,3.05,3.85,1.89
32.7770,0.07,0.12,-0.98,2.99,3.91,1.89
32.7930,0.07,0.12,-0.99,2.93,3.72,1.83
32.8080,0.07,0.12,-0.98,2.99,3.30,2.01
32.8230,0.07,0.12,-0.98,2.99,3.54,1.95
32.8390,0.07,0.12,-0.99,2.99,3.72,1.83
32.8550,0.07,0.12,-0.98,2.93,3.85,2.14
32.8720,0.07,0.12,-0.99,3.05,3.78,2.01
32.8870,0.07,0.12,-0.98,2.93,3.66,1.89
32.8960,0.07,0.12,-0.98,3.05,3.66,1.83
32.9120,0.07,0.12,-0.99,2.93,3.97,1.95
32.9300,0.07,0.12,-0.98,2.87,3.85,1.95
32.9450,0.07,0.12,-0.99,2.93,3.78,2.01
32.9630,0.07,0.12,-0.98,3.05,3.78,1.89
32.9780,0.07,0.12,-0.99,2.93,3.85,1.95
32.9960,0.08,0.12,-0.98,2.99,3.60,2.01
33.0120,0.07,0.12,-0.98,2.99,3.85,1.95
33.0280,0.07,0.12,-0.98,3.05,3.54,1.89
33.0460,0.07,0.12,-0.98,3.11,3.72,1.53
33.0610,0.07,0.12,-0.99,3.11,3.78,1.34
33.0770,0.07,0.12,-0.98,2.99,3.66,1.46
33.0930,0.07,0.12,-0.99,3.11,3.48,1.77
33.0950,0.07,0.12,-0.98,3.05,3.97,1.59
33.1110,0.07,0.09,-0.99,2.93,3.30,1.28
33.1350,0.08,0.12,-0.98,2.93,3.48,1.34
33.1510,0.07,0.12,-0.98,3.11,3.66,1.65
33.1700,0.07,0.13,-0.99,2.93,3.78,1.46
33.1850,0.07,0.12,-0.97,3.11,3.66,1.77
33.2010,0.07,0.12,-0.99,2.87,3.60,1.65
33.2030,0.07,0.12,-0.98,2.93,3.54,1.89
33.2330,0.07,0.12,-0.98,2.87,3.78,1.95
33.2490,0.07,0.12,-0.99,2.81,3.60,1.83
33.2660,0.07,0.13,-0.98,2.87,3.72,1.95
33.2680,0.07,0.12,-0.98,2.99,3.72,1.83
33.2840,0.07,0.12,-0.99,3.11,3.54,1.89
33.3060,0.07,0.12,-0.99,3.05,3.48,2.08
33.3230,0.07,0.13,-0.98,2.87,3.78,2.01
33.3400,0.07,0.12,-0.98,3.05,3.54,2.01
33.3560,0.07,0.12,-0.99,2.93,3.48,2.14
33.3720,0.07,0.12,-0.98,3.05,3.66,2.01
33.3870,0.07,0.12,-0.99,2.93,3.48,1.89
33.4030,0.07,0.12,-0.98,2.75,3.66,2.01
33.4200,0.07,0.12,-0.99,3.05,3.54,2.08
33.4220,0.07,0.12,-0.99,3.05,3.72,2.01
33.4380,0.07,0.12,-0.98,3.05,3.72,2.14
33.4610,0.07,0.12,-0.99,2.93,3.54,2.01
33.4790,0.07,0.12,-0.98,2.99,3.54,2.01
33.4930,0.07,0.12,-0.99,2.87,3.72,1.95
33.5100,0.07,0.12,-0.98,3.05,3.66,2.01
33.5260,0.07,0.12,-0.98,3.05,3.78,2.01
33.5420,0.07,0.12,-0.99,3.17,3.78,2.08
33.5570,0.07,0.12,-0.98,3.05,3.66,2.01
33.5610,0.07,0.12,-0.99,2.99,3.85,2.01
33.5880,0.07,0.12,-0.98,2.93,3.60,2.08
33.6030,0.07,0.12,-0.98,2.99,3.85,2.01
33.6190,0.07,0.12,-0.99,3.05,3.36,1.95
33.6280,0.07,0.12,-0.98,3.17,3.72,2.01
33.6430,0.07,0.12,-0.98,2.93,3.60,1.95
33.6650,0.07,0.12,-0.98,2.99,3.60,1.89
33.6810,0.07,0.12,-0.98,2.93,3.48,1.95
33.6830,0.07,0.12,-0.98,2.87,3.48,2.08
33.7140,0.07,0.12,-0.99,2.87,3.54,2.08
33.7160,0.07,0.12,-0.99,2.87,3.60,2.08
33.7310,0.07,0.12,-0.98,3.05,3.60,2.08
33.7540,0.07,0.12,-0.99,3.05,3.54,2.01
33.7710,0.07,0.12,-0.98,2.87,3.48,2.01
33.7870,0.07,0.12,-0.99,3.05,3.72,2.14
33.8040,0.07,0.12,-0.98,2.99,3.66,2.08
33.8210,0.07,0.12,-0.98,2.99,3.48,1.95
33.8370,0.07,0.12,-0.99,2.93,3.66,2.01
33.8530,0.07,0.12,-0.98,3.11,3.66,1.95
33.8690,0.08,0.13,-0.97,2.81,3.36,2.14
33.8850,0.07,0.12,-1.00,2.93,3.97,2.14
33.9010,0.07,0.12,-0.99,2.99,3.23,1.89
33.9160,0.07,0.13,-0.99,2.93,3.66,2.01
33.9320,0.07,0.13,-0.98,2.99,3.54,1.89
33.9370,0.07,0.12,-0.99,2.81,3.36,2.08
33.9610,0.07,0.12,-0.98,2.81,3.60,1.95
33.9690,0.07,0.12,-0.98,2.99,3.54,1.95
33.9850,0.07,0.13,-0.98,2.81,3.60,2.01
34.0000,0.07,0.12,-0.99,2.99,3.48,1.83
34.0240,0.07,0.12,-0.98,2.81,3.91,1.89
34.0420,0.07,0.12,-0.99,2.87,3.60,1.77
34.0580,0.07,0.13,-0.98,3.11,3.36,2.08
34.0730,0.07,0.12,-0.98,3.05,3.97,2.08
34.0890,0.07,0.12,-0.99,2.87,3.85,2.01
34.1040,0.07,0.12,-0.98,2.93,3.36,2.01
34.1070,0.07,0.12,-0.98,2.87,3.85,1.89
34.1230,0.07,0.12,-0.99,3.05,3.54,1.95
34.1470,0.07,0.12,-0.98,3.05,3.60,2.08
34.1640,0.07,0.12,-0.98,3.11,3.72,1.95
34.1800,0.07,0.12,-0.99,2.75,3.42,1.89
34.1970,0.07,0.12,-0.98,2.81,3.54,1.95
34.2130,0.07,0.12,-0.99,3.11,3.60,2.08
34.2290,0.07,0.12,-0.99,2.93,3.78,1.95
34.2450,0.07,0.12,-0.99,3.17,3.36,1.89
34.2600,0.07,0.12,-0.98,2.87,3.60,1.95
34.2630,0.07,0.12,-0.98,3.05,3.97,2.01
34.2790,0.07,0.12,-0.99,2.87,3.72,1.95
34.3010,0.07,0.12,-0.98,2.87,3.48,2.01
34.3180,0.07,0.12,-0.99,2.99,3.54,2.14
34.3350,0.07,0.13,-0.98,2.62,3.91,2.01
34.3510,0.07,0.12,-0.98,3.05,3.42,1.95
34.3680,0.07,0.12,-0.97,2.99,3.66,2.20
34.3850,0.07,0.12,-0.99,2.87,3.72,1.89
34.4000,0.07,0.13,-0.98,3.17,3.60,2.08
34.4160,0.07,0.13,-0.98,2.93,3.72,2.08
34.4320,0.07,0.12,-1.00,2.99,3.72,2.01
34.4340,0.07,0.12,-0.98,2.99,3.60,2.14
34.4620,0.07,0.12,-0.99,3.05,3.85,2.14
34.4730,0.07,0.12,-0.99,3.05,3.54,2.01
34.4900,0.07,0.12,-0.98,2.93,3.48,2.01
34.5070,0.07,0.12,-0.98,2.93,3.72,2.14
34.5230,0.07,0.12,-0.98,3.05,3.42,1.95
34.5390,0.07,0.13,-0.98,2.93,3.60,2.08
34.5440,0.07,0.12,-0.99,3.05,3.66,2.01
34.5620,0.07,0.12,-0.98,2.87,3.85,2.08
34.5840,0.07,0.12,-0.99,2.93,3.66,2.01
34.5950,0.07,0.12,-0.98,2.99,3.72,2.01
34.6110,0.07,0.12,-0.99,3.05,3.66,2.14
34.6270,0.07,0.12,-0.98,3.05,3.72,2.08
34.6450,0.07,0.12,-0.98,2.99,3.85,2.01
34.6620,0.07,0.12,-0.99,2.87,3.42,2.08
34.6770,0.07,0.12,-0.98,3.05,3.72,2.08
34.6920,0.07,0.12,-0.99,2.81,3.66,2.08
34.7090,0.07,0.12,-0.98,2.99,3.72,1.83
34.7250,0.07,0.12,-0.99,2.93,3.66,2.01
34.7400,0.07,0.12,-0.99,2.81,3.91,2.01
34.7560,0.07,0.12,-0.98,3.05,3.42,2.01
34.7720,0.07,0.12,-0.98,3.05,3.66,2.01
34.7880,0.07,0.12,-0.98,2.93,3.60,2.01
34.7940,0.07,0.12,-0.99,3.05,3.72,2.08
34.8110,0.07,0.12,-0.98,2.75,3.72,1.95
34.8260,0.07,0.12,-0.98,3.05,3.54,2.01
34.8480,0.07,0.12,-0.99,2.93,3.42,1.95
34.8640,0.07,0.12,-0.98,2.99,4.09,2.08
34.8800,0.07,0.12,-0.99,2.99,3.72,2.26
34.8990,0.07,0.12,-0.99,2.87,3.97,2.08
34.9130,0.07,0.12,-0.99,2.93,3.60,2.08
34.9290,0.07,0.12,-0.98,2.81,3.85,1.95
34.9450,0.07,0.12,-0.98,2.99,3.66,1.95
34.9610,0.07,0.12,-0.99,3.05,3.78,2.01
34.9640,0.07,0.12,-0.98,3.05,3.54,2.01
34.9800,0.07,0.12,-0.99,2.93,3.66,2.01
35.0020,0.07,0.12,-0.99,2.99,3.72,2.20
35.0180,0.07,0.12,-0.98,3.11,3.72,2.14
35.0360,0.07,0.12,-0.99,2.99,3.78,2.14
35.0520,0.07,0.12,-0.98,2.87,3.42,1.89
35.0700,0.07,0.12,-0.99,2.99,3.60,1.89
35.0850,0.07,0.12,-0.98,2.99,3.54,2.14
35.1010,0.07,0.12,-0.99,2.99,3.60,2.01
35.1180,0.07,0.12,-0.98,3.11,3.78,2.14
35.1330,0.07,0.12,-0.98,3.17,3.60,1.95
35.1500,0.07,0.12,-0.99,2.87,3.72,2.14
35.1630,0.07,0.12,-0.98,2.93,3.72,2.01
35.1690,0.07,0.12,-0.99,3.11,3.91,2.14
35.1870,0.07,0.12,-0.98,2.99,3.60,1.89
35.2020,0.07,0.12,-0.99,2.99,3.60,2.14
35.2240,0.07,0.12,-0.98,3.11,3.60,2.14
35.2410,0.07,0.12,-0.98,3.05,3.66,1.95
35.2570,0.07,0.12,-0.99,2.99,3.60,1.89
35.2740,0.07,0.12,-0.98,3.05,3.78,1.95
35.2900,0.07,0.12,-0.99,3.11,3.72,2.08
35.3060,0.07,0.12,-0.98,3.05,3.85,2.08
35.3220,0.07,0.12,-0.99,3.05,3.66,2.01
35.3390,0.07,0.12,-0.99,2.99,3.78,2.08
35.3550,0.07,0.13,-0.99,2.93,3.72,2.01
35.3700,0.07,0.12,-0.99,2.93,3.54,2.08
35.3870,0.08,0.12,-0.97,2.99,3.66,2.08
35.4020,0.07,0.12,-0.99,2.87,3.66,1.83
35.4170,0.07,0.12,-0.98,2.99,3.60,2.08
35.4340,0.07,0.12,-0.99,2.87,3.36,2.01
35.4490,0.07,0.12,-0.99,3.11,3.54,2.08
35.4640,0.07,0.12,-0.98,2.93,3.54,2.01
35.4730,0.07,0.12,-0.99,2.87,3.78,2.20
35.4940,0.07,0.13,-0.99,3.05,3.78,2.01
35.5110,0.07,0.13,-0.98,2.81,3.72,2.01
35.5270,0.07,0.12,-0.99,2.99,3.48,2.08
35.5430,0.07,0.12,-0.98,2.93,3.23,1.89
35.5450,0.07,0.12,-0.98,2.99,3.60,1.95
35.5640,0.07,0.12,-0.99,2.87,3.60,2.01
35.5830,0.07,0.12,-0.99,2.93,3.66,2.08
35.5990,0.07,0.12,-0.98,2.93,3.48,1.89
35.6160,0.07,0.12,-0.99,2.93,3.72,2.08
35.6340,0.07,0.12,-0.99,2.99,3.72,1.95
35.6500,0.07,0.13,-0.99,3.05,3.60,2.14
35.6660,0.07,0.12,-0.98,3.05,3.54,1.83
35.6840,0.07,0.12,-0.98,2.99,3.85,2.08
35.6990,0.07,0.12,-0.99,3.11,3.48,1.95
35.7150,0.07,0.12,-0.98,2.81,3.60,2.01
35.7310,0.07,0.12,-0.98,2.93,3.54,1.89
35.7470,0.07,0.12,-0.99,2.99,3.72,1.89
35.7500,0.07,0.12,-0.98,2.99,3.60,2.14
35.7650,0.07,0.12,-0.98,3.05,3.48,2.08
35.7890,0.07,0.12,-0.99,2.93,3.78,2.08
35.8060,0.07,0.12,-0.98,3.11,3.42,2.01
35.8230,0.07,0.12,-0.98,2.87,3.54,2.01
35.8380,0.07,0.12,-0.99,2.99,3.66,2.01
35.8550,0.07,0.12,-0.98,2.93,3.36,2.01
35.8650,0.07,0.12,-0.99,2.99,3.42,1.95
35.8730,0.07,0.12,-0.99,2.93,3.54,2.01
35.9030,0.07,0.12,-0.98,3.05,3.54,2.14
35.9190,0.07,0.12,-0.99,2.93,3.66,1.95
35.9230,0.07,0.12,-0.98,2.99,3.66,2.01
35.9390,0.07,0.12,-0.98,2.87,3.72,1.95
35.9650,0.07,0.12,-0.99,2.81,3.72,1.95
35.9780,0.07,0.12,-0.98,2.99,3.66,2.08
35.9940,0.07,0.12,-0.98,2.81,3.54,1.95
36.0100,0.07,0.12,-0.99,2.93,3.78,1.89
36.0330,0.07,0.12,-0.98,2.81,3.66,2.08
36.0440,0.07,0.12,-0.99,2.93,3.42,2.01
36.0650,0.07,0.12,-0.98,2.87,3.97,1.89
36.0780,0.07,0.12,-0.98,2.87,3.72,2.01
36.0940,0.07,0.12,-0.98,3.05,3.60,1.95
36.1110,0.07,0.12,-0.99,2.99,3.60,1.95
36.1270,0.07,0.12,-0.98,3.05,3.85,2.14
36.1440,0.07,0.12,-0.99,2.81,3.54,1.83
36.1600,0.07,0.12,-0.99,2.93,3.54,2.08
36.1770,0.07,0.12,-0.98,2.93,3.54,1.95
36.1920,0.07,0.12,-0.99,2.99,3.42,2.01
36.2080,0.07,0.12,-0.98,2.93,3.85,1.95
36.2230,0.07,0.12,-0.99,2.99,3.60,1.95
36.2380,0.07,0.12,-0.98,2.99,3.11,1.83
36.2550,0.07,0.12,-0.98,3.05,3.42,2.08
36.2700,0.07,0.12,-0.99,2.99,3.54,1.95
36.2770,0.07,0.12,-0.98,2.93,3.72,1.95
36.2940,0.07,0.12,-0.99,2.93,3.66,2.01
36.3100,0.07,0.12,-0.98,3.05,3.42,2.08
36.3320,0.07,0.12,-0.99,3.05,3.91,1.95
36.3480,0.07,0.12,-0.98,3.05,3.66,2.01
36.3640,0.07,0.12,-0.99,3.05,3.72,1.95
36.3650,0.07,0.12,-0.98,3.05,3.66,2.01
36.3960,0.07,0.12,-0.98,2.99,3.54,2.08
36.3980,0.07,0.12,-0.99,2.99,3.72,2.01
36.4150,0.07,0.12,-0.98,2.87,3.66,2.08
36.4310,0.07,0.12,-0.98,2.99,3.66,2.01
36.4490,0.07,0.12,-0.98,3.05,3.60,2.08
36.4650,0.07,0.12,-0.98,3.05,3.42,2.14
36.4820,0.07,0.12,-0.99,2.99,3.72,1.95
36.4980,0.07,0.12,-0.98,2.99,3.91,1.95
36.5150,0.07,0.12,-0.98,2.99,3.72,2.14
36.5310,0.07,0.12,-0.99,3.11,3.42,2.08
36.5490,0.07,0.12,-0.98,2.93,3.48,2.08
36.5650,0.07,0.12,-0.97,2.93,3.72,2.08
36.5810,0.07,0.12,-0.99,2.93,3.85,2.01
36.5990,0.07,0.12,-1.00,2.93,3.85,2.14
36.6150,0.07,0.12,-0.99,3.11,3.85,2.26
36.6310,0.07,0.12,-0.98,2.99,3.72,2.08
36.6470,0.07,0.12,-0.98,3.05,3.48,2.08
36.6490,0.07,0.12,-0.98,3.17,3.72,2.08
36.6660,0.07,0.12,-0.99,3.11,3.85,2.08
36.6810,0.07,0.12,-0.98,3.05,3.42,1.95
36.7040,0.07,0.12,-0.99,2.93,3.48,2.01
36.7210,0.07,0.12,-0.98,3.11,3.66,2.01
36.7370,0.07,0.12,-0.98,3.05,3.78,2.08
36.7520,0.07,0.12,-0.99,2.87,3.66,2.08
36.7720,0.07,0.12,-0.98,2.87,3.60,2.01
36.7880,0.07,0.12,-0.98,2.93,3.48,1.95
36.8040,0.07,0.12,-0.99,2.99,3.60,2.01
36.8210,0.07,0.12,-0.99,2.99,3.72,2.08
36.8360,0.07,0.12,-0.98,2.93,3.72,2.01
36.8520,0.07,0.12,-0.99,2.99,3.54,1.89
36.8680,0.07,0.12,-0.98,2.99,3.85,1.95
36.8840,0.07,0.12,-0.98,2.87,3.60,2.01
36.9000,0.07,0.12,-0.99,2.87,3.54,2.08
36.9160,0.07,0.12,-0.98,2.87,3.85,2.01
36.9320,0.07,0.12,-0.98,2.81,3.48,2.01
36.9470,0.07,0.12,-0.98,2.93,3.48,2.01
36.9630,0.07,0.12,-0.98,2.93,3.23,1.83
36.9780,0.07,0.12,-0.98,2.99,3.23,2.01
36.9880,0.07,0.12,-0.98,2.93,3.48,1.95
37.0050,0.07,0.12,-0.99,2.75,3.30,1.83
37.0230,0.07,0.12,-0.98,2.99,3.66,1.95
37.0380,0.07,0.12,-0.98,2.99,3.66,1.95
37.0540,0.07,0.12,-0.99,3.05,3.60,2.01
37.0700,0.07,0.12,-0.98,2.99,3.42,1.95
37.0850,0.07,0.12,-0.99,2.99,3.54,2.01
37.1010,0.07,0.12,-0.98,3.05,3.85,1.89
37.1180,0.07,0.12,-0.98,2.93,3.66,2.01
37.1330,0.07,0.12,-0.98,2.99,3.60,1.83
37.1500,0.07,0.12,-0.99,2.93,3.54,1.95
37.1650,0.07,0.12,-0.99,2.99,3.78,2.01
37.1800,0.07,0.12,-0.98,3.05,3.72,2.14
37.1890,0.07,0.12,-0.99,3.23,3.78,2.08
37.2040,0.07,0.12,-0.98,3.05,3.91,2.01
37.2250,0.07,0.12,-0.99,2.81,3.78,2.01
37.2420,0.07,0.12,-0.98,2.87,3.78,1.89
37.2580,0.07,0.12,-0.98,2.99,3.54,1.89
37.2730,0.07,0.12,-0.99,2.93,3.54,2.14
37.2890,0.07,0.12,-0.98,2.99,3.85,1.89
37.3040,0.07,0.12,-0.98,3.11,3.42,1.95
37.3200,0.07,0.12,-0.98,3.17,3.72,2.01
37.3360,0.07,0.12,-0.98,3.05,3.60,1.95
37.3420,0.07,0.12,-0.99,3.05,3.54,2.01
37.3670,0.07,0.12,-0.98,2.99,3.72,1.89
37.3820,0.07,0.12,-0.99,2.99,3.66,2.01
37.3930,0.07,0.12,-0.98,2.99,3.48,1.95
37.4090,0.07,0.12,-0.99,2.87,3.30,2.08
37.4260,0.07,0.12,-0.99,2.99,3.48,2.01
37.4430,0.07,0.12,-0.98,2.99,3.78,1.95
37.4590,0.07,0.12,-0.99,2.99,3.48,2.01
37.4750,0.07,0.12,-0.98,3.17,3.60,2.08
37.4930,0.07,0.12,-0.99,2.99,3.54,2.08
37.5080,0.07,0.12,-0.98,2.99,3.66,1.95
37.5230,0.07,0.12,-0.98,2.93,3.72,2.08
37.5380,0.07,0.12,-0.99,2.87,3.72,2.01
37.5550,0.07,0.12,-0.98,2.99,3.60,1.89
37.5670,0.07,0.12,-0.99,2.93,3.91,2.01
37.5750,0.07,0.12,-0.98,3.05,3.66,2.08
37.5980,0.07,0.12,-0.99,2.99,3.78,2.14
37.6160,0.07,0.12,-0.99,3.05,3.54,2.08
37.6310,0.07,0.12,-0.98,2.99,3.60,1.89
37.6480,0.07,0.12,-0.99,2.99,3.54,1.89
37.6490,0.07,0.12,-0.98,2.93,3.42,1.95
37.6810,0.07,0.12,-0.98,2.99,3.78,2.08
37.6820,0.07,0.12,-0.98,2.87,3.72,2.01
37.6990,0.07,0.12,-0.99,2.87,3.54,2.08
37.7140,0.07,0.12,-0.99,2.99,3.66,2.01
37.7440,0.07,0.12,-0.98,2.87,3.85,1.95
37.7590,0.07,0.12,-0.98,2.93,3.72,1.95
37.7750,0.07,0.12,-0.99,2.99,3.36,1.95
37.7840,0.07,0.13,-0.98,3.05,3.66,2.01
37.8060,0.07,0.12,-0.99,2.93,3.54,2.01
37.8170,0.07,0.12,-0.99,3.17,3.60,2.08
37.8340,0.07,0.12,-0.99,2.81,3.72,2.01
37.8500,0.07,0.13,-0.99,2.99,3.48,1.89
37.8670,0.07,0.13,-0.98,2.93,3.48,1.95
37.8840,0.07,0.12,-0.99,2.99,3.66,2.01
37.9010,0.07,0.12,-0.99,3.05,3.42,2.01
37.9170,0.07,0.12,-0.98,2.93,3.42,2.01
37.9330,0.07,0.12,-0.98,2.99,3.60,2.01
37.9490,0.07,0.12,-0.99,3.05,3.60,1.89
37.9660,0.07,0.12,-0.98,3.05,3.42,1.89
37.9820,0.07,0.12,-0.99,2.87,3.66,1.83
37.9840,0.07,0.12,-0.98,3.05,3.66,1.83
37.9990,0.07,0.12,-0.99,2.93,3.54,1.95
38.0240,0.07,0.12,-0.98,2.93,3.48,2.08
38.0410,0.07,0.12,-0.98,2.93,3.72,1.95
38.0570,0.07,0.12,-0.99,2.81,3.85,1.95
38.0730,0.07,0.12,-0.98,3.11,3.48,1.89
38.0900,0.07,0.12,-0.99,2.93,3.60,1.83
38.1080,0.07,0.12,-0.99,2.99,3.66,1.83
38.1240,0.07,0.12,-0.99,3.11,3.78,2.14
38.1410,0.07,0.12,-0.98,3.05,3.60,2.01
38.1570,0.07,0.12,-0.99,2.93,3.60,1.89
38.1720,0.07,0.12,-0.98,2.99,3.54,2.08
38.1870,0.07,0.12,-0.98,3.11,3.48,1.95
38.2050,0.07,0.12,-0.99,2.87,3.54,1.89
38.2070,0.07,0.12,-0.98,2.93,3.72,1.89
38.2230,0.07,0.12,-0.99,2.99,3.42,1.95
38.2450,0.07,0.12,-0.98,2.99,3.78,2.08
38.2620,0.07,0.12,-0.98,2.99,3.78,1.83
38.2780,0.07,0.12,-0.99,2.93,3.78,1.95
38.2950,0.07,0.12,-0.98,3.05,3.91,2.01
38.3120,0.07,0.12,-0.98,3.05,3.72,1.89
38.3280,0.07,0.12,-0.98,3.05,3.97,1.95
38.3430,0.07,0.12,-0.98,2.99,3.36,2.08
38.3590,0.07,0.12,-0.99,2.93,3.54,1.95
38.3750,0.07,0.12,-0.98,2.93,3.91,2.01
38.3900,0.07,0.12,-0.99,2.99,4.03,2.14
38.4060,0.07,0.13,-0.98,3.48,3.97,2.14
38.4210,0.07,0.12,-0.99,2.38,3.54,1.89
38.4370,0.07,0.12,-0.98,2.50,3.72,1.89
38.4520,0.07,0.12,-0.98,2.75,3.66,1.95
38.4630,0.07,0.12,-0.99,2.99,3.42,2.08
38.4790,0.07,0.12,-0.98,3.05,3.66,2.01
38.4960,0.07,0.12,-0.99,3.05,3.66,1.83
38.5130,0.07,0.12,-0.98,3.11,3.60,2.14
38.5280,0.07,0.12,-0.98,3.05,3.66,1.95
38.5460,0.07,0.12,-0.99,3.11,3.60,1.89
38.5610,0.07,0.12,-0.98,2.93,3.54,2.14
38.5770,0.07,0.12,-0.99,2.93,3.66,2.08
38.5930,0.07,0.12,-0.98,2.87,3.66,2.08
38.6100,0.07,0.12,-0.98,2.93,3.78,2.14
38.6250,0.07,0.12,-0.98,2.93,3.72,2.14
38.6410,0.07,0.12,-0.98,2.93,3.72,2.01
38.6460,0.07,0.12,-0.98,3.05,3.30,1.95
38.6720,0.07,0.12,-0.98,3.11,3.78,2.08
38.6870,0.07,0.12,-0.99,2.75,3.66,1.83
38.7030,0.07,0.12,-0.98,2.81,3.66,2.14
38.7190,0.07,0.12,-0.99,2.93,3.60,2.08
38.7290,0.07,0.12,-0.98,2.99,3.60,1.95
38.7460,0.07,0.12,-0.97,3.05,3.72,2.08
38.7630,0.07,0.12,-0.99,3.36,3.60,2.08
38.7790,0.07,0.12,-0.98,3.36,3.42,2.14
38.7950,0.07,0.12,-0.98,2.99,3.85,2.01
38.8130,0.07,0.12,-0.99,3.17,3.66,2.14
38.8290,0.07,0.12,-0.98,3.23,3.78,2.08
38.8450,0.07,0.13,-0.99,3.30,3.78,2.26
38.8610,0.07,0.13,-0.99,4.03,3.91,2.20
38.8770,0.07,0.13,-0.99,3.11,4.09,2.26
38.8920,0.07,0.13,-0.98,3.05,3.85,2.01
38.9080,0.07,0.12,-0.98,2.50,3.72,1.95
38.9230,0.07,0.12,-0.98,2.56,3.36,2.01
38.9380,0.07,0.12,-0.99,3.30,3.78,2.14
38.9550,0.07,0.12,-0.98,3.17,3.91,2.14
38.9690,0.07,0.12,-0.98,3.17,3.54,2.08
38.9790,0.07,0.13,-0.99,3.05,3.48,2.01
38.9950,0.07,0.12,-0.98,2.87,3.60,2.01
39.0130,0.07,0.12,-0.99,2.56,3.85,2.01
39.0300,0.07,0.12,-0.98,2.44,3.48,1.65
39.0460,0.07,0.12,-0.98,2.93,3.85,1.89
39.0620,0.07,0.12,-0.99,3.42,3.30,2.08
39.0770,0.07,0.12,-0.98,3.05,3.78,2.20
39.0970,0.07,0.12,-0.99,2.75,3.78,2.01
39.1140,0.07,0.12,-0.98,2.75,3.60,1.95
39.1290,0.07,0.12,-0.98,2.99,3.54,2.01
39.1450,0.07,0.19,-0.97,3.54,3.72,1.65
39.1610,0.07,0.10,-0.99,3.36,4.33,-2.87
39.1700,0.07,0.13,-0.99,3.23,4.09,-0.92
39.1930,0.07,0.12,-0.99,3.11,4.09,-0.85
39.1990,0.07,0.13,-0.98,3.11,3.91,-0.61
39.2250,0.07,0.13,-0.98,3.05,4.15,-1.53
39.2320,0.07,0.12,-0.99,3.36,4.39,-2.56
39.2480,0.07,0.11,-0.99,3.36,4.03,-2.14
39.2710,0.07,0.12,-0.98,3.42,4.03,-0.06
39.2740,0.07,0.12,-0.99,3.36,3.85,1.10
39.2910,0.07,0.12,-0.98,2.99,4.03,1.83
39.3070,0.07,0.13,-0.98,2.87,3.54,1.95
39.3270,0.07,0.13,-0.99,2.93,3.60,1.77
39.3450,0.07,0.13,-0.98,3.11,3.54,1.71
39.3630,0.07,0.13,-0.98,2.93,4.15,1.04
39.3780,0.07,0.14,-0.98,3.05,4.27,-0.24
39.3940,0.07,0.12,-0.99,3.36,3.97,-1.28
39.4110,0.07,0.12,-0.98,3.23,4.09,-0.49
39.4270,0.07,0.11,-0.99,3.30,3.91,0.43
39.4440,0.07,0.12,-0.98,3.05,3.85,1.77
39.4590,0.07,0.12,-0.98,3.05,3.85,2.08
39.4750,0.07,0.12,-0.99,2.87,3.66,2.14
39.4910,0.07,0.13,-0.98,2.99,3.54,2.20
39.5060,0.07,0.12,-0.99,2.87,3.36,1.95
39.5210,0.07,0.12,-0.98,2.87,3.23,2.08
39.5350,0.07,0.13,-0.98,2.69,3.66,2.38
39.5510,0.06,0.13,-0.99,2.87,3.48,4.27
39.5620,0.08,0.14,-0.98,2.69,3.23,4.21
39.5780,0.07,0.12,-0.99,2.87,3.60,2.20
39.5960,0.07,0.11,-0.99,2.93,3.54,1.34
39.6120,0.07,0.12,-0.99,3.11,3.60,1.77
39.6280,0.07,0.12,-0.98,3.05,3.54,2.01
39.6430,0.07,0.12,-0.98,2.99,3.36,1.95
39.6600,0.07,0.12,-0.99,2.93,3.60,1.89
39.6750,0.07,0.13,-0.98,2.69,3.54,2.01
39.6900,0.07,0.15,-0.98,2.81,3.91,1.28
39.6940,0.08,0.13,-0.98,3.05,3.97,-0.98
39.7220,0.07,0.13,-0.98,2.93,4.09,-0.43
39.7380,0.07,0.12,-0.99,2.81,3.85,0.00
39.7540,0.07,0.12,-0.98,2.99,3.78,-0.49
39.7690,0.07,0.12,-0.99,3.36,4.15,-0.85
39.7860,0.07,0.12,-0.99,3.17,3.97,-0.79
39.7950,0.07,0.12,-0.99,2.99,3.97,-0.49
39.8110,0.07,0.12,-0.99,3.23,3.66,0.24
39.8260,0.07,0.12,-0.98,2.99,3.72,0.55
39.8460,0.07,0.12,-0.98,3.23,3.72,1.16
39.8490,0.08,0.13,-0.98,3.05,3.72,1.53
39.8770,0.07,0.12,-0.99,2.87,3.54,1.65
39.8820,0.07,0.13,-0.98,2.93,3.48,1.77
39.8980,0.07,0.12,-0.98,3.05,3.60,1.59
39.9180,0.07,0.12,-0.98,3.17,3.54,1.46
39.9350,0.08,0.13,-0.98,3.11,4.03,0.98
39.9520,0.07,0.12,-0.99,3.11,3.78,0.67
39.9690,0.06,0.12,-0.99,3.17,3.78,0.37
39.9710,0.06,0.12,-0.99,3.05,3.60,0.31
39.9860,0.07,0.12,-0.99,3.05,3.78,1.16
40.0170,0.07,0.12,-0.98,2.87,3.78,0.85
40.0320,0.07,0.13,-0.99,3.30,3.91,0.73
40.0360,0.07,0.12,-0.98,3.54,4.15,0.37
40.0520,0.07,0.12,-0.99,3.48,3.91,-0.06
40.0810,0.09,0.12,-0.98,3.54,4.27,-0.61
40.0960,0.07,0.13,-0.98,3.17,4.03,-1.10
40.1020,0.07,0.13,-0.99,3.23,3.85,0.06
40.1180,0.07,0.13,-0.98,3.05,3.85,1.28
40.1390,0.07,0.12,-0.99,2.81,3.66,1.71
40.1550,0.07,0.12,-0.98,2.87,3.60,1.83
40.1730,0.07,0.12,-0.98,3.11,3.72,1.83
40.1880,0.08,0.12,-0.98,3.05,3.60,1.89
40.2040,0.07,0.12,-0.98,2.93,3.48,1.40
40.2060,0.08,0.12,-0.99,3.17,3.72,1.10
40.2370,0.08,0.12,-0.98,3.11,3.85,0.06
40.2390,0.07,0.12,-0.99,3.30,3.85,-0.79
40.2680,0.08,0.12,-0.98,3.05,3.97,-0.67
40.2830,0.04,0.13,-0.98,3.17,3.85,-1.16
40.2980,0.06,0.13,-0.99,2.99,3.72,-0.43
40.3130,0.06,0.13,-0.98,2.99,3.97,0.79
40.3280,0.07,0.12,-0.99,2.93,3.91,1.16
40.3390,0.07,0.13,-0.98,2.99,3.60,1.04
40.3550,0.07,0.13,-0.98,2.81,3.66,1.28
40.3720,0.08,0.13,-0.99,2.75,3.78,1.22
40.3890,0.08,0.13,-0.98,3.05,3.72,0.92
40.4050,0.07,0.12,-0.99,2.87,3.91,0.12
40.4210,0.08,0.12,-0.98,3.05,4.03,-0.49
40.4380,0.06,0.12,-0.99,2.99,4.09,-1.46
40.4540,0.07,0.12,-0.98,2.99,3.72,-1.46
40.4700,0.06,0.12,-0.99,2.87,4.09,-1.10
40.4860,0.08,0.12,-0.98,2.81,3.85,-0.31
40.5020,0.07,0.13,-0.98,2.93,3.78,-0.06
40.5170,0.08,0.13,-0.99,2.87,3.72,0.49
40.5330,0.09,0.13,-0.98,2.75,3.60,0.37
40.5490,0.08,0.13,-0.98,2.99,3.60,-0.31
40.5650,0.07,0.13,-0.98,3.11,4.09,-1.71
40.5810,0.06,0.12,-0.98,3.11,4.09,-2.08
40.5890,0.06,0.12,-0.99,3.17,4.27,-1.95
40.6050,0.07,0.12,-0.99,3.17,4.58,-1.53
40.6220,0.07,0.12,-0.98,3.17,3.97,-0.98
40.6380,0.07,0.12,-0.98,3.11,4.21,-0.73
40.6560,0.07,0.12,-0.98,3.17,4.09,-0.37
40.6720,0.07,0.12,-0.98,3.30,4.33,-0.49
40.6880,0.06,0.13,-1.00,3.11,4.09,-0.98
40.7030,0.07,0.13,-0.98,3.23,4.33,-0.92
40.7210,0.07,0.13,-0.98,3.11,3.91,-0.67
40.7370,0.07,0.12,-0.98,2.99,3.97,0.31
40.7540,0.08,0.12,-0.99,2.99,3.60,0.06
40.7550,0.08,0.13,-0.98,3.17,3.97,-0.49
40.7870,0.07,0.12,-0.98,3.05,4.39,-1.77
40.8040,0.08,0.12,-0.98,3.11,4.33,-2.14
40.8190,0.06,0.12,-0.98,2.87,4.03,-1.71
40.8350,0.06,0.12,-0.98,3.30,3.85,-0.55
40.8510,0.07,0.12,-0.99,3.30,4.27,-0.06
40.8550,0.07,0.12,-0.98,3.05,4.03,0.18
40.8730,0.07,0.12,-0.99,3.23,3.72,0.18
40.8990,0.07,0.13,-0.98,3.30,4.03,0.49
40.9060,0.07,0.13,-0.99,3.05,3.97,0.61
40.9310,0.08,0.12,-0.99,3.05,3.60,0.00
40.9460,0.08,0.12,-0.98,3.05,3.60,-0.61
40.9630,0.07,0.12,-0.99,3.23,4.52,-2.32
40.9730,0.07,0.12,-0.98,3.23,4.27,-2.32
40.9890,0.06,0.12,-0.99,3.36,4.39,-2.32
41.0050,0.06,0.12,-0.99,3.23,4.15,-1.16
41.0260,0.08,0.12,-0.98,3.23,4.21,-0.37
41.0420,0.08,0.12,-0.99,3.48,4.27,-2.26
41.0560,0.08,0.12,-0.98,3.54,4.52,-4.03
41.0720,0.06,0.13,-0.99,3.48,4.58,-3.91
41.0880,0.06,0.12,-0.99,3.17,4.27,-2.26
41.0920,0.07,0.12,-0.98,3.23,4.03,-0.55
41.1080,0.07,0.13,-0.99,3.42,3.97,-0.31
41.1320,0.06,0.13,-0.98,3.30,4.03,-0.12
41.1490,0.07,0.12,-0.98,3.05,3.72,0.92
41.1670,0.07,0.12,-0.98,3.17,3.85,1.65
41.1820,0.07,0.12,-0.98,3.36,4.03,1.83
41.1990,0.07,0.12,-0.98,3.05,3.85,1.95
41.2000,0.07,0.12,-0.99,3.05,3.66,2.20
41.2170,0.07,0.12,-0.99,2.93,3.78,2.44
41.2320,0.07,0.13,-0.98,2.99,4.03,2.32
41.2500,0.07,0.13,-0.99,3.05,3.54,2.14
41.2720,0.08,0.12,-0.98,2.99,3.54,1.71
41.2940,0.08,0.12,-0.99,3.05,3.60,1.04
41.3000,0.08,0.12,-0.98,3.23,4.15,0.43
41.3260,0.07,0.12,-0.98,3.11,4.15,15.56
41.3400,0.07,0.12,-0.99,3.23,3.85,0.06
41.3560,0.06,0.12,-0.98,3.30,4.09,0.12
41.3660,0.07,0.12,-0.99,3.17,3.91,0.85
41.3820,0.07,0.13,-0.98,3.11,3.91,1.22
41.4000,0.07,0.12,-0.98,2.99,3.72,1.34
41.4150,0.07,0.12,-0.98,2.93,3.60,1.46
41.4330,0.07,0.12,-0.98,3.11,3.60,1.46
41.4490,0.08,0.12,-0.99,2.87,3.91,1.89
41.4640,0.08,0.13,-0.99,2.93,3.72,1.77
41.4820,0.08,0.13,-0.99,2.99,3.78,0.92
41.4980,0.07,0.12,-0.98,2.75,3.72,0.00
41.5140,0.07,0.12,-0.99,3.05,3.85,0.00
41.5290,0.07,0.12,-0.98,3.11,4.15,0.55
41.5440,0.07,0.13,-0.98,3.23,4.03,0.49
41.5610,0.07,0.12,-0.99,3.23,4.09,0.43
41.5750,0.06,0.12,-0.98,3.11,4.03,0.43
41.5830,0.06,0.12,-0.99,2.93,3.72,1.04
41.6070,0.07,0.13,-0.99,2.99,3.54,1.40
41.6170,0.07,0.12,-0.98,3.05,3.72,1.77
41.6320,0.07,0.12,-0.99,2.99,3.85,1.89
41.6540,0.08,0.12,-0.99,2.99,3.85,1.83
41.6700,0.07,0.12,-0.99,3.05,3.72,1.34
41.6870,0.07,0.13,-0.98,3.11,3.91,0.92
41.6890,0.07,0.12,-0.99,3.05,3.72,0.98
41.7050,0.07,0.12,-0.98,3.05,3.72,1.04
41.7290,0.07,0.12,-0.98,3.05,3.97,1.10
41.7460,0.08,0.12,-0.99,3.11,3.66,0.92
41.7620,0.07,0.12,-0.98,3.36,3.72,0.79
41.7780,0.07,0.12,-0.99,3.11,3.91,0.98
41.7960,0.07,0.12,-0.98,3.05,3.72,1.04
41.8120,0.07,0.12,-0.98,2.93,3.78,0.67
41.8290,0.07,0.12,-0.99,3.05,3.91,0.73
41.8450,0.07,0.12,-0.98,2.93,3.85,1.04
41.8610,0.07,0.12,-0.99,2.87,3.85,1.10
41.8770,0.07,0.12,-0.98,3.05,3.60,1.53
41.8940,0.08,0.12,-0.98,2.81,3.60,1.40
41.9090,0.07,0.12,-0.98,2.99,3.72,1.04
41.9250,0.08,0.12,-0.98,3.05,3.97,1.16
41.9400,0.07,0.12,-0.98,3.05,4.03,0.92
41.9560,0.08,0.12,-0.98,3.17,4.15,0.55
41.9700,0.07,0.12,-0.99,2.99,3.85,0.00
41.9860,0.07,0.12,-0.98,3.11,3.91,-0.37
41.9960,0.07,0.12,-0.99,3.11,3.72,-0.06
42.0120,0.07,0.12,-0.99,3.11,3.91,0.31
42.0290,0.07,0.12,-0.98,3.17,3.85,0.43
42.0460,0.08,0.12,-0.99,3.11,4.09,0.67
42.0630,0.08,0.12,-0.98,3.23,4.15,0.55
42.0790,0.07,0.12,-0.99,3.11,3.97,0.49
42.0960,0.13,0.12,-0.98,3.60,4.15,0.61
42.1110,0.08,0.12,-0.98,2.93,4.03,-0.24
42.1270,0.11,0.12,-0.99,3.11,4.27,-0.06
42.1430,0.08,0.11,-0.98,3.42,3.78,0.49
42.1590,0.09,0.12,-0.99,3.36,3.97,-0.24
42.1760,0.07,0.12,-0.98,3.11,4.09,0.00
42.1910,0.06,0.12,-0.99,3.17,3.91,-0.18
42.2070,0.04,0.13,-0.99,3.17,4.09,-0.73
42.2230,0.03,0.13,-0.99,2.99,3.66,0.12
42.2400,0.02,0.13,-0.99,2.87,3.78,1.28
42.2560,0.07,0.12,-0.98,2.75,3.72,1.95
42.2710,0.07,0.12,-0.99,2.93,3.54,1.95
42.2790,0.07,0.12,-0.98,3.17,3.72,1.83
42.2940,0.07,0.12,-0.98,3.11,3.48,2.08
42.3170,0.07,0.12,-0.98,2.99,3.85,2.01
42.3340,0.07,0.12,-0.98,2.99,3.30,2.01
42.3500,0.07,0.12,-0.99,2.99,3.78,1.95
42.3660,0.07,0.13,-0.98,3.05,3.60,2.14
42.3820,0.07,0.12,-0.99,2.99,3.42,1.95
42.3980,0.07,0.12,-0.98,2.69,3.66,1.95
42.4000,0.07,0.12,-0.99,2.99,3.66,1.89
42.4160,0.07,0.12,-0.98,3.05,3.78,2.01
42.4390,0.07,0.12,-0.98,3.11,3.97,2.08
42.4560,0.07,0.12,-0.98,3.05,3.30,2.01
42.4730,0.07,0.12,-0.98,3.05,3.72,2.14
42.4880,0.07,0.12,-0.98,2.99,3.54,1.95
42.5030,0.07,0.12,-0.98,2.87,3.54,2.01
42.5110,0.10,0.12,-0.98,2.75,3.66,1.89
42.5270,0.07,0.12,-0.98,2.99,3.72,0.43
42.5480,0.07,0.12,-0.98,3.17,3.91,0.73
42.5640,0.07,0.12,-0.99,2.87,4.03,1.04
42.5810,0.07,0.12,-0.98,3.23,3.60,0.98
42.5970,0.07,0.12,-0.99,2.99,3.66,0.85
42.5980,0.07,0.12,-0.99,3.11,4.03,0.79
42.6290,0.07,0.12,-0.98,3.05,4.09,0.98
42.6310,0.07,0.13,-0.99,3.05,3.85,0.98
42.6480,0.07,0.12,-0.98,3.11,3.66,1.22
42.6740,0.07,0.12,-0.98,3.05,3.72,0.73
42.6800,0.07,0.13,-0.98,2.99,3.66,0.85
42.7010,0.07,0.12,-0.98,3.05,3.48,1.10
42.7180,0.07,0.12,-0.98,2.87,3.72,1.28
42.7360,0.07,0.12,-0.98,2.99,3.72,1.53
42.7510,0.07,0.12,-0.98,3.11,3.60,1.46
42.7690,0.07,0.12,-0.98,3.11,3.91,1.40
42.7840,0.07,0.12,-0.99,2.99,3.66,1.77
42.8010,0.07,0.12,-0.98,2.99,3.91,1.83
42.8170,0.08,0.12,-0.98,2.81,3.60,1.46
42.8190,0.08,0.12,-0.99,2.93,3.91,-0.24
42.8350,0.07,0.13,-0.98,2.93,3.97,-1.22
42.8640,0.06,0.13,-0.99,3.11,3.91,0.24
42.8750,0.07,0.12,-0.99,2.93,3.91,1.71
42.8840,0.07,0.12,-0.98,3.05,3.60,2.01
42.9000,0.07,0.12,-0.99,2.99,3.72,2.20
42.9220,0.07,0.12,-0.98,2.81,3.48,2.20
42.9380,0.07,0.13,-0.98,2.81,3.72,2.20
42.9560,0.07,0.12,-0.98,2.87,3.60,1.95
42.9740,0.07,0.12,-0.99,2.93,3.72,2.01
42.9880,0.07,0.12,-0.98,2.99,3.72,2.08
43.0040,0.07,0.12,-0.98,2.99,3.78,2.20
43.0200,0.08,0.12,-0.98,2.93,3.60,2.26
43.0360,0.07,0.12,-0.98,3.05,3.48,2.14
43.0530,0.07,0.12,-0.99,2.81,3.97,1.83
43.0680,0.07,0.12,-0.98,2.93,3.85,2.08
43.0840,0.07,0.12,-0.98,2.99,3.97,2.01
43.1000,0.07,0.12,-0.99,3.05,3.66,1.89
43.1160,0.07,0.12,-0.98,2.93,3.54,2.14
43.1320,0.07,0.12,-0.99,3.11,4.03,2.26
43.1380,0.07,0.12,-0.98,3.05,3.42,2.01
43.1540,0.07,0.12,-0.99,2.93,3.85,2.26
43.1750,0.07,0.12,-0.98,2.87,3.48,2.32
43.1920,0.08,0.13,-0.98,2.75,3.85,2.20
43.2080,0.16,0.13,-0.97,2.69,3.66,2.38
43.2250,0.14,0.12,-0.99,2.99,3.60,1.95
43.2400,0.13,0.11,-0.98,3.11,3.78,2.01
43.2550,0.11,0.11,-0.98,3.05,3.78,0.73
43.2700,0.08,0.12,-0.99,3.11,3.72,0.37
43.2860,0.06,0.12,-0.99,3.05,3.91,0.43
43.3010,0.04,0.13,-0.98,2.99,3.72,0.79
43.3170,0.03,0.13,-0.99,2.93,3.72,1.22
43.3320,0.01,0.13,-0.99,2.93,3.72,1.59
43.3410,0.01,0.13,-0.99,2.93,3.66,1.77
43.3640,0.05,0.13,-0.99,2.99,3.66,1.77
43.3750,0.07,0.12,-0.98,2.99,3.23,1.89
43.3910,0.07,0.12,-0.98,2.81,3.30,1.83
43.4090,0.07,0.12,-0.98,3.11,3.85,2.01
43.4240,0.07,0.12,-0.98,3.17,3.54,2.01
43.4400,0.07,0.12,-0.98,3.05,3.78,2.01
43.4560,0.07,0.12,-0.99,2.99,3.36,1.95
43.4720,0.07,0.12,-0.99,3.23,3.60,1.95
43.4870,0.07,0.12,-0.98,3.11,3.72,1.89
43.4910,0.07,0.12,-0.99,3.05,3.97,1.95
43.5190,0.07,0.12,-0.98,3.05,3.54,2.01
43.5350,0.07,0.12,-0.99,2.75,3.66,1.95
43.5500,0.07,0.12,-0.98,3.11,3.78,2.08
43.5570,0.07,0.12,-0.98,3.17,3.42,1.89
43.5760,0.07,0.12,-0.98,2.87,3.66,1.77
43.5950,0.07,0.12,-0.98,2.93,3.60,1.46
43.6120,0.07,0.12,-0.99,2.75,4.03,0.85
43.6280,0.07,0.12,-0.98,2.99,4.03,0.24
43.6450,0.07,0.12,-0.99,2.99,3.85,-0.31
43.6610,0.08,0.12,-0.98,3.11,3.91,-0.92
43.6770,0.08,0.12,-0.98,3.11,4.46,-1.95
43.6930,0.07,0.13,-0.98,3.30,4.15,-1.46
43.6960,0.06,0.13,-0.98,2.93,3.85,-0.18
43.7110,0.07,0.13,-0.99,2.93,3.78,0.49
43.7360,0.07,0.13,-0.98,2.93,3.85,0.67
43.7530,0.08,0.12,-0.98,3.11,3.78,0.61
43.7700,0.07,0.12,-0.98,3.11,4.15,0.00
43.7870,0.08,0.13,-0.98,3.23,3.78,-0.12
43.8030,0.09,0.12,-0.98,3.11,4.09,-0.85
43.8040,0.07,0.12,-0.98,3.05,4.03,-1.65
43.8200,0.06,0.12,-0.99,3.23,3.91,-0.85
43.8500,0.07,0.12,-0.98,3.36,4.03,0.12
43.8540,0.07,0.12,-0.98,3.17,3.72,-0.43
43.8820,0.07,0.12,-0.99,3.23,4.03,-0.37
43.8980,0.07,0.12,-0.98,2.99,4.15,-0.06
43.9040,0.06,0.12,-0.99,2.93,4.09,0.31
43.9200,0.07,0.12,-0.98,2.99,3.78,1.22
43.9360,0.08,0.12,-0.99,3.05,3.60,1.46
43.9550,0.08,0.12,-0.98,2.93,3.60,0.98
43.9730,0.08,0.12,-0.98,3.11,3.54,0.43
43.9890,0.07,0.12,-0.98,2.81,3.66,0.24
44.0050,0.06,0.12,-0.99,2.99,3.48,0.73
44.0210,0.07,0.12,-0.99,2.75,3.48,1.71
44.0370,0.06,0.12,-0.98,2.87,3.78,2.08
44.0520,0.07,0.12,-0.99,2.87,3.72,2.08
44.0680,0.07,0.12,-0.99,2.93,3.66,2.01
44.0840,0.08,0.12,-0.98,2.93,3.54,1.65
44.0900,0.08,0.12,-0.99,3.11,3.78,1.22
44.1160,0.08,0.12,-0.98,2.99,3.91,0.67
44.1310,0.08,0.13,-0.98,3.11,3.97,-0.31
44.1470,0.08,0.13,-0.99,3.05,4.09,-1.71
44.1560,0.07,0.12,-0.98,3.36,4.33,-2.26
44.1760,0.07,0.12,-0.99,3.36,4.27,-1.83
44.1890,0.08,0.12,-0.99,3.30,3.85,-1.22
44.2060,0.08,0.13,-0.98,3.42,4.03,-1.71
44.2220,0.07,0.13,-0.98,3.23,4.33,-2.32
44.2410,0.07,0.13,-0.98,3.30,4.27,-2.87
44.2580,0.07,0.12,-0.98,3.36,4.33,-3.11
44.2730,0.08,0.12,-0.99,3.30,4.39,-2.69
44.2890,0.06,0.12,-0.99,3.42,4.46,-2.32
44.3050,0.06,0.12,-0.98,3.36,4.15,-1.95
44.3210,0.05,0.12,-0.99,3.42,4.27,-1.65
44.3350,0.05,0.12,-0.99,3.11,4.09,-0.24
44.3510,0.06,0.12,-0.99,3.17,3.72,1.04
44.3660,0.08,0.12,-0.99,3.05,3.72,1.59
44.3760,0.07,0.12,-0.98,3.30,3.78,1.28
44.3920,0.07,0.12,-0.99,3.11,3.85,1.34
44.4110,0.08,0.12,-0.98,3.05,3.78,1.34
44.4270,0.08,0.12,-0.98,3.11,3.97,1.22
44.4420,0.07,0.12,-0.98,2.99,3.91,0.73
44.4580,0.07,0.12,-0.98,3.17,3.85,0.98
44.4590,0.07,0.12,-0.98,3.11,3.72,1.40
44.4770,0.08,0.13,-0.98,2.99,3.66,1.53
44.5050,0.07,0.13,-0.99,2.99,3.54,1.40
44.5210,0.08,0.13,-0.98,3.05,3.66,0.67
44.5370,0.07,0.12,-0.99,3.05,3.97,-0.31
44.5520,0.08,0.12,-0.98,3.23,3.97,-0.12
44.5600,0.07,0.12,-0.98,3.11,3.91,-0.37
44.5830,0.07,0.12,-0.99,3.05,3.97,-0.49
44.5930,0.07,0.12,-0.98,3.11,3.60,-0.43
44.6090,0.07,0.13,-0.98,3.05,3.78,-0.49
44.6260,0.08,0.13,-0.98,3.05,3.91,-1.04
44.6430,0.09,0.13,-0.98,3.17,3.97,-1.71
44.6600,0.08,0.12,-0.98,3.30,4.15,-2.01
44.6760,0.09,0.12,-0.98,3.36,4.27,-2.56
44.6910,0.09,0.13,-0.98,3.36,4.46,-3.54
44.6930,0.06,0.11,-0.99,3.60,4.52,-4.03
44.7230,0.05,0.12,-0.99,3.66,4.58,-3.36
44.7380,0.05,0.12,-0.99,3.23,4.52,-2.14
44.7540,0.05,0.12,-0.98,3.23,3.66,-0.31
44.7600,0.06,0.12,-0.99,2.93,3.78,1.16
44.7770,0.07,0.12,-0.98,2.87,3.54,1.53
44.7990,0.08,0.12,-0.99,2.99,3.60,1.40
44.8100,0.08,0.12,-0.98,2.99,3.72,0.61
44.8270,0.07,0.12,-0.98,3.11,3.66,-0.18
44.8430,0.07,0.12,-0.99,3.23,3.85,0.24
44.8610,0.08,0.12,-0.98,3.17,3.97,0.73
44.8770,0.09,0.12,-0.98,2.99,3.72,0.06
44.8920,0.08,0.12,-0.99,2.93,3.91,-0.49
44.9090,0.08,0.12,-0.98,3.42,4.03,-1.40
44.9240,0.06,0.13,-0.99,3.11,4.27,-1.53
44.9380,0.07,0.12,-0.98,3.23,4.27,-0.98
44.9540,0.07,0.12,-0.99,3.17,3.97,-0.67
44.9610,0.07,0.12,-0.99,3.36,3.85,-0.61
44.9880,0.08,0.12,-0.98,3.11,3.97,-0.85
44.9940,0.07,0.13,-0.98,3.11,4.15,-0.61
45.0180,0.07,0.13,-0.98,3.11,3.97,-0.49
45.0270,0.07,0.12,-0.99,3.05,4.21,-0.31
45.0430,0.08,0.12,-0.98,3.17,3.85,0.00
45.0600,0.09,0.12,-0.98,3.11,3.85,-0.98
45.0780,0.07,0.12,-0.98,3.23,4.21,-1.83
45.0930,0.06,0.13,-0.98,3.23,4.27,-0.98
45.1100,0.06,0.12,-0.99,3.23,4.03,0.73
45.1260,0.06,0.13,-0.98,3.23,4.03,1.34
45.1440,0.06,0.13,-0.99,2.99,4.03,1.71
45.1600,0.07,0.12,-0.98,3.23,3.85,2.26
45.1770,0.07,0.12,-0.98,3.05,3.66,1.77
45.1930,0.07,0.12,-0.98,3.05,3.78,2.01
45.2090,0.08,0.12,-0.98,3.05,3.66,1.77
45.2250,0.07,0.12,-0.98,3.11,3.78,1.22
45.2400,0.07,0.12,-0.99,2.93,3.48,1.46
45.2560,0.08,0.12,-0.98,3.11,3.54,1.22
45.2590,0.07,0.12,-0.98,3.05,3.91,1.10
45.2770,0.06,0.13,-0.99,2.99,3.78,1.16
45.2980,0.07,0.12,-0.98,3.11,3.42,1.89
45.3160,0.07,0.12,-0.98,3.11,3.78,2.08
45.3330,0.07,0.12,-0.99,3.05,3.66,2.14
45.3480,0.07,0.12,-0.98,3.11,3.54,2.01
45.3640,0.07,0.12,-0.98,3.23,3.78,2.01
45.3810,0.07,0.12,-0.98,2.87,3.60,1.95
45.3960,0.07,0.12,-0.98,3.05,3.48,1.95
45.4120,0.07,0.13,-0.98,2.81,3.54,1.95
45.4280,0.07,0.13,-0.99,2.93,3.54,2.14
45.4320,0.07,0.12,-0.99,2.93,3.78,1.89
45.4600,0.07,0.12,-0.98,2.81,3.78,1.89
45.4660,0.07,0.12,-0.99,2.99,3.72,2.14
45.4810,0.07,0.12,-0.98,3.05,3.85,2.08
45.5050,0.07,0.12,-0.99,3.05,3.72,1.89
45.5210,0.07,0.12,-0.99,3.05,4.03,2.08
45.5370,0.07,0.12,-0.98,3.17,3.66,2.08
45.5530,0.07,0.12,-0.99,2.93,3.78,1.95
45.5690,0.07,0.12,-0.98,3.05,3.91,2.01
45.5850,0.07,0.12,-0.99,3.11,3.54,2.08
45.6000,0.07,0.12,-0.99,2.87,3.72,2.08
45.6160,0.07,0.12,-0.98,2.93,4.09,2.14
45.6330,0.07,0.13,-0.99,2.99,3.66,2.01
45.6490,0.07,0.12,-0.98,2.99,3.66,2.32
45.6650,0.08,0.12,-0.98,2.93,3.85,2.01
45.6810,0.07,0.12,-0.99,2.99,3.54,1.95
45.6970,0.07,0.12,-0.98,2.99,3.97,1.89
45.7120,0.07,0.13,-0.98,3.30,3.60,2.08
45.7210,0.07,0.13,-0.98,3.23,3.72,2.08
45.7380,0.07,0.12,-0.99,3.05,3.42,2.01
45.7550,0.07,0.13,-0.98,2.87,3.42,1.95
45.7710,0.07,0.13,-0.99,2.81,3.85,1.89
45.7890,0.07,0.13,-0.99,2.99,3.60,1.89
45.7930,0.07,0.12,-0.99,2.56,3.54,1.95
45.8200,0.07,0.12,-0.98,2.75,3.78,2.01
45.8370,0.07,0.12,-0.98,2.62,3.48,2.08
45.8520,0.07,0.12,-0.99,2.81,3.54,2.01
45.8670,0.07,0.12,-0.98,2.56,3.72,2.01
45.8780,0.07,0.12,-0.98,3.05,3.48,2.01
45.8930,0.07,0.14,-0.99,5.07,4.21,2.08
45.9110,0.07,0.11,-0.98,1.65,3.30,1.83
45.9270,0.07,0.11,-0.98,2.50,3.54,1.89
45.9440,0.07,0.13,-0.99,2.75,3.48,1.89
45.9600,0.07,0.13,-0.99,2.93,3.48,2.08
45.9770,0.07,0.13,-0.98,2.81,3.42,1.95
45.9930,0.07,0.12,-0.98,2.69,3.42,2.01
46.0090,0.07,0.12,-0.98,2.93,3.78,2.01
46.0240,0.07,0.12,-0.99,3.11,3.66,2.01
46.0400,0.07,0.13,-0.98,3.05,3.78,2.14
46.0430,0.07,0.12,-0.98,2.93,3.60,2.14
46.0590,0.07,0.12,-0.98,2.93,3.36,2.01
46.0830,0.07,0.12,-0.98,2.93,3.48,1.89
46.1000,0.07,0.13,-0.98,3.05,3.42,1.95
46.1160,0.07,0.13,-0.99,2.93,3.60,2.14
46.1320,0.07,0.12,-0.98,2.87,3.85,2.01
46.1500,0.07,0.12,-0.99,2.93,3.66,1.95
46.1660,0.07,0.13,-0.98,3.11,3.60,2.20
46.1780,0.07,0.13,-0.99,2.87,3.85,2.01
46.1830,0.07,0.13,-0.99,2.99,3.78,2.01
46.2130,0.07,0.12,-0.98,3.05,3.72,2.01
46.2280,0.07,0.12,-0.99,2.87,3.54,2.01
46.2330,0.07,0.12,-0.98,2.99,3.85,2.01
46.2610,0.07,0.12,-0.99,2.75,3.66,2.08
46.2670,0.07,0.12,-0.98,3.11,3.72,2.20
46.2830,0.07,0.12,-0.99,3.05,3.54,2.01
46.3010,0.07,0.13,-0.99,2.99,3.72,2.01
46.3160,0.07,0.12,-0.98,3.05,3.66,2.08
46.3330,0.07,0.12,-0.99,3.05,3.42,2.08
46.3500,0.07,0.12,-0.98,2.87,3.66,2.14
46.3660,0.07,0.12,-0.98,2.87,3.78,1.95
46.3830,0.07,0.12,-0.98,2.93,3.91,2.08
46.4020,0.07,0.12,-0.98,3.05,3.78,2.14
46.4170,0.07,0.12,-0.98,2.75,3.91,2.01
46.4330,0.07,0.12,-0.99,2.87,3.66,2.01
46.4500,0.07,0.13,-0.99,2.87,3.60,2.01
46.4660,0.07,0.12,-0.98,3.05,3.85,2.01
46.4810,0.07,0.12,-0.99,2.81,3.72,1.95
46.4830,0.07,0.13,-0.98,2.93,3.78,1.83
46.5140,0.07,0.12,-0.98,2.99,3.72,1.83
46.5170,0.07,0.12,-0.99,2.93,3.48,1.95
46.5330,0.07,0.13,-0.99,2.93,3.72,1.95
46.5480,0.07,0.13,-0.99,3.05,3.60,2.08
46.5720,0.07,0.12,-0.98,2.93,3.48,1.95
46.5900,0.07,0.12,-0.98,2.99,3.54,1.95
46.6060,0.07,0.13,-0.99,2.93,3.85,2.01
46.6230,0.07,0.13,-0.98,2.99,3.54,1.95
46.6380,0.07,0.13,-0.98,2.93,3.54,2.01
46.6540,0.07,0.12,-0.98,2.99,3.48,1.89
46.6700,0.07,0.12,-0.99,2.93,3.42,1.95
46.6860,0.07,0.13,-0.99,3.05,3.48,1.83
46.7020,0.07,0.13,-0.99,2.87,3.42,1.89
46.7060,0.07,0.12,-0.99,2.69,3.48,1.89
46.7340,0.07,0.12,-0.98,3.11,3.23,2.01
46.7500,0.07,0.12,-0.95,3.05,3.11,1.95
46.7660,0.07,0.13,-0.99,2.93,3.60,1.95
46.7820,0.07,0.12,-0.98,2.87,3.78,2.01
46.7900,0.07,0.12,-1.00,2.99,3.72,2.14
46.8050,0.07,0.14,-1.02,2.81,4.33,2.01
46.8260,0.07,0.13,-0.99,2.69,4.15,1.95
46.8430,0.08,0.12,-1.00,3.05,3.78,2.01
46.8580,0.07,0.13,-0.99,2.87,3.78,2.01
46.8730,0.07,0.12,-0.98,3.05,3.60,2.01
46.8880,0.07,0.12,-0.98,2.87,3.60,1.95
46.9030,0.07,0.12,-0.99,3.11,3.48,2.20
46.9200,0.07,0.12,-0.98,2.93,3.97,2.08
46.9360,0.07,0.13,-0.98,2.99,3.54,2.08
46.9420,0.07,0.12,-0.99,2.99,3.54,2.01
46.9680,0.07,0.12,-0.98,2.99,3.66,2.01
46.9840,0.07,0.12,-0.99,3.05,3.60,1.95
46.9940,0.07,0.13,-0.99,2.75,3.72,1.89
47.0110,0.07,0.12,-0.98,2.99,3.48,2.14
47.0280,0.07,0.12,-0.99,2.99,3.54,2.08
47.0440,0.07,0.13,-0.99,3.05,3.48,2.20
47.0620,0.07,0.13,-0.98,2.93,3.60,1.83
47.0780,0.07,0.12,-0.99,2.81,3.60,1.95
47.0940,0.07,0.12,-0.98,2.93,3.42,1.95
47.1110,0.07,0.12,-0.98,3.05,3.66,2.14
47.1260,0.07,0.12,-0.98,2.99,3.48,1.95
47.1410,0.07,0.12,-0.98,3.05,3.36,2.01
47.1570,0.07,0.13,-0.99,2.87,3.66,2.08
47.1610,0.07,0.13,-0.99,3.05,3.60,2.08
47.1790,0.07,0.13,-0.99,3.05,3.48,2.14
47.1980,0.07,0.12,-0.99,2.93,3.48,2.08
47.2160,0.07,0.12,-0.98,2.99,3.72,1.95
47.2320,0.07,0.13,-0.98,2.87,3.48,1.95
47.2490,0.07,0.12,-0.98,2.93,3.72,2.01
47.2650,0.07,0.13,-0.98,2.93,3.23,2.14
47.2810,0.07,0.12,-0.98,2.81,3.66,2.08
47.2970,0.07,0.12,-0.98,2.87,3.54,1.89
47.3130,0.07,0.12,-0.99,3.05,3.60,2.08
47.3290,0.07,0.12,-0.98,3.05,3.97,1.89
47.3320,0.07,0.12,-0.99,3.11,3.42,2.01
47.3480,0.07,0.12,-0.98,2.99,3.42,1.89
47.3700,0.07,0.12,-0.98,2.93,3.60,1.89
47.3870,0.07,0.12,-0.98,2.87,3.78,1.83
47.4030,0.07,0.12,-0.98,2.93,3.30,2.14
47.4200,0.07,0.13,-0.99,3.05,3.97,2.26
47.4370,0.07,0.12,-0.98,3.17,4.21,2.14
47.4520,0.07,0.13,-0.99,4.21,4.03,2.14
47.4690,-0.00,0.14,-0.99,2.56,3.30,4.70
47.4850,0.13,0.16,-0.97,2.20,3.48,3.66
47.5010,0.10,0.14,-0.98,2.93,3.54,2.87
47.5030,0.07,0.12,-0.98,3.05,3.91,1.89
47.5320,0.07,0.12,-0.98,3.30,3.36,1.89
47.5470,0.07,0.13,-0.98,3.36,3.91,1.89
47.5590,0.07,0.13,-0.98,2.62,3.23,1.77
47.5760,0.07,0.13,-0.98,2.50,3.23,1.95
47.5920,0.07,0.12,-0.98,2.38,3.42,1.95
47.6100,0.07,0.12,-0.99,2.50,3.72,2.01
47.6250,0.07,0.13,-0.98,2.99,3.78,1.95
47.6420,0.07,0.12,-0.98,2.93,3.85,2.14
47.6580,0.07,0.12,-0.98,2.99,3.54,1.95
47.6740,0.07,0.13,-0.99,3.05,3.72,2.01
47.6910,0.07,0.13,-0.98,2.75,3.36,1.89
47.7050,0.07,0.13,-0.98,3.05,3.36,2.08
47.7210,0.07,0.12,-0.99,2.62,3.60,1.95
47.7250,0.07,0.13,-0.98,3.05,3.72,2.01
47.7410,0.07,0.13,-0.99,3.05,3.60,2.14
47.7620,0.07,0.12,-0.98,2.81,3.66,2.01
47.7800,0.07,0.12,-0.98,2.99,3.97,2.08
47.7950,0.07,0.12,-0.97,2.87,4.09,1.83
47.8120,0.07,0.12,-0.96,2.01,3.30,1.95
47.8280,0.07,0.14,-1.02,3.54,3.66,2.14
47.8450,0.07,0.13,-0.99,3.36,3.54,1.83
47.8610,0.07,0.11,-0.98,2.81,3.78,1.95
47.8770,0.07,0.13,-0.98,3.11,3.85,2.14
47.8930,0.07,0.13,-0.98,3.05,3.85,1.95
47.9080,0.07,0.13,-0.99,3.05,3.66,1.89
47.9240,0.07,0.12,-0.98,2.93,3.54,2.01
47.9390,0.07,0.12,-0.99,2.93,3.66,1.95
47.9540,0.07,0.13,-0.98,3.54,3.54,2.01
47.9700,0.07,0.12,-0.98,3.23,3.78,2.08
47.9800,0.07,0.13,-0.99,4.27,3.97,2.20
47.9960,0.07,0.12,-0.98,3.85,3.97,2.01
48.0110,0.02,0.09,-1.00,3.17,4.03,2.20
48.0320,0.06,0.11,-0.99,2.08,3.30,3.17
48.0480,0.09,0.14,-0.98,2.08,3.05,3.42
48.0640,0.09,0.14,-0.98,2.87,3.17,3.78
48.0650,0.09,0.14,-0.98,2.75,3.42,4.33
48.0950,0.07,0.14,-0.99,3.05,3.60,3.54
48.1110,0.07,0.13,-0.98,3.17,3.66,2.75
48.1260,0.07,0.13,-0.99,2.81,3.72,2.08
48.1420,0.07,0.09,-0.98,2.32,3.66,1.95
48.1490,0.07,0.12,-0.98,2.14,3.48,1.89
48.1650,0.07,0.12,-0.98,1.89,3.36,1.89
48.1820,0.07,0.13,-0.98,3.05,3.85,2.01
