Timestamp, AccX, AccY, AccZ, GyroX, GyroY, GyroZ
0.0120,0.08,0.13,-0.99,2.75,3.91,2.20
0.0270,0.08,0.12,-0.99,2.81,3.72,1.95
0.0420,0.08,0.12,-0.99,2.93,3.66,2.14
0.0560,0.08,0.12,-0.99,2.99,3.78,2.08
0.0670,0.09,0.12,-0.99,3.05,4.09,2.01
0.0840,0.08,0.11,-0.99,2.93,3.60,2.08
0.1000,0.09,0.11,-0.99,2.75,3.54,2.20
0.1170,0.09,0.11,-0.99,2.87,3.97,2.14
0.1320,0.09,0.11,-0.99,3.11,3.60,2.14
0.1460,0.09,0.12,-0.99,3.11,3.97,2.08
0.1610,0.08,0.12,-0.99,3.11,3.78,1.95
0.1760,0.09,0.12,-0.99,3.23,3.91,1.95
0.1910,0.08,0.12,-0.99,3.17,4.15,2.26
0.2070,0.07,0.13,-0.99,3.54,3.78,2.08
0.2170,0.08,0.13,-0.99,3.23,3.30,6.90
0.2340,0.09,0.12,-1.00,3.17,2.99,6.71
0.2500,0.09,0.11,-0.99,3.17,3.66,4.39
0.2660,0.08,0.12,-0.99,3.05,3.42,2.20
0.2810,0.08,0.12,-0.99,2.87,3.97,2.01
0.2960,0.08,0.13,-0.99,2.56,3.66,1.77
0.3120,0.08,0.14,-0.99,3.11,3.91,1.04
0.3280,0.09,0.10,-0.99,3.42,4.21,-0.24
0.3340,0.09,0.11,-0.99,3.36,3.85,0.92
0.3530,0.09,0.12,-0.99,3.11,4.09,1.34
0.3730,0.09,0.12,-0.99,2.99,3.85,0.79
0.3900,0.08,0.10,-0.99,2.50,3.85,1.40
0.3910,0.08,0.12,-0.99,2.62,3.66,2.14
0.4210,0.08,0.12,-0.99,2.87,3.36,2.20
0.4370,0.06,0.09,-1.00,3.11,3.23,2.56
0.4530,0.07,0.10,-1.00,2.14,2.81,7.87
0.4570,0.13,0.16,-0.98,2.26,2.56,10.44
0.4850,0.08,0.15,-0.99,2.56,3.30,6.10
0.4910,0.08,0.13,-0.99,2.93,3.97,2.99
0.5060,0.09,0.11,-0.99,3.11,3.85,2.56
0.5220,0.09,0.11,-0.99,2.81,3.60,3.85
0.5440,0.08,0.13,-0.99,2.81,3.36,4.33
0.5610,0.09,0.12,-0.99,2.62,3.78,2.50
0.5770,0.09,0.12,-0.99,2.81,3.72,2.14
0.5940,0.09,0.12,-0.99,2.87,3.78,2.20
0.6100,0.09,0.12,-0.99,2.75,3.60,2.01
0.6250,0.08,0.15,-0.99,2.75,3.91,1.83
0.6420,0.10,0.16,-0.98,3.42,5.00,-5.80
0.6560,0.09,0.09,-1.00,4.21,5.37,-7.51
0.6720,0.09,0.12,-0.99,4.33,5.68,-8.97
0.6880,0.11,0.10,-0.99,4.64,6.35,-12.33
0.7040,0.07,0.10,-1.00,5.00,8.00,-22.03
0.7200,0.07,0.14,-0.99,4.15,6.53,-14.89
0.7280,0.07,0.12,-0.99,3.91,5.31,-8.42
0.7440,0.08,0.11,-0.99,3.23,4.94,-4.70
0.7600,0.08,0.12,-0.99,3.48,4.88,-4.82
0.7760,0.08,0.12,-0.99,3.17,4.70,-3.05
0.7980,0.08,0.12,-0.99,2.87,4.03,0.31
0.8140,0.08,0.11,-0.99,3.05,3.78,2.08
0.8290,0.08,0.12,-0.99,2.99,4.03,2.08
0.8460,0.08,0.12,-0.99,2.69,3.48,2.20
0.8610,0.08,0.13,-0.99,2.99,3.60,2.26
0.8760,0.07,0.13,-0.99,2.81,3.48,5.07
0.8920,0.07,0.15,-0.99,3.23,3.36,5.00
0.9080,0.08,0.10,-0.99,3.05,3.36,5.68
0.9230,0.09,0.10,-0.99,2.87,3.48,4.70
0.9380,0.10,0.11,-0.99,2.87,3.54,3.23
0.9480,0.09,0.12,-0.99,2.81,3.48,2.69
0.9640,0.08,0.12,-0.99,2.87,3.72,3.17
0.9830,0.08,0.12,-0.99,2.99,3.36,3.72
0.9980,0.09,0.11,-0.99,3.17,3.60,3.05
1.0040,0.08,0.12,-0.99,2.99,4.15,2.50
1.0300,0.08,0.12,-0.99,2.75,3.60,3.42
1.0450,0.07,0.13,-0.99,2.69,3.60,5.31
1.0550,0.09,0.12,-0.99,2.62,2.99,5.68
1.0700,0.10,0.11,-0.99,2.69,3.30,4.70
1.0870,0.09,0.11,-0.99,2.93,3.60,2.99
1.1020,0.08,0.12,-0.99,3.23,3.72,2.26
1.1220,0.07,0.13,-0.99,2.99,3.78,2.50
1.1370,0.07,0.13,-0.99,3.05,3.66,3.23
1.1520,0.08,0.14,-0.99,2.44,3.23,6.04
1.1670,0.08,0.13,-0.99,2.20,2.38,11.35
1.1770,0.11,0.10,-0.99,2.32,2.75,8.12
1.1920,0.11,0.09,-0.99,2.75,3.91,3.66
1.2090,0.10,0.10,-0.99,2.81,3.78,2.44
1.2260,0.09,0.12,-0.99,3.23,3.72,2.14
1.2410,0.08,0.12,-0.99,3.11,3.85,2.20
1.2570,0.08,0.12,-0.99,2.99,3.60,2.26
1.2720,0.07,0.13,-0.99,2.81,3.54,2.87
1.2870,0.08,0.12,-0.99,2.99,3.36,3.48
1.3020,0.09,0.11,-0.99,2.87,3.97,2.81
1.3090,0.09,0.12,-0.99,3.17,3.85,2.08
1.3250,0.08,0.12,-0.99,3.23,3.85,2.14
1.3480,0.08,0.12,-0.99,2.93,3.85,2.44
1.3640,0.09,0.12,-0.99,2.87,3.72,2.75
1.3810,0.09,0.11,-0.99,3.23,4.09,2.56
1.3970,0.09,0.12,-0.99,3.30,3.91,2.08
1.4130,0.08,0.12,-0.99,3.36,3.48,2.08
1.4290,0.08,0.12,-0.99,3.11,3.66,2.14
1.4450,0.08,0.12,-0.99,2.93,3.85,2.14
1.4600,0.08,0.12,-0.99,2.99,3.66,2.20
1.4750,0.09,0.12,-0.99,2.87,3.66,2.08
1.4900,0.09,0.12,-0.99,2.93,3.85,2.08
1.5050,0.08,0.12,-0.99,2.99,3.78,2.20
1.5210,0.08,0.12,-0.99,3.23,3.97,2.08
1.5320,0.08,0.13,-0.99,2.93,3.48,2.26
1.5480,0.09,0.12,-0.99,2.87,3.42,3.85
1.5640,0.09,0.11,-0.99,2.93,3.42,3.60
1.5800,0.09,0.12,-0.99,3.30,3.66,2.14
1.5970,0.08,0.12,-0.99,3.05,3.91,2.14
1.6140,0.08,0.12,-0.99,2.75,3.48,1.95
1.6300,0.08,0.12,-0.99,2.87,3.60,2.01
1.6460,0.08,0.13,-0.99,3.05,3.60,2.38
1.6620,0.08,0.12,-0.99,3.17,3.60,3.05
1.6780,0.08,0.11,-0.99,2.93,3.85,2.81
1.6930,0.08,0.11,-0.99,3.17,3.66,2.20
1.7080,0.09,0.13,-0.99,3.17,3.85,2.08
1.7240,0.08,0.13,-0.99,2.75,3.54,2.44
1.7400,0.08,0.13,-0.99,2.69,3.66,3.05
1.7550,0.08,0.12,-0.99,3.05,3.30,5.13
1.7630,0.09,0.09,-1.00,2.75,3.54,3.60
1.7860,0.09,0.10,-0.99,3.23,3.97,1.95
1.8020,0.08,0.12,-0.99,3.11,4.15,1.89
1.8170,0.08,0.12,-0.99,3.11,3.60,2.26
1.8210,0.08,0.12,-0.99,2.99,3.85,2.87
1.8360,0.08,0.12,-0.99,2.99,3.60,2.93
1.8590,0.09,0.12,-0.99,2.69,3.91,2.93
1.8760,0.09,0.12,-0.99,2.93,3.85,2.69
1.8920,0.08,0.12,-0.99,3.05,3.85,2.93
1.9070,0.08,0.12,-0.99,2.93,3.85,3.30
1.9090,0.08,0.12,-0.99,2.81,3.60,3.54
1.9240,0.08,0.12,-0.99,2.87,3.72,3.48
1.9470,0.08,0.12,-0.99,2.93,3.66,3.48
1.9650,0.08,0.11,-0.99,3.23,3.97,3.54
1.9810,0.09,0.12,-0.99,3.05,3.36,3.54
1.9970,0.09,0.12,-0.99,2.93,3.48,3.60
2.0140,0.08,0.13,-0.99,2.69,3.66,3.85
2.0290,0.08,0.12,-0.99,2.69,3.48,4.70
2.0450,0.08,0.12,-0.99,2.69,3.42,5.07
2.0610,0.09,0.10,-1.00,3.05,3.36,4.33
2.0750,0.09,0.12,-0.99,2.75,3.72,3.11
2.0920,0.08,0.12,-0.99,2.87,3.78,2.93
2.0970,0.08,0.12,-0.99,3.05,3.78,3.66
2.1220,0.09,0.12,-0.99,2.75,3.72,3.72
2.1370,0.08,0.13,-0.99,2.93,3.72,3.60
2.1470,0.08,0.11,-0.99,2.99,3.72,3.78
2.1620,0.08,0.12,-0.99,2.93,3.48,3.78
2.1840,0.09,0.12,-0.99,2.81,3.48,3.85
2.1990,0.08,0.12,-0.99,2.87,3.48,3.78
2.2020,0.08,0.12,-0.99,2.87,3.36,3.97
2.2180,0.08,0.11,-0.99,2.69,3.85,3.42
2.2360,0.08,0.12,-0.99,2.81,3.54,2.99
2.2560,0.08,0.14,-0.99,2.75,3.48,3.30
2.2730,0.08,0.12,-0.99,2.56,3.60,4.94
2.2900,0.09,0.10,-0.99,2.69,3.48,3.97
2.3060,0.09,0.11,-1.00,2.87,3.36,2.50
2.3230,0.09,0.13,-0.99,2.93,3.54,2.81
2.3380,0.08,0.12,-0.99,2.62,3.17,4.33
2.3540,0.09,0.11,-0.99,2.81,3.30,4.46
2.3700,0.09,0.13,-0.99,2.87,3.54,3.23
2.3740,0.09,0.13,-0.99,2.87,3.42,3.42
2.3890,0.08,0.12,-0.99,2.93,3.42,4.27
2.4070,0.08,0.11,-0.99,2.81,3.48,4.21
2.4340,0.08,0.10,-1.00,2.75,3.60,3.48
2.4500,0.08,0.11,-0.99,2.99,4.09,2.56
2.4570,0.08,0.12,-0.99,3.17,4.03,2.38
2.4800,0.08,0.12,-0.99,2.87,3.60,2.50
2.4900,0.08,0.14,-0.99,2.81,3.78,2.87
2.5050,0.08,0.11,-0.99,2.75,3.36,3.97
2.5250,0.08,0.11,-0.99,2.81,3.60,3.36
2.5270,0.09,0.11,-0.99,2.81,3.78,3.17
2.5570,0.09,0.12,-0.99,2.93,3.60,2.50
2.5730,0.09,0.13,-0.99,2.87,3.42,2.26
2.5890,0.09,0.13,-0.99,3.05,3.97,2.69
2.6050,0.08,0.12,-0.99,2.75,3.72,3.42
2.6210,0.08,0.11,-0.99,2.56,3.48,3.11
2.6380,0.09,0.12,-0.99,2.93,3.48,3.05
2.6530,0.09,0.11,-0.99,2.75,3.66,2.99
2.6690,0.09,0.11,-0.99,2.81,3.78,2.38
2.6860,0.09,0.13,-0.99,3.05,3.78,2.44
2.6920,0.08,0.13,-0.99,2.81,3.66,3.23
2.7080,0.08,0.12,-0.99,2.99,3.66,4.03
2.7300,0.09,0.11,-0.99,2.99,3.72,2.81
2.7470,0.09,0.12,-0.99,3.05,3.48,2.01
2.7640,0.09,0.14,-0.99,3.23,4.03,2.14
2.7790,0.08,0.12,-0.99,2.93,3.60,4.27
2.7950,0.08,0.12,-0.99,2.38,3.42,3.97
2.7980,0.08,0.11,-1.00,2.87,3.42,3.11
2.8130,0.08,0.11,-0.99,2.99,3.66,2.38
2.8350,0.09,0.12,-0.99,3.17,3.60,2.20
2.8520,0.08,0.12,-0.99,2.93,3.54,2.87
2.8690,0.08,0.11,-0.99,2.93,3.42,3.17
2.8840,0.08,0.11,-0.99,2.81,3.54,2.87
2.9020,0.09,0.12,-0.99,2.93,3.66,2.08
2.9180,0.09,0.12,-0.99,2.87,4.09,2.14
2.9360,0.09,0.12,-0.99,3.05,3.78,2.01
2.9510,0.08,0.12,-0.99,3.23,3.91,2.26
2.9670,0.08,0.12,-0.99,2.99,3.66,2.81
2.9680,0.08,0.12,-0.99,2.81,3.78,2.69
2.9980,0.09,0.12,-0.99,2.81,3.54,2.69
3.0020,0.09,0.13,-0.99,2.99,3.72,2.81
3.0190,0.09,0.12,-0.99,2.75,3.54,3.11
3.0350,0.08,0.12,-0.99,2.81,3.54,3.17
3.0570,0.08,0.12,-0.99,2.75,3.60,3.36
3.0680,0.08,0.11,-0.99,2.75,3.72,3.11
3.0940,0.09,0.12,-0.99,3.05,3.72,2.56
3.1040,0.09,0.12,-0.99,2.99,3.60,2.93
3.1220,0.08,0.11,-1.00,2.81,3.85,3.17
3.1400,0.08,0.11,-0.99,2.99,3.72,2.50
3.1550,0.09,0.13,-0.99,2.87,3.72,2.50
3.1710,0.08,0.12,-0.99,2.99,3.48,2.75
3.1870,0.08,0.11,-1.00,2.99,3.85,3.05
3.2040,0.08,0.11,-0.99,3.17,3.60,2.44
3.2200,0.08,0.12,-0.99,2.81,3.72,2.26
3.2350,0.09,0.13,-0.99,2.99,3.66,2.01
3.2380,0.09,0.13,-0.99,2.87,3.42,2.32
3.2660,0.08,0.13,-0.99,2.81,3.48,3.36
3.2770,0.08,0.11,-0.99,2.81,3.30,3.97
3.2950,0.08,0.11,-0.99,2.93,3.78,3.05
3.3110,0.08,0.12,-0.99,2.81,3.72,2.38
3.3270,0.09,0.13,-0.99,2.99,4.09,2.01
3.3420,0.08,0.12,-0.99,2.93,3.60,2.56
3.3580,0.08,0.11,-0.99,2.99,3.60,2.81
3.3600,0.08,0.12,-0.99,2.75,3.85,2.87
3.3760,0.09,0.12,-0.99,2.75,3.54,2.69
3.4050,0.09,0.12,-0.99,3.17,3.60,2.75
3.4200,0.09,0.13,-0.99,3.30,3.48,2.99
3.4310,0.09,0.13,-0.99,2.93,3.60,3.72
3.4480,0.09,0.12,-0.99,2.81,3.48,3.85
3.4640,0.08,0.12,-0.99,2.69,3.54,3.72
3.4800,0.08,0.11,-0.99,2.81,3.42,3.23
3.4960,0.08,0.11,-0.99,2.93,3.54,2.75
3.5120,0.08,0.12,-0.99,2.81,3.66,2.14
3.5150,0.08,0.13,-0.99,2.81,3.85,2.81
3.5310,0.08,0.12,-0.99,2.87,3.36,3.91
3.5570,0.08,0.11,-0.99,2.75,3.17,4.03
3.5710,0.08,0.11,-0.99,2.81,3.66,2.87
3.5880,0.08,0.12,-1.00,3.11,3.66,2.20
3.6050,0.09,0.12,-0.99,2.87,3.54,2.08
3.6200,0.09,0.13,-0.99,3.11,4.03,2.81
3.6220,0.09,0.13,-0.99,2.93,3.78,3.30
3.6510,0.08,0.12,-1.00,3.05,3.17,4.46
3.6680,0.08,0.11,-1.00,2.75,3.23,3.91
3.6830,0.08,0.12,-0.99,2.75,3.60,2.93
3.6890,0.08,0.12,-0.99,3.17,3.85,2.99
3.7040,0.09,0.12,-0.99,3.05,3.54,4.52
3.7280,0.09,0.12,-0.99,2.87,3.36,4.21
3.7460,0.09,0.12,-0.99,2.99,3.54,3.66
3.7620,0.09,0.12,-0.99,2.81,3.66,3.17
3.7780,0.08,0.11,-0.99,3.11,3.60,2.56
3.7940,0.09,0.12,-0.99,2.87,3.85,2.32
3.8090,0.09,0.13,-0.99,2.81,3.48,2.56
3.8110,0.08,0.12,-0.99,2.93,3.11,3.85
3.8380,0.08,0.11,-0.99,2.99,3.05,3.97
3.8540,0.08,0.11,-1.00,2.75,3.48,3.66
3.8680,0.08,0.12,-0.99,2.81,3.72,2.32
3.8790,0.09,0.13,-0.99,2.87,3.60,2.44
3.8960,0.09,0.12,-0.99,3.17,4.09,2.93
3.9130,0.09,0.12,-0.99,2.87,3.48,3.11
3.9300,0.08,0.11,-0.99,2.87,3.36,2.69
3.9470,0.08,0.11,-0.99,2.75,3.72,2.32
3.9620,0.08,0.12,-0.99,2.69,3.36,2.14
3.9790,0.08,0.12,-0.99,2.62,3.66,2.32
3.9950,0.09,0.12,-0.99,2.69,3.60,3.11
4.0110,0.09,0.13,-0.99,2.81,3.60,3.36
4.0260,0.09,0.12,-0.99,2.99,3.72,3.97
4.0410,0.08,0.11,-0.99,2.81,3.78,2.87
4.0580,0.08,0.12,-0.99,2.93,3.48,2.32
4.0740,0.08,0.12,-0.99,2.87,3.48,2.69
4.0800,0.09,0.12,-0.99,2.81,3.30,3.97
4.0960,0.09,0.12,-0.99,2.81,3.54,4.52
4.1190,0.09,0.12,-0.99,2.69,3.30,4.64
4.1350,0.09,0.12,-0.99,2.62,3.60,3.66
4.1510,0.08,0.12,-0.99,2.75,3.54,2.99
4.1680,0.08,0.12,-0.99,3.05,3.36,2.81
4.1830,0.09,0.13,-0.99,3.05,3.60,3.54
4.1860,0.09,0.12,-0.99,2.93,3.66,4.27
4.2010,0.08,0.13,-0.99,2.75,3.05,4.33
4.2300,0.09,0.12,-0.99,2.62,3.30,4.82
4.2400,0.09,0.10,-0.99,2.62,3.66,3.85
4.2570,0.09,0.11,-0.99,3.05,3.85,2.87
4.2730,0.09,0.12,-0.99,2.93,3.66,2.62
4.2900,0.08,0.12,-0.99,3.05,3.85,2.81
4.3060,0.09,0.13,-0.99,3.05,3.23,3.23
4.3220,0.09,0.13,-0.99,2.93,3.60,3.11
4.3370,0.09,0.13,-0.99,2.81,3.60,4.15
4.3540,0.08,0.11,-0.99,2.87,3.42,4.94
4.3700,0.08,0.10,-1.00,2.99,3.72,4.21
4.3860,0.08,0.12,-0.99,2.99,3.85,2.69
4.3900,0.09,0.12,-0.99,2.81,3.66,2.32
4.4060,0.09,0.13,-0.99,2.81,3.85,2.62
4.4280,0.09,0.14,-0.99,2.93,3.54,3.78
4.4450,0.09,0.11,-0.99,2.62,3.36,5.07
4.4610,0.09,0.11,-0.99,2.75,3.30,3.42
4.4770,0.08,0.11,-0.99,2.69,3.42,2.99
4.4930,0.08,0.12,-0.99,2.81,3.48,2.44
4.5090,0.08,0.13,-0.99,2.81,3.42,2.75
4.5240,0.08,0.12,-0.99,2.87,3.78,3.78
4.5280,0.09,0.12,-0.99,2.87,3.23,4.09
4.5440,0.08,0.11,-1.00,2.93,3.91,3.36
4.5680,0.08,0.11,-1.00,2.99,3.60,2.32
4.5850,0.08,0.12,-0.99,2.69,3.72,2.26
4.6010,0.08,0.13,-0.99,2.75,3.72,2.08
4.6180,0.08,0.13,-0.99,3.11,3.91,2.01
4.6190,0.09,0.12,-0.99,3.17,3.48,2.38
4.6500,0.09,0.14,-0.99,2.93,3.60,2.75
4.6580,0.08,0.12,-0.99,2.99,3.54,3.78
4.6670,0.08,0.11,-0.99,2.69,3.91,3.42
4.6980,0.09,0.11,-1.00,2.87,3.72,2.69
4.7050,0.09,0.12,-0.99,2.99,3.91,2.62
4.7200,0.09,0.12,-0.99,2.87,3.66,2.56
4.7420,0.09,0.13,-0.99,2.75,3.42,2.62
4.7590,0.09,0.13,-0.99,2.75,3.36,3.23
4.7750,0.09,0.12,-0.99,2.93,3.42,3.66
4.7900,0.09,0.12,-0.99,3.05,3.23,3.17
4.8060,0.09,0.12,-0.99,2.99,3.97,2.69
4.8210,0.08,0.13,-0.99,2.99,3.60,2.99
4.8370,0.08,0.12,-0.99,2.69,3.60,3.54
4.8520,0.09,0.12,-0.99,2.75,3.78,3.54
4.8580,0.08,0.11,-0.99,3.23,3.54,3.60
4.8740,0.09,0.11,-0.99,2.99,3.54,2.75
4.9000,0.09,0.12,-0.99,2.87,3.66,2.38
4.9110,0.09,0.13,-0.99,2.81,3.36,2.38
4.9280,0.08,0.12,-0.99,2.87,3.60,2.56
4.9440,0.09,0.13,-0.99,2.87,3.60,2.99
4.9610,0.09,0.12,-0.99,2.99,3.72,3.72
4.9770,0.09,0.12,-0.99,2.87,3.48,3.30
4.9930,0.08,0.13,-0.99,2.87,3.60,3.30
4.9960,0.09,0.14,-0.99,2.75,3.72,3.85
5.0240,0.08,0.12,-0.99,2.87,3.30,4.33
5.0380,0.08,0.10,-1.00,2.81,3.17,4.21
5.0540,0.09,0.12,-0.99,2.93,3.42,2.99
5.0690,0.09,0.13,-0.99,3.11,3.66,3.05
5.0780,0.09,0.14,-0.99,2.87,3.36,3.91
5.0940,0.09,0.13,-0.99,2.99,3.30,4.64
5.1110,0.09,0.12,-0.99,2.93,3.42,5.13
5.1270,0.09,0.12,-0.99,3.05,3.78,4.15
5.1430,0.08,0.12,-1.00,3.23,3.48,3.42
5.1580,0.08,0.11,-1.00,2.99,3.54,3.23
5.1730,0.08,0.10,-1.00,2.99,3.42,3.23
5.1820,0.09,0.12,-0.99,2.99,3.60,2.81
5.1970,0.09,0.13,-0.99,2.99,3.78,2.81
5.2150,0.08,0.11,-0.99,2.81,3.91,2.81
5.2320,0.08,0.11,-0.99,2.99,4.03,2.38
5.2490,0.09,0.12,-0.99,3.05,3.54,2.20
5.2650,0.09,0.13,-0.99,2.93,3.48,2.08
5.2810,0.09,0.13,-0.99,3.23,3.85,2.26
5.2960,0.09,0.13,-0.99,2.87,3.91,2.56
5.2990,0.09,0.11,-0.99,2.75,3.72,3.17
5.3140,0.08,0.11,-1.00,2.93,3.97,2.62
5.3370,0.08,0.12,-0.99,2.75,3.85,2.08
5.3530,0.08,0.15,-0.99,3.05,3.48,1.83
5.3690,0.08,0.12,-0.99,2.87,3.85,1.83
5.3870,0.09,0.13,-0.99,2.99,3.72,2.99
5.4030,0.09,0.14,-0.99,3.05,3.17,4.27
5.4180,0.09,0.12,-0.99,2.87,3.30,4.39
5.4330,0.08,0.11,-0.99,2.75,3.36,3.54
5.4490,0.08,0.12,-0.99,3.11,3.30,3.05
5.4650,0.08,0.12,-0.99,2.93,3.78,3.17
5.4700,0.09,0.12,-0.99,3.17,3.85,2.87
5.4950,0.09,0.13,-0.99,2.99,3.66,3.11
5.5060,0.09,0.13,-0.99,3.11,3.60,3.36
5.5220,0.08,0.12,-0.99,3.11,3.54,4.15
5.5390,0.08,0.11,-1.00,3.17,3.78,3.42
5.5560,0.08,0.11,-0.99,2.81,3.78,2.56
5.5710,0.08,0.12,-0.99,2.99,3.72,2.38
5.5870,0.08,0.12,-0.99,2.93,4.03,2.44
5.6030,0.09,0.12,-0.99,2.99,3.48,2.81
5.6070,0.09,0.12,-0.99,2.99,3.48,3.17
5.6340,0.09,0.11,-0.99,2.99,3.48,2.62
5.6400,0.09,0.13,-0.99,3.17,4.03,2.62
5.6580,0.09,0.13,-0.99,2.87,3.30,3.23
5.6780,0.09,0.13,-0.99,2.81,3.85,3.72
5.6930,0.09,0.13,-0.99,2.81,3.30,4.46
5.7090,0.08,0.10,-1.00,2.93,3.36,4.27
5.7130,0.08,0.12,-0.99,3.23,3.66,2.81
5.7290,0.09,0.13,-0.99,3.11,3.72,2.44
5.7550,0.09,0.13,-0.99,2.75,3.85,2.62
5.7670,0.08,0.13,-0.99,2.75,4.03,2.69
5.7830,0.08,0.12,-0.99,2.81,3.85,2.93
5.8000,0.08,0.12,-0.99,3.05,3.60,3.30
5.8170,0.09,0.14,-0.99,2.99,3.66,2.99
5.8330,0.09,0.12,-0.99,2.81,3.72,3.23
5.8490,0.09,0.11,-0.99,2.62,3.54,3.60
5.8650,0.09,0.11,-0.99,2.99,3.66,3.42
5.8810,0.09,0.12,-0.99,3.05,3.78,3.85
5.8970,0.08,0.11,-0.99,3.05,3.78,3.72
5.9130,0.08,0.11,-0.99,2.69,3.60,2.75
5.9280,0.09,0.12,-0.99,2.81,3.42,2.14
5.9430,0.09,0.12,-0.99,2.87,3.97,2.32
5.9580,0.09,0.13,-0.99,2.93,3.91,2.20
5.9660,0.09,0.13,-0.99,3.05,3.60,2.44
5.9890,0.09,0.13,-0.99,2.99,3.78,2.75
5.9900,0.08,0.12,-0.99,2.75,3.72,3.48
6.0200,0.09,0.12,-0.99,2.99,3.60,2.75
6.0370,0.09,0.12,-0.99,2.87,3.91,2.81
6.0510,0.09,0.12,-0.99,2.93,3.48,2.81
6.0660,0.08,0.12,-0.99,2.93,3.60,2.87
6.0820,0.09,0.13,-0.99,3.05,3.36,2.81
6.0970,0.09,0.12,-0.99,2.93,3.30,3.91
6.1080,0.08,0.11,-1.00,2.81,3.66,3.23
6.1240,0.09,0.12,-0.99,2.93,3.60,2.26
6.1440,0.09,0.13,-0.99,2.81,3.60,2.08
6.1590,0.09,0.13,-0.99,2.69,3.78,2.14
6.1740,0.08,0.12,-0.99,2.99,3.66,2.50
6.1890,0.08,0.11,-0.99,3.05,3.78,2.81
6.2040,0.09,0.12,-0.99,2.81,3.48,2.50
6.2200,0.09,0.12,-0.99,2.62,3.85,2.14
6.2360,0.09,0.12,-0.99,2.81,3.66,2.26
6.2470,0.08,0.12,-0.99,2.87,3.85,2.20
6.2630,0.09,0.12,-0.99,2.87,3.66,2.01
6.2800,0.09,0.12,-0.99,2.81,3.91,2.14
6.2970,0.09,0.12,-0.99,2.93,3.97,2.08
6.3120,0.09,0.12,-0.99,3.30,3.72,2.08
6.3290,0.09,0.12,-0.99,3.23,3.78,2.26
6.3460,0.09,0.12,-0.99,2.99,3.66,2.20
6.3620,0.09,0.12,-0.99,2.93,3.66,2.01
6.3770,0.09,0.12,-0.99,2.99,3.42,2.14
6.3930,0.08,0.13,-0.99,3.11,3.85,2.81
6.4080,0.09,0.11,-0.99,2.99,3.72,4.58
6.4230,0.08,0.12,-0.99,2.99,3.91,2.32
6.4390,0.08,0.12,-0.99,2.87,3.72,2.14
6.4550,0.08,0.12,-0.99,2.93,3.48,2.38
6.4710,0.09,0.12,-0.99,3.05,3.91,2.62
6.4860,0.09,0.12,-0.99,2.99,3.60,2.38
6.4970,0.09,0.12,-0.99,3.05,3.60,2.26
6.5130,0.09,0.12,-0.99,2.99,3.91,2.08
6.5300,0.07,0.12,-0.99,3.05,3.60,2.38
6.5470,0.08,0.13,-0.99,2.93,3.97,2.87
6.5620,0.09,0.12,-0.99,3.05,3.91,2.81
6.5780,0.09,0.12,-0.99,2.69,3.60,2.69
6.5920,0.09,0.11,-0.99,2.99,3.78,2.75
6.6080,0.09,0.12,-0.99,2.99,3.72,2.14
6.6220,0.08,0.12,-0.99,3.05,4.15,2.08
6.6370,0.08,0.12,-0.99,3.11,3.66,1.95
6.6520,0.09,0.12,-0.99,2.87,3.72,2.20
6.6630,0.09,0.12,-0.99,2.99,3.48,2.14
6.6790,0.09,0.12,-0.99,3.17,4.15,2.14
6.6960,0.09,0.12,-0.99,3.05,4.09,2.01
6.7120,0.09,0.12,-0.99,2.93,4.09,1.89
6.7280,0.09,0.12,-0.99,2.99,4.09,1.95
6.7420,0.09,0.12,-0.99,3.11,4.15,2.20
6.7570,0.09,0.12,-0.99,3.30,3.66,2.26
6.7630,0.09,0.12,-0.99,2.99,3.91,2.08
6.7790,0.09,0.12,-0.99,3.11,3.36,2.14
6.8000,0.09,0.12,-0.99,2.93,3.72,2.38
6.8170,0.09,0.12,-0.99,3.11,3.54,2.20
6.8330,0.09,0.12,-0.99,3.30,3.91,2.20
6.8500,0.09,0.12,-0.99,3.17,3.66,2.14
6.8650,0.08,0.12,-0.99,3.11,3.54,2.01
6.8810,0.08,0.12,-0.99,2.99,3.78,2.14
6.8970,0.09,0.12,-0.99,2.87,3.91,2.14
6.9000,0.09,0.12,-0.99,2.75,3.72,2.14
6.9150,0.08,0.13,-1.00,3.05,3.85,2.08
6.9380,0.08,0.13,-1.00,2.99,3.97,2.14
6.9540,0.08,0.12,-0.99,2.62,3.72,2.14
6.9710,0.09,0.12,-0.99,2.99,4.09,2.08
6.9890,0.09,0.12,-0.99,3.17,3.72,2.26
7.0040,0.09,0.12,-0.99,3.36,4.03,2.14
7.0210,0.09,0.12,-0.99,3.11,3.72,2.14
7.0370,0.09,0.12,-0.99,3.05,3.66,2.08
7.0530,0.09,0.12,-0.99,3.11,3.42,2.14
7.0690,0.08,0.12,-0.99,3.11,3.66,2.20
7.0850,0.08,0.12,-0.99,2.93,3.54,2.14
7.1010,0.08,0.12,-0.99,3.05,3.72,2.14
7.1170,0.08,0.12,-0.99,3.17,3.85,2.08
7.1210,0.08,0.12,-0.99,3.05,3.85,2.32
7.1370,0.09,0.12,-0.99,2.38,4.09,2.08
7.1590,0.09,0.12,-0.99,3.05,3.72,2.08
7.1760,0.09,0.12,-0.99,2.56,3.48,2.08
7.1920,0.09,0.12,-0.99,2.93,3.85,2.08
7.2080,0.09,0.12,-0.99,2.87,3.78,2.14
7.2230,0.09,0.12,-0.99,3.23,3.54,2.08
7.2390,0.09,0.12,-0.99,3.05,3.85,2.26
7.2540,0.09,0.12,-0.99,3.05,3.54,2.01
7.2590,0.09,0.12,-0.99,2.99,3.85,2.14
7.2750,0.09,0.12,-0.99,2.87,3.54,2.14
7.2970,0.09,0.12,-1.00,2.75,3.78,2.01
7.3120,0.09,0.12,-0.99,3.05,4.09,2.01
7.3300,0.09,0.12,-0.99,3.17,3.97,2.01
7.3450,0.08,0.12,-0.99,3.36,3.66,2.14
7.3620,0.08,0.12,-0.99,2.93,3.54,2.08
7.3780,0.09,0.12,-0.99,3.11,3.60,2.01
7.3930,0.09,0.12,-0.99,2.75,3.72,2.26
7.4080,0.09,0.12,-0.99,2.99,3.66,2.20
7.4220,0.09,0.12,-0.99,3.05,3.78,2.14
7.4330,0.09,0.12,-0.99,2.99,3.72,1.95
7.4490,0.09,0.12,-0.99,2.62,3.54,2.01
7.4650,0.09,0.12,-0.99,2.32,3.72,2.01
7.4820,0.09,0.12,-0.99,2.62,3.54,2.20
7.4990,0.09,0.12,-0.99,3.05,3.48,2.14
7.5150,0.08,0.12,-0.99,2.93,4.09,2.01
7.5300,0.08,0.12,-0.99,3.17,3.60,1.95
7.5450,0.09,0.12,-0.99,3.05,3.60,2.01
7.5600,0.09,0.12,-0.99,2.93,3.66,2.08
7.5750,0.09,0.13,-0.99,3.17,3.91,1.89
7.5900,0.09,0.13,-0.99,3.05,3.97,1.28
7.6050,0.08,0.11,-0.99,3.11,4.27,0.92
7.6200,0.08,0.12,-0.99,2.93,3.66,1.59
7.6320,0.09,0.12,-0.99,2.81,3.85,1.89
7.6490,0.09,0.12,-0.99,3.11,3.85,1.83
7.6660,0.09,0.12,-0.99,3.05,3.85,1.83
7.6800,0.09,0.12,-0.99,3.05,4.27,1.89
7.6950,0.09,0.12,-0.99,2.99,3.78,2.14
7.6990,0.09,0.13,-0.99,2.99,3.97,0.55
7.7250,0.09,0.12,-0.99,3.17,3.85,0.79
7.7330,0.08,0.12,-0.99,3.23,3.72,1.53
7.7550,0.08,0.12,-0.99,3.11,3.54,2.20
7.7660,0.08,0.11,-0.99,2.75,3.72,2.38
7.7820,0.09,0.12,-0.99,3.17,3.66,2.26
7.7990,0.08,0.12,-0.99,2.99,3.30,2.38
7.8150,0.08,0.12,-0.99,3.05,3.42,2.38
7.8310,0.08,0.12,-0.99,2.99,3.85,2.26
7.8470,0.09,0.12,-0.99,3.05,3.66,2.08
7.8630,0.09,0.13,-0.99,2.99,3.60,2.32
7.8660,0.09,0.13,-0.99,3.11,3.78,2.26
7.8820,0.08,0.12,-0.99,3.11,3.48,2.81
7.9030,0.08,0.11,-0.99,3.05,3.48,3.17
7.9190,0.09,0.11,-0.99,3.11,3.17,3.05
7.9370,0.09,0.12,-0.99,2.93,3.85,2.14
7.9540,0.09,0.17,-0.98,2.69,3.60,2.81
7.9690,0.08,0.10,-0.99,2.87,3.17,5.55
7.9860,0.08,0.12,-0.99,2.93,3.36,4.33
8.0010,0.08,0.12,-0.99,2.81,3.48,3.97
8.0170,0.08,0.10,-1.00,2.62,3.66,3.42
8.0320,0.08,0.12,-0.99,2.75,3.91,2.20
8.0360,0.09,0.13,-0.99,2.93,3.42,2.50
8.0590,0.08,0.11,-0.99,2.99,3.91,3.05
8.0800,0.08,0.12,-0.99,2.93,4.09,2.99
8.0950,0.08,0.12,-0.99,2.93,4.21,2.93
8.1060,0.09,0.12,-0.99,2.81,3.72,2.87
8.1220,0.09,0.12,-0.99,2.93,3.60,2.87
8.1390,0.09,0.14,-0.99,2.87,3.60,2.75
8.1550,0.09,0.13,-0.99,3.11,3.54,3.48
8.1710,0.08,0.11,-0.99,2.99,3.36,4.15
8.1870,0.08,0.12,-0.99,2.62,3.36,4.03
8.2010,0.09,0.12,-0.99,2.69,3.72,3.91
8.2060,0.09,0.12,-0.99,2.99,3.30,3.97
8.2210,0.08,0.12,-0.99,2.75,3.42,4.15
8.2460,0.08,0.11,-0.99,3.17,3.42,4.09
8.2610,0.08,0.12,-0.99,2.75,3.42,3.54
8.2780,0.08,0.13,-0.99,2.75,3.54,3.30
8.2940,0.09,0.14,-0.99,2.62,3.66,3.48
8.3090,0.09,0.13,-0.99,3.11,3.30,4.82
8.3230,0.09,0.10,-1.00,2.81,3.23,5.98
8.3400,0.08,0.09,-1.00,2.75,3.30,4.58
8.3550,0.08,0.11,-1.00,3.11,3.05,3.72
8.3710,0.08,0.12,-0.99,3.05,3.60,3.48
8.3870,0.09,0.13,-0.99,3.05,3.54,3.66
8.4010,0.09,0.12,-0.99,2.75,3.42,5.07
8.4170,0.09,0.11,-0.99,2.93,3.23,4.46
8.4290,0.09,0.11,-1.00,2.93,3.30,3.17
8.4440,0.09,0.12,-0.99,2.99,3.42,2.93
8.4640,0.09,0.14,-0.99,3.05,3.66,2.81
8.4790,0.08,0.15,-0.99,3.05,3.36,4.39
8.4940,0.09,0.12,-0.99,2.56,2.99,6.59
8.5090,0.08,0.10,-1.00,2.62,3.05,5.31
8.5170,0.09,0.10,-1.00,2.75,3.48,4.88
8.5350,0.09,0.12,-0.99,2.87,3.54,3.72
8.5500,0.09,0.13,-0.99,2.69,3.48,3.60
8.5660,0.08,0.14,-0.99,2.81,3.78,3.42
8.5850,0.08,0.13,-0.99,3.05,3.91,2.08
8.6000,0.08,0.13,-0.99,3.11,3.60,3.11
8.6150,0.08,0.12,-0.99,2.87,3.48,3.78
8.6300,0.09,0.12,-0.99,2.62,3.11,5.37
8.6460,0.09,0.11,-0.99,3.11,3.72,5.19
8.6610,0.09,0.09,-1.00,2.87,3.60,3.85
8.6760,0.08,0.11,-0.99,2.99,3.66,2.08
8.6840,0.09,0.12,-0.99,2.75,3.66,2.08
8.7010,0.09,0.14,-0.99,2.93,3.85,1.77
8.7170,0.08,0.14,-0.99,2.93,3.78,2.08
8.7340,0.09,0.12,-0.99,2.87,3.42,4.03
8.7500,0.09,0.10,-1.00,2.99,3.48,4.39
8.7650,0.08,0.11,-0.99,2.81,3.97,3.17
8.7810,0.09,0.13,-0.99,2.69,3.85,2.26
8.7960,0.09,0.13,-0.99,2.69,3.72,2.38
8.8000,0.08,0.13,-0.99,2.99,3.48,3.05
8.8260,0.08,0.13,-0.99,3.05,3.48,4.09
8.8330,0.09,0.10,-1.00,2.81,3.36,5.19
8.8490,0.09,0.11,-0.99,2.87,3.60,2.99
8.8700,0.09,0.14,-0.99,2.81,3.66,2.81
8.8860,0.09,0.12,-0.99,2.99,3.54,3.91
8.9020,0.08,0.12,-0.99,2.93,3.42,3.72
8.9190,0.08,0.12,-0.99,2.93,3.72,3.42
8.9190,0.08,0.12,-0.99,3.05,3.60,3.42
8.9490,0.09,0.11,-0.99,2.75,3.54,3.66
8.9650,0.09,0.13,-0.99,2.81,3.48,3.30
8.9800,0.08,0.13,-0.99,2.75,3.72,3.66
8.9960,0.08,0.13,-0.99,2.69,3.42,4.21
9.0120,0.08,0.14,-0.99,2.87,3.36,5.68
9.0280,0.09,0.10,-1.00,2.81,3.30,3.48
9.0360,0.09,0.12,-0.99,2.93,3.60,3.17
9.0520,0.09,0.16,-0.99,3.23,3.97,3.78
9.0750,0.08,0.12,-0.99,2.62,3.48,5.25
9.0900,0.09,0.10,-1.00,2.69,3.23,3.91
9.0930,0.09,0.10,-1.00,2.62,3.54,3.42
9.1210,0.09,0.11,-0.99,3.30,3.42,2.81
9.1370,0.09,0.12,-0.99,3.11,3.78,2.56
9.1510,0.09,0.12,-0.99,2.87,3.48,2.75
9.1620,0.08,0.13,-0.99,2.56,3.54,2.99
9.1780,0.09,0.12,-0.99,2.87,3.60,3.42
9.1950,0.09,0.12,-0.99,2.87,3.85,2.69
9.2100,0.09,0.13,-0.99,2.87,3.42,2.38
9.2280,0.09,0.14,-0.99,3.11,3.72,2.75
9.2430,0.09,0.13,-0.99,2.93,3.60,3.72
9.2570,0.08,0.12,-0.99,2.93,3.72,4.76
9.2670,0.08,0.10,-0.99,2.62,3.54,3.91
9.2880,0.09,0.12,-0.99,2.81,3.72,2.99
9.3000,0.09,0.13,-0.99,2.62,3.60,2.93
9.3160,0.09,0.12,-0.99,2.93,3.60,3.60
9.3360,0.09,0.11,-1.00,2.93,3.60,4.39
9.3510,0.09,0.12,-0.99,2.99,3.85,2.62
9.3660,0.09,0.12,-0.99,2.99,4.09,2.14
9.3730,0.09,0.12,-0.99,2.62,3.85,2.08
9.3970,0.09,0.12,-0.99,3.17,3.91,2.14
9.4110,0.09,0.12,-0.99,2.93,3.78,2.08
9.4230,0.08,0.12,-0.99,2.93,4.09,2.08
9.4390,0.09,0.12,-0.99,2.81,4.03,2.14
9.4580,0.09,0.12,-0.99,2.99,3.97,2.01
9.4620,0.09,0.12,-0.99,2.99,3.97,1.89
9.4780,0.09,0.12,-0.99,2.81,3.91,2.08
9.5010,0.09,0.12,-0.99,3.05,3.78,2.14
9.5190,0.09,0.12,-0.99,2.99,3.78,2.26
9.5340,0.09,0.12,-0.99,2.99,3.85,2.08
9.5510,0.09,0.12,-0.99,2.99,3.78,2.26
9.5610,0.09,0.12,-0.99,2.87,3.97,2.08
9.5830,0.09,0.12,-0.99,2.93,3.97,2.01
9.5850,0.09,0.12,-0.99,2.62,3.78,2.20
9.6020,0.09,0.12,-0.99,3.11,4.03,2.20
9.6180,0.09,0.12,-0.99,3.11,3.78,2.08
9.6340,0.09,0.12,-0.99,3.11,3.66,2.20
9.6620,0.09,0.12,-0.99,2.75,3.42,2.01
9.6730,0.09,0.12,-0.99,3.05,3.72,2.08
9.6890,0.09,0.12,-0.99,3.42,3.78,2.01
9.7060,0.09,0.12,-0.99,3.11,4.03,2.20
9.7220,0.09,0.12,-0.99,2.99,3.72,2.14
9.7380,0.09,0.12,-0.99,3.05,3.78,2.08
9.7540,0.09,0.13,-0.99,2.69,3.91,2.20
9.7700,0.09,0.13,-0.99,3.05,3.72,2.20
9.7860,0.09,0.12,-0.99,3.17,3.78,2.32
9.8020,0.09,0.12,-0.99,3.23,4.15,2.38
9.8180,0.08,0.12,-0.99,3.05,3.97,2.32
9.8330,0.09,0.12,-0.99,2.99,4.52,2.20
9.8520,0.09,0.12,-0.99,2.81,3.78,2.26
9.8680,0.09,0.12,-0.99,3.11,3.91,2.14
9.8840,0.09,0.12,-0.99,3.11,3.66,2.08
9.8890,0.09,0.12,-0.99,2.99,3.78,2.20
9.9050,0.09,0.12,-0.99,3.11,3.85,2.08
9.9280,0.09,0.12,-0.99,3.23,3.78,1.95
9.9440,0.09,0.12,-0.99,2.87,3.72,2.01
9.9600,0.09,0.12,-0.99,2.99,4.03,2.08
9.9750,0.09,0.12,-0.99,3.23,3.97,2.20
9.9900,0.10,0.11,-0.99,4.21,4.15,1.59
10.0040,0.08,0.12,-0.99,3.36,4.39,-0.43
10.0120,0.08,0.12,-0.99,3.05,4.03,0.55
10.0270,0.09,0.13,-0.99,3.17,3.85,1.59
10.0500,0.09,0.12,-0.99,3.54,3.85,2.01
10.0660,0.09,0.12,-0.99,3.30,3.97,2.20
10.0830,0.09,0.12,-0.99,3.05,4.15,2.01
10.0980,0.09,0.12,-0.99,2.56,4.46,2.20
10.1150,0.09,0.12,-0.99,2.99,3.48,2.01
10.1310,0.09,0.12,-0.99,3.11,3.72,2.01
10.1470,0.09,0.12,-0.99,2.99,3.78,2.14
10.1630,0.09,0.12,-0.99,3.11,3.85,2.08
10.1650,0.09,0.12,-0.99,3.05,3.60,2.14
10.1870,0.09,0.12,-0.99,3.05,3.36,2.01
10.2030,0.09,0.12,-0.99,3.11,3.42,1.89
10.2210,0.09,0.12,-0.99,2.99,3.78,2.01
10.2380,0.09,0.12,-0.99,2.75,3.78,2.14
10.2550,0.09,0.12,-0.99,3.17,3.60,2.14
10.2700,0.09,0.13,-0.99,3.17,3.97,1.95
10.2860,0.08,0.12,-0.99,2.81,3.54,2.14
10.3020,0.08,0.12,-1.00,3.11,3.91,2.08
10.3180,0.09,0.12,-0.99,2.99,3.60,2.08
10.3340,0.09,0.12,-0.99,2.99,3.54,2.08
10.3370,0.09,0.12,-0.99,2.93,3.60,2.08
10.3630,0.09,0.12,-0.99,2.87,3.54,2.08
10.3810,0.08,0.12,-0.99,2.93,3.66,2.01
10.3910,0.08,0.12,-0.99,3.05,3.36,2.01
10.4080,0.09,0.13,-0.99,2.99,3.91,2.14
10.4240,0.09,0.13,-0.99,3.05,3.60,2.08
10.4400,0.09,0.13,-0.99,2.99,3.85,1.95
10.4490,0.08,0.13,-0.99,2.87,3.54,2.08
10.4650,0.08,0.12,-0.99,2.87,3.60,2.08
10.4810,0.09,0.13,-0.99,2.99,3.54,2.20
10.5020,0.09,0.12,-0.99,2.81,3.48,2.14
10.5180,0.09,0.12,-0.99,2.99,3.72,2.14
10.5340,0.09,0.12,-0.99,2.87,4.09,2.20
10.5500,0.09,0.12,-0.99,2.93,3.60,2.14
10.5660,0.09,0.12,-0.99,3.36,4.09,2.08
10.5820,0.09,0.12,-0.99,2.93,3.97,2.26
10.5980,0.09,0.12,-0.99,2.99,4.33,2.08
10.6010,0.08,0.12,-1.01,2.99,3.60,1.95
10.6170,0.08,0.12,-0.98,3.17,3.48,2.08
10.6440,0.08,0.12,-0.98,2.93,3.72,2.14
10.6550,0.09,0.13,-0.98,3.11,3.78,2.08
10.6700,0.09,0.13,-1.00,2.81,3.72,2.14
10.6900,0.08,0.13,-0.99,2.87,3.72,2.26
10.7060,0.08,0.12,-0.99,2.87,3.54,2.08
10.7100,0.08,0.12,-0.99,3.05,3.91,2.14
10.7260,0.09,0.12,-0.99,2.81,3.78,2.01
10.7500,0.09,0.12,-0.99,2.69,3.85,2.08
10.7660,0.09,0.12,-0.99,2.93,3.60,2.08
10.7830,0.08,0.11,-0.99,2.81,3.85,2.14
10.8000,0.08,0.12,-1.00,2.93,3.72,2.20
10.8160,0.09,0.12,-0.99,3.11,3.78,2.14
10.8310,0.09,0.12,-0.99,2.87,3.85,2.01
10.8480,0.09,0.12,-0.99,2.99,3.60,1.89
10.8640,0.09,0.12,-0.99,2.81,4.03,2.14
10.8810,0.08,0.12,-1.00,3.17,4.15,2.08
10.8960,0.08,0.13,-0.99,3.11,3.85,2.08
10.9120,0.08,0.13,-0.99,3.05,4.09,2.08
10.9280,0.09,0.13,-0.99,2.93,3.66,2.08
10.9440,0.09,0.12,-0.99,3.23,3.60,2.14
10.9590,0.09,0.12,-0.99,2.87,3.66,2.20
10.9740,0.09,0.12,-0.99,3.05,3.66,2.20
10.9880,0.08,0.12,-0.99,2.93,3.78,2.26
10.9990,0.09,0.12,-0.99,2.99,3.72,2.20
11.0160,0.09,0.12,-0.99,2.99,3.72,2.01
11.0320,0.09,0.12,-0.99,3.05,3.66,2.20
11.0500,0.09,0.12,-0.99,3.23,4.09,2.20
11.0660,0.08,0.12,-0.99,2.81,3.85,2.08
11.0820,0.08,0.12,-0.99,3.23,3.48,1.95
11.0980,0.09,0.13,-0.99,2.93,3.66,2.08
11.1140,0.09,0.13,-0.99,3.11,3.85,2.14
11.1300,0.09,0.13,-0.99,2.99,4.21,2.08
11.1320,0.08,0.13,-0.99,2.93,3.85,2.14
11.1480,0.08,0.12,-0.99,2.81,3.97,2.20
11.1700,0.08,0.12,-0.99,2.93,3.78,2.08
11.1870,0.09,0.12,-0.99,2.93,3.66,2.14
11.2030,0.09,0.12,-0.99,2.99,3.72,2.08
11.2210,0.09,0.12,-0.99,3.05,3.97,2.08
11.2360,0.09,0.12,-0.99,3.11,3.97,2.08
11.2540,0.09,0.12,-0.99,2.99,3.78,2.08
11.2700,0.09,0.12,-0.99,3.11,3.85,2.20
11.2720,0.09,0.12,-0.99,2.99,3.78,2.32
11.3020,0.09,0.12,-0.99,3.05,4.09,2.01
11.3050,0.08,0.12,-0.99,2.93,3.78,2.08
11.3200,0.08,0.12,-0.99,3.05,3.85,2.14
11.3360,0.08,0.12,-0.99,2.93,3.72,2.20
11.3600,0.08,0.12,-0.99,3.23,3.66,2.26
11.3760,0.09,0.12,-0.99,2.87,3.60,2.20
11.3930,0.09,0.12,-0.99,3.17,3.54,2.14
11.4090,0.09,0.12,-0.99,3.11,3.66,2.20
11.4250,0.09,0.12,-0.99,2.81,3.91,2.26
11.4400,0.09,0.12,-0.99,2.99,4.03,2.08
11.4560,0.09,0.12,-0.99,2.99,4.03,2.08
11.4650,0.09,0.12,-0.99,3.05,3.78,1.89
11.4760,0.09,0.12,-0.99,2.81,3.78,2.14
11.5040,0.09,0.12,-0.99,2.93,3.72,2.14
11.5130,0.09,0.12,-0.99,2.87,3.85,2.14
11.5290,0.08,0.12,-0.99,2.99,3.91,2.26
11.5470,0.09,0.12,-0.99,3.30,3.60,2.14
11.5650,0.09,0.12,-0.99,2.99,3.66,2.08
11.5800,0.09,0.13,-0.99,3.11,3.85,1.89
11.5970,0.09,0.14,-0.99,3.30,4.03,0.55
11.6120,0.08,0.12,-1.00,3.42,4.09,-0.18
11.6290,0.08,0.12,-0.99,3.11,4.15,0.73
11.6440,0.09,0.14,-0.99,3.05,4.15,0.49
11.6580,0.09,0.12,-0.99,3.11,4.21,-0.85
11.6750,0.09,0.11,-0.99,3.36,4.15,-0.49
11.6900,0.09,0.11,-0.99,3.17,4.03,0.18
11.6960,0.09,0.12,-0.98,3.17,4.09,0.55
11.7200,0.08,0.12,-0.99,3.17,3.91,0.55
11.7350,0.08,0.12,-0.99,2.99,3.78,0.92
11.7460,0.09,0.13,-0.99,3.11,4.27,1.40
11.7660,0.09,0.12,-0.99,3.05,4.09,1.22
11.7810,0.08,0.12,-0.99,3.11,3.60,1.46
11.7970,0.08,0.12,-0.99,3.05,3.66,1.65
11.8130,0.09,0.13,-0.99,2.93,4.09,1.65
11.8300,0.09,0.13,-0.99,3.17,3.72,1.65
11.8460,0.09,0.13,-0.99,2.99,3.60,2.14
11.8620,0.09,0.11,-0.99,2.87,3.85,2.32
11.8780,0.08,0.11,-0.99,3.05,3.78,1.71
11.8930,0.09,0.13,-0.99,3.05,3.85,1.53
11.9090,0.09,0.13,-0.99,3.23,3.72,1.59
11.9230,0.09,0.12,-0.99,3.05,3.78,2.20
11.9390,0.09,0.12,-0.99,2.75,3.91,2.62
11.9550,0.08,0.11,-0.99,2.99,3.97,2.69
11.9660,0.09,0.12,-0.99,3.11,4.03,2.20
11.9790,0.08,0.12,-0.99,3.05,3.60,1.95
12.0000,0.08,0.12,-0.99,3.11,3.78,2.01
12.0160,0.09,0.12,-0.99,2.87,3.60,1.95
12.0170,0.09,0.12,-0.99,2.93,3.97,2.01
12.0350,0.09,0.13,-0.99,2.93,3.54,2.01
12.0640,0.09,0.13,-0.99,3.11,4.03,0.61
12.0680,0.09,0.13,-0.99,3.36,3.91,0.24
12.0850,0.08,0.13,-0.99,3.30,3.97,0.49
12.1010,0.08,0.12,-0.99,3.23,3.66,2.50
12.1170,0.09,0.11,-0.99,3.11,3.78,3.42
12.1340,0.09,0.11,-0.99,3.05,3.78,2.62
12.1500,0.09,0.12,-0.99,2.99,3.72,2.44
12.1680,0.09,0.13,-0.99,2.87,3.91,2.50
12.1840,0.09,0.14,-0.99,2.87,3.85,3.05
12.2030,0.09,0.12,-0.99,2.99,3.72,2.56
12.2180,0.08,0.12,-0.99,2.69,3.78,3.30
12.2220,0.08,0.11,-1.00,2.99,3.91,3.60
12.2500,0.08,0.12,-0.99,2.81,3.66,3.60
12.2660,0.08,0.11,-0.99,2.99,3.85,2.32
12.2720,0.09,0.12,-0.99,2.99,3.54,1.53
12.2900,0.09,0.13,-0.99,3.23,3.72,2.01
12.3050,0.08,0.11,-0.99,3.23,3.48,2.62
12.3270,0.08,0.12,-0.99,2.93,3.60,2.44
12.3430,0.09,0.12,-0.99,2.99,3.48,2.81
12.3590,0.09,0.12,-0.99,2.75,3.66,2.44
12.3750,0.09,0.14,-0.99,2.87,3.85,2.20
12.3890,0.09,0.13,-0.99,3.48,3.85,2.56
12.4040,0.08,0.14,-0.99,2.93,3.42,4.09
12.4190,0.09,0.13,-0.99,2.93,3.36,5.00
12.4340,0.09,0.11,-1.00,2.75,3.54,3.97
12.4490,0.09,0.11,-0.99,2.99,3.85,3.05
12.4600,0.09,0.12,-0.99,2.99,3.72,2.75
12.4760,0.08,0.13,-0.99,3.11,3.72,3.60
12.4930,0.09,0.13,-0.99,2.87,3.48,4.33
12.5090,0.09,0.12,-0.99,2.99,3.36,4.09
12.5250,0.09,0.12,-0.99,2.99,3.78,2.93
12.5410,0.09,0.12,-0.99,3.11,3.78,2.14
12.5550,0.09,0.13,-0.99,2.93,4.15,1.95
12.5720,0.09,0.12,-0.99,3.17,3.85,2.26
12.5760,0.08,0.12,-0.99,2.93,3.72,2.93
12.5920,0.09,0.12,-0.99,2.87,3.42,3.17
12.6180,0.09,0.12,-0.99,3.05,3.60,2.69
12.6290,0.09,0.13,-0.99,2.93,3.66,2.44
12.6460,0.09,0.13,-0.99,2.62,3.60,2.69
12.6630,0.09,0.13,-0.99,2.75,3.78,3.17
12.6790,0.09,0.12,-0.99,2.99,3.60,2.99
12.6950,0.08,0.11,-1.00,2.99,3.60,2.75
12.7110,0.08,0.12,-0.99,2.81,3.85,2.26
12.7250,0.09,0.13,-0.99,3.05,3.85,2.62
12.7400,0.09,0.13,-0.99,2.87,3.36,3.17
12.7460,0.09,0.13,-0.99,2.87,3.60,3.42
12.7660,0.09,0.12,-0.99,2.62,3.60,3.36
12.7830,0.08,0.11,-0.99,2.93,3.97,2.20
12.7990,0.09,0.13,-0.99,2.87,3.72,1.71
12.8160,0.09,0.14,-0.99,2.99,3.85,2.69
12.8330,0.08,0.10,-0.99,3.17,3.30,4.33
12.8480,0.08,0.11,-0.99,2.99,3.78,3.60
12.8640,0.09,0.11,-0.99,2.87,4.03,3.05
12.8810,0.09,0.12,-0.99,3.11,3.66,2.44
12.8960,0.10,0.14,-0.99,2.93,3.85,2.44
12.9110,0.09,0.12,-0.99,2.81,3.60,3.66
12.9260,0.08,0.11,-1.00,2.93,3.97,3.17
12.9430,0.08,0.11,-0.99,3.11,3.85,2.14
12.9560,0.08,0.12,-0.99,3.05,3.78,2.08
12.9720,0.09,0.14,-0.99,2.99,3.91,1.77
12.9830,0.08,0.13,-0.99,3.17,3.97,2.14
12.9990,0.08,0.11,-1.00,2.87,3.48,3.66
13.0170,0.08,0.10,-0.99,2.99,4.09,2.44
13.0330,0.09,0.12,-0.99,3.11,4.09,2.26
13.0500,0.09,0.13,-0.99,2.87,3.60,2.08
13.0520,0.08,0.12,-0.99,2.75,3.85,2.38
13.0680,0.08,0.14,-0.99,2.93,3.72,2.93
13.0950,0.09,0.11,-0.99,2.87,3.72,3.42
13.1110,0.09,0.11,-1.00,2.87,3.72,2.32
13.1190,0.09,0.12,-0.99,2.69,3.85,2.08
13.1350,0.09,0.14,-0.99,2.93,3.72,2.08
13.1560,0.09,0.14,-0.99,2.93,4.03,3.23
13.1720,0.08,0.11,-1.00,2.93,3.36,4.39
13.1890,0.08,0.10,-1.00,3.23,3.60,3.36
13.2050,0.08,0.12,-0.99,2.99,3.91,2.14
13.2200,0.09,0.12,-0.99,2.93,3.91,2.01
13.2370,0.09,0.12,-0.99,3.05,3.72,2.08
13.2520,0.09,0.12,-0.99,2.99,4.03,2.08
13.2660,0.09,0.12,-0.99,3.23,4.15,2.14
13.2730,0.09,0.13,-0.99,2.93,3.91,2.20
13.2930,0.09,0.14,-0.99,3.05,3.72,2.81
13.3100,0.08,0.11,-1.00,2.99,3.72,3.11
13.3270,0.08,0.10,-1.00,3.11,3.85,2.08
13.3440,0.09,0.13,-0.99,3.05,3.78,1.95
13.3590,0.09,0.13,-0.99,2.87,4.09,2.20
13.3740,0.09,0.13,-0.99,3.05,3.60,2.81
13.3900,0.09,0.12,-0.99,3.17,3.54,3.54
13.4050,0.08,0.11,-0.99,2.93,3.72,2.81
13.4210,0.08,0.11,-0.99,2.93,3.54,2.26
13.4370,0.09,0.12,-0.99,2.69,3.85,2.44
13.4520,0.09,0.12,-0.99,3.11,3.48,2.32
13.4680,0.09,0.13,-0.99,2.87,3.91,2.62
13.4820,0.09,0.14,-0.99,3.17,3.54,3.42
13.4940,0.09,0.12,-0.99,2.81,3.60,4.76
13.5100,0.08,0.10,-1.00,2.87,3.78,4.21
13.5270,0.08,0.11,-0.99,2.99,3.91,2.93
13.5430,0.09,0.13,-0.99,2.81,3.66,2.01
13.5580,0.09,0.14,-0.99,2.81,4.21,2.20
13.5730,0.09,0.15,-0.99,3.05,3.48,4.15
13.5890,0.09,0.13,-0.99,2.69,3.36,5.55
13.5920,0.08,0.09,-1.00,2.75,3.11,5.13
13.6190,0.08,0.11,-1.00,2.87,3.91,2.69
13.6340,0.09,0.12,-0.99,2.81,3.91,2.20
13.6460,0.09,0.13,-0.99,2.87,4.03,2.08
13.6620,0.09,0.15,-0.99,2.81,3.60,2.93
13.6790,0.09,0.13,-0.99,2.93,3.72,3.78
13.6960,0.09,0.10,-1.00,2.87,3.48,4.27
13.7120,0.08,0.10,-0.99,2.93,3.66,2.56
13.7280,0.09,0.13,-0.99,3.11,3.54,2.08
13.7430,0.09,0.14,-0.99,2.93,3.48,3.42
13.7580,0.08,0.13,-0.99,2.75,3.30,5.00
13.7730,0.09,0.12,-0.99,2.56,3.54,5.25
13.7890,0.09,0.10,-1.00,2.75,3.60,3.05
13.7960,0.09,0.11,-0.99,3.11,3.72,2.08
13.8120,0.09,0.13,-0.99,3.17,4.03,2.01
13.8350,0.09,0.13,-0.99,3.17,3.78,2.38
13.8510,0.09,0.13,-0.99,2.93,3.66,2.75
13.8670,0.08,0.12,-0.99,2.75,3.60,3.23
13.8840,0.09,0.11,-0.99,2.56,4.03,2.44
13.9000,0.08,0.11,-0.99,3.05,4.03,2.14
13.9150,0.09,0.14,-0.99,3.17,4.21,2.01
13.9190,0.09,0.13,-0.99,2.87,3.91,1.89
13.9460,0.08,0.13,-0.99,3.11,3.97,2.99
13.9610,0.08,0.11,-1.00,2.81,3.30,3.54
13.9730,0.08,0.11,-0.99,2.99,3.91,2.87
13.9880,0.09,0.13,-0.99,2.75,3.91,2.62
14.0080,0.09,0.14,-0.99,2.87,3.42,3.11
14.0120,0.09,0.12,-0.99,2.87,3.60,4.64
14.0290,0.08,0.10,-1.00,2.87,3.72,3.36
14.0540,0.09,0.12,-0.99,3.11,3.91,2.32
14.0690,0.09,0.13,-0.99,2.87,4.03,2.14
14.0840,0.09,0.14,-0.99,2.99,3.91,2.56
14.0950,0.09,0.14,-0.99,2.81,3.42,3.91
14.1120,0.09,0.12,-0.99,2.75,3.30,4.94
14.1280,0.09,0.11,-0.99,2.81,3.54,3.42
14.1440,0.09,0.11,-0.99,2.87,3.78,2.62
14.1610,0.09,0.12,-0.99,3.23,3.66,2.50
14.1760,0.10,0.14,-0.99,2.93,3.78,2.69
14.1920,0.08,0.12,-0.99,2.87,3.42,3.85
14.2050,0.08,0.12,-0.99,2.50,3.17,5.07
14.2210,0.08,0.12,-1.00,2.75,2.99,5.19
14.2320,0.08,0.10,-1.00,2.50,3.17,5.13
14.2490,0.08,0.11,-1.00,2.99,3.85,2.38
14.2660,0.09,0.12,-0.99,3.05,3.97,2.01
14.2820,0.09,0.12,-0.99,3.17,3.66,2.08
14.2980,0.09,0.12,-0.99,3.11,4.03,2.26
14.3140,0.09,0.12,-0.99,2.69,3.66,2.38
14.3170,0.09,0.13,-0.99,3.17,3.72,2.44
14.3450,0.09,0.14,-0.99,3.05,3.91,2.69
14.3590,0.09,0.13,-0.99,2.81,3.48,3.42
14.3750,0.09,0.11,-0.99,3.05,3.42,4.39
14.3900,0.08,0.13,-0.99,2.99,3.42,3.97
14.4000,0.09,0.13,-0.99,2.62,3.60,4.52
14.4170,0.09,0.13,-0.99,2.93,3.48,4.27
14.4330,0.08,0.12,-0.99,2.87,3.42,4.03
14.4500,0.08,0.10,-1.00,2.81,3.36,4.33
14.4660,0.09,0.10,-1.00,2.93,3.42,3.36
14.4820,0.08,0.13,-0.99,2.99,3.72,2.69
14.4970,0.09,0.15,-0.99,3.05,3.42,3.91
14.5120,0.09,0.16,-0.99,2.69,3.48,5.07
14.5170,0.09,0.11,-0.99,2.62,3.05,6.53
14.5320,0.09,0.06,-1.00,2.87,3.60,3.30
14.5550,0.09,0.12,-0.99,2.99,4.03,1.95
14.5710,0.09,0.12,-0.99,3.05,3.91,1.83
14.5880,0.09,0.13,-0.99,2.69,3.66,1.89
14.6040,0.09,0.17,-0.99,2.93,3.91,3.30
14.6200,0.09,0.12,-0.99,2.87,3.36,6.16
14.6360,0.09,0.07,-1.00,2.56,3.54,3.23
14.6520,0.09,0.12,-0.99,3.11,3.91,1.59
14.6680,0.09,0.12,-0.99,2.93,3.85,2.08
14.6710,0.09,0.16,-0.99,3.05,3.78,2.14
14.6870,0.09,0.15,-0.99,3.11,4.03,2.38
14.7100,0.08,0.11,-0.99,2.87,3.54,3.85
14.7260,0.08,0.09,-1.00,2.75,3.72,2.20
14.7430,0.09,0.12,-0.99,3.05,3.36,2.08
14.7590,0.09,0.16,-0.99,3.05,3.42,2.44
14.7760,0.09,0.15,-0.99,2.62,3.23,4.82
14.7920,0.09,0.12,-0.99,2.75,2.99,5.19
14.8080,0.09,0.07,-1.00,2.93,3.42,3.66
14.8240,0.09,0.12,-0.99,2.87,3.60,2.01
14.8260,0.09,0.12,-0.99,2.99,3.72,2.08
14.8420,0.09,0.14,-0.99,3.11,3.78,1.95
14.8700,0.09,0.16,-0.99,2.87,3.85,3.54
14.8810,0.09,0.11,-1.00,2.87,3.78,3.17
14.8970,0.08,0.07,-1.00,3.05,3.97,1.28
14.9130,0.09,0.12,-0.99,3.30,3.85,1.71
14.9320,0.09,0.12,-0.99,3.17,3.97,2.08
14.9330,0.09,0.14,-0.99,2.99,3.78,2.20
14.9510,0.08,0.15,-0.99,2.81,3.66,3.48
14.9680,0.09,0.11,-0.99,2.87,3.42,3.66
14.9830,0.09,0.07,-1.00,2.93,3.97,0.61
15.0000,0.09,0.12,-0.99,3.30,3.85,1.89
15.0180,0.09,0.12,-0.99,2.87,3.78,2.08
15.0340,0.09,0.12,-0.99,2.81,3.91,2.08
15.0570,0.08,0.19,-0.98,3.11,3.91,2.56
15.0680,0.09,0.10,-1.00,2.93,3.42,4.27
15.0840,0.09,0.07,-1.00,3.11,3.97,0.98
15.1020,0.09,0.11,-0.99,3.17,4.27,0.98
15.1160,0.09,0.13,-0.99,2.93,3.97,2.08
15.1330,0.09,0.13,-0.99,2.93,3.66,2.01
15.1490,0.09,0.15,-0.99,2.99,4.03,1.10
15.1510,0.08,0.10,-1.00,3.05,3.85,1.89
15.1680,0.08,0.10,-1.00,3.11,4.15,1.71
15.1940,0.08,0.11,-0.99,2.99,3.97,1.65
15.2050,0.09,0.12,-0.99,3.05,3.85,1.95
15.2210,0.09,0.15,-0.99,2.99,3.85,1.95
15.2380,0.09,0.14,-0.99,3.42,3.97,0.37
15.2550,0.08,0.11,-0.99,3.17,3.78,1.10
15.2710,0.08,0.09,-1.00,2.99,3.91,1.04
15.2870,0.09,0.12,-0.99,2.99,3.72,1.83
15.3030,0.09,0.12,-0.99,3.17,3.85,2.08
15.3190,0.09,0.13,-0.99,2.93,4.09,2.08
15.3340,0.09,0.15,-0.99,2.62,3.85,1.65
15.3490,0.08,0.11,-0.99,3.17,4.09,0.06
15.3650,0.09,0.11,-0.99,2.99,4.03,1.40
15.3820,0.09,0.12,-0.99,2.87,4.27,2.08
15.3970,0.09,0.12,-0.99,2.93,3.85,2.20
15.4120,0.09,0.12,-0.99,3.05,3.85,2.08
15.4220,0.09,0.12,-0.99,2.99,3.72,2.20
15.4390,0.09,0.12,-0.99,3.11,3.85,2.08
15.4560,0.09,0.12,-0.99,3.05,3.91,2.20
15.4720,0.09,0.12,-0.99,3.05,3.97,2.20
15.4870,0.09,0.12,-0.99,2.62,3.85,2.01
15.5030,0.09,0.12,-0.99,3.11,3.78,2.08
15.5180,0.09,0.12,-0.99,2.81,3.54,2.08
15.5350,0.09,0.12,-0.99,3.17,3.85,2.14
15.5500,0.09,0.12,-0.99,3.30,3.72,2.20
15.5670,0.09,0.12,-0.99,3.05,3.72,2.26
15.5820,0.09,0.12,-0.99,2.93,3.72,2.14
15.5970,0.09,0.11,-0.99,2.99,4.03,2.01
15.6060,0.10,0.11,-1.00,3.05,4.09,1.65
15.6220,0.09,0.12,-0.99,3.78,4.82,-3.36
15.6380,0.08,0.12,-0.99,3.78,4.94,-3.48
15.6560,0.08,0.13,-0.99,3.42,4.39,-2.75
15.6720,0.08,0.13,-0.99,3.30,4.21,-0.37
15.6890,0.09,0.12,-0.99,3.05,3.78,1.95
15.7040,0.09,0.12,-0.99,2.99,3.85,2.01
15.7200,0.09,0.12,-0.99,2.87,4.21,2.08
15.7370,0.09,0.12,-0.99,2.81,3.85,1.89
15.7510,0.09,0.12,-0.99,3.23,3.66,1.95
15.7690,0.09,0.12,-0.99,2.87,3.60,2.08
15.7850,0.09,0.12,-0.99,3.42,3.60,2.08
15.8000,0.09,0.12,-0.99,2.93,4.09,1.77
15.8150,0.09,0.12,-0.99,3.17,3.91,1.65
15.8300,0.09,0.12,-0.99,2.93,3.60,1.71
15.8450,0.09,0.12,-0.99,3.23,3.66,1.34
15.8560,0.09,0.12,-0.99,3.23,3.97,0.85
15.8710,0.09,0.13,-0.99,3.17,3.91,0.79
15.8920,0.09,0.12,-0.99,2.62,3.91,1.95
15.9070,0.09,0.12,-0.99,2.93,3.85,1.89
15.9220,0.09,0.12,-0.99,3.05,3.91,1.89
15.9370,0.09,0.12,-0.99,2.93,3.91,1.89
15.9530,0.09,0.12,-0.99,3.11,3.97,2.01
15.9690,0.09,0.12,-0.99,2.93,3.78,2.01
15.9840,0.08,0.12,-0.99,2.93,3.85,2.08
15.9950,0.09,0.12,-0.99,2.99,4.09,2.08
16.0120,0.09,0.12,-0.99,2.93,3.72,2.01
16.0280,0.09,0.12,-0.99,2.93,3.72,2.08
16.0450,0.09,0.12,-0.99,3.17,4.15,2.14
16.0620,0.09,0.12,-0.99,3.05,3.78,2.20
16.0770,0.09,0.12,-0.99,3.17,3.85,2.26
16.0940,0.09,0.12,-0.99,3.30,4.09,2.20
16.1090,0.09,0.12,-0.99,2.75,3.97,1.95
16.1240,0.10,0.11,-0.99,2.81,3.97,0.37
16.1390,0.08,0.13,-0.99,3.54,4.58,-2.56
16.1550,0.08,0.13,-0.99,3.42,4.46,-2.08
16.1690,0.08,0.13,-0.99,3.17,4.27,0.00
16.1840,0.09,0.12,-0.99,3.11,3.97,0.06
16.1950,0.09,0.12,-0.99,3.17,4.39,0.18
16.2110,0.09,0.12,-0.99,3.48,4.39,-0.55
16.2300,0.09,0.13,-0.99,3.54,4.15,-0.85
16.2330,0.08,0.14,-0.99,3.85,4.64,-3.42
16.2510,0.08,0.11,-1.00,3.17,4.52,-1.95
16.2680,0.08,0.12,-0.99,3.11,4.21,0.55
16.2840,0.09,0.12,-0.99,2.81,3.78,1.59
16.3000,0.09,0.12,-0.99,3.11,4.03,2.20
16.3170,0.09,0.12,-0.99,3.23,3.66,2.14
16.3330,0.09,0.13,-0.99,2.87,3.66,2.20
16.3500,0.08,0.13,-0.99,3.17,4.03,2.26
16.3680,0.09,0.12,-0.99,2.75,3.60,2.14
16.3830,0.08,0.13,-0.99,3.05,3.66,2.14
16.4010,0.09,0.13,-0.99,2.87,3.91,2.01
16.4170,0.09,0.13,-0.99,3.11,4.03,2.08
16.4330,0.08,0.16,-0.98,3.05,3.85,-0.18
16.4330,0.07,0.14,-0.99,3.36,4.70,-3.36
16.4500,0.10,0.09,-1.00,3.60,4.27,-3.11
16.4810,0.09,0.13,-0.99,3.11,4.21,-1.28
16.4970,0.11,0.14,-0.99,3.78,4.82,-3.17
16.5000,0.08,0.15,-0.99,3.91,4.94,-5.13
16.5290,0.07,0.17,-0.99,4.27,5.68,-7.69
16.5440,0.09,0.08,-1.00,4.09,5.43,-7.26
16.5560,0.10,0.06,-1.00,3.60,4.52,-2.14
16.5720,0.09,0.09,-1.00,3.17,3.91,-0.12
16.5880,0.08,0.12,-1.00,3.42,4.09,0.98
16.6070,0.08,0.15,-0.99,3.72,4.03,0.18
16.6220,0.09,0.13,-0.99,3.11,4.39,-1.65
16.6370,0.08,0.10,-1.00,3.23,4.39,-1.10
16.6530,0.08,0.11,-0.99,2.99,3.85,1.10
16.6680,0.08,0.11,-0.99,3.17,3.97,2.14
16.6740,0.08,0.12,-0.99,3.11,3.97,2.14
16.6970,0.09,0.12,-0.99,2.75,3.78,2.32
16.7140,0.09,0.12,-0.99,2.87,3.66,2.26
16.7300,0.09,0.12,-0.99,3.05,3.97,2.44
16.7470,0.09,0.12,-0.99,2.62,3.60,2.26
16.7640,0.09,0.12,-0.99,2.69,3.60,2.14
16.7800,0.09,0.12,-0.99,3.17,3.72,2.08
16.7960,0.09,0.12,-0.99,3.11,3.91,2.14
16.8110,0.09,0.12,-0.99,3.11,3.97,2.08
16.8260,0.09,0.12,-0.99,2.93,3.72,2.01
16.8410,0.08,0.12,-0.99,2.62,3.85,2.20
16.8570,0.08,0.12,-0.99,3.11,3.72,2.14
16.8680,0.09,0.12,-0.99,2.93,3.97,2.26
16.8870,0.09,0.12,-0.99,2.99,3.91,2.26
16.8970,0.09,0.12,-0.99,3.05,3.72,2.08
16.9130,0.09,0.12,-0.99,2.99,3.30,2.08
16.9340,0.09,0.12,-0.99,3.05,3.66,2.14
16.9500,0.09,0.12,-0.99,3.11,3.72,2.01
16.9660,0.09,0.12,-0.99,3.05,4.03,2.26
16.9810,0.09,0.12,-0.99,3.17,3.72,2.20
16.9960,0.09,0.12,-0.99,3.11,3.72,2.20
17.0020,0.09,0.11,-1.00,3.11,3.85,2.08
17.0180,0.09,0.12,-0.99,2.81,3.85,2.08
17.0390,0.09,0.12,-0.99,3.17,3.91,2.20
17.0550,0.09,0.12,-0.99,3.11,3.91,2.14
17.0710,0.08,0.12,-0.99,2.87,3.97,1.95
17.0860,0.08,0.12,-0.99,2.81,3.78,2.26
17.1020,0.08,0.13,-0.99,3.17,4.03,2.20
17.1170,0.09,0.13,-0.99,3.11,3.85,2.14
17.1320,0.09,0.13,-0.99,2.93,3.97,2.14
17.1470,0.09,0.13,-0.99,3.11,3.78,2.14
17.1620,0.08,0.12,-0.99,2.99,3.48,2.01
17.1720,0.08,0.12,-0.99,2.93,3.85,2.08
17.1890,0.09,0.12,-0.99,2.69,3.85,2.26
17.2060,0.09,0.12,-0.99,3.05,3.85,2.20
17.2220,0.09,0.12,-0.99,3.05,3.60,2.26
17.2380,0.09,0.12,-0.99,2.93,3.72,2.08
17.2540,0.09,0.12,-0.99,3.17,3.42,2.08
17.2710,0.09,0.12,-0.99,2.93,4.09,2.14
17.2860,0.09,0.12,-0.99,3.11,3.91,2.26
17.3010,0.09,0.12,-0.99,3.17,3.78,2.08
17.3160,0.08,0.13,-0.99,3.11,3.85,2.14
17.3310,0.08,0.13,-0.99,2.99,3.66,2.01
17.3400,0.08,0.13,-0.99,2.75,3.91,2.14
17.3550,0.08,0.13,-0.99,2.75,3.91,2.14
17.3770,0.09,0.13,-0.99,2.87,3.78,2.08
17.3790,0.09,0.12,-0.99,2.93,3.78,2.14
17.4090,0.09,0.12,-0.99,2.93,3.30,2.08
17.4240,0.09,0.12,-0.99,2.93,3.78,2.20
17.4390,0.09,0.12,-0.99,2.99,3.54,2.26
17.4560,0.09,0.12,-1.00,2.87,3.66,2.32
17.4710,0.09,0.12,-0.99,3.05,3.72,2.26
17.4880,0.09,0.12,-0.99,3.23,3.78,2.08
17.5040,0.09,0.12,-0.99,3.05,3.66,2.26
17.5190,0.09,0.12,-0.99,3.36,3.85,2.26
17.5340,0.09,0.13,-0.99,2.99,3.78,2.20
17.5450,0.08,0.13,-0.99,2.99,3.91,2.14
17.5620,0.08,0.13,-0.99,2.93,3.85,2.38
17.5780,0.08,0.13,-0.99,2.93,3.97,2.20
17.5940,0.09,0.12,-0.99,2.93,3.72,2.14
17.6100,0.09,0.12,-0.99,2.99,3.54,2.08
17.6260,0.09,0.12,-0.99,2.93,4.09,2.14
17.6410,0.09,0.12,-0.99,3.11,3.72,2.01
17.6560,0.09,0.12,-0.99,2.99,3.78,2.20
17.6720,0.09,0.12,-0.99,2.99,3.85,2.08
17.6780,0.09,0.12,-0.99,3.23,3.66,2.08
17.6930,0.09,0.12,-0.99,2.93,3.97,2.08
17.7170,0.09,0.12,-0.99,3.05,3.91,2.14
17.7330,0.08,0.12,-0.99,2.99,3.97,2.26
17.7490,0.08,0.12,-0.99,2.99,3.97,2.14
17.7640,0.08,0.12,-0.99,2.93,3.54,2.20
17.7790,0.09,0.13,-0.99,2.99,3.72,2.01
17.7970,0.09,0.12,-0.99,2.99,3.66,2.26
17.8120,0.09,0.12,-0.99,3.36,3.85,1.95
17.8280,0.09,0.12,-0.99,2.75,3.60,2.20
17.8430,0.09,0.12,-0.99,3.11,4.09,2.14
17.8520,0.09,0.12,-0.99,3.05,4.15,2.08
17.8700,0.09,0.12,-0.99,2.93,3.60,2.01
17.8900,0.09,0.12,-0.99,2.69,3.85,2.14
17.9060,0.09,0.12,-0.99,3.17,3.78,2.20
17.9220,0.09,0.12,-0.99,3.30,3.72,2.14
17.9370,0.09,0.12,-0.99,2.81,3.85,2.14
17.9530,0.09,0.12,-0.99,3.05,3.91,2.20
17.9680,0.09,0.12,-0.99,2.99,3.60,2.26
17.9850,0.09,0.12,-0.99,2.93,3.78,2.14
18.0010,0.09,0.12,-0.99,3.11,3.91,2.08
18.0160,0.09,0.12,-0.99,2.87,3.66,2.14
18.0250,0.09,0.12,-0.99,2.87,3.78,2.14
18.0410,0.09,0.12,-0.99,2.93,3.60,2.32
18.0630,0.09,0.12,-0.99,3.05,3.97,2.08
18.0790,0.09,0.12,-0.99,2.99,3.85,2.26
18.0960,0.09,0.12,-0.99,2.93,3.85,2.38
18.1120,0.09,0.12,-0.99,2.93,3.97,2.14
18.1140,0.09,0.12,-0.99,2.99,4.15,2.14
18.1430,0.09,0.12,-0.99,3.17,3.54,2.01
18.1490,0.09,0.12,-0.99,3.05,3.97,2.14
18.1730,0.09,0.12,-0.99,3.05,3.97,2.08
18.1820,0.09,0.12,-0.99,2.99,3.42,2.20
18.1990,0.09,0.12,-0.99,3.05,3.97,2.08
18.2180,0.08,0.12,-0.99,2.93,4.15,2.08
18.2330,0.09,0.12,-0.99,2.81,3.85,2.20
18.2480,0.09,0.12,-0.99,3.17,3.72,2.20
18.2620,0.09,0.12,-0.99,3.17,3.91,2.01
18.2780,0.09,0.12,-0.99,3.17,3.72,2.08
18.2820,0.09,0.12,-0.99,2.81,3.97,2.26
18.2990,0.09,0.12,-0.99,2.81,4.21,2.26
18.3170,0.09,0.12,-0.99,2.81,3.85,2.01
18.3320,0.09,0.12,-0.99,3.17,3.78,2.26
18.3490,0.09,0.12,-0.99,2.93,3.85,2.20
18.3660,0.09,0.12,-0.99,3.17,3.78,1.95
18.3820,0.09,0.12,-0.99,3.05,3.72,2.01
18.3830,0.08,0.12,-0.99,2.99,3.60,2.20
18.4000,0.08,0.12,-0.99,2.87,3.66,2.08
18.4170,0.09,0.13,-0.99,3.17,3.72,2.08
18.4330,0.09,0.13,-0.99,3.11,3.42,2.08
18.4500,0.09,0.13,-0.99,3.17,3.78,2.26
18.4710,0.08,0.12,-0.99,2.93,3.85,2.08
18.4820,0.08,0.12,-0.99,2.93,3.91,2.08
18.5000,0.09,0.12,-0.99,2.93,3.72,2.08
18.5170,0.09,0.12,-0.99,3.11,3.85,2.14
18.5320,0.09,0.12,-0.99,3.11,3.91,2.08
18.5480,0.09,0.12,-0.99,2.69,3.85,2.08
18.5490,0.09,0.12,-0.99,2.75,3.78,2.08
18.5790,0.09,0.12,-0.99,2.99,3.97,2.08
18.5820,0.09,0.12,-0.99,3.05,4.21,2.14
18.6000,0.09,0.12,-0.99,2.99,3.48,2.08
18.6160,0.09,0.12,-0.99,3.05,3.54,2.26
18.6310,0.09,0.12,-0.99,3.11,3.85,2.01
18.6540,0.08,0.12,-0.99,3.11,3.85,2.08
18.6680,0.08,0.12,-0.99,3.05,3.97,2.26
18.6840,0.08,0.12,-0.99,3.05,3.85,2.32
18.6980,0.09,0.12,-0.99,2.93,3.97,1.95
18.7140,0.09,0.12,-0.99,3.11,3.78,2.14
18.7290,0.09,0.12,-0.99,3.17,3.72,2.08
18.7440,0.09,0.12,-0.99,2.99,3.85,2.08
18.7550,0.09,0.12,-0.99,2.62,3.97,2.14
18.7710,0.09,0.12,-0.99,3.05,3.85,2.14
18.7890,0.09,0.12,-0.99,2.93,3.72,2.20
18.8040,0.09,0.12,-0.99,2.99,4.03,2.14
18.8200,0.09,0.12,-0.99,3.11,3.78,2.08
18.8220,0.09,0.12,-0.99,2.81,3.66,2.08
18.8510,0.09,0.12,-0.99,3.11,3.60,2.01
18.8660,0.09,0.12,-0.99,2.75,3.54,2.14
18.8720,0.09,0.12,-0.99,3.05,3.85,2.08
18.8880,0.09,0.12,-0.99,3.23,3.72,2.26
18.9040,0.09,0.12,-0.99,2.93,3.97,2.14
18.9240,0.09,0.13,-0.99,2.87,3.78,2.08
18.9410,0.09,0.13,-0.99,3.11,3.66,2.20
18.9560,0.08,0.13,-0.99,2.99,3.72,2.14
18.9720,0.08,0.12,-0.99,3.11,3.66,2.01
18.9880,0.08,0.12,-0.99,3.05,3.85,2.32
19.0030,0.09,0.12,-0.99,3.11,3.54,2.14
19.0190,0.09,0.12,-0.99,2.87,4.09,2.14
19.0350,0.09,0.12,-0.99,3.17,4.21,2.14
19.0500,0.09,0.12,-0.99,3.05,3.91,2.08
19.0580,0.09,0.12,-0.99,2.99,3.97,2.08
19.0730,0.09,0.12,-0.99,2.99,3.60,2.26
19.0950,0.09,0.12,-0.99,2.93,3.66,2.14
19.1120,0.09,0.12,-0.99,3.11,3.85,2.08
19.1290,0.09,0.12,-0.99,2.87,4.03,2.14
19.1440,0.09,0.12,-0.99,2.99,3.66,1.95
19.1610,0.09,0.12,-0.99,2.87,3.66,2.26
19.1760,0.09,0.13,-0.99,3.17,3.60,2.08
19.1920,0.09,0.13,-0.99,2.99,3.78,2.20
19.2070,0.09,0.13,-0.99,2.99,3.78,2.08
19.2120,0.08,0.12,-0.99,2.93,3.36,2.32
19.2270,0.08,0.12,-0.99,2.93,3.66,2.01
19.2510,0.09,0.12,-0.99,2.69,3.72,2.14
19.2670,0.09,0.12,-0.99,2.93,3.66,2.14
19.2850,0.09,0.12,-0.99,2.93,3.72,2.14
19.3000,0.09,0.12,-0.99,2.99,3.60,2.01
19.3160,0.09,0.12,-0.99,3.17,3.85,2.01
19.3320,0.09,0.12,-0.99,2.75,3.66,2.08
19.3340,0.09,0.12,-0.99,2.69,3.72,2.20
19.3500,0.09,0.12,-0.99,2.87,3.78,2.14
19.3750,0.09,0.12,-0.99,2.93,4.03,2.08
19.3910,0.09,0.12,-0.99,3.11,4.09,2.08
19.4060,0.09,0.12,-0.99,2.93,3.91,2.01
19.4230,0.08,0.12,-0.99,3.17,4.03,2.26
19.4390,0.08,0.12,-0.99,2.99,3.66,2.14
19.4540,0.09,0.12,-0.99,2.99,3.97,2.20
19.4700,0.09,0.12,-0.99,3.11,3.85,2.26
19.4890,0.09,0.12,-0.99,3.05,3.42,2.20
19.5030,0.09,0.12,-0.99,3.05,3.78,2.08
19.5070,0.09,0.12,-0.99,2.87,3.72,2.08
19.5230,0.09,0.12,-0.99,3.36,3.85,1.95
19.5450,0.09,0.12,-0.99,3.05,3.91,2.20
19.5620,0.09,0.12,-0.99,3.11,3.72,2.08
19.5780,0.09,0.12,-0.99,2.93,3.66,2.08
19.5940,0.09,0.12,-0.99,2.93,3.72,2.14
19.6110,0.11,0.09,-1.00,3.11,4.21,-0.67
19.6260,0.09,0.11,-0.99,4.46,6.04,-9.52
19.6410,0.07,0.15,-0.99,4.27,6.41,-11.60
19.6460,0.06,0.17,-0.99,3.60,5.13,-3.60
19.6710,0.08,0.13,-1.00,2.81,4.15,1.16
19.6850,0.09,0.12,-0.99,2.99,4.09,2.32
19.6950,0.09,0.12,-0.99,2.99,3.91,2.14
19.7120,0.09,0.12,-0.99,2.75,4.09,2.14
19.7280,0.09,0.12,-0.99,3.11,3.66,2.20
19.7450,0.09,0.12,-0.99,3.05,3.72,2.01
19.7620,0.09,0.12,-0.99,3.11,4.21,2.08
19.7790,0.09,0.12,-0.99,3.17,3.78,2.20
19.7940,0.09,0.12,-0.99,3.11,4.09,2.08
19.8110,0.09,0.11,-1.00,2.87,3.72,1.77
19.8260,0.12,0.19,-0.98,3.78,4.64,-3.23
19.8410,0.08,0.14,-0.99,3.97,5.68,-6.41
19.8560,0.08,0.11,-0.99,3.97,5.43,-6.47
19.8620,0.07,0.09,-1.00,3.48,4.82,-3.78
19.8780,0.07,0.10,-1.00,3.11,4.27,0.37
19.9000,0.08,0.12,-0.99,3.11,4.15,1.89
19.9170,0.08,0.12,-0.99,2.93,3.91,1.89
19.9180,0.10,0.14,-0.99,2.69,3.66,1.71
19.9480,0.09,0.10,-0.99,3.11,3.97,-0.31
19.9500,0.08,0.12,-0.99,3.36,4.21,0.31
19.9800,0.08,0.11,-0.99,2.81,3.97,1.28
19.9830,0.08,0.10,-0.99,3.23,3.85,1.89
20.0100,0.09,0.11,-0.99,3.11,4.15,2.20
20.0170,0.09,0.12,-0.99,3.42,4.15,2.14
20.0320,0.09,0.12,-0.99,2.87,3.66,2.14
20.0530,0.10,0.14,-0.99,2.99,3.42,1.89
20.0700,0.08,0.12,-0.99,3.05,3.72,1.22
20.0850,0.08,0.12,-0.99,3.23,3.85,1.46
20.0880,0.08,0.13,-0.99,3.30,3.85,1.83
20.1030,0.09,0.13,-0.99,2.93,4.21,1.89
20.1190,0.08,0.12,-0.99,2.87,4.15,1.71
20.1440,0.08,0.12,-0.99,3.11,3.78,1.71
20.1590,0.10,0.12,-0.99,3.05,3.85,1.40
20.1760,0.09,0.12,-0.99,3.17,3.85,0.85
20.1920,0.08,0.12,-0.99,3.17,4.09,1.04
20.2070,0.08,0.11,-0.99,2.99,4.21,1.04
20.2210,0.08,0.12,-0.99,2.99,4.09,1.46
20.2370,0.08,0.12,-0.99,3.30,3.97,1.53
20.2520,0.09,0.12,-0.99,3.11,3.85,1.89
20.2670,0.09,0.12,-0.99,3.23,3.60,2.08
20.2820,0.09,0.12,-0.99,3.36,3.85,1.65
20.2930,0.09,0.12,-0.99,3.23,4.27,0.12
20.3090,0.08,0.13,-0.99,3.42,4.27,-1.34
20.3260,0.07,0.14,-0.99,3.17,4.27,0.92
20.3430,0.08,0.13,-0.99,3.11,4.21,1.83
20.3580,0.08,0.13,-0.99,2.81,3.85,2.01
20.3720,0.09,0.12,-0.99,3.17,3.85,2.14
20.3880,0.09,0.12,-0.99,2.93,4.09,2.20
20.4020,0.09,0.12,-0.99,2.87,4.15,2.14
20.4190,0.09,0.12,-0.99,2.99,3.85,1.89
20.4340,0.09,0.12,-0.99,2.93,3.78,2.08
20.4440,0.09,0.12,-0.99,2.99,3.91,2.26
20.4590,0.09,0.12,-0.99,3.05,4.09,2.01
20.4750,0.09,0.12,-0.99,3.11,3.97,1.71
20.4930,0.09,0.11,-0.99,3.23,3.97,-0.12
20.5080,0.08,0.14,-0.99,3.66,4.33,-1.59
20.5090,0.08,0.13,-0.99,2.99,3.66,1.77
20.5270,0.08,0.13,-0.99,3.11,3.66,2.20
20.5540,0.08,0.13,-0.99,3.11,3.72,2.08
20.5600,0.09,0.12,-0.99,2.93,4.15,2.01
20.5850,0.10,0.11,-0.99,3.11,4.03,0.73
20.6000,0.09,0.12,-0.99,3.36,4.21,-0.37
20.6120,0.09,0.13,-0.99,3.05,3.97,1.77
20.6290,0.07,0.13,-0.99,2.75,3.91,2.38
20.6450,0.07,0.13,-0.99,2.87,3.60,2.44
20.6450,0.09,0.12,-0.99,2.93,3.91,2.20
20.6750,0.09,0.12,-0.99,3.11,3.85,2.01
20.6890,0.09,0.12,-0.99,3.11,4.09,2.01
20.7050,0.11,0.10,-0.99,2.99,4.09,1.65
20.7110,0.10,0.11,-0.99,3.42,4.27,-0.24
20.7340,0.09,0.12,-0.99,3.05,3.85,0.85
20.7450,0.08,0.13,-0.99,3.23,3.91,0.61
20.7610,0.06,0.14,-0.99,3.17,4.03,1.16
20.7780,0.07,0.14,-0.99,3.05,3.72,1.71
20.7940,0.08,0.13,-0.99,2.93,3.72,2.08
20.7950,0.09,0.13,-0.99,2.99,3.60,2.38
20.8250,0.09,0.12,-0.99,3.05,4.15,2.56
20.8400,0.08,0.12,-0.99,2.99,3.85,2.50
20.8450,0.09,0.12,-0.99,2.87,3.85,2.20
20.8690,0.09,0.12,-0.99,2.93,3.66,2.20
20.8850,0.09,0.12,-0.99,3.05,3.78,2.14
20.9000,0.09,0.12,-0.99,3.17,3.72,2.26
20.9110,0.09,0.12,-0.99,3.05,3.60,2.20
20.9280,0.09,0.12,-0.99,2.93,3.60,2.14
20.9440,0.09,0.12,-0.99,3.05,3.85,2.08
20.9610,0.09,0.12,-0.99,2.99,3.85,2.26
20.9760,0.09,0.12,-0.99,3.17,4.03,2.14
20.9910,0.11,0.13,-0.99,3.11,3.91,2.14
20.9940,0.08,0.12,-0.99,3.17,3.72,2.08
21.0100,0.08,0.12,-0.99,3.30,3.72,1.95
21.0320,0.09,0.12,-0.99,2.93,3.97,2.01
21.0490,0.09,0.13,-0.99,2.93,3.97,2.38
21.0660,0.09,0.12,-0.99,2.87,3.78,2.32
21.0810,0.08,0.12,-0.99,3.30,3.85,2.14
21.0960,0.09,0.12,-0.99,2.99,3.97,1.95
21.1110,0.09,0.12,-0.99,2.87,3.72,1.71
21.1160,0.10,0.12,-0.99,3.11,3.91,1.59
21.1410,0.08,0.12,-0.99,2.99,3.85,1.53
21.1490,0.08,0.12,-0.99,3.05,3.60,1.65
21.1660,0.08,0.12,-0.99,2.93,3.54,1.53
21.1830,0.08,0.12,-0.99,2.87,3.78,1.71
21.1990,0.09,0.12,-0.99,3.23,3.72,1.65
21.2140,0.09,0.12,-0.99,3.23,3.66,1.71
21.2320,0.08,0.12,-0.99,2.87,4.15,1.77
21.2350,0.08,0.12,-0.99,2.99,3.54,1.83
21.2530,0.08,0.12,-0.99,3.17,3.97,2.01
21.2750,0.08,0.12,-0.99,3.11,3.85,1.95
21.2850,0.09,0.12,-0.99,2.69,3.66,1.95
21.3080,0.10,0.12,-0.99,3.17,4.03,1.83
21.3230,0.10,0.12,-0.99,3.11,4.03,1.10
21.3390,0.09,0.12,-0.99,3.11,3.54,1.22
21.3540,0.08,0.12,-0.99,3.23,3.60,1.77
21.3580,0.08,0.12,-0.99,2.99,3.85,1.89
21.3750,0.10,0.12,-1.00,3.48,3.97,1.83
21.3940,0.08,0.12,-0.99,2.69,3.85,0.92
21.4150,0.09,0.12,-0.99,3.05,3.85,0.98
21.4270,0.08,0.12,-0.99,3.17,3.60,1.22
21.4420,0.08,0.12,-0.99,2.93,3.85,1.53
21.4610,0.09,0.12,-1.00,3.23,4.03,1.77
21.4760,0.07,0.12,-0.99,2.87,3.66,1.28
21.4910,0.10,0.13,-0.99,2.81,4.03,1.40
21.5060,0.10,0.13,-0.99,2.99,3.78,1.34
21.5150,0.07,0.12,-0.99,2.99,3.97,1.46
21.5310,0.07,0.12,-0.99,3.17,3.72,1.77
21.5520,0.08,0.12,-0.99,2.75,3.72,1.89
21.5680,0.09,0.12,-0.99,2.99,3.23,2.01
21.5750,0.09,0.12,-0.99,2.81,3.48,2.08
21.5860,0.09,0.12,-0.99,2.87,3.85,2.32
21.6170,0.08,0.12,-0.99,2.93,3.60,2.14
21.6190,0.08,0.12,-0.99,3.17,3.85,2.14
21.6350,0.08,0.12,-0.99,3.17,3.66,2.14
21.6620,0.09,0.12,-0.99,2.87,3.66,2.08
21.6750,0.11,0.12,-0.99,3.17,3.54,2.01
21.6900,0.09,0.12,-0.99,3.17,3.97,1.04
21.7070,0.09,0.12,-0.99,3.23,3.91,0.55
21.7120,0.10,0.12,-0.99,3.30,4.27,0.37
21.7290,0.11,0.12,-0.99,2.99,3.97,-0.06
21.7530,0.09,0.13,-0.99,2.99,4.09,-0.18
21.7680,0.09,0.14,-0.99,3.05,3.97,0.49
21.7790,0.07,0.13,-0.99,2.99,4.15,0.79
21.7960,0.08,0.11,-1.00,3.42,3.60,0.92
21.8120,0.03,0.12,-1.00,2.87,3.72,0.18
21.8270,0.08,0.12,-0.99,3.05,3.66,1.46
21.8460,0.08,0.12,-0.99,2.81,3.97,1.59
21.8610,0.09,0.12,-0.99,3.17,3.60,1.89
21.8780,0.08,0.12,-0.99,3.11,3.85,1.95
21.8940,0.08,0.12,-0.99,3.11,3.60,2.01
21.9090,0.08,0.12,-0.99,3.36,3.72,2.01
21.9140,0.09,0.12,-0.99,2.99,3.66,2.08
21.9290,0.09,0.12,-0.99,2.69,3.66,2.14
21.9510,0.11,0.12,-0.99,2.93,3.91,2.01
21.9670,0.09,0.12,-0.99,3.05,4.09,1.65
21.9850,0.08,0.12,-0.99,3.05,4.09,1.40
22.0010,0.08,0.12,-0.99,2.99,3.97,1.40
22.0170,0.08,0.12,-0.99,2.99,3.91,1.16
22.0320,0.10,0.12,-0.99,3.17,3.97,1.28
22.0490,0.11,0.11,-0.99,2.93,3.60,1.59
22.0640,0.09,0.11,-0.99,3.17,3.85,1.46
22.0790,0.09,0.12,-0.99,3.42,3.91,0.06
22.0940,0.13,0.11,-0.99,3.60,3.85,-0.37
22.1100,0.07,0.14,-0.99,2.87,3.97,-0.31
22.1260,0.11,0.12,-1.00,3.66,4.21,0.12
22.1350,0.06,0.13,-0.99,2.75,3.97,1.04
22.1570,0.06,0.12,-0.99,3.23,3.91,1.71
22.1690,0.10,0.13,-1.00,3.60,3.85,1.77
22.1840,0.09,0.12,-0.99,2.93,3.66,1.22
22.2020,0.07,0.12,-0.99,2.87,3.91,1.40
22.2170,0.09,0.12,-0.99,2.75,3.54,2.08
22.2350,0.10,0.12,-0.99,3.23,4.09,2.01
22.2500,0.08,0.12,-0.99,3.30,3.60,1.65
22.2660,0.08,0.12,-0.99,3.17,3.66,1.83
22.2820,0.08,0.12,-0.99,3.11,3.23,1.95
22.2970,0.09,0.12,-0.99,3.11,3.66,2.01
22.3010,0.10,0.12,-0.99,2.87,3.60,2.01
22.3170,0.09,0.12,-0.99,3.23,3.85,1.46
22.3440,0.09,0.12,-0.99,3.36,3.66,1.16
22.3560,0.09,0.12,-0.99,3.23,4.03,0.67
22.3720,0.10,0.12,-0.98,3.30,4.09,0.73
22.3880,0.15,0.12,-1.00,3.66,3.78,1.16
22.4040,0.09,0.13,-0.99,2.62,3.48,1.10
22.4210,0.08,0.11,-1.00,3.66,4.03,1.10
22.4360,0.08,0.13,-0.99,2.81,3.97,0.06
22.4520,0.08,0.12,-1.00,3.66,4.03,0.12
22.4670,0.04,0.13,-1.00,2.81,3.60,0.67
22.4830,0.05,0.12,-1.00,2.87,3.54,1.89
22.4890,0.07,0.12,-1.00,3.17,3.66,2.14
22.5120,0.09,0.12,-0.99,2.75,3.78,2.20
22.5280,0.09,0.12,-0.99,3.42,3.97,2.20
22.5390,0.09,0.12,-0.99,2.93,3.85,2.32
22.5550,0.09,0.12,-0.99,3.05,3.78,2.14
22.5720,0.09,0.12,-0.99,3.05,3.97,2.01
22.5880,0.09,0.12,-0.99,2.93,3.60,2.14
22.6040,0.09,0.12,-0.99,3.17,3.42,2.01
22.6210,0.10,0.12,-0.99,3.23,3.66,1.89
22.6360,0.09,0.12,-0.99,3.17,3.91,1.34
22.6400,0.08,0.12,-0.99,3.23,3.91,1.40
22.6680,0.08,0.12,-0.99,3.05,3.78,1.53
22.6840,0.07,0.12,-0.99,2.99,3.91,1.77
22.6890,0.08,0.12,-0.99,3.11,3.85,1.77
22.7160,0.09,0.12,-0.99,3.05,3.48,1.89
22.7220,0.09,0.12,-0.99,3.23,3.85,1.53
22.7370,0.08,0.12,-0.99,3.48,3.72,1.40
22.7590,0.08,0.12,-0.99,3.17,3.85,1.46
22.7770,0.08,0.12,-0.99,3.11,3.60,1.89
22.7920,0.09,0.12,-0.99,3.11,3.91,1.83
22.8080,0.10,0.12,-0.99,2.99,3.97,1.46
22.8240,0.09,0.12,-0.99,3.30,3.78,1.04
22.8390,0.08,0.12,-0.99,3.05,3.66,1.46
22.8550,0.07,0.13,-0.99,3.05,3.60,1.77
22.8600,0.09,0.12,-0.99,2.75,3.91,2.01
22.8760,0.09,0.12,-0.99,3.05,3.66,1.95
22.9000,0.11,0.11,-0.99,3.23,3.91,1.53
22.9000,0.09,0.11,-0.99,3.30,3.85,0.67
22.9160,0.07,0.12,-0.99,3.17,3.91,1.16
22.9340,0.07,0.13,-0.99,3.17,3.85,1.04
22.9600,0.07,0.13,-0.99,3.05,3.72,1.04
22.9760,0.09,0.12,-0.99,2.93,3.72,1.71
22.9820,0.09,0.12,-0.99,3.30,3.78,2.14
23.0060,0.12,0.11,-0.99,3.42,3.97,1.71
23.0210,0.09,0.12,-1.00,3.30,3.97,1.04
23.0370,0.08,0.12,-0.99,3.11,3.85,1.16
23.0520,0.07,0.13,-0.99,3.05,4.21,0.92
23.0680,0.08,0.13,-0.99,3.11,3.78,0.79
23.0850,0.08,0.13,-0.99,2.93,3.78,1.46
23.1000,0.09,0.12,-0.99,2.99,3.54,2.14
23.1060,0.09,0.12,-0.99,2.93,3.78,2.20
23.1210,0.08,0.12,-0.99,3.05,3.72,1.89
23.1430,0.08,0.12,-0.99,3.23,3.97,1.77
23.1600,0.08,0.12,-0.99,2.93,3.72,1.89
23.1760,0.09,0.12,-0.99,2.75,3.78,2.01
23.1920,0.09,0.12,-0.99,2.93,3.78,2.14
23.2070,0.08,0.12,-0.99,3.17,4.03,2.08
23.2220,0.08,0.12,-0.99,3.11,3.72,1.95
23.2270,0.08,0.12,-0.99,2.87,3.91,1.77
23.2430,0.09,0.12,-0.99,3.23,3.78,1.95
23.2640,0.09,0.12,-0.99,3.05,3.66,1.95
23.2800,0.10,0.12,-0.99,3.05,3.72,1.89
23.2970,0.09,0.12,-0.99,2.99,3.72,1.89
23.3140,0.08,0.12,-0.99,2.99,3.72,1.83
23.3290,0.08,0.12,-0.99,2.93,3.85,1.89
23.3450,0.09,0.12,-0.99,3.23,3.60,1.83
23.3610,0.09,0.12,-0.99,2.87,3.54,1.95
23.3760,0.09,0.12,-0.99,3.11,3.97,2.20
23.3790,0.09,0.12,-0.99,2.93,3.97,2.44
23.4030,0.11,0.12,-1.00,3.48,3.66,2.20
23.4200,0.09,0.12,-0.99,2.93,3.72,1.46
23.4360,0.09,0.12,-0.99,3.05,3.97,0.61
23.4380,0.11,0.13,-1.00,3.36,4.03,1.04
23.4680,0.06,0.12,-0.99,2.81,3.78,1.22
23.4770,0.06,0.12,-0.99,2.99,3.91,1.65
23.5010,0.07,0.12,-0.99,2.81,3.78,2.01
23.5160,0.08,0.12,-0.99,2.75,3.85,2.08
23.5320,0.09,0.12,-0.99,3.11,3.72,2.08
23.5480,0.10,0.13,-0.99,2.99,3.54,2.26
23.5640,0.09,0.12,-0.99,2.93,3.72,2.20
23.5760,0.08,0.12,-0.99,2.99,3.42,2.20
23.5880,0.08,0.12,-0.99,2.87,3.72,2.01
23.6030,0.09,0.12,-0.99,2.75,3.78,2.14
23.6190,0.18,0.13,-0.98,2.81,3.72,0.49
23.6400,0.10,0.12,-0.97,3.36,4.21,-0.37
23.6560,0.11,0.12,-0.99,3.23,3.66,1.04
23.6710,0.07,0.11,-0.99,2.99,3.91,0.85
23.6870,0.05,0.13,-1.00,3.42,4.33,-0.85
23.6920,0.05,0.13,-1.00,2.62,3.97,0.12
23.7070,0.04,0.12,-1.00,2.87,3.91,1.46
23.7310,0.08,0.12,-0.99,3.11,3.66,2.01
23.7480,0.08,0.12,-0.99,3.30,3.91,2.20
23.7640,0.09,0.12,-0.99,3.17,3.66,2.14
23.7800,0.09,0.12,-0.99,2.87,3.48,2.08
23.7970,0.09,0.12,-0.99,2.87,3.42,2.08
23.8130,0.09,0.12,-0.99,2.99,3.60,2.14
23.8290,0.10,0.13,-0.99,3.30,3.60,2.26
23.8460,0.10,0.12,-0.99,3.05,3.78,2.20
23.8610,0.08,0.12,-0.99,3.05,3.72,2.14
23.8770,0.08,0.12,-0.99,2.75,3.72,1.89
23.8790,0.09,0.12,-0.99,3.05,3.78,1.95
23.9020,0.09,0.12,-0.99,2.99,3.78,1.65
23.9190,0.09,0.12,-0.99,3.30,3.48,1.40
23.9370,0.10,0.12,-0.99,3.36,3.97,1.22
23.9510,0.09,0.12,-0.99,3.11,3.72,1.28
23.9680,0.08,0.12,-0.99,2.87,3.78,1.89
23.9840,0.06,0.13,-0.99,3.11,3.78,1.65
23.9860,0.07,0.13,-0.99,2.99,3.72,1.53
24.0020,0.14,0.13,-1.00,3.48,4.03,2.14
24.0170,0.13,0.13,-0.98,3.11,3.97,1.65
24.0420,0.06,0.12,-1.00,3.11,3.97,1.10
24.0580,0.08,0.12,-0.99,3.17,4.15,1.59
24.0740,0.11,0.11,-0.99,2.87,3.54,1.77
24.0920,0.09,0.12,-1.00,3.48,4.03,1.28
24.1070,0.07,0.13,-0.99,2.81,3.66,1.10
24.1220,0.05,0.12,-1.00,2.87,4.03,1.40
24.1370,0.09,0.12,-0.99,3.17,4.03,1.59
24.1420,0.08,0.12,-0.99,3.11,3.42,1.95
24.1580,0.08,0.12,-0.99,3.17,3.66,2.26
24.1830,0.08,0.12,-0.99,2.87,3.66,2.20
24.1990,0.10,0.13,-0.99,3.17,4.03,2.20
24.2160,0.10,0.13,-0.99,2.93,3.48,2.50
24.2310,0.10,0.12,-0.99,3.11,3.30,2.69
24.2470,0.08,0.12,-1.00,3.11,3.36,2.93
24.2620,0.07,0.12,-1.00,3.48,3.66,2.08
24.2770,0.07,0.13,-0.99,3.11,3.85,1.40
24.2830,0.17,0.13,-0.98,3.36,3.72,1.04
24.2990,0.07,0.14,-0.99,2.93,3.66,-0.49
24.3200,0.10,0.11,-1.00,3.36,3.72,1.53
24.3370,0.10,0.11,-0.99,2.69,3.85,1.65
24.3530,0.05,0.12,-0.99,3.60,3.91,0.06
24.3690,0.04,0.12,-1.00,3.36,3.91,-0.18
24.3860,0.03,0.12,-1.00,3.11,4.27,0.37
24.4020,0.09,0.12,-0.99,2.81,3.78,2.14
24.4180,0.09,0.12,-0.99,3.36,3.60,2.26
24.4340,0.09,0.12,-0.99,3.30,3.54,2.26
24.4490,0.09,0.12,-0.99,3.23,3.85,2.08
24.4550,0.08,0.12,-0.99,3.23,3.54,2.01
24.4770,0.08,0.12,-0.99,3.05,3.48,2.01
24.4910,0.09,0.12,-0.99,2.93,3.42,2.08
24.5080,0.09,0.12,-0.99,3.17,3.85,2.20
24.5250,0.12,0.12,-0.99,3.05,3.54,1.40
24.5410,0.09,0.12,-0.99,3.30,3.85,0.79
24.5570,0.07,0.12,-0.99,3.36,3.72,0.98
24.5730,0.08,0.12,-0.99,3.05,3.97,1.10
24.5890,0.09,0.12,-0.99,3.05,4.21,1.34
24.5910,0.10,0.12,-0.99,3.30,4.03,1.10
24.6070,0.09,0.12,-1.00,3.30,3.66,1.16
24.6350,0.09,0.12,-0.99,3.48,3.78,1.10
24.6460,0.08,0.12,-0.99,3.17,4.09,1.04
24.6610,0.08,0.13,-0.99,3.11,3.78,0.98
24.6810,0.08,0.13,-0.99,2.93,3.78,1.28
24.6960,0.09,0.12,-0.99,3.23,4.03,1.83
24.7010,0.09,0.12,-0.99,3.17,3.72,1.65
24.7170,0.09,0.12,-0.99,2.93,3.66,1.46
24.7380,0.09,0.12,-0.99,3.30,4.15,0.92
24.7540,0.08,0.12,-0.99,2.99,4.09,0.61
24.7710,0.08,0.12,-0.99,3.11,3.91,1.10
24.7860,0.08,0.13,-0.99,3.11,3.78,1.77
24.8040,0.09,0.12,-0.99,2.81,3.91,1.95
24.8190,0.09,0.12,-0.99,2.99,3.91,1.89
24.8350,0.08,0.12,-0.99,2.99,4.03,1.65
24.8510,0.08,0.12,-0.99,3.05,3.97,1.40
24.8670,0.10,0.11,-0.98,3.30,3.72,1.89
24.8830,0.11,0.12,-0.99,3.11,3.66,1.34
24.8990,0.07,0.13,-1.00,3.30,3.66,0.92
24.9150,0.07,0.13,-0.99,3.11,3.91,1.10
24.9210,0.06,0.13,-0.99,3.05,3.48,1.83
24.9370,0.08,0.13,-0.99,2.93,3.66,2.01
24.9600,0.08,0.12,-0.99,3.05,4.03,2.08
24.9770,0.08,0.12,-0.99,3.17,3.48,2.08
24.9930,0.09,0.12,-0.99,2.93,3.72,2.20
25.0090,0.09,0.12,-0.99,2.87,3.91,2.20
25.0250,0.08,0.12,-0.99,3.17,3.66,2.01
25.0400,0.08,0.12,-0.99,3.11,3.91,1.95
25.0560,0.08,0.12,-0.99,2.87,3.60,2.08
25.0600,0.09,0.12,-0.99,2.81,3.66,2.08
25.0780,0.10,0.12,-0.99,3.17,3.91,2.14
25.0980,0.09,0.12,-0.99,3.23,3.78,2.01
25.1140,0.09,0.12,-0.99,3.23,3.85,1.89
25.1310,0.08,0.12,-1.00,2.93,4.09,1.89
25.1470,0.08,0.12,-0.99,3.11,3.72,1.95
25.1640,0.08,0.13,-0.99,3.17,3.66,1.83
25.1810,0.09,0.12,-0.99,2.99,3.66,2.14
25.1820,0.10,0.12,-0.99,2.93,4.03,2.20
25.2120,0.08,0.12,-0.99,3.11,3.72,2.62
25.2280,0.08,0.12,-1.00,3.23,3.66,2.50
25.2440,0.08,0.12,-1.00,2.87,3.48,2.14
25.2470,0.09,0.12,-0.99,2.75,3.66,2.20
25.2630,0.11,0.12,-0.98,2.99,3.66,2.32
25.2910,0.13,0.13,-1.01,4.03,3.97,2.32
25.3020,0.07,0.12,-1.00,2.81,3.78,1.89
25.3200,0.05,0.12,-0.99,3.11,3.72,2.32
25.3350,0.10,0.12,-0.99,2.50,3.66,2.26
25.3520,0.12,0.13,-1.00,3.30,3.85,1.65
25.3680,0.09,0.14,-0.99,2.81,3.72,1.04
25.3840,0.07,0.11,-0.99,3.05,3.97,1.95
25.3860,0.07,0.11,-0.99,3.36,3.78,2.87
25.4170,0.08,0.12,-1.00,3.11,3.30,2.14
25.4190,0.09,0.12,-0.99,3.11,3.85,2.01
25.4350,0.09,0.12,-0.99,2.69,4.03,2.14
25.4500,0.09,0.12,-0.99,3.36,3.60,2.26
25.4780,0.08,0.12,-0.99,3.30,3.97,2.26
25.4910,0.08,0.12,-0.99,3.05,3.60,2.20
25.5070,0.08,0.12,-0.99,3.23,3.60,2.01
25.5230,0.09,0.12,-0.99,2.99,3.42,2.08
25.5390,0.09,0.12,-0.99,3.30,3.66,2.01
25.5540,0.08,0.12,-0.99,3.17,3.72,2.08
25.5610,0.08,0.12,-0.99,3.05,3.48,1.71
25.5780,0.09,0.16,-0.99,2.99,3.91,1.89
25.6000,0.09,0.12,-0.99,2.93,3.66,1.77
25.6150,0.10,0.12,-0.99,2.93,3.48,1.89
25.6340,0.10,0.11,-0.99,3.05,3.72,2.50
25.6490,0.06,0.12,-0.99,3.54,3.17,2.69
25.6650,0.09,0.12,-0.99,3.17,3.78,2.08
25.6810,0.11,0.11,-0.99,2.93,3.78,2.14
25.6970,0.10,0.12,-0.99,2.93,3.78,2.32
25.7130,0.08,0.12,-1.00,2.99,3.60,2.87
25.7160,0.07,0.11,-0.99,2.87,3.48,2.87
25.7320,0.07,0.12,-0.99,3.17,3.54,2.32
25.7600,0.09,0.12,-0.99,3.05,3.72,2.20
25.7710,0.12,0.12,-0.99,3.23,3.85,2.08
25.7880,0.10,0.12,-0.99,3.23,3.54,2.44
25.8040,0.12,0.12,-0.99,2.99,3.23,4.33
25.8210,0.08,0.12,-0.99,2.87,3.17,4.70
25.8220,0.02,0.14,-0.99,3.23,3.91,1.95
25.8520,0.09,0.13,-0.99,2.81,3.85,1.89
25.8680,0.09,0.12,-0.99,2.87,3.66,2.20
25.8840,0.10,0.11,-0.99,2.99,3.91,3.05
25.9000,0.09,0.11,-1.00,2.99,3.48,4.27
25.9170,0.07,0.12,-0.99,2.81,3.42,4.03
25.9220,0.07,0.13,-0.99,3.17,3.60,1.77
25.9370,0.09,0.12,-0.99,2.62,3.85,1.95
25.9640,0.09,0.12,-0.99,2.93,3.66,1.95
25.9750,0.11,0.12,-0.99,3.30,3.78,2.32
25.9910,0.11,0.11,-1.00,3.78,4.21,1.71
26.0080,0.06,0.13,-0.99,3.11,4.15,0.37
26.0240,0.07,0.13,-0.99,2.87,3.78,1.28
26.0410,0.09,0.13,-0.99,3.05,3.72,2.08
26.0580,0.10,0.12,-0.99,3.30,3.85,2.14
26.0730,0.09,0.12,-0.99,3.23,3.66,2.38
26.0890,0.08,0.12,-0.99,3.05,3.91,2.44
26.1040,0.09,0.12,-0.99,3.23,3.97,2.01
26.1090,0.08,0.12,-0.99,3.11,3.66,2.01
26.1240,0.10,0.12,-0.99,2.81,3.91,1.95
26.1470,0.10,0.11,-0.99,2.93,3.91,1.95
26.1640,0.10,0.11,-0.99,3.30,3.91,1.77
26.1800,0.06,0.12,-0.99,3.17,3.91,1.89
26.1970,0.08,0.12,-0.99,2.87,3.78,1.89
26.2130,0.09,0.12,-0.99,2.87,3.72,1.95
26.2300,0.12,0.12,-0.99,3.17,3.85,2.14
26.2460,0.09,0.12,-0.99,3.36,3.60,1.95
26.2620,0.08,0.12,-0.99,3.36,3.91,1.95
26.2780,0.05,0.12,-0.99,3.17,3.91,1.10
26.2810,0.08,0.13,-0.99,2.75,3.60,1.77
26.2960,0.09,0.13,-0.99,3.05,3.66,2.14
26.3190,0.11,0.13,-0.99,2.81,3.48,2.32
26.3410,0.12,0.14,-0.99,2.69,3.97,2.56
26.3520,0.05,0.11,-1.00,3.42,4.21,0.49
26.3680,0.04,0.13,-1.00,3.11,3.97,0.73
26.3840,0.09,0.12,-0.99,2.56,3.54,2.14
26.4020,0.09,0.12,-0.99,2.81,3.72,2.14
26.4180,0.09,0.11,-0.99,2.81,4.15,2.14
26.4330,0.09,0.11,-0.99,3.11,3.97,2.14
26.4490,0.09,0.11,-0.99,3.11,3.48,2.20
26.4650,0.09,0.12,-0.99,3.17,3.97,2.32
26.4800,0.09,0.12,-0.99,3.23,4.15,2.26
26.4900,0.09,0.12,-0.99,3.17,3.66,2.20
26.5060,0.08,0.12,-0.99,3.11,3.72,2.26
26.5270,0.08,0.12,-0.99,3.05,3.91,2.08
26.5440,0.08,0.13,-0.99,3.23,3.85,2.01
26.5600,0.09,0.13,-0.99,2.99,3.78,2.08
26.5750,0.08,0.13,-0.99,3.11,4.03,2.26
26.5800,0.08,0.12,-1.00,2.99,3.85,2.32
26.5940,0.09,0.12,-1.00,2.75,3.66,2.20
26.6160,0.09,0.12,-0.99,2.75,3.72,2.01
26.6330,0.09,0.12,-0.99,2.75,3.66,2.20
26.6490,0.09,0.12,-0.99,2.99,3.72,2.20
26.6660,0.09,0.11,-0.99,2.75,3.30,2.14
26.6830,0.09,0.11,-0.99,3.05,3.97,2.14
26.7000,0.09,0.12,-0.99,3.17,3.97,2.08
26.7160,0.09,0.12,-0.99,3.23,3.85,1.95
26.7320,0.08,0.12,-1.00,3.23,3.85,1.95
26.7480,0.08,0.12,-0.99,2.81,3.54,1.89
26.7500,0.08,0.12,-0.99,2.87,3.54,2.08
26.7800,0.07,0.12,-0.99,3.11,4.09,2.01
26.7840,0.09,0.13,-0.99,3.17,3.78,1.77
26.7990,0.09,0.13,-0.99,2.87,3.91,2.08
26.8280,0.08,0.12,-0.99,3.11,4.03,2.08
26.8380,0.09,0.12,-0.99,2.81,3.78,2.14
26.8550,0.09,0.12,-0.99,2.93,3.66,2.08
26.8710,0.09,0.12,-0.99,2.93,3.91,2.08
26.8880,0.09,0.11,-0.99,2.99,3.72,2.14
26.9040,0.09,0.12,-0.99,2.87,3.60,2.08
26.9200,0.09,0.12,-0.99,2.87,3.72,2.08
26.9370,0.09,0.12,-0.99,3.05,3.72,2.08
26.9520,0.09,0.12,-0.99,2.93,3.72,2.08
26.9680,0.09,0.12,-0.99,2.93,3.97,2.08
26.9840,0.08,0.13,-0.99,3.05,3.85,2.14
27.0000,0.08,0.13,-0.99,3.11,3.66,2.20
27.0160,0.08,0.12,-0.99,2.87,3.78,2.20
27.0330,0.08,0.12,-0.99,3.05,3.85,2.14
27.0480,0.07,0.11,-0.99,3.11,3.85,2.01
27.0550,0.08,0.12,-0.99,2.99,3.66,2.56
27.0710,0.10,0.13,-0.99,2.93,3.36,3.11
27.0870,0.09,0.11,-0.99,3.11,3.85,2.32
27.1020,0.08,0.11,-0.99,3.17,3.85,2.50
27.1180,0.08,0.11,-0.99,2.87,3.60,2.62
27.1390,0.09,0.11,-0.99,3.05,3.72,2.81
27.1560,0.09,0.13,-0.99,2.87,3.97,2.32
27.1720,0.08,0.12,-0.99,3.11,3.97,1.83
27.1870,0.08,0.11,-0.99,3.23,3.97,1.10
27.2020,0.09,0.15,-0.99,3.30,4.21,0.24
27.2180,0.09,0.13,-0.99,3.05,4.15,1.65
27.2220,0.09,0.13,-0.99,2.44,3.72,2.08
27.2380,0.09,0.13,-0.99,2.87,3.54,2.08
27.2610,0.07,0.12,-0.99,3.42,4.03,2.08
27.2780,0.08,0.12,-1.00,3.36,3.97,2.20
27.2940,0.08,0.07,-1.00,2.93,3.66,1.71
27.3100,0.07,0.09,-1.00,3.05,4.46,-4.15
27.3270,0.08,0.12,-0.99,3.11,4.39,-2.62
27.3430,0.09,0.12,-0.99,3.36,3.97,-0.49
27.3590,0.10,0.13,-0.99,3.42,4.09,0.85
27.3750,0.10,0.13,-0.99,3.23,4.03,0.37
27.3900,0.09,0.12,-0.99,3.17,4.03,1.16
27.4060,0.10,0.12,-0.99,2.62,3.78,2.32
27.4110,0.16,0.13,-0.98,2.38,3.42,5.37
27.4260,0.07,0.12,-0.99,2.56,3.30,6.47
27.4480,0.05,0.11,-1.00,3.23,3.42,5.19
27.4660,0.08,0.13,-0.99,3.30,3.78,2.69
27.4820,0.09,0.12,-0.99,3.17,3.54,2.08
27.4970,0.09,0.12,-0.99,2.87,3.60,2.14
27.5140,0.09,0.12,-0.99,2.75,3.78,2.14
27.5160,0.09,0.12,-0.99,2.87,3.66,2.14
27.5320,0.10,0.12,-0.99,2.87,3.42,2.26
27.5480,0.07,0.12,-1.00,3.05,3.60,2.81
27.5650,0.08,0.12,-0.99,2.99,3.60,2.14
27.5820,0.10,0.12,-0.99,2.87,3.91,2.01
27.5980,0.10,0.13,-0.99,2.93,3.91,1.34
27.6210,0.07,0.11,-1.00,3.30,4.15,0.73
27.6380,0.06,0.11,-0.99,3.17,3.85,1.83
27.6540,0.08,0.12,-0.99,3.17,3.91,1.95
27.6700,0.08,0.12,-0.99,2.99,3.78,2.26
27.6860,0.09,0.13,-0.99,2.87,3.48,2.08
27.7020,0.09,0.13,-0.99,2.93,3.85,2.01
27.7180,0.09,0.12,-0.99,2.81,3.72,2.08
27.7340,0.09,0.12,-0.99,3.05,3.97,2.20
27.7500,0.10,0.11,-0.99,3.17,3.91,1.10
27.7660,0.08,0.11,-0.99,3.42,4.33,-0.61
27.7810,0.08,0.12,-0.99,3.30,4.58,0.12
27.7970,0.10,0.12,-0.99,2.93,3.30,0.79
27.8080,0.10,0.11,-0.99,3.11,4.15,0.92
27.8240,0.08,0.11,-1.00,3.42,4.27,0.73
27.8410,0.08,0.12,-0.99,3.42,4.09,0.24
27.8580,0.09,0.12,-0.99,3.30,4.27,-0.12
27.8730,0.08,0.13,-0.99,3.11,4.33,-0.06
27.8890,0.08,0.13,-0.99,2.93,3.97,1.04
27.9040,0.08,0.12,-0.99,3.23,3.66,1.53
27.9200,0.09,0.12,-0.99,2.93,3.91,1.65
27.9250,0.10,0.11,-0.99,3.30,4.52,0.31
27.9400,0.09,0.12,-0.99,3.36,3.97,-1.34
27.9630,0.07,0.13,-0.99,3.23,3.72,-0.18
27.9790,0.08,0.12,-0.99,2.81,3.91,1.89
27.9960,0.09,0.12,-0.99,2.99,4.09,2.14
28.0130,0.08,0.12,-0.99,2.81,3.85,2.20
28.0270,0.09,0.12,-0.99,2.93,3.78,2.01
28.0430,0.09,0.12,-0.99,2.93,3.97,2.14
28.0460,0.09,0.12,-0.99,2.99,4.21,2.14
28.0610,0.09,0.12,-0.99,3.11,3.66,2.20
28.0900,0.08,0.12,-0.99,3.05,3.54,2.08
28.1010,0.07,0.12,-1.00,2.93,3.85,2.20
28.1180,0.09,0.12,-0.99,3.11,4.15,0.79
28.1350,0.11,0.13,-0.99,3.05,3.91,0.79
28.1510,0.09,0.12,-0.99,2.99,4.03,1.95
28.1670,0.09,0.12,-0.99,2.87,3.78,2.20
28.1820,0.09,0.12,-0.99,2.87,3.72,2.01
28.1990,0.09,0.11,-0.99,2.56,3.85,2.32
28.2010,0.09,0.12,-0.99,2.87,3.91,2.08
28.2310,0.09,0.12,-1.00,3.11,3.78,2.14
28.2470,0.09,0.12,-0.99,3.11,3.78,2.20
28.2510,0.09,0.12,-0.99,2.93,4.09,2.26
28.2660,0.09,0.12,-0.99,2.99,3.91,2.14
28.2950,0.09,0.12,-0.99,2.93,3.36,2.20
28.3060,0.09,0.12,-0.99,3.42,3.91,1.95
28.3220,0.08,0.12,-0.99,3.17,3.91,2.20
28.3380,0.08,0.12,-0.99,3.05,3.85,2.14
28.3540,0.08,0.12,-0.99,2.87,3.66,2.14
28.3700,0.09,0.12,-0.99,3.05,3.91,2.08
28.3860,0.09,0.12,-0.99,2.99,3.60,2.01
28.4030,0.09,0.12,-0.99,2.99,3.60,2.08
28.4180,0.09,0.12,-0.99,3.11,4.03,2.14
28.4340,0.09,0.12,-0.99,2.87,3.78,2.14
28.4500,0.09,0.12,-0.99,3.17,3.72,2.14
28.4660,0.09,0.12,-0.99,2.87,4.09,2.14
28.4720,0.09,0.12,-0.99,3.05,3.85,2.14
28.4880,0.09,0.12,-0.99,3.23,3.66,2.01
28.5110,0.08,0.12,-0.99,3.11,3.97,2.20
28.5280,0.08,0.12,-0.99,3.05,3.66,2.01
28.5440,0.08,0.12,-0.99,2.99,3.91,2.14
28.5600,0.09,0.12,-0.99,2.99,3.54,2.14
28.5760,0.09,0.12,-0.99,2.99,3.72,1.95
28.5920,0.09,0.12,-0.99,2.81,3.78,2.08
28.6080,0.09,0.12,-0.99,3.11,3.78,2.14
28.6230,0.09,0.12,-0.99,2.81,3.78,1.95
28.6380,0.09,0.12,-0.99,2.81,3.60,1.95
28.6530,0.09,0.12,-0.99,3.11,3.48,2.08
28.6680,0.09,0.12,-0.99,3.23,3.42,2.14
28.6830,0.09,0.12,-0.99,2.99,3.97,2.14
28.6940,0.09,0.12,-0.99,2.99,3.72,2.01
28.7130,0.09,0.12,-0.99,2.81,3.54,2.08
28.7280,0.08,0.12,-0.99,2.99,3.78,2.08
28.7440,0.09,0.12,-0.99,3.11,3.78,2.08
28.7520,0.09,0.12,-0.99,2.99,3.60,2.20
28.7670,0.09,0.12,-0.99,3.23,3.42,1.95
28.7830,0.09,0.12,-0.99,2.75,3.66,2.20
28.8050,0.09,0.12,-0.99,3.23,3.72,2.01
28.8200,0.09,0.12,-0.99,3.23,3.36,2.08
28.8220,0.09,0.12,-0.99,2.93,3.66,2.08
28.8380,0.09,0.12,-0.99,2.87,3.72,1.95
28.8670,0.09,0.12,-0.99,2.69,3.54,2.08
28.8820,0.09,0.12,-0.99,3.23,3.60,2.14
28.8970,0.09,0.12,-0.99,3.42,3.91,2.01
28.9080,0.09,0.12,-0.99,3.30,3.85,2.14
28.9240,0.08,0.12,-1.00,3.05,3.78,2.08
28.9420,0.08,0.12,-0.99,3.11,3.66,2.14
28.9580,0.09,0.12,-0.99,2.81,4.03,1.95
28.9740,0.09,0.12,-0.99,3.30,4.27,-1.10
28.9900,0.08,0.14,-0.99,3.78,4.21,-2.44
29.0050,0.08,0.13,-1.00,3.48,4.03,0.18
29.0220,0.09,0.12,-0.99,2.81,3.60,2.14
29.0270,0.08,0.13,-0.99,2.99,4.09,0.00
29.0430,0.08,0.13,-0.99,3.17,3.85,0.79
29.0670,0.08,0.12,-0.99,3.05,3.72,1.40
29.0830,0.09,0.12,-0.99,3.17,4.15,1.95
29.0990,0.08,0.12,-0.99,3.05,3.78,2.08
29.1160,0.08,0.12,-0.99,3.30,3.97,1.95
29.1310,0.09,0.12,-0.99,3.05,3.36,2.14
29.1470,0.09,0.12,-0.99,2.99,3.60,2.08
29.1640,0.09,0.12,-0.99,3.05,3.97,1.53
29.1800,0.09,0.12,-0.99,3.36,3.78,1.34
29.1950,0.09,0.12,-0.99,3.36,3.60,1.77
29.2000,0.08,0.12,-0.99,3.30,3.97,1.95
29.2160,0.08,0.12,-0.99,2.93,3.85,2.08
29.2400,0.09,0.11,-0.99,2.93,3.91,1.95
29.2560,0.09,0.12,-0.99,2.87,3.85,1.71
29.2720,0.09,0.13,-0.99,2.99,3.91,0.73
29.2890,0.08,0.14,-0.99,3.17,3.72,1.40
29.3040,0.08,0.12,-0.99,3.17,3.54,1.83
29.3200,0.08,0.12,-0.99,2.93,3.85,2.08
29.3360,0.09,0.12,-0.99,3.11,3.91,2.01
29.3520,0.09,0.11,-0.99,2.93,3.78,1.77
29.3680,0.09,0.11,-0.99,3.30,3.60,0.49
29.3830,0.08,0.13,-0.99,3.23,3.72,1.22
29.4000,0.09,0.12,-0.99,3.23,3.72,2.14
29.4140,0.08,0.12,-0.99,2.99,3.60,1.53
29.4300,0.09,0.11,-0.99,3.05,3.85,0.85
29.4400,0.08,0.11,-1.00,3.23,4.33,-0.24
29.4550,0.08,0.14,-0.99,3.23,4.21,-0.49
29.4760,0.08,0.14,-0.99,3.17,3.66,1.28
29.4910,0.09,0.12,-0.99,3.11,3.78,1.83
29.5060,0.09,0.12,-0.99,3.23,3.85,1.40
29.5220,0.09,0.11,-0.99,3.23,3.85,0.31
29.5300,0.10,0.06,-1.00,3.11,4.58,-0.61
29.5450,0.08,0.14,-0.99,3.54,4.21,-3.11
29.5680,0.07,0.15,-0.99,2.99,3.72,0.67
29.5840,0.08,0.13,-0.99,3.17,3.72,1.28
29.5990,0.08,0.11,-0.99,3.36,3.60,1.40
29.6020,0.09,0.08,-1.00,3.23,4.03,0.37
29.6170,0.09,0.15,-0.99,3.11,4.64,-1.59
29.6390,0.08,0.14,-0.99,3.42,4.09,0.55
29.6570,0.08,0.12,-0.99,3.23,3.60,1.83
29.6730,0.08,0.12,-0.99,3.17,3.85,1.65
29.6900,0.09,0.11,-0.99,3.11,4.03,1.28
29.7060,0.08,0.11,-0.99,3.23,3.72,0.18
29.7210,0.08,0.14,-0.99,3.17,3.85,0.61
29.7370,0.08,0.11,-0.99,2.99,3.97,1.53
29.7510,0.08,0.09,-1.00,3.11,3.91,0.98
29.7680,0.09,0.11,-0.99,2.93,3.97,-1.04
29.7840,0.09,0.13,-0.99,3.23,4.03,-1.59
29.7990,0.09,0.14,-0.99,3.30,4.52,-0.61
29.8140,0.09,0.11,-0.99,3.30,4.21,1.46
29.8240,0.08,0.10,-0.99,2.93,4.21,0.73
29.8390,0.08,0.08,-1.00,3.23,4.33,-0.98
29.8590,0.09,0.11,-0.99,3.42,4.27,-1.34
29.8650,0.08,0.11,-0.99,3.30,4.33,-1.40
29.8840,0.08,0.10,-1.00,3.36,4.52,-1.16
29.8980,0.08,0.10,-1.00,3.42,4.21,-2.93
29.9170,0.09,0.17,-0.98,3.30,4.58,-2.26
29.9340,0.09,0.16,-0.98,2.81,3.85,0.92
29.9510,0.08,0.14,-0.99,3.17,3.60,1.77
29.9680,0.08,0.11,-0.99,3.11,4.03,2.01
29.9830,0.09,0.12,-0.99,2.93,3.72,1.40
29.9990,0.08,0.12,-0.99,3.11,3.91,1.16
30.0150,0.08,0.11,-0.99,2.87,3.91,1.16
30.0310,0.09,0.12,-0.99,2.99,3.91,1.04
30.0480,0.09,0.13,-0.99,2.87,3.54,1.46
30.0630,0.09,0.10,-0.99,3.11,3.78,2.01
30.0680,0.08,0.11,-0.99,3.23,3.78,1.95
30.0850,0.08,0.10,-0.99,3.05,3.60,1.59
30.1070,0.08,0.08,-1.00,3.36,4.09,0.31
30.1240,0.09,0.12,-0.99,3.30,4.15,-1.77
30.1400,0.08,0.14,-0.99,3.30,4.09,-0.92
30.1580,0.08,0.13,-0.99,3.05,3.72,2.08
30.1730,0.08,0.12,-0.99,2.99,3.54,2.56
30.1890,0.09,0.12,-0.99,3.05,3.78,2.32
30.2040,0.10,0.14,-0.99,3.23,3.85,1.83
30.2080,0.09,0.13,-0.99,3.17,4.03,1.71
30.2230,0.09,0.12,-0.99,2.99,3.48,2.14
30.2480,0.08,0.12,-0.99,3.05,3.60,1.95
30.2650,0.08,0.11,-0.99,2.81,3.60,1.77
30.2820,0.09,0.12,-0.99,3.11,3.78,1.46
30.2970,0.08,0.11,-0.99,3.11,3.60,1.16
30.3140,0.09,0.12,-0.99,3.36,4.09,0.67
30.3300,0.08,0.12,-0.99,2.99,4.09,1.22
30.3320,0.08,0.12,-0.99,2.93,3.72,1.53
30.3480,0.08,0.12,-0.99,2.75,3.85,1.59
30.3770,0.09,0.13,-0.99,2.99,3.72,1.28
30.3840,0.09,0.12,-0.99,3.17,3.91,1.53
30.4000,0.09,0.13,-0.99,3.23,3.66,1.83
30.4160,0.09,0.12,-0.99,3.11,3.66,1.89
30.4380,0.08,0.12,-0.99,2.99,3.72,1.95
30.4380,0.09,0.12,-0.99,2.81,3.54,1.83
30.4690,0.09,0.12,-0.99,3.05,3.85,2.08
30.4850,0.09,0.12,-0.99,2.93,3.72,2.01
30.5010,0.09,0.12,-0.99,3.17,3.48,2.26
30.5180,0.09,0.12,-0.99,3.36,3.48,2.14
30.5340,0.09,0.12,-0.99,3.42,3.66,2.01
30.5490,0.09,0.12,-0.99,3.11,3.48,1.95
30.5650,0.09,0.12,-0.99,2.93,3.72,2.01
30.5810,0.08,0.11,-1.00,3.17,3.54,2.01
30.5870,0.08,0.11,-0.99,3.11,3.54,1.04
30.6100,0.09,0.13,-0.99,3.17,4.09,0.61
30.6200,0.08,0.12,-0.99,3.17,4.09,0.79
30.6360,0.10,0.14,-0.99,2.99,4.39,0.43
30.6510,0.09,0.12,-0.99,3.23,3.97,0.85
30.6720,0.09,0.11,-0.99,3.30,4.15,0.98
30.6880,0.09,0.12,-0.99,2.93,3.66,0.31
30.7030,0.09,0.14,-0.99,3.17,4.33,0.31
30.7200,0.09,0.14,-0.99,3.05,3.97,1.59
30.7360,0.09,0.12,-0.99,3.23,3.85,1.95
30.7400,0.09,0.12,-0.99,3.23,3.66,1.95
30.7550,0.09,0.12,-0.99,3.05,3.91,1.59
30.7780,0.09,0.11,-0.99,3.11,4.03,1.16
30.7940,0.09,0.12,-0.99,2.75,3.97,1.28
30.8110,0.09,0.12,-0.99,3.11,3.97,1.46
30.8280,0.08,0.12,-0.99,2.99,3.91,1.53
30.8440,0.08,0.11,-1.00,3.17,3.97,1.46
30.8610,0.08,0.10,-1.00,2.99,3.85,0.73
30.8760,0.09,0.13,-0.99,2.99,4.39,-1.34
30.8920,0.08,0.15,-0.99,3.23,4.03,-1.40
30.9070,0.08,0.13,-0.99,3.23,3.78,1.16
30.9230,0.08,0.12,-0.99,3.17,3.48,1.59
30.9380,0.09,0.11,-0.99,2.81,3.91,0.92
30.9530,0.09,0.11,-0.99,3.30,4.03,-0.24
30.9690,0.09,0.13,-0.99,2.99,3.97,-0.37
30.9850,0.09,0.13,-0.99,3.30,4.21,0.00
30.9950,0.09,0.12,-0.99,3.11,3.66,1.77
31.0100,0.09,0.11,-1.00,3.42,3.54,2.01
31.0320,0.08,0.12,-0.99,3.30,3.54,2.20
31.0480,0.08,0.11,-0.99,3.05,3.60,2.14
31.0640,0.08,0.10,-0.99,2.69,3.85,1.40
31.0800,0.09,0.13,-0.99,3.05,4.09,1.16
31.0960,0.08,0.11,-1.00,3.23,3.97,0.98
31.1120,0.09,0.14,-0.99,3.48,3.85,1.16
31.1170,0.08,0.12,-0.99,3.17,4.15,1.83
31.1320,0.08,0.11,-0.99,2.75,3.91,1.65
31.1580,0.09,0.12,-0.99,2.87,3.66,1.28
31.1740,0.08,0.09,-1.00,3.05,3.91,0.85
31.1900,0.09,0.12,-0.99,3.23,4.15,0.12
31.2050,0.09,0.13,-0.99,3.30,3.91,0.37
31.2200,0.09,0.11,-0.99,3.23,3.85,1.46
31.2360,0.08,0.11,-1.00,3.23,3.78,1.28
31.2510,0.08,0.11,-0.99,3.05,3.60,0.85
31.2660,0.08,0.10,-0.99,3.11,4.33,-0.73
31.2750,0.09,0.13,-0.99,3.48,4.27,-0.73
31.2910,0.09,0.14,-0.99,3.48,4.58,0.43
31.3080,0.08,0.13,-0.99,3.42,3.85,1.53
31.3240,0.08,0.13,-0.99,2.93,3.66,1.83
31.3410,0.09,0.13,-1.00,2.81,3.85,1.65
31.3570,0.08,0.12,-1.00,2.93,3.91,1.59
31.3730,0.08,0.11,-0.99,3.23,3.91,1.65
31.3880,0.09,0.12,-0.99,3.30,4.03,1.65
31.4030,0.09,0.11,-1.00,3.17,3.72,2.01
31.4190,0.08,0.10,-0.99,3.11,3.72,2.01
31.4360,0.09,0.11,-0.99,3.05,3.78,1.83
31.4510,0.09,0.11,-0.99,3.11,3.60,1.53
31.4590,0.09,0.12,-0.99,3.17,3.72,1.28
31.4830,0.08,0.10,-1.00,3.11,3.78,1.22
31.4990,0.08,0.14,-0.99,3.30,3.66,1.40
31.5080,0.08,0.12,-0.99,3.05,3.54,2.08
31.5240,0.08,0.11,-1.00,2.87,3.60,1.46
31.5450,0.08,0.10,-0.99,2.87,3.91,0.73
31.5480,0.08,0.11,-0.99,3.05,4.15,-0.49
31.5650,0.09,0.14,-0.99,3.36,4.21,-0.18
31.5840,0.08,0.13,-0.99,3.17,3.54,1.71
31.5990,0.08,0.12,-0.99,2.81,3.85,2.20
31.6150,0.09,0.12,-0.99,2.87,3.97,2.20
31.6320,0.09,0.11,-0.99,3.17,3.78,2.01
31.6490,0.09,0.10,-0.99,3.17,3.78,1.53
31.6640,0.09,0.12,-0.99,2.87,4.15,1.04
31.6830,0.09,0.12,-0.99,3.36,3.72,1.28
31.6990,0.08,0.11,-0.99,2.87,3.91,2.01
31.7150,0.08,0.11,-0.99,3.17,3.85,1.83
31.7300,0.09,0.12,-0.99,3.05,3.91,1.71
31.7350,0.09,0.12,-0.99,3.11,4.15,1.16
31.7510,0.09,0.11,-0.99,3.23,4.33,1.04
31.7710,0.09,0.13,-0.99,3.17,4.21,-0.43
31.7880,0.08,0.13,-0.99,3.17,4.09,0.24
31.8050,0.08,0.12,-0.99,3.11,3.72,0.43
31.8210,0.08,0.11,-1.00,3.11,3.97,-0.18
31.8360,0.09,0.13,-0.99,3.30,4.03,-0.18
31.8380,0.09,0.13,-0.99,3.30,3.91,0.43
31.8540,0.09,0.13,-0.99,3.11,3.85,1.46
31.8840,0.09,0.12,-0.99,3.17,3.72,1.83
31.8990,0.09,0.11,-0.99,2.99,3.54,1.65
31.9100,0.09,0.11,-0.99,2.99,3.72,1.16
31.9260,0.09,0.11,-0.99,2.93,3.78,1.04
31.9430,0.08,0.09,-1.00,3.30,3.91,0.43
31.9590,0.08,0.12,-0.99,3.42,4.03,0.12
31.9750,0.08,0.13,-0.99,3.30,3.78,1.04
31.9910,0.08,0.12,-0.99,3.05,3.78,1.59
32.0070,0.08,0.10,-1.00,3.36,3.78,1.04
32.0220,0.09,0.12,-0.99,3.17,3.91,0.31
32.0370,0.08,0.13,-0.99,3.23,4.15,-0.43
32.0520,0.08,0.14,-0.99,3.17,3.97,-0.31
32.0680,0.08,0.13,-0.99,2.99,3.97,0.73
32.0760,0.08,0.12,-0.99,3.05,3.85,1.40
32.0920,0.08,0.11,-0.99,3.11,3.91,1.53
32.1150,0.09,0.10,-1.00,2.93,3.78,0.85
32.1310,0.09,0.12,-0.99,2.99,4.21,-0.06
32.1330,0.09,0.12,-0.99,3.23,3.91,0.12
32.1480,0.09,0.12,-0.99,3.42,3.66,0.79
32.1650,0.08,0.11,-0.99,3.36,3.91,0.79
32.1850,0.09,0.11,-0.99,3.30,4.09,0.43
32.1990,0.09,0.12,-0.99,3.48,4.27,-0.18
32.2150,0.09,0.13,-0.99,3.05,4.21,-0.79
32.2300,0.08,0.14,-0.99,3.23,4.15,-0.12
32.2520,0.08,0.13,-0.99,3.05,3.60,1.71
32.2680,0.08,0.11,-0.99,2.69,3.78,2.26
32.2850,0.08,0.11,-0.99,2.93,3.91,1.65
32.3010,0.09,0.12,-0.99,3.17,3.91,0.79
32.3170,0.08,0.10,-1.00,3.05,4.09,-0.61
32.3180,0.09,0.14,-0.99,3.30,4.15,-0.12
32.3350,0.09,0.13,-0.99,3.17,3.97,1.34
32.3510,0.09,0.11,-0.99,3.05,3.60,1.95
32.3810,0.08,0.11,-0.99,2.99,3.66,2.01
32.3960,0.09,0.11,-0.99,2.99,3.85,1.83
32.4010,0.09,0.12,-0.99,3.11,3.60,1.22
32.4280,0.08,0.13,-0.99,3.05,4.09,1.71
32.4340,0.08,0.12,-0.99,2.99,3.85,2.01
32.4510,0.08,0.12,-0.99,3.36,3.91,2.14
32.4660,0.08,0.12,-0.99,2.87,3.97,2.14
32.4870,0.08,0.11,-0.99,2.99,3.78,2.14
32.5020,0.09,0.12,-0.99,2.99,4.03,1.71
32.5170,0.09,0.12,-0.99,2.99,3.85,1.22
32.5230,0.08,0.12,-0.99,3.05,3.91,1.22
32.5390,0.08,0.09,-1.00,3.23,4.03,1.04
32.5600,0.09,0.10,-1.00,3.30,4.15,0.31
32.5770,0.09,0.11,-0.99,2.99,4.33,-0.18
32.5940,0.09,0.11,-0.99,2.99,4.46,-0.92
32.6100,0.08,0.13,-0.99,3.05,4.15,-1.22
32.6250,0.08,0.13,-0.99,2.99,4.27,-0.55
32.6410,0.08,0.12,-0.99,3.05,3.91,0.24
32.6550,0.09,0.11,-0.99,3.23,4.27,0.37
32.6610,0.09,0.12,-0.99,3.30,4.03,-0.24
32.6850,0.09,0.13,-0.99,3.48,4.27,-0.43
32.6960,0.08,0.13,-0.99,2.99,4.03,0.92
32.7130,0.09,0.13,-0.99,2.99,3.72,1.53
32.7300,0.08,0.11,-0.99,3.05,3.54,1.77
32.7460,0.08,0.11,-0.99,3.11,3.66,1.77
32.7630,0.08,0.11,-0.99,3.11,4.21,1.34
32.7790,0.09,0.12,-0.99,2.99,4.15,0.43
32.7950,0.09,0.13,-0.99,3.30,4.09,-0.49
32.8100,0.09,0.13,-0.99,2.99,4.27,0.85
32.8260,0.08,0.12,-0.99,3.05,3.72,1.71
32.8410,0.08,0.11,-0.99,3.17,3.72,1.77
32.8470,0.08,0.11,-0.99,3.17,3.91,1.16
32.8620,0.09,0.11,-0.99,2.99,3.91,0.79
32.8870,0.09,0.13,-0.99,3.05,4.15,-0.43
32.9030,0.08,0.13,-0.99,3.42,4.09,0.31
32.9190,0.08,0.12,-0.99,3.36,3.54,1.77
32.9350,0.08,0.11,-0.99,3.30,3.72,1.95
32.9510,0.08,0.11,-0.99,3.17,3.48,1.59
32.9670,0.08,0.12,-0.99,2.93,4.03,0.98
32.9820,0.08,0.12,-0.99,3.17,4.15,0.37
32.9980,0.09,0.12,-0.99,3.11,4.03,-0.85
33.0130,0.09,0.13,-0.99,3.48,4.46,-1.40
33.0210,0.08,0.13,-0.99,3.23,4.09,0.18
33.0360,0.09,0.12,-0.99,3.30,4.15,1.04
33.0590,0.09,0.12,-0.99,2.93,3.97,1.10
33.0760,0.08,0.11,-0.99,2.93,3.72,0.85
33.0920,0.08,0.12,-0.99,3.23,3.85,0.31
33.1080,0.09,0.13,-0.99,3.36,4.27,0.43
33.1240,0.09,0.13,-0.99,3.23,3.91,0.85
33.1390,0.09,0.12,-0.99,3.11,3.48,1.59
33.1430,0.08,0.12,-0.99,3.11,3.60,1.77
33.1590,0.08,0.11,-0.99,3.05,4.03,1.59
33.1830,0.08,0.12,-0.99,2.99,3.97,1.16
33.1990,0.08,0.12,-0.99,2.93,3.91,1.04
33.2150,0.09,0.12,-0.99,3.05,4.03,0.24
33.2320,0.09,0.13,-0.99,3.30,3.85,0.49
33.2480,0.08,0.12,-0.99,2.93,3.91,1.28
33.2630,0.08,0.11,-0.99,3.05,3.72,1.16
33.2780,0.08,0.09,-1.00,3.17,4.03,0.31
33.2930,0.08,0.11,-0.99,3.30,4.03,-1.22
33.3090,0.08,0.12,-0.99,3.23,4.21,-1.34
33.3240,0.09,0.13,-0.99,3.23,4.46,-0.98
33.3390,0.08,0.12,-0.99,2.99,4.09,-0.24
33.3500,0.09,0.12,-0.99,3.17,3.60,0.61
33.3660,0.09,0.12,-0.99,2.93,3.85,0.67
33.3850,0.08,0.12,-0.99,3.11,3.48,0.55
33.4000,0.08,0.12,-0.99,3.17,3.85,0.43
33.4160,0.08,0.11,-0.99,3.11,4.39,-0.12
33.4330,0.08,0.11,-0.99,3.42,4.15,-0.85
33.4480,0.08,0.13,-0.99,3.17,4.03,-1.10
33.4640,0.08,0.13,-0.99,3.05,4.15,-0.49
33.4800,0.08,0.13,-0.99,3.30,3.91,0.43
33.4940,0.08,0.12,-0.99,2.99,3.72,0.79
33.5100,0.09,0.11,-0.99,3.17,3.85,0.73
33.5250,0.09,0.11,-0.99,3.42,4.09,-0.37
33.5390,0.09,0.11,-1.00,3.23,4.46,-1.71
33.5490,0.08,0.13,-0.99,3.23,4.27,-1.34
33.5650,0.08,0.13,-0.99,3.23,4.21,-0.31
33.5840,0.08,0.12,-0.99,3.30,3.54,0.92
33.6000,0.08,0.12,-0.99,2.93,4.09,1.10
33.6150,0.09,0.10,-1.00,2.99,3.97,0.55
33.6300,0.08,0.12,-1.00,2.99,4.21,-0.31
33.6460,0.08,0.12,-0.99,3.23,4.03,-0.31
33.6620,0.08,0.13,-0.99,3.42,3.54,0.55
33.6660,0.08,0.12,-0.99,3.42,3.91,1.53
33.6850,0.09,0.11,-0.99,2.81,3.85,1.46
33.7060,0.09,0.11,-0.99,2.99,3.97,0.79
33.7230,0.09,0.12,-0.99,3.05,4.33,-1.10
33.7390,0.08,0.12,-0.99,3.30,4.33,-1.59
33.7550,0.08,0.14,-0.99,3.36,4.09,-0.37
33.7710,0.08,0.12,-0.99,3.23,3.85,0.37
33.7850,0.08,0.11,-0.99,3.11,4.09,1.28
33.8000,0.09,0.12,-0.99,3.11,4.03,0.85
33.8150,0.08,0.12,-0.99,3.11,3.78,0.67
33.8310,0.08,0.13,-0.99,3.11,3.85,0.79
33.8450,0.08,0.12,-0.99,2.99,3.91,1.46
33.8560,0.09,0.11,-0.99,3.30,3.91,0.85
33.8720,0.09,0.09,-1.00,3.42,3.97,-0.37
33.8910,0.08,0.11,-0.99,3.48,4.27,-2.44
33.9070,0.08,0.13,-0.99,3.30,4.52,-2.08
33.9220,0.08,0.13,-0.99,3.36,4.52,-1.46
33.9380,0.08,0.13,-0.99,3.11,3.78,0.12
33.9520,0.08,0.12,-0.99,3.11,3.85,0.31
33.9670,0.08,0.12,-0.99,2.93,4.09,0.24
33.9840,0.09,0.12,-0.99,3.05,4.21,0.73
33.9990,0.09,0.12,-0.99,3.23,3.66,1.28
34.0140,0.08,0.12,-0.99,3.11,3.97,1.34
34.0240,0.08,0.11,-1.00,3.23,3.85,0.92
34.0400,0.08,0.11,-0.99,3.23,4.15,-0.67
34.0570,0.08,0.12,-0.99,3.54,4.09,-1.22
34.0740,0.08,0.12,-0.99,3.36,4.27,-0.92
34.0900,0.08,0.13,-0.99,3.23,4.09,15.38
34.1060,0.08,0.12,-0.99,3.23,4.15,0.98
34.1220,0.08,0.12,-0.99,3.11,3.78,1.59
34.1370,0.08,0.11,-0.99,2.99,3.66,1.34
34.1520,0.08,0.11,-1.00,3.05,4.15,-0.18
34.1670,0.08,0.11,-0.99,3.05,4.15,-0.85
34.1810,0.09,0.12,-0.99,2.99,4.27,-0.98
34.1900,0.09,0.14,-0.99,3.17,4.21,-0.49
34.2060,0.09,0.13,-0.99,2.99,4.15,0.61
34.2230,0.09,0.12,-0.99,3.11,3.72,1.71
34.2400,0.08,0.12,-0.99,2.93,3.91,1.83
34.2560,0.09,0.12,-0.99,3.11,3.85,1.89
34.2720,0.09,0.11,-0.99,2.99,3.72,1.53
34.2870,0.08,0.11,-0.99,3.11,3.97,0.73
34.2900,0.08,0.11,-0.99,3.42,3.66,-0.12
34.3050,0.09,0.13,-0.99,3.42,3.66,-0.61
34.3290,0.08,0.12,-0.99,3.30,4.15,1.04
34.3460,0.08,0.12,-0.99,2.69,4.03,1.77
34.3620,0.08,0.11,-1.00,2.87,3.78,1.77
34.3790,0.08,0.12,-0.99,2.87,3.85,1.65
34.3950,0.08,0.11,-0.99,3.05,3.97,1.04
34.4110,0.09,0.13,-0.99,2.87,3.85,1.04
34.4280,0.09,0.12,-0.99,3.30,3.66,2.08
34.4450,0.08,0.12,-0.99,2.99,3.85,1.95
34.4600,0.08,0.11,-0.99,3.17,3.78,2.01
34.4750,0.09,0.12,-0.99,3.17,3.97,1.83
34.4890,0.08,0.12,-0.99,3.05,3.72,1.40
34.5050,0.08,0.12,-0.99,2.81,3.72,1.34
34.5200,0.08,0.12,-0.99,2.99,3.54,1.16
34.5290,0.08,0.12,-0.99,3.05,3.97,1.40
34.5460,0.07,0.08,-1.00,3.30,4.09,1.16
34.5620,0.09,0.10,-0.99,3.42,4.58,-1.89
34.5790,0.08,0.12,-0.99,3.42,4.33,-2.81
34.5870,0.09,0.13,-0.99,3.60,4.52,-2.75
34.6100,0.09,0.14,-0.99,3.36,4.09,-1.95
34.6260,0.09,0.13,-0.99,2.99,4.09,0.37
34.6430,0.08,0.12,-0.99,2.93,3.72,1.65
34.6590,0.09,0.12,-0.99,2.81,3.72,1.59
34.6740,0.09,0.12,-0.99,2.87,3.85,1.77
34.6890,0.08,0.12,-0.99,2.87,3.72,1.77
34.7040,0.08,0.12,-0.99,3.05,3.78,1.65
34.7190,0.08,0.12,-0.99,3.23,4.03,1.59
34.7290,0.08,0.12,-0.99,3.11,3.97,1.59
34.7440,0.08,0.12,-0.99,3.23,3.97,1.83
34.7660,0.08,0.11,-1.00,3.11,3.97,1.89
34.7820,0.08,0.11,-1.00,2.81,3.91,1.28
34.7870,0.09,0.12,-0.99,3.11,4.09,1.04
34.8130,0.09,0.08,-1.00,3.11,3.91,0.43
34.8290,0.09,0.12,-0.99,3.23,4.27,-1.40
34.8450,0.08,0.13,-0.99,3.30,4.46,-0.61
34.8500,0.08,0.13,-0.99,2.87,3.66,1.10
34.8650,0.08,0.12,-0.99,2.99,3.72,1.77
34.8890,0.08,0.12,-0.99,3.11,3.60,1.83
34.9050,0.08,0.11,-0.99,2.93,3.78,1.89
34.9210,0.08,0.11,-0.99,2.56,3.54,1.71
34.9370,0.08,0.10,-0.99,3.23,3.54,1.10
34.9510,0.08,0.12,-0.99,3.05,4.03,-1.10
34.9670,0.09,0.12,-0.99,3.30,4.15,-1.04
34.9820,0.08,0.13,-0.99,3.17,3.85,-0.18
34.9990,0.08,0.11,-0.99,3.23,4.09,0.79
35.0150,0.08,0.10,-1.00,3.30,4.09,-0.06
35.0290,0.09,0.12,-0.99,3.42,4.27,-1.65
35.0400,0.08,0.12,-0.99,3.30,4.46,-1.40
35.0560,0.08,0.12,-0.99,3.48,4.39,-0.18
35.0750,0.08,0.12,-0.99,3.11,3.97,0.31
35.0900,0.09,0.10,-0.99,2.87,3.91,0.00
35.1050,0.09,0.10,-0.99,3.42,4.58,-2.08
35.1200,0.08,0.11,-0.99,3.54,4.64,-3.85
35.1280,0.08,0.13,-0.99,3.60,4.70,-3.78
35.1440,0.08,0.14,-0.99,3.54,4.03,-2.44
35.1650,0.08,0.14,-0.99,2.99,4.09,-0.12
35.1680,0.09,0.12,-0.99,2.99,3.97,0.85
35.1950,0.09,0.12,-0.99,3.17,3.91,1.16
35.2100,0.08,0.11,-0.99,3.11,3.66,1.10
35.2170,0.08,0.11,-0.99,3.17,3.97,0.92
35.2330,0.08,0.11,-1.00,3.36,3.85,0.49
35.2560,0.08,0.12,-0.99,3.05,4.15,-0.31
35.2720,0.08,0.13,-0.99,3.17,3.72,0.06
35.2870,0.08,0.13,-0.99,3.05,3.54,1.22
35.2900,0.08,0.12,-0.99,3.05,3.66,1.22
35.3170,0.08,0.12,-0.99,3.11,3.97,1.46
35.3290,0.08,0.12,-0.99,3.05,3.72,1.46
35.3450,0.08,0.12,-0.99,2.99,4.03,1.34
35.3620,0.08,0.11,-1.00,3.05,3.85,1.16
35.3780,0.08,0.11,-0.99,2.93,4.03,0.85
35.3950,0.08,0.08,-1.00,3.23,3.91,0.18
35.4110,0.09,0.11,-0.99,3.30,4.39,-1.04
35.4260,0.09,0.12,-0.99,3.17,4.09,-1.10
35.4420,0.08,0.11,-0.99,3.11,4.15,-0.73
35.4580,0.08,0.11,-0.99,3.36,4.33,-0.73
35.4740,0.08,0.12,-0.99,3.36,4.09,-0.37
35.4890,0.08,0.12,-0.99,3.23,4.15,-0.49
35.5030,0.08,0.12,-0.99,3.30,4.21,-0.37
35.5120,0.08,0.11,-0.99,3.23,3.78,-0.12
35.5290,0.06,0.05,-1.00,3.23,4.27,-1.71
35.5460,0.10,0.12,-1.00,3.72,4.70,-2.38
35.5620,0.09,0.13,-1.00,3.30,4.58,-2.99
35.5780,0.09,0.12,-0.99,3.48,4.39,-3.54
35.5960,0.10,0.15,-0.99,3.42,4.76,-3.05
35.6110,0.09,0.16,-0.99,3.05,4.15,-0.92
35.6120,0.09,0.12,-0.99,2.75,3.66,1.59
35.6410,0.08,0.12,-0.99,3.11,3.60,1.83
35.6510,0.08,0.12,-0.99,2.99,3.48,1.95
35.6680,0.08,0.12,-1.00,2.87,3.72,1.95
35.6870,0.08,0.12,-0.99,3.17,3.60,2.14
35.7010,0.08,0.12,-0.99,3.05,3.54,1.95
35.7170,0.08,0.12,-0.99,2.99,3.72,2.20
35.7190,0.08,0.12,-0.99,2.81,3.54,2.01
35.7500,0.08,0.12,-0.99,3.23,3.60,2.01
35.7530,0.08,0.12,-0.99,3.17,3.78,2.01
35.7820,0.08,0.12,-0.99,3.17,3.60,2.08
35.7870,0.08,0.12,-0.99,3.05,3.85,1.77
35.8010,0.09,0.11,-0.99,3.05,3.42,1.83
35.8240,0.08,0.10,-1.00,2.99,3.78,0.98
35.8420,0.08,0.10,-1.00,2.93,4.09,0.43
35.8580,0.08,0.11,-0.99,3.05,3.91,0.06
35.8720,0.08,0.13,-0.99,3.30,4.27,0.00
35.8860,0.09,0.08,-1.00,3.05,4.03,0.67
35.9020,0.08,0.12,-0.99,3.11,4.03,0.18
35.9180,0.09,0.10,-1.00,3.11,4.09,0.49
35.9340,0.08,0.11,-1.00,3.05,4.33,-0.85
35.9510,0.08,0.13,-0.99,3.23,4.46,-0.73
35.9670,0.08,0.13,-0.99,3.05,3.78,0.43
35.9840,0.08,0.11,-0.99,3.11,3.85,1.22
35.9980,0.08,0.10,-1.00,2.75,3.78,0.98
36.0130,0.09,0.09,-1.00,2.99,4.58,-0.73
36.0240,0.08,0.13,-0.99,3.23,4.03,-2.62
36.0410,0.08,0.15,-0.99,3.17,4.27,-2.32
36.0580,0.08,0.14,-0.99,3.05,3.72,1.22
36.0740,0.08,0.11,-0.99,2.81,3.60,2.14
36.0890,0.08,0.11,-0.99,2.93,3.66,2.08
36.1060,0.08,0.11,-0.99,2.99,3.91,1.83
36.1210,0.08,0.12,-0.99,2.87,3.72,1.40
36.1370,0.08,0.12,-0.99,3.23,3.78,1.46
36.1510,0.08,0.12,-0.99,3.11,4.09,1.83
36.1670,0.08,0.11,-1.00,3.17,3.78,1.65
36.1830,0.08,0.11,-1.00,3.17,3.66,1.10
36.1980,0.08,0.09,-1.00,3.11,4.33,-0.49
36.2140,0.09,0.14,-0.99,3.54,4.39,-2.01
36.2240,0.08,0.15,-0.99,3.48,4.39,-1.53
36.2410,0.08,0.14,-0.99,3.23,4.21,1.22
36.2580,0.08,0.12,-0.99,3.23,3.72,1.89
36.2740,0.08,0.11,-0.99,3.17,4.03,1.83
36.2900,0.08,0.12,-0.99,2.75,3.85,1.83
36.3060,0.08,0.11,-0.99,2.99,3.54,1.77
36.3210,0.08,0.11,-0.99,3.11,3.66,1.71
36.3360,0.08,0.12,-0.99,3.17,3.91,1.28
36.3410,0.09,0.08,-1.00,3.23,4.03,0.92
36.3570,0.09,0.12,-0.99,3.30,4.09,-0.37
36.3780,0.08,0.13,-0.99,2.99,3.97,-0.24
36.3960,0.08,0.13,-0.99,3.05,3.97,0.98
36.4120,0.08,0.12,-0.99,2.93,4.33,1.22
36.4280,0.08,0.12,-0.99,3.17,3.97,0.67
36.4430,0.08,0.10,-1.00,3.17,3.97,0.31
36.4580,0.09,0.12,-0.99,3.17,3.97,-0.18
36.4730,0.08,0.12,-0.99,3.23,4.09,-0.12
36.4870,0.08,0.12,-0.99,3.11,4.09,0.24
36.4960,0.08,0.11,-0.99,3.42,4.03,0.61
36.5120,0.08,0.11,-1.00,3.11,4.03,0.12
36.5340,0.08,0.10,-0.99,3.36,3.97,-1.04
36.5500,0.08,0.10,-1.00,3.42,4.33,-2.01
36.5660,0.09,0.11,-0.99,3.42,4.33,-3.17
36.5820,0.08,0.12,-0.99,3.54,4.70,-3.42
36.5880,0.08,0.14,-0.99,3.30,4.46,-1.83
36.6030,0.08,0.14,-0.99,3.17,3.66,0.12
36.6290,0.08,0.11,-0.99,2.99,3.60,1.40
36.6350,0.08,0.09,-1.00,3.05,3.91,0.37
36.6510,0.09,0.09,-1.00,3.30,4.39,-2.44
36.6730,0.09,0.10,-0.99,3.85,4.76,-4.58
36.6880,0.08,0.13,-0.99,4.09,4.70,-5.62
36.7050,0.08,0.15,-0.99,3.60,4.33,-3.48
36.7210,0.08,0.13,-0.99,3.23,4.03,-1.04
36.7250,0.09,0.12,-0.99,3.36,4.09,0.00
36.7410,0.08,0.12,-0.99,3.05,3.91,0.67
36.7630,0.08,0.13,-0.99,2.87,3.97,1.10
36.7790,0.08,0.12,-0.99,2.93,4.09,1.71
36.7960,0.08,0.10,-1.00,2.87,3.60,2.08
36.8120,0.08,0.09,-1.00,3.05,3.91,1.95
36.8300,0.09,0.09,-1.00,3.36,4.58,-1.34
36.8460,0.09,0.12,-0.99,3.66,4.70,-3.42
36.8610,0.08,0.15,-0.99,3.36,4.39,-3.42
36.8780,0.08,0.15,-0.99,3.36,3.97,-0.67
36.8940,0.08,0.14,-0.99,3.11,3.54,1.34
36.9100,0.08,0.12,-0.99,2.81,3.66,1.77
36.9270,0.08,0.11,-0.99,3.23,4.03,1.71
36.9430,0.08,0.12,-0.99,3.23,3.66,1.46
36.9580,0.08,0.12,-0.99,3.23,3.66,1.71
36.9740,0.08,0.11,-0.99,2.99,3.60,1.89
36.9890,0.08,0.11,-1.00,3.17,3.85,0.92
37.0050,0.08,0.11,-1.00,3.17,4.03,-1.04
37.0130,0.08,0.11,-0.99,3.30,4.39,-1.65
37.0300,0.09,0.14,-0.99,3.30,4.09,-0.73
37.0450,0.08,0.12,-0.99,2.93,3.72,1.59
37.0670,0.08,0.11,-0.99,3.05,3.66,1.89
37.0830,0.08,0.12,-0.99,3.11,3.66,1.65
37.0990,0.08,0.11,-0.99,2.99,3.72,1.40
37.1030,0.09,0.11,-0.99,3.17,3.78,1.10
37.1190,0.08,0.11,-0.98,2.50,4.27,0.61
37.1450,0.08,0.12,-0.99,3.11,3.78,-0.12
37.1610,0.08,0.12,-0.99,3.17,4.03,-0.06
37.1750,0.08,0.12,-0.99,3.17,4.03,0.85
37.1890,0.08,0.11,-0.99,3.23,3.66,1.16
37.2010,0.08,0.11,-0.99,3.17,4.03,0.85
37.2200,0.08,0.11,-0.99,3.05,3.66,0.18
37.2340,0.09,0.12,-0.99,3.23,3.97,-0.18
37.2500,0.09,0.12,-0.99,3.23,3.78,0.92
37.2660,0.08,0.12,-0.99,2.93,3.72,1.71
37.2820,0.08,0.11,-0.99,2.87,4.03,1.59
37.2890,0.08,0.11,-1.00,3.11,4.09,1.46
37.3020,0.08,0.11,-1.00,3.17,3.97,0.98
37.3300,0.08,0.11,-0.99,3.78,3.97,-0.06
37.3360,0.09,0.13,-0.99,3.11,3.97,-0.92
37.3620,0.08,0.12,-0.99,3.05,4.09,0.92
37.3690,0.08,0.11,-0.99,3.05,3.72,2.08
37.3920,0.08,0.11,-0.99,2.87,3.97,1.71
37.4070,0.08,0.11,-0.99,3.11,3.91,1.34
37.4190,0.08,0.12,-0.99,3.05,3.91,1.28
37.4370,0.08,0.12,-0.99,3.17,3.91,1.71
37.4510,0.08,0.11,-0.99,3.05,3.72,1.89
37.4690,0.08,0.11,-1.00,3.23,3.97,1.53
37.4840,0.08,0.11,-1.00,3.05,4.27,0.24
37.5010,0.08,0.10,-0.99,3.30,4.21,-1.28
37.5030,0.08,0.12,-0.99,3.36,4.15,-1.77
37.5340,0.08,0.14,-0.99,3.30,4.15,-1.28
37.5360,0.08,0.12,-0.99,2.99,3.66,1.10
37.5650,0.08,0.11,-1.00,3.17,3.78,1.22
37.5680,0.08,0.12,-0.99,3.05,3.91,0.31
37.5890,0.08,0.13,-0.99,3.11,4.03,-0.12
37.6090,0.08,0.13,-0.99,2.93,3.97,1.10
37.6250,0.08,0.12,-0.99,3.05,3.60,1.95
37.6420,0.08,0.11,-0.99,3.11,3.66,1.71
37.6590,0.08,0.11,-0.99,2.75,3.54,1.46
37.6600,0.08,0.11,-0.99,2.99,4.09,0.79
37.6890,0.08,0.12,-0.99,3.30,4.15,0.31
37.7050,0.08,0.12,-0.99,3.11,4.03,0.85
37.7150,0.08,0.11,-0.99,3.23,4.09,0.98
37.7330,0.08,0.11,-1.00,2.93,4.09,0.98
37.7480,0.08,0.11,-0.99,3.11,3.97,-0.12
37.7660,0.09,0.10,-0.99,3.23,4.64,-1.65
37.7720,0.08,0.12,-1.00,3.48,4.88,-2.75
37.7900,0.08,0.16,-0.99,3.36,5.07,-3.60
37.8060,0.09,0.14,-0.99,3.48,4.03,0.49
37.8230,0.09,0.13,-0.99,2.87,3.66,1.71
37.8400,0.08,0.11,-0.99,2.81,3.72,2.14
37.8560,0.09,0.12,-0.99,2.81,3.97,1.89
37.8710,0.09,0.12,-0.99,2.81,3.72,1.89
37.8860,0.08,0.12,-0.99,3.05,3.60,2.08
37.8890,0.08,0.12,-0.99,3.11,3.60,2.08
37.9050,0.08,0.11,-0.99,2.87,3.78,2.01
37.9280,0.08,0.12,-0.99,2.93,3.72,2.14
37.9450,0.08,0.12,-0.99,2.93,3.78,2.20
37.9610,0.08,0.12,-0.99,2.93,3.72,1.95
37.9770,0.08,0.12,-0.99,3.11,3.72,1.89
37.9940,0.08,0.12,-0.99,3.11,3.60,2.08
38.0100,0.08,0.12,-0.99,2.99,3.78,2.20
38.0260,0.08,0.12,-1.01,1.95,4.21,2.38
38.0420,0.08,0.12,-1.00,3.23,3.66,1.95
38.0570,0.08,0.12,-0.99,3.05,3.48,2.01
38.0600,0.08,0.12,-0.99,2.87,3.72,2.14
38.0760,0.08,0.11,-0.99,2.99,3.42,1.95
38.0980,0.08,0.12,-0.99,2.93,3.66,2.08
38.1160,0.08,0.12,-0.99,2.93,3.72,2.08
38.1310,0.08,0.12,-0.99,2.81,4.21,2.08
38.1490,0.08,0.11,-0.99,2.44,3.78,2.26
38.1640,0.08,0.12,-0.99,2.87,3.60,2.01
38.1820,0.08,0.12,-1.00,2.87,3.66,1.95
38.1900,0.08,0.12,-1.00,2.81,3.30,1.95
38.1990,0.08,0.11,-0.99,2.56,3.48,2.14
38.2290,0.08,0.12,-0.99,3.11,3.36,3.91
38.2440,0.09,0.13,-0.99,2.93,3.66,4.94
38.2590,0.08,0.10,-1.00,3.48,3.60,2.32
38.2650,0.08,0.11,-1.00,3.23,3.85,2.14
38.2820,0.08,0.11,-0.99,3.11,3.97,2.20
38.2990,0.08,0.12,-0.99,3.30,3.42,2.14
38.3150,0.08,0.13,-0.99,3.30,3.66,2.99
38.3320,0.08,0.12,-0.99,3.05,3.42,4.39
38.3490,0.08,0.10,-1.00,2.87,3.72,3.85
38.3650,0.08,0.10,-1.00,2.81,3.60,3.30
38.3800,0.08,0.11,-0.99,2.99,3.78,2.14
38.3950,0.08,0.12,-0.99,3.05,3.54,2.14
38.3990,0.08,0.12,-0.99,3.11,3.91,1.95
38.4260,0.08,0.11,-0.99,2.99,3.60,2.08
38.4420,0.08,0.12,-0.99,2.87,3.60,2.20
38.4580,0.08,0.12,-0.99,2.99,3.72,2.08
38.4720,0.08,0.12,-0.99,2.75,3.85,2.08
38.4820,0.08,0.12,-0.99,2.99,3.66,2.20
38.4980,0.08,0.12,-0.99,3.17,4.03,2.14
38.5150,0.08,0.12,-0.99,2.93,3.85,2.14
38.5330,0.08,0.12,-0.99,2.99,3.78,2.08
38.5480,0.08,0.12,-0.99,3.05,3.42,1.89
38.5640,0.08,0.13,-0.99,2.99,3.85,2.08
38.5800,0.09,0.13,-0.99,3.85,3.23,3.97
38.5950,0.08,0.11,-1.00,2.62,3.05,4.33
38.5980,0.08,0.12,-0.99,2.93,2.99,5.13
38.6140,0.07,0.13,-0.99,2.56,2.20,8.36
38.6380,0.07,0.14,-1.00,2.32,2.08,10.50
38.6540,0.06,0.14,-0.99,1.71,0.98,17.52
38.6710,0.07,0.13,-0.99,1.40,0.49,24.11
38.6870,0.09,0.11,-0.99,0.85,-0.24,27.40
38.7020,0.09,0.11,-0.99,1.04,0.06,25.76
38.7170,0.09,0.11,-0.99,1.04,0.24,24.11
38.7330,0.09,0.10,-0.99,1.77,0.79,19.04
38.7480,0.10,0.10,-0.99,2.01,2.08,13.73
38.7540,0.09,0.11,-0.99,2.62,2.69,8.67
38.7700,0.09,0.11,-1.00,2.69,3.60,4.94
38.7920,0.08,0.11,-1.00,2.81,3.48,3.72
38.8090,0.08,0.12,-1.00,3.05,3.48,2.44
38.8260,0.09,0.12,-0.99,3.11,3.48,2.56
38.8410,0.08,0.12,-0.99,3.05,3.42,2.69
38.8580,0.08,0.12,-0.99,2.81,3.60,2.69
38.8740,0.08,0.12,-0.99,2.87,3.42,2.87
38.8890,0.08,0.12,-0.99,2.93,3.48,3.30
38.9050,0.08,0.12,-1.00,2.87,3.78,3.48
38.9200,0.09,0.12,-0.99,2.81,3.72,3.54
38.9360,0.09,0.12,-0.99,2.81,3.72,3.11
38.9520,0.08,0.12,-0.99,2.69,3.30,3.30
38.9660,0.08,0.12,-0.99,2.87,3.66,3.23
38.9760,0.08,0.12,-1.00,2.81,3.54,4.46
38.9910,0.09,0.12,-1.00,2.87,3.30,4.82
39.0110,0.08,0.11,-0.99,3.11,3.48,3.78
39.0260,0.08,0.12,-1.00,2.81,3.66,3.17
39.0420,0.08,0.12,-1.00,3.17,3.48,2.75
39.0570,0.08,0.12,-0.99,3.05,3.36,2.69
39.0720,0.09,0.12,-0.99,2.99,3.54,2.62
39.0830,0.09,0.12,-0.99,2.87,3.36,2.62
39.0990,0.08,0.12,-0.99,3.05,3.91,2.69
39.1170,0.08,0.12,-1.00,2.62,3.78,2.38
39.1320,0.08,0.07,-1.01,3.66,3.97,2.14
39.1330,0.08,0.00,-1.00,3.72,2.81,11.23
39.1630,0.06,0.09,-1.00,2.44,2.26,12.02
39.1790,0.11,0.14,-0.99,1.65,3.54,0.00
39.1950,0.06,0.21,-0.98,3.36,4.94,-5.98
39.1980,0.08,0.12,-0.99,3.17,4.15,1.83
39.2140,0.05,0.16,-0.99,3.17,3.48,5.49
39.2380,0.08,0.16,-0.99,2.01,2.26,12.15
39.2540,0.11,0.09,-1.00,2.50,2.99,6.96
39.2710,0.11,0.08,-1.00,3.30,4.27,0.00
39.2870,0.09,0.11,-0.99,3.85,5.31,-7.57
39.3030,0.06,0.12,-1.00,4.21,5.55,-10.13
39.3190,0.06,0.08,-1.00,3.78,5.00,-5.37
39.3340,0.09,0.16,-0.99,3.66,4.94,-4.39
39.3490,0.06,0.20,-0.98,3.60,4.64,-3.60
39.3640,0.08,0.12,-0.99,2.81,3.72,2.08
39.3710,0.08,0.11,-0.99,2.93,3.72,2.44
39.3940,0.08,0.11,-1.00,3.30,3.78,2.08
39.4050,0.08,0.10,-1.00,3.17,3.85,2.62
39.4210,0.09,0.09,-1.00,2.75,3.85,2.08
39.4380,0.09,0.12,-0.99,3.30,4.33,-1.22
39.4540,0.08,0.13,-0.99,3.42,4.15,0.55
39.4700,0.08,0.12,-0.99,3.23,4.21,0.37
39.4850,0.08,0.12,-0.99,3.23,3.97,0.31
39.5000,0.09,0.10,-1.00,3.30,4.09,-0.18
39.5040,0.09,0.09,-1.00,3.30,4.52,-2.26
39.5300,0.07,0.15,-0.99,3.11,4.21,-1.28
39.5430,0.07,0.16,-0.99,2.75,3.85,2.14
39.5600,0.08,0.12,-0.99,2.81,3.54,2.08
39.5770,0.08,0.12,-0.99,2.93,3.48,2.01
39.5940,0.08,0.12,-1.00,3.23,3.48,2.01
39.6100,0.08,0.11,-0.99,3.17,3.72,1.53
39.6260,0.08,0.12,-0.99,3.05,3.72,1.59
39.6420,0.08,0.11,-0.99,2.87,3.54,2.20
39.6580,0.08,0.12,-0.99,2.99,3.42,2.08
39.6740,0.08,0.12,-0.99,2.99,3.91,2.01
39.6780,0.09,0.10,-1.00,2.99,3.60,0.79
39.6940,0.08,0.10,-1.00,3.23,4.33,-0.37
39.7120,0.08,0.12,-0.99,3.23,3.91,0.85
39.7280,0.08,0.13,-0.99,2.87,3.97,1.10
39.7450,0.08,0.11,-1.00,2.81,3.48,1.34
39.7600,0.09,0.10,-0.99,3.17,3.91,1.10
39.7770,0.10,0.11,-0.99,3.17,4.15,-0.24
39.7940,0.08,0.13,-0.99,3.30,4.39,-0.73
39.8110,0.07,0.13,-0.99,3.05,3.66,2.75
39.8270,0.08,0.12,-0.99,2.81,3.72,2.08
39.8440,0.08,0.12,-0.99,2.87,3.60,2.14
39.8600,0.08,0.12,-0.99,2.81,3.42,2.08
39.8750,0.08,0.11,-0.99,3.17,3.54,2.08
39.8910,0.08,0.12,-0.99,3.23,3.85,2.14
39.9080,0.08,0.12,-0.99,2.99,3.85,2.08
39.9230,0.08,0.12,-0.99,2.87,3.66,2.20
39.9410,0.08,0.12,-0.99,2.81,3.66,2.14
39.9560,0.08,0.12,-0.99,2.81,3.91,2.14
39.9710,0.09,0.12,-0.99,3.05,3.97,1.83
39.9870,0.09,0.12,-0.99,3.23,3.60,2.14
40.0010,0.08,0.12,-0.99,3.30,3.60,2.08
40.0110,0.08,0.12,-0.99,3.11,3.48,2.14
40.0260,0.08,0.11,-1.00,2.99,3.72,2.08
40.0460,0.08,0.12,-0.99,2.87,4.15,1.65
40.0630,0.08,0.12,-0.99,2.81,3.60,1.34
40.0780,0.08,0.12,-0.99,3.17,3.66,1.65
40.0940,0.08,0.11,-0.99,3.11,3.72,1.95
40.1000,0.08,0.12,-0.99,2.99,3.54,1.89
40.1260,0.07,0.11,-1.00,2.93,3.48,1.65
40.1330,0.08,0.11,-0.99,2.81,3.85,1.77
40.1490,0.09,0.12,-0.99,2.81,3.66,1.59
40.1660,0.08,0.12,-0.99,2.81,3.85,1.59
40.1850,0.07,0.12,-0.99,3.11,3.85,2.08
40.2000,0.09,0.12,-0.99,2.87,3.48,2.81
40.2170,0.09,0.12,-0.99,2.93,3.54,2.62
40.2320,0.09,0.12,-0.99,2.99,3.72,2.08
40.2490,0.08,0.12,-0.99,2.87,4.09,1.83
40.2640,0.08,0.11,-0.99,2.99,3.91,1.83
40.2810,0.07,0.11,-0.99,2.93,3.78,1.83
40.2960,0.08,0.11,-1.00,3.17,3.78,1.16
40.3120,0.10,0.13,-0.99,2.99,3.78,0.98
40.3170,0.09,0.12,-0.99,3.23,3.91,1.89
40.3320,0.09,0.11,-0.99,3.05,3.48,2.14
40.3480,0.08,0.12,-0.99,3.05,3.78,2.14
40.3710,0.07,0.11,-1.00,2.99,3.60,2.50
40.3870,0.08,0.12,-0.99,2.75,3.85,2.32
40.4030,0.09,0.12,-0.99,2.93,3.78,1.89
40.4190,0.09,0.12,-0.99,2.87,3.72,1.83
40.4350,0.08,0.12,-0.99,2.99,3.78,2.08
40.4380,0.08,0.12,-0.99,2.87,3.66,2.38
40.4530,0.07,0.12,-0.99,2.93,3.48,2.69
40.4760,0.08,0.12,-0.99,2.62,3.60,2.62
40.4950,0.08,0.11,-0.99,3.05,3.60,2.14
40.5100,0.08,0.12,-0.99,2.93,3.66,2.20
40.5270,0.09,0.12,-0.99,3.11,3.66,1.83
40.5430,0.08,0.12,-0.99,2.87,3.60,2.01
40.5580,0.07,0.12,-1.00,2.93,3.54,2.14
40.5730,0.07,0.12,-0.99,2.81,4.15,2.38
40.5760,0.08,0.12,-0.99,2.93,3.48,2.38
40.5950,0.09,0.11,-0.99,2.87,3.48,2.01
40.6140,0.09,0.11,-0.99,2.99,3.85,1.95
40.6320,0.09,0.12,-0.99,3.36,4.03,1.83
40.6500,0.08,0.12,-1.00,2.99,3.91,1.71
40.6650,0.08,0.12,-0.99,2.81,4.15,1.34
40.6800,0.08,0.12,-0.99,2.81,3.85,1.40
40.6970,0.08,0.12,-0.99,2.93,3.60,1.95
40.7110,0.08,0.12,-0.99,3.17,3.42,2.14
40.7270,0.08,0.12,-0.99,2.81,3.66,2.69
40.7430,0.08,0.12,-0.99,2.93,3.78,2.50
40.7480,0.08,0.12,-0.99,3.11,3.72,2.26
40.7640,0.08,0.12,-0.99,3.11,3.72,1.83
40.7860,0.08,0.11,-0.99,2.93,3.78,1.89
40.8030,0.09,0.11,-0.99,2.93,4.03,1.89
40.8190,0.08,0.12,-0.99,3.11,3.78,1.95
40.8340,0.08,0.12,-0.99,3.05,3.66,2.08
40.8500,0.07,0.12,-0.99,2.87,3.85,2.38
40.8670,0.08,0.12,-0.99,2.93,3.60,2.14
40.8830,0.09,0.12,-0.99,3.05,4.09,2.20
40.8980,0.08,0.12,-0.99,3.11,3.30,2.56
40.9140,0.08,0.12,-0.99,3.05,3.66,2.56
40.9290,0.08,0.12,-0.99,2.99,3.42,2.50
40.9370,0.08,0.12,-0.99,3.11,3.66,2.26
40.9590,0.09,0.11,-0.99,3.05,3.66,2.14
40.9700,0.08,0.11,-0.99,3.11,3.78,1.95
40.9860,0.07,0.11,-1.00,3.17,3.85,1.95
41.0060,0.08,0.12,-1.00,2.93,3.42,1.46
41.0210,0.09,0.12,-0.99,2.93,3.78,1.53
41.0360,0.09,0.12,-0.99,3.11,3.97,1.71
41.0510,0.08,0.12,-0.99,2.93,3.78,2.32
41.0590,0.08,0.12,-0.99,2.87,3.54,2.44
41.0760,0.08,0.12,-0.99,2.62,3.42,2.50
41.0960,0.08,0.12,-0.99,2.81,3.60,2.62
41.1090,0.08,0.12,-0.99,2.81,3.66,2.44
41.1260,0.11,0.12,-0.99,2.93,3.78,2.56
41.1420,0.09,0.12,-0.99,2.93,3.48,2.56
41.1580,0.08,0.12,-0.99,2.87,3.54,2.75
41.1730,0.08,0.12,-0.99,2.87,3.78,3.05
41.1870,0.08,0.12,-1.00,2.81,3.48,3.17
41.2030,0.08,0.12,-0.99,3.05,3.30,3.11
41.2180,0.08,0.12,-0.99,2.93,3.48,3.30
41.2330,0.09,0.11,-0.99,2.93,3.72,3.23
41.2480,0.08,0.11,-0.99,2.81,3.54,3.05
41.2590,0.09,0.12,-0.99,2.75,3.36,3.30
41.2760,0.08,0.12,-0.99,2.69,3.85,3.36
41.2920,0.08,0.12,-0.99,2.93,3.48,3.23
41.3080,0.09,0.12,-0.99,3.11,3.72,3.23
41.3250,0.09,0.11,-0.99,2.81,3.85,2.81
41.3410,0.08,0.12,-0.99,3.30,3.72,2.75
41.3560,0.07,0.12,-0.99,2.87,3.54,2.99
41.3710,0.09,0.12,-0.99,2.87,3.17,3.05
41.3870,0.08,0.12,-0.99,2.81,3.60,2.75
41.4030,0.08,0.12,-0.99,2.87,3.72,3.11
41.4190,0.09,0.11,-0.99,3.05,3.54,3.42
41.4340,0.08,0.11,-0.99,3.17,3.36,2.69
41.4490,0.08,0.11,-0.99,3.05,3.54,2.38
41.4600,0.08,0.12,-0.99,2.93,3.48,2.32
41.4750,0.08,0.12,-0.99,2.93,4.09,2.50
41.4940,0.08,0.12,-0.99,3.05,3.78,2.44
41.5000,0.09,0.12,-0.99,2.81,3.48,2.62
41.5180,0.07,0.12,-0.99,3.17,3.54,2.69
41.5340,0.08,0.12,-0.99,2.93,4.03,2.93
41.5520,0.07,0.12,-0.99,2.99,3.48,2.69
41.5670,0.06,0.12,-1.00,2.93,3.60,2.69
41.5840,0.09,0.12,-0.99,2.75,3.66,2.75
41.5990,0.10,0.11,-0.99,2.87,3.85,2.69
41.6160,0.09,0.11,-0.99,3.05,3.05,2.69
41.6320,0.09,0.11,-0.99,3.05,3.85,2.56
41.6340,0.08,0.12,-0.99,2.62,3.72,2.32
41.6500,0.09,0.12,-0.99,2.75,3.78,2.26
41.6660,0.09,0.12,-0.99,2.87,3.78,2.26
41.6910,0.08,0.11,-0.99,2.93,3.72,2.01
41.7080,0.08,0.12,-0.99,2.93,3.54,2.08
41.7240,0.07,0.11,-1.00,2.93,3.72,2.01
41.7400,0.08,0.12,-0.99,2.56,3.42,2.56
41.7550,0.09,0.12,-0.99,2.62,3.17,2.50
41.7700,0.09,0.12,-0.99,2.44,3.60,2.14
41.7750,0.08,0.11,-0.99,2.75,3.78,2.26
41.7960,0.10,0.12,-0.99,2.87,3.11,3.54
41.8120,0.06,0.11,-1.00,2.75,3.48,3.48
41.8290,0.09,0.12,-0.99,2.44,3.42,3.60
41.8460,0.10,0.12,-0.99,2.69,3.42,2.81
41.8620,0.09,0.12,-0.99,3.11,3.60,2.32
41.8760,0.08,0.12,-0.99,3.11,3.48,2.01
41.8790,0.08,0.12,-0.99,2.75,3.48,1.83
41.8960,0.08,0.11,-0.99,2.93,3.23,1.89
41.9180,0.07,0.11,-1.00,2.69,3.54,2.26
41.9350,0.08,0.12,-0.99,2.75,3.48,2.50
41.9520,0.09,0.12,-0.99,2.81,3.54,2.38
41.9680,0.08,0.12,-0.99,3.05,3.48,2.38
41.9850,0.08,0.11,-0.99,3.11,3.54,2.32
42.0000,0.08,0.12,-0.99,3.30,3.30,2.50
42.0020,0.08,0.12,-0.99,3.11,3.78,2.62
42.0190,0.08,0.12,-0.99,3.11,3.23,2.99
42.0460,0.08,0.12,-0.99,3.05,3.54,3.11
42.0520,0.09,0.11,-0.99,2.99,3.11,2.93
42.0690,0.08,0.11,-0.99,2.93,3.48,2.75
42.0850,0.09,0.12,-0.99,3.05,3.42,2.62
42.1010,0.09,0.11,-0.99,2.93,3.42,2.44
42.1190,0.08,0.12,-0.99,2.93,3.91,2.32
42.1350,0.08,0.12,-0.99,2.81,3.78,2.50
42.1510,0.08,0.12,-0.99,3.11,3.54,2.38
42.1660,0.08,0.12,-0.99,3.11,3.91,2.38
42.1800,0.08,0.12,-0.99,2.99,3.85,2.38
42.1950,0.06,0.12,-0.99,3.05,3.97,2.26
42.2010,0.08,0.11,-0.99,3.05,3.97,2.26
42.2260,0.09,0.12,-0.99,2.93,3.78,2.01
42.2340,0.09,0.12,-0.99,2.93,3.66,1.95
42.2520,0.08,0.12,-0.99,3.23,3.78,1.89
42.2670,0.08,0.12,-0.99,3.17,3.91,1.95
42.2850,0.08,0.12,-0.99,2.93,3.97,2.20
42.3010,0.08,0.12,-1.00,2.62,4.03,2.38
42.3010,0.08,0.11,-0.99,2.62,3.97,2.26
42.3190,0.09,0.11,-0.99,2.87,4.03,2.26
42.3350,0.08,0.12,-0.99,2.81,3.60,2.32
42.3510,0.08,0.12,-0.99,2.93,3.54,2.32
42.3670,0.08,0.12,-0.99,2.93,3.72,2.44
42.3910,0.08,0.11,-0.99,2.56,3.60,2.50
42.4070,0.09,0.11,-0.99,3.05,3.48,2.56
42.4230,0.09,0.12,-0.99,3.23,3.72,2.32
42.4380,0.09,0.11,-0.99,2.99,3.72,2.20
42.4550,0.08,0.11,-0.99,2.99,3.78,2.08
42.4700,0.08,0.12,-0.99,3.23,3.97,2.14
42.4860,0.08,0.11,-0.99,3.11,3.54,2.14
42.4980,0.08,0.11,-0.99,3.05,3.48,1.95
42.5060,0.08,0.11,-1.00,2.81,3.30,2.08
42.5280,0.08,0.11,-0.99,2.99,3.66,2.14
42.5460,0.08,0.12,-0.99,3.11,3.42,1.95
42.5610,0.08,0.11,-0.99,2.93,3.78,2.20
42.5780,0.07,0.11,-1.00,2.75,3.60,3.91
42.5940,0.08,0.11,-1.00,2.50,3.48,5.31
42.6100,0.08,0.11,-0.99,2.69,3.36,5.49
42.6260,0.08,0.11,-0.99,3.05,3.30,5.31
42.6410,0.10,0.13,-0.99,2.81,3.42,5.13
42.6450,0.10,0.13,-0.99,3.05,3.54,4.03
42.6610,0.08,0.12,-0.99,3.11,3.85,2.14
42.6840,0.08,0.12,-0.99,2.87,3.85,1.89
42.7020,0.08,0.12,-1.00,2.62,3.85,1.95
42.7170,0.08,0.12,-0.99,2.50,3.66,1.95
42.7170,0.07,0.13,-0.99,2.56,3.60,1.40
42.7480,0.09,0.11,-0.99,2.81,3.78,1.28
42.7640,0.09,0.11,-0.99,2.62,3.66,1.95
42.7790,0.08,0.12,-0.99,3.30,3.66,2.26
42.7840,0.07,0.12,-0.99,2.87,3.72,2.81
42.8000,0.08,0.12,-0.99,3.11,3.72,3.85
42.8210,0.07,0.12,-1.00,2.75,3.23,4.39
42.8380,0.09,0.11,-0.99,2.69,3.66,5.25
42.8540,0.09,0.11,-0.99,2.81,3.36,4.76
42.8700,0.09,0.11,-0.99,2.87,3.54,3.78
42.8720,0.08,0.11,-0.99,2.99,3.54,3.05
42.8980,0.07,0.12,-0.99,3.17,3.30,2.93
42.9070,0.07,0.12,-1.00,3.11,3.54,3.48
42.9310,0.09,0.11,-0.99,3.30,3.78,3.48
42.9400,0.09,0.12,-0.99,2.87,3.48,2.93
42.9560,0.09,0.12,-0.99,2.87,3.54,2.38
42.9780,0.09,0.11,-0.99,2.99,3.60,2.20
42.9930,0.08,0.11,-0.99,3.11,4.03,2.20
43.0090,0.07,0.12,-0.99,3.05,3.66,2.44
43.0250,0.08,0.11,-0.99,2.99,3.91,2.62
43.0410,0.08,0.12,-0.99,3.17,3.78,2.56
43.0560,0.09,0.11,-0.99,3.11,3.72,2.32
43.0600,0.08,0.12,-0.99,3.05,3.91,1.95
43.0750,0.08,0.12,-0.99,3.30,3.97,1.40
43.0990,0.08,0.11,-0.99,3.30,3.91,1.46
43.1150,0.08,0.11,-0.99,3.17,4.03,1.65
43.1310,0.08,0.12,-0.99,3.23,4.09,1.77
43.1490,0.10,0.11,-0.99,3.11,3.42,1.22
43.1490,0.09,0.11,-0.99,2.93,3.97,1.65
43.1790,0.08,0.12,-0.99,2.69,3.60,1.83
43.1820,0.08,0.12,-0.99,3.11,3.54,1.83
43.2110,0.08,0.11,-1.00,3.17,3.97,1.95
43.2260,0.08,0.12,-0.99,3.17,3.42,2.26
43.2320,0.08,0.12,-0.99,3.05,3.72,2.32
43.2480,0.08,0.12,-0.99,3.11,3.66,2.44
43.2630,0.09,0.11,-0.99,2.81,3.30,2.44
43.2850,0.09,0.11,-0.99,2.75,3.54,2.14
43.3020,0.09,0.12,-0.99,3.11,3.85,2.26
43.3180,0.09,0.12,-0.99,2.93,3.54,2.20
43.3330,0.08,0.12,-0.99,2.93,3.60,2.14
43.3500,0.09,0.11,-0.99,2.93,3.72,2.20
43.3660,0.08,0.11,-0.99,3.11,3.60,2.08
43.3810,0.08,0.12,-0.99,3.23,3.66,2.01
43.3960,0.08,0.12,-0.99,3.05,3.91,2.01
43.4030,0.08,0.12,-0.99,2.99,3.91,2.01
43.4190,0.08,0.12,-0.99,2.87,3.66,1.89
43.4390,0.08,0.12,-1.00,2.87,3.60,1.95
43.4570,0.08,0.11,-0.99,2.93,3.60,2.20
43.4720,0.08,0.12,-0.99,3.05,3.91,2.26
43.4890,0.08,0.11,-0.99,2.93,3.60,2.20
43.5050,0.08,0.12,-0.99,2.99,3.66,2.14
43.5200,0.08,0.12,-0.99,2.87,3.30,2.01
43.5350,0.07,0.12,-0.99,2.93,3.42,1.77
43.5520,0.07,0.11,-0.99,2.99,3.85,1.77
43.5580,0.02,0.10,-1.00,3.42,4.15,1.77
43.5730,0.08,0.12,-0.99,3.48,4.52,-0.06
43.5970,0.07,0.12,-0.99,2.93,4.52,-0.06
43.6140,0.09,0.11,-0.99,3.11,3.85,0.92
43.6300,0.06,0.12,-0.99,2.38,3.30,2.87
43.6460,0.10,0.12,-0.99,2.93,3.60,3.30
43.6610,0.09,0.12,-0.99,2.93,3.36,2.44
43.6770,0.10,0.11,-0.99,2.87,3.54,2.81
43.6920,0.10,0.11,-0.99,3.17,3.78,2.69
43.7070,0.09,0.11,-0.99,3.36,3.66,2.50
43.7150,0.08,0.11,-0.99,3.36,3.54,2.20
43.7370,0.08,0.11,-0.99,2.99,4.03,2.14
43.7480,0.08,0.11,-0.99,2.81,3.42,2.01
43.7650,0.08,0.11,-0.99,2.99,3.05,1.95
43.7820,0.08,0.11,-0.99,3.17,3.48,1.95
43.7820,0.08,0.12,-0.99,3.30,3.85,2.14
43.8010,0.08,0.12,-0.99,3.17,3.85,2.08
43.8270,0.08,0.12,-0.99,3.23,3.78,2.14
43.8420,0.08,0.12,-0.99,3.05,3.54,2.20
43.8480,0.08,0.12,-0.99,3.05,3.78,2.01
43.8720,0.08,0.12,-0.99,3.17,3.60,2.14
43.8820,0.08,0.12,-0.99,2.99,3.54,2.08
43.9010,0.08,0.12,-0.99,3.30,3.78,2.08
43.9150,0.08,0.12,-0.99,3.23,3.78,2.01
43.9320,0.08,0.12,-0.99,2.99,3.72,1.83
43.9480,0.08,0.12,-0.99,3.11,3.85,1.65
43.9630,0.09,0.12,-0.99,2.99,3.66,1.65
43.9790,0.08,0.11,-0.99,3.17,3.85,1.83
43.9950,0.08,0.11,-0.99,3.23,3.66,1.89
44.0120,0.08,0.11,-1.00,3.17,3.97,1.95
44.0270,0.07,0.11,-1.00,2.93,3.48,1.95
44.0430,0.10,0.12,-0.99,2.38,3.36,3.66
44.0580,0.09,0.11,-0.99,2.99,3.72,2.99
44.0720,0.09,0.11,-0.99,3.05,3.54,2.69
44.0870,0.10,0.12,-0.98,2.50,3.60,3.66
44.1010,0.10,0.12,-1.00,3.11,3.72,3.66
44.1140,0.09,0.12,-0.99,3.17,3.66,2.62
44.1300,0.09,0.12,-0.99,3.05,3.72,2.01
44.1400,0.09,0.12,-0.99,2.93,3.48,1.89
44.1630,0.09,0.12,-0.99,3.17,3.60,2.20
44.1740,0.08,0.12,-0.99,3.17,3.42,2.08
44.1910,0.08,0.12,-0.99,3.36,3.97,2.08
44.2070,0.08,0.12,-0.99,2.93,3.72,2.01
44.2230,0.08,0.11,-0.99,2.99,3.60,2.08
44.2390,0.08,0.11,-0.99,3.11,3.72,2.01
44.2450,0.09,0.11,-0.99,3.17,3.42,2.20
44.2610,0.08,0.11,-0.99,3.23,3.91,2.14
44.2760,0.08,0.12,-0.99,3.11,3.91,2.14
44.2980,0.08,0.12,-0.99,2.93,3.60,2.08
44.3140,0.08,0.11,-0.99,3.05,3.60,1.89
44.3300,0.08,0.12,-0.99,2.99,3.97,2.08
44.3470,0.08,0.12,-0.99,3.11,3.97,2.14
44.3630,0.08,0.12,-0.99,3.30,3.48,2.01
44.3780,0.08,0.12,-0.99,3.11,3.66,2.20
44.3810,0.08,0.12,-0.99,3.05,3.66,2.08
44.4000,0.07,0.12,-0.99,2.81,3.66,1.95
44.4200,0.07,0.12,-0.99,3.11,3.91,1.59
44.4360,0.08,0.12,-0.99,2.93,3.72,1.34
44.4530,0.09,0.11,-0.99,3.30,3.91,1.71
44.4700,0.09,0.11,-0.99,3.23,3.66,1.77
44.4860,0.08,0.11,-0.99,2.99,3.54,2.14
44.5020,0.08,0.12,-0.99,3.05,3.42,2.14
44.5170,0.06,0.12,-0.99,3.17,3.72,2.01
44.5330,0.07,0.12,-1.00,3.11,3.97,1.89
44.5490,0.07,0.12,-1.00,2.81,3.54,1.59
44.5650,0.11,0.13,-0.99,2.38,3.42,4.39
44.5800,0.08,0.11,-1.00,3.05,3.42,2.62
44.5870,0.11,0.11,-0.99,2.93,3.17,3.91
44.6100,0.11,0.11,-0.99,3.17,3.78,2.87
44.6200,0.10,0.11,-0.99,3.17,3.72,2.44
44.6360,0.09,0.11,-0.99,3.36,3.66,2.38
44.6530,0.09,0.12,-0.99,3.17,3.42,2.14
44.6700,0.09,0.12,-0.99,2.81,3.66,2.08
44.6860,0.08,0.11,-0.99,3.17,3.72,2.08
44.7020,0.08,0.11,-0.99,2.99,3.72,2.01
44.7050,0.08,0.11,-0.99,3.05,4.03,2.14
44.7200,0.08,0.12,-0.99,3.17,3.97,2.20
44.7360,0.08,0.12,-0.99,3.36,3.91,2.26
44.7590,0.08,0.12,-0.99,3.30,3.78,2.01
44.7760,0.08,0.11,-0.99,3.05,3.72,1.95
44.7910,0.08,0.12,-0.99,2.99,4.09,2.01
44.8080,0.08,0.12,-0.99,3.11,3.78,1.95
44.8230,0.08,0.12,-0.99,3.30,3.54,2.20
44.8290,0.08,0.12,-0.99,3.11,3.54,1.95
44.8540,0.08,0.12,-0.99,3.23,3.60,2.08
44.8620,0.08,0.12,-0.99,3.23,4.03,2.14
44.8790,0.08,0.12,-0.99,3.36,3.72,2.08
44.8960,0.09,0.12,-0.99,3.30,3.54,2.08
44.9130,0.09,0.12,-0.99,3.17,3.60,2.08
44.9290,0.08,0.12,-0.99,2.87,3.54,2.01
44.9460,0.08,0.12,-0.99,3.11,3.54,1.95
44.9620,0.08,0.12,-0.99,3.17,3.42,1.95
44.9790,0.08,0.12,-0.99,3.11,3.60,2.01
44.9800,0.08,0.12,-0.99,3.17,3.72,1.89
45.0100,0.08,0.12,-0.99,3.23,3.72,1.89
45.0130,0.08,0.12,-1.00,2.93,3.85,1.71
45.0290,0.07,0.13,-0.98,1.83,3.23,3.05
45.0520,0.09,0.11,-0.99,3.23,3.66,2.81
45.0670,0.06,0.11,-1.00,2.62,3.60,3.42
45.0850,0.12,0.11,-0.99,3.36,3.48,3.54
45.1010,0.10,0.11,-0.99,3.48,3.30,2.69
45.1170,0.09,0.12,-0.99,3.42,3.42,2.26
45.1330,0.09,0.12,-0.99,2.93,3.78,2.08
45.1480,0.08,0.12,-0.99,2.87,3.42,2.14
45.1640,0.08,0.11,-0.99,2.99,3.66,2.01
45.1800,0.08,0.11,-0.99,3.05,3.78,2.08
45.1850,0.08,0.11,-0.99,3.11,3.66,2.01
45.2010,0.08,0.11,-0.99,2.99,4.15,2.08
45.2260,0.08,0.12,-0.99,3.11,3.54,2.08
45.2410,0.08,0.12,-0.99,3.05,3.85,2.14
45.2570,0.08,0.12,-0.99,3.36,3.60,2.26
45.2720,0.08,0.12,-0.99,3.17,3.91,2.08
45.2870,0.08,0.12,-0.99,3.05,3.60,2.08
45.3030,0.08,0.12,-0.99,3.23,3.72,2.01
45.3080,0.08,0.12,-0.99,3.23,3.30,1.95
45.3240,0.09,0.12,-0.99,3.36,3.48,2.14
45.3480,0.09,0.12,-0.99,3.17,3.48,2.20
45.3640,0.08,0.12,-0.99,3.11,3.72,2.14
45.3800,0.08,0.12,-0.99,3.05,3.85,2.08
45.3950,0.08,0.12,-0.99,3.11,3.54,2.01
45.4020,0.08,0.12,-0.99,3.17,3.54,2.01
45.4130,0.08,0.12,-0.99,3.30,3.42,2.01
45.4370,0.08,0.12,-0.99,3.30,3.48,2.01
45.4540,0.09,0.12,-0.99,3.11,3.97,2.08
45.4710,0.09,0.11,-0.99,3.05,3.66,2.08
45.4710,0.09,0.11,-0.99,2.93,3.60,2.08
45.5000,0.08,0.12,-0.99,3.17,3.66,2.14
45.5170,0.08,0.12,-0.99,3.05,3.60,2.26
45.5320,0.07,0.12,-0.99,3.11,3.60,2.32
45.5470,0.07,0.12,-1.00,3.23,3.36,2.50
45.5620,0.10,0.12,-0.99,2.44,3.30,4.27
45.5710,0.10,0.11,-0.99,3.17,3.78,3.05
45.5860,0.09,0.11,-0.99,3.17,3.60,2.87
45.6070,0.09,0.11,-0.99,3.17,3.78,2.93
45.6110,0.09,0.11,-0.99,3.05,3.42,2.75
45.6380,0.09,0.12,-0.99,2.75,3.60,2.56
45.6530,0.09,0.11,-0.99,3.23,3.54,2.32
45.6680,0.08,0.11,-0.99,3.17,3.85,2.14
45.6830,0.08,0.11,-0.99,3.17,3.72,2.08
45.6940,0.08,0.12,-0.99,3.17,3.30,2.14
45.7100,0.08,0.12,-0.99,3.23,3.78,2.20
45.7270,0.08,0.12,-0.99,2.87,3.97,2.14
45.7430,0.08,0.12,-0.99,2.99,3.91,2.14
45.7600,0.08,0.12,-0.99,2.93,3.85,2.08
45.7610,0.08,0.12,-0.99,3.05,3.60,2.14
45.7920,0.08,0.11,-0.99,3.05,3.48,2.26
45.8080,0.08,0.12,-0.99,3.05,3.48,2.38
45.8100,0.08,0.12,-0.99,3.23,3.54,2.26
45.8260,0.08,0.12,-0.99,2.93,3.66,2.32
45.8540,0.08,0.12,-0.99,3.05,3.48,2.38
45.8650,0.08,0.11,-0.99,3.11,3.72,2.20
45.8830,0.05,0.12,-0.99,3.11,3.66,2.20
45.8980,0.09,0.12,-1.00,3.30,3.54,2.14
45.9150,0.09,0.11,-0.99,3.11,3.54,2.08
45.9310,0.09,0.11,-0.99,3.11,3.66,1.83
45.9460,0.08,0.11,-0.99,3.05,3.60,2.01
45.9640,0.09,0.11,-0.99,2.93,3.78,1.83
45.9790,0.09,0.11,-0.99,3.30,3.85,2.01
45.9950,0.08,0.12,-0.99,3.42,3.66,2.14
46.0110,0.08,0.12,-0.99,3.36,3.66,2.08
46.0260,0.08,0.12,-0.99,2.87,3.72,1.95
46.0320,0.08,0.12,-0.99,2.87,3.54,2.20
46.0570,0.07,0.11,-0.99,2.93,3.78,2.26
46.0720,0.08,0.11,-0.99,3.17,3.72,2.44
46.0830,0.08,0.11,-0.99,3.11,3.60,2.93
46.0980,0.07,0.11,-0.99,3.30,3.78,2.87
46.1140,0.08,0.12,-0.99,3.30,3.54,2.75
46.1320,0.06,0.12,-1.02,2.69,3.48,2.56
46.1470,0.08,0.15,-0.98,1.46,2.81,4.76
46.1620,0.07,0.11,-1.00,2.87,3.42,4.21
46.1780,0.12,0.12,-0.99,3.23,3.42,4.94
46.1930,0.09,0.11,-1.00,3.11,3.72,4.15
46.2030,0.10,0.12,-0.99,2.87,3.48,3.78
46.2190,0.10,0.12,-0.99,2.87,3.97,2.81
46.2390,0.10,0.12,-0.99,2.87,3.97,2.93
46.2440,0.09,0.11,-0.99,2.75,3.42,2.62
46.2690,0.09,0.12,-0.99,2.99,3.60,2.44
46.2840,0.08,0.12,-0.99,3.11,3.85,2.32
46.2940,0.08,0.12,-0.99,3.17,3.66,2.38
46.3090,0.08,0.12,-0.99,3.11,3.85,2.26
46.3300,0.08,0.12,-0.99,3.11,3.78,2.01
46.3460,0.08,0.12,-0.99,2.93,3.91,2.01
46.3610,0.08,0.12,-0.99,3.11,3.66,2.20
46.3690,0.08,0.12,-0.99,3.23,3.60,2.20
46.3840,0.08,0.12,-0.99,3.11,3.66,2.14
46.4060,0.08,0.12,-0.99,3.05,3.66,2.08
46.4210,0.08,0.12,-0.99,2.99,3.66,2.01
46.4360,0.08,0.12,-0.99,3.05,3.85,1.89
46.4520,0.08,0.11,-0.99,2.99,3.78,2.26
46.4670,0.09,0.12,-0.99,2.99,3.91,2.44
46.4820,0.08,0.12,-0.99,3.48,3.72,2.38
46.4910,0.08,0.11,-1.00,3.05,3.97,2.38
46.5070,0.08,0.12,-0.99,3.30,3.78,2.20
46.5270,0.08,0.12,-0.99,2.93,3.48,2.14
46.5420,0.08,0.12,-0.99,2.93,3.36,2.20
46.5570,0.08,0.12,-0.99,3.11,3.72,2.14
46.5650,0.01,0.12,-1.00,2.69,3.30,2.32
46.5810,0.10,0.12,-1.00,2.93,3.42,4.46
46.5980,0.02,0.10,-1.00,3.30,3.30,3.11
46.6150,0.03,0.11,-0.99,2.81,3.72,1.46
46.6310,0.10,0.12,-0.99,3.05,3.85,2.81
46.6460,0.07,0.11,-1.00,2.87,3.36,2.26
46.6620,0.09,0.12,-0.99,3.23,3.91,2.69
46.6800,0.10,0.12,-0.99,2.87,3.97,2.50
46.6950,0.09,0.12,-0.99,2.81,3.78,2.26
46.7100,0.09,0.12,-0.99,2.93,3.72,2.32
46.7220,0.08,0.12,-0.99,3.11,3.60,2.01
46.7380,0.08,0.12,-0.99,3.17,3.78,1.95
46.7550,0.09,0.12,-0.99,2.93,3.48,2.20
46.7720,0.08,0.12,-0.99,2.99,3.42,1.95
46.7870,0.08,0.12,-0.99,2.99,3.66,1.89
46.8020,0.07,0.12,-0.99,2.99,3.54,1.83
46.8180,0.08,0.12,-1.00,3.17,3.91,2.08
46.8220,0.08,0.12,-0.99,3.30,3.60,2.08
46.8380,0.08,0.12,-0.99,3.17,3.97,2.14
46.8600,0.00,0.10,-0.98,2.32,3.23,3.60
46.8770,0.09,0.12,-1.00,3.23,3.17,3.36
46.8940,0.08,0.12,-0.99,3.05,3.66,2.50
46.9090,0.07,0.12,-0.99,2.75,3.60,2.26
46.9240,0.10,0.12,-0.99,3.11,3.78,2.56
46.9270,0.10,0.12,-0.99,3.05,3.42,2.20
46.9430,0.10,0.12,-0.99,3.17,3.78,2.20
46.9660,0.08,0.12,-0.99,3.11,3.48,2.26
46.9820,0.08,0.12,-0.99,2.99,3.60,2.14
46.9990,0.08,0.12,-0.99,2.93,3.48,2.01
47.0160,0.08,0.12,-0.99,2.87,3.78,2.14
47.0310,0.08,0.12,-0.99,2.93,3.48,2.01
47.0470,0.09,0.12,-0.99,2.75,3.85,1.95
47.0500,0.08,0.12,-0.99,3.36,3.72,2.08
47.0650,0.08,0.12,-1.00,3.17,3.78,2.26
47.0810,0.08,0.12,-0.99,2.99,3.72,2.32
47.1050,0.09,0.12,-0.99,2.87,3.78,2.38
47.1210,0.09,0.12,-0.99,2.93,3.36,2.14
47.1380,0.09,0.12,-0.99,2.93,3.78,2.14
47.1550,0.08,0.12,-1.00,2.87,3.85,2.14
47.1710,0.08,0.12,-0.99,2.62,3.85,2.14
47.1870,0.08,0.12,-0.99,2.99,3.60,2.32
47.2030,0.08,0.12,-0.99,3.11,3.78,2.38
47.2180,0.08,0.12,-0.99,2.62,3.48,2.50
47.2350,0.06,0.12,-1.00,2.32,3.36,3.54
47.2500,0.10,0.11,-1.00,2.81,3.48,3.17
47.2660,0.09,0.11,-0.99,2.93,3.54,2.62
47.2820,0.08,0.12,-0.99,3.05,3.72,2.20
47.2880,0.08,0.12,-0.99,2.87,3.48,2.50
47.3040,0.08,0.12,-0.99,2.93,3.48,2.62
47.3250,0.09,0.11,-0.99,3.05,3.66,2.32
47.3420,0.08,0.12,-0.99,3.11,3.54,2.20
47.3590,0.08,0.12,-0.99,3.11,3.85,2.01
47.3750,0.08,0.12,-0.99,3.17,3.66,2.14
47.3920,0.08,0.12,-0.99,3.17,3.66,2.01
47.4080,0.08,0.12,-0.99,3.30,4.09,2.01
47.4240,0.08,0.12,-0.99,3.11,4.09,2.01
47.4400,0.03,0.12,-1.02,2.93,3.85,2.20
47.4550,0.10,0.12,-1.00,3.11,3.42,3.48
47.4700,0.02,0.12,-1.01,3.36,3.48,2.01
47.4850,0.03,0.11,-1.01,3.85,3.36,0.79
47.5000,0.11,0.11,-1.00,3.11,3.60,2.62
47.5090,0.06,0.11,-0.99,2.81,3.48,4.09
47.5250,0.12,0.11,-0.99,3.60,3.85,3.11
47.5450,0.09,0.11,-1.00,3.17,3.78,2.38
47.5600,0.11,0.12,-0.99,2.87,3.72,2.56
47.5640,0.10,0.12,-0.99,2.69,3.91,2.32
47.5800,0.08,0.12,-0.99,2.87,3.54,2.08
47.6050,0.08,0.12,-0.99,2.87,3.30,2.08
47.6200,0.08,0.12,-0.99,2.93,3.42,2.08
47.6350,0.09,0.12,-0.99,2.87,3.78,2.20
47.6350,0.08,0.12,-0.99,3.05,3.72,2.08
