Timestamp, AccX, AccY, AccZ, GyroX, GyroY, GyroZ
0.0140,0.08,0.12,-0.99,2.62,3.23,2.20
0.0220,0.08,0.12,-0.98,2.75,3.48,2.01
0.0390,0.08,0.12,-0.98,3.05,3.05,2.14
0.0560,0.08,0.12,-0.98,3.23,3.54,2.08
0.0750,0.08,0.13,-0.98,3.17,3.36,1.83
0.0890,0.08,0.12,-0.98,3.17,3.72,1.95
0.1050,0.08,0.12,-0.98,3.23,3.36,1.95
0.1190,0.08,0.12,-0.98,3.17,3.17,1.89
0.1340,0.08,0.12,-0.98,3.36,3.30,1.95
0.1490,0.08,0.12,-0.98,3.30,3.36,2.08
0.1640,0.08,0.12,-0.98,3.42,3.54,2.14
0.1790,0.08,0.12,-0.98,3.17,3.36,2.20
0.1950,0.09,0.12,-0.98,3.05,3.30,1.95
0.2060,0.08,0.12,-0.99,3.05,3.11,2.08
0.2230,0.08,0.12,-0.99,3.30,3.36,2.14
0.2390,0.09,0.12,-0.99,3.17,3.78,2.14
0.2540,0.08,0.12,-0.98,3.42,3.11,2.20
0.2690,0.08,0.13,-0.98,3.36,3.17,2.08
0.2850,0.08,0.13,-0.98,3.48,3.30,2.01
0.2990,0.08,0.13,-0.99,3.48,3.42,2.01
0.3060,0.08,0.12,-0.99,3.11,3.42,1.95
0.3210,0.09,0.11,-0.99,2.81,3.23,2.01
0.3430,0.08,0.12,-0.98,2.87,3.30,2.20
0.3590,0.08,0.12,-0.98,2.99,3.17,2.26
0.3750,0.08,0.13,-0.98,3.30,3.30,2.20
0.3900,0.08,0.13,-0.98,3.30,3.17,2.01
0.3920,0.08,0.12,-0.99,2.99,3.11,2.20
0.4080,0.08,0.11,-0.98,2.81,3.54,2.08
0.4300,0.08,0.11,-0.98,2.99,3.05,2.20
0.4460,0.08,0.12,-0.98,3.23,3.36,2.20
0.4640,0.08,0.13,-0.98,3.30,3.48,2.14
0.4790,0.08,0.13,-0.98,2.93,3.54,2.01
0.4950,0.08,0.12,-0.98,2.81,3.42,2.14
0.4970,0.08,0.11,-0.99,2.81,3.17,2.14
0.5140,0.08,0.11,-0.98,2.93,3.30,1.95
0.5310,0.08,0.13,-0.98,3.17,3.05,2.08
0.5470,0.08,0.13,-0.98,3.42,3.23,2.20
0.5630,0.08,0.13,-0.98,3.17,3.11,1.89
0.5800,0.08,0.12,-0.98,3.05,3.17,2.01
0.5980,0.08,0.11,-0.98,2.93,3.11,2.14
0.6130,0.08,0.12,-0.98,3.30,3.23,2.14
0.6300,0.08,0.13,-0.98,3.30,3.11,2.01
0.6460,0.08,0.13,-0.98,3.42,3.36,2.08
0.6470,0.08,0.13,-0.98,3.36,3.54,2.14
0.6750,0.08,0.12,-0.98,3.05,3.54,2.20
0.6820,0.08,0.11,-0.99,2.87,3.05,1.95
0.6980,0.08,0.12,-0.99,3.11,3.36,2.08
0.7130,0.08,0.12,-0.98,3.17,3.42,2.20
0.7300,0.08,0.13,-0.98,3.30,3.54,2.26
0.7470,0.08,0.13,-0.98,3.36,3.48,1.89
0.7640,0.08,0.12,-0.98,3.11,3.54,2.08
0.7800,0.08,0.12,-0.98,3.11,3.05,1.95
0.7960,0.09,0.12,-0.97,3.17,3.05,2.08
0.8160,0.08,0.13,-0.99,3.30,3.42,2.01
0.8320,0.08,0.13,-0.98,3.42,3.36,1.95
0.8480,0.08,0.12,-0.99,2.99,3.23,1.95
0.8640,0.09,0.11,-0.98,3.23,2.69,2.01
0.8800,0.08,0.12,-0.98,2.93,3.36,2.14
0.8960,0.08,0.13,-0.98,3.23,3.66,2.14
0.9110,0.08,0.13,-0.98,3.42,3.30,2.20
0.9260,0.08,0.13,-0.99,3.17,3.42,2.08
0.9410,0.08,0.11,-0.99,2.99,3.17,2.26
0.9490,0.08,0.11,-0.98,2.81,3.36,2.01
0.9640,0.08,0.12,-0.98,3.23,3.23,2.08
0.9810,0.08,0.13,-0.98,3.48,3.11,2.01
0.9960,0.08,0.13,-0.98,3.60,3.42,2.01
1.0120,0.08,0.12,-0.98,2.99,3.42,1.95
1.0330,0.08,0.11,-0.99,2.93,3.60,2.08
1.0330,0.08,0.11,-0.98,3.05,3.11,2.08
1.0650,0.08,0.12,-0.98,3.23,3.17,2.20
1.0800,0.08,0.13,-0.98,3.42,3.23,2.08
1.0960,0.08,0.13,-0.98,3.36,3.36,2.01
1.1120,0.08,0.12,-0.98,3.23,3.05,2.08
1.1150,0.08,0.11,-0.98,3.05,3.36,2.01
1.1310,0.08,0.12,-0.99,3.11,3.36,1.95
1.1580,0.08,0.12,-0.98,3.11,3.48,1.95
1.1690,0.08,0.13,-0.98,3.42,2.93,2.08
1.1860,0.08,0.13,-0.98,3.23,3.05,2.08
1.2030,0.08,0.12,-0.98,2.99,3.36,1.95
1.2180,0.08,0.11,-0.98,2.99,3.23,2.08
1.2350,0.08,0.12,-0.99,3.11,3.36,2.01
1.2370,0.08,0.12,-0.98,3.30,3.05,1.95
1.2670,0.08,0.13,-0.98,3.42,3.05,2.14
1.2820,0.08,0.13,-0.98,3.23,3.23,2.08
1.2990,0.08,0.12,-0.98,2.93,3.30,2.08
1.3150,0.08,0.12,-0.98,2.93,3.17,2.01
1.3310,0.09,0.12,-0.97,3.11,3.48,2.20
1.3460,0.07,0.13,-1.00,3.30,3.42,1.95
1.3610,0.09,0.13,-0.98,3.36,3.30,2.01
1.3770,0.08,0.12,-0.98,3.11,3.11,1.89
1.3870,0.08,0.11,-0.99,2.99,3.36,2.20
1.4030,0.08,0.12,-0.98,3.17,3.42,2.01
1.4220,0.08,0.12,-0.99,3.36,3.36,2.20
1.4370,0.08,0.13,-0.98,3.42,3.48,2.20
1.4530,0.08,0.13,-0.98,3.30,3.54,2.08
1.4670,0.08,0.12,-0.98,3.05,3.54,2.08
1.4820,0.08,0.12,-0.98,3.05,3.42,2.08
1.4970,0.08,0.12,-0.98,3.05,3.30,2.01
1.5120,0.08,0.12,-0.98,3.23,3.42,2.08
1.5230,0.08,0.13,-0.98,3.42,3.30,2.14
1.5400,0.08,0.12,-0.98,3.48,3.42,1.89
1.5570,0.08,0.12,-0.98,3.36,3.72,2.01
1.5720,0.08,0.12,-0.98,3.17,3.48,2.08
1.5880,0.08,0.12,-0.98,3.05,3.30,2.14
1.6040,0.08,0.12,-0.98,3.17,3.23,2.01
1.6180,0.08,0.13,-0.98,3.30,3.11,2.01
1.6330,0.08,0.12,-0.98,3.36,2.99,2.14
1.6500,0.08,0.12,-0.98,3.23,3.30,2.08
1.6660,0.08,0.12,-0.98,3.05,3.36,2.08
1.6760,0.08,0.12,-0.98,3.05,3.48,2.14
1.6880,0.08,0.12,-0.98,3.17,3.17,2.01
1.7100,0.08,0.12,-0.98,3.30,3.11,2.08
1.7280,0.08,0.12,-0.98,3.17,3.17,2.08
1.7430,0.08,0.12,-0.98,3.05,3.23,2.01
1.7600,0.08,0.12,-0.98,3.05,3.11,2.01
1.7750,0.08,0.12,-0.98,3.11,3.42,2.14
1.7920,0.09,0.12,-0.98,3.11,3.11,1.95
1.8080,0.08,0.13,-0.99,3.23,3.66,2.01
1.8240,0.08,0.12,-0.99,3.36,2.99,2.01
1.8390,0.08,0.12,-0.98,3.36,3.11,1.95
1.8550,0.08,0.12,-0.98,2.99,3.91,2.14
1.8700,0.08,0.12,-0.98,3.17,3.30,2.14
1.8860,0.08,0.13,-0.98,3.17,3.30,2.14
1.8930,0.08,0.13,-0.98,3.30,3.30,2.01
1.9100,0.08,0.12,-0.99,3.11,3.23,2.08
1.9310,0.08,0.12,-0.98,3.17,3.17,1.95
1.9430,0.08,0.12,-0.98,3.11,3.11,2.01
1.9600,0.08,0.12,-0.98,2.99,3.48,2.14
1.9770,0.08,0.13,-0.98,3.30,3.36,2.14
1.9930,0.08,0.13,-0.98,3.05,3.54,1.95
2.0100,0.08,0.12,-0.98,3.05,3.48,2.14
2.0250,0.08,0.12,-0.98,3.11,3.66,1.95
2.0420,0.08,0.12,-0.98,3.23,2.99,2.01
2.0580,0.08,0.12,-0.98,3.05,3.48,2.20
2.0740,0.08,0.13,-0.98,3.36,3.36,1.89
2.0900,0.08,0.13,-0.98,3.30,2.81,1.89
2.1050,0.08,0.12,-0.98,2.87,3.23,1.89
2.1100,0.08,0.12,-0.98,3.11,3.17,1.95
2.1260,0.08,0.12,-0.98,2.99,3.36,1.83
2.1460,0.08,0.13,-0.98,3.23,3.17,1.95
2.1630,0.08,0.13,-0.98,3.30,3.23,2.08
2.1800,0.08,0.13,-0.98,3.11,3.48,1.95
2.1950,0.08,0.11,-0.98,2.38,3.42,2.01
2.2110,0.08,0.12,-0.98,3.05,3.05,2.08
2.2270,0.08,0.12,-0.98,3.30,3.36,2.20
2.2290,0.08,0.12,-0.98,2.93,3.36,2.01
2.2450,0.08,0.13,-0.98,3.17,3.23,2.14
2.2720,0.08,0.12,-0.98,2.99,3.11,2.32
2.2840,0.08,0.12,-0.99,2.93,3.42,2.08
2.3000,0.08,0.12,-0.98,3.05,3.17,2.08
2.3170,0.08,0.12,-0.98,3.05,3.23,2.01
2.3330,0.08,0.12,-0.98,3.23,3.17,2.14
2.3490,0.08,0.13,-0.98,3.17,3.17,1.89
2.3500,0.08,0.12,-0.98,3.23,3.17,2.01
2.3780,0.08,0.12,-0.98,3.42,2.93,2.01
2.3840,0.08,0.12,-0.98,3.17,3.54,2.14
2.4000,0.08,0.12,-0.99,3.36,3.17,2.32
2.4240,0.08,0.13,-0.98,3.48,2.87,2.08
2.4410,0.08,0.13,-0.98,3.11,3.23,1.95
2.4570,0.08,0.12,-0.99,3.30,3.23,2.08
2.4730,0.08,0.12,-0.98,3.23,3.23,1.95
2.4880,0.08,0.12,-0.98,3.17,2.87,2.08
2.5030,0.08,0.12,-0.98,3.23,3.60,1.95
2.5080,0.08,0.12,-0.98,3.42,3.05,1.95
2.5240,0.08,0.13,-0.98,3.36,3.36,1.89
2.5470,0.08,0.12,-0.98,3.17,3.48,1.95
2.5640,0.08,0.12,-0.99,3.17,3.11,1.95
2.5800,0.08,0.12,-0.98,3.11,3.11,1.95
2.5970,0.08,0.12,-0.98,3.30,3.11,2.01
2.6130,0.08,0.13,-0.98,3.36,2.99,2.08
2.6140,0.08,0.13,-0.98,3.23,3.11,2.14
2.6300,0.09,0.12,-0.98,3.11,3.36,2.08
2.6480,0.08,0.12,-0.99,2.81,3.60,2.08
2.6640,0.08,0.12,-0.99,2.99,3.54,2.08
2.6930,0.08,0.12,-0.99,3.30,2.99,2.08
2.7080,0.08,0.12,-0.99,3.30,3.05,2.14
2.7220,0.08,0.12,-0.98,3.23,3.17,2.01
2.7380,0.08,0.12,-0.98,2.99,3.36,2.14
2.7490,0.08,0.12,-0.98,3.30,3.23,2.08
2.7660,0.08,0.12,-0.98,3.23,3.23,2.01
2.7820,0.08,0.12,-0.98,3.23,3.17,2.01
2.7990,0.08,0.12,-0.98,3.23,3.17,2.08
2.8150,0.08,0.12,-0.98,2.87,3.66,2.14
2.8310,0.08,0.12,-0.98,3.17,3.30,2.08
2.8480,0.08,0.12,-0.98,3.42,3.17,2.01
2.8640,0.08,0.12,-0.98,3.17,3.05,2.14
2.8810,0.08,0.12,-0.98,3.17,3.23,2.01
2.8960,0.08,0.12,-0.98,3.23,3.30,2.20
2.9120,0.08,0.12,-0.98,3.23,3.23,2.01
2.9270,0.08,0.12,-0.98,2.99,3.11,2.01
2.9430,0.08,0.12,-0.98,3.17,3.17,2.01
2.9590,0.08,0.12,-0.98,2.99,3.17,1.95
2.9730,0.08,0.12,-0.98,3.30,3.11,2.01
2.9820,0.08,0.12,-0.98,3.23,2.99,2.14
2.9980,0.08,0.12,-0.98,3.17,3.48,1.95
3.0190,0.08,0.12,-0.98,3.23,3.17,2.01
3.0360,0.08,0.12,-0.99,3.17,3.17,2.01
3.0370,0.08,0.12,-0.98,3.17,3.23,2.08
3.0680,0.08,0.12,-0.98,3.05,3.17,2.14
3.0840,0.08,0.12,-0.98,3.17,3.11,2.20
3.1000,0.08,0.12,-0.98,2.99,3.11,2.01
3.1040,0.08,0.12,-0.98,3.11,3.48,1.83
3.1320,0.08,0.12,-0.98,2.87,3.30,2.08
3.1480,0.08,0.12,-0.98,3.23,3.11,2.01
3.1640,0.08,0.12,-0.98,3.17,2.87,1.89
3.1800,0.08,0.12,-0.98,3.05,3.17,2.01
3.1960,0.08,0.12,-0.98,3.11,3.17,1.95
3.2120,0.08,0.12,-0.98,3.23,3.54,1.95
3.2280,0.08,0.12,-0.98,3.17,3.30,2.08
3.2350,0.08,0.12,-0.98,3.23,2.99,1.95
3.2530,0.08,0.12,-0.98,3.23,3.48,2.08
3.2690,0.08,0.12,-0.98,2.99,3.42,2.14
3.2860,0.08,0.12,-0.98,3.36,3.17,2.01
3.3020,0.08,0.12,-0.98,3.17,3.23,2.01
3.3190,0.08,0.12,-0.98,3.23,3.11,2.08
3.3210,0.08,0.12,-0.98,3.23,3.23,2.08
3.3360,0.08,0.12,-0.98,3.17,3.05,2.01
3.3670,0.08,0.12,-0.98,3.30,3.30,2.01
3.3830,0.08,0.12,-0.98,3.42,3.05,1.89
3.3990,0.08,0.12,-0.98,3.17,3.36,2.14
3.4150,0.08,0.12,-0.98,2.99,3.23,2.01
3.4310,0.08,0.12,-0.98,3.17,3.36,2.14
3.4360,0.08,0.12,-0.98,3.05,3.36,2.08
3.4520,0.08,0.12,-0.98,3.17,3.48,2.14
3.4740,0.08,0.12,-0.98,3.17,3.36,2.20
3.4910,0.08,0.12,-0.98,3.23,3.23,2.08
3.5070,0.08,0.12,-0.98,3.23,3.11,1.95
3.5250,0.08,0.12,-0.98,3.11,3.36,1.95
3.5410,0.08,0.12,-0.98,3.11,3.05,2.01
3.5560,0.08,0.12,-0.98,3.30,3.48,2.14
3.5730,0.08,0.12,-0.98,3.17,3.17,2.08
3.5890,0.08,0.12,-0.98,3.17,3.36,2.14
3.6040,0.08,0.12,-0.98,3.11,3.42,2.14
3.6070,0.08,0.12,-0.98,3.30,3.36,2.01
3.6230,0.08,0.12,-0.98,3.17,3.11,2.08
3.6490,0.08,0.12,-0.98,3.23,3.60,2.14
3.6600,0.08,0.12,-0.98,3.11,3.54,1.95
3.6800,0.08,0.12,-0.98,3.11,3.60,2.01
3.6930,0.08,0.12,-0.98,3.17,3.17,2.01
3.7100,0.08,0.12,-0.98,3.30,3.17,2.01
3.7170,0.08,0.12,-0.98,3.23,3.05,2.01
3.7420,0.08,0.12,-0.98,3.23,3.11,1.95
3.7560,0.08,0.12,-0.98,3.05,3.42,2.01
3.7710,0.08,0.12,-0.98,3.23,2.99,2.01
3.7830,0.08,0.12,-0.98,3.30,3.30,2.08
3.7980,0.08,0.12,-0.98,3.17,2.93,2.01
3.8180,0.08,0.12,-0.98,3.11,3.17,2.08
3.8330,0.08,0.12,-0.98,3.23,3.23,2.08
3.8490,0.08,0.12,-0.98,3.11,3.30,2.01
3.8660,0.08,0.12,-0.98,3.05,3.17,1.89
3.8810,0.08,0.12,-0.98,2.99,3.05,2.01
3.8960,0.08,0.12,-0.98,3.23,3.17,2.14
3.9120,0.08,0.12,-0.98,3.23,3.17,2.01
3.9270,0.08,0.12,-0.98,3.11,3.30,2.14
3.9430,0.08,0.12,-0.98,3.05,3.48,2.08
3.9580,0.08,0.12,-0.98,3.11,3.42,2.01
3.9690,0.08,0.12,-0.98,3.23,3.30,1.95
3.9860,0.08,0.12,-0.98,3.17,3.17,2.08
4.0030,0.08,0.12,-0.98,3.23,2.93,2.14
4.0180,0.08,0.12,-0.98,3.23,3.11,2.01
4.0350,0.08,0.12,-0.98,3.17,3.05,2.20
4.0510,0.08,0.12,-0.98,3.23,2.69,2.08
4.0660,0.08,0.12,-0.98,3.23,3.11,2.01
4.0830,0.08,0.12,-0.99,3.17,3.23,2.08
4.0990,0.08,0.12,-0.98,3.30,3.30,2.20
4.1150,0.08,0.12,-0.98,3.17,3.23,2.20
4.1310,0.08,0.12,-0.98,3.05,3.36,2.01
4.1470,0.08,0.12,-0.98,3.17,3.66,2.14
4.1630,0.08,0.12,-0.98,2.81,3.23,1.89
4.1690,0.08,0.12,-0.98,2.99,3.23,2.08
4.1840,0.08,0.12,-0.98,3.05,3.42,2.08
4.2070,0.08,0.12,-0.98,2.99,3.23,2.01
4.2230,0.08,0.12,-0.98,3.05,3.54,2.01
4.2400,0.08,0.12,-0.98,3.17,3.48,2.20
4.2570,0.08,0.12,-0.98,3.17,3.36,2.14
4.2730,0.08,0.12,-0.98,3.17,3.36,2.08
4.2890,0.08,0.12,-0.98,2.93,3.72,2.20
4.3040,0.08,0.12,-0.98,3.05,3.48,2.08
4.3200,0.08,0.12,-0.98,2.87,3.36,2.14
4.3240,0.08,0.12,-0.98,2.93,3.23,2.14
4.3390,0.08,0.12,-0.98,2.93,3.36,2.20
4.3660,0.08,0.12,-0.98,3.05,2.93,2.20
4.3800,0.08,0.12,-0.98,2.93,3.42,2.14
4.3940,0.08,0.12,-0.98,2.81,3.36,2.32
4.4110,0.08,0.12,-0.98,3.05,3.17,2.38
4.4270,0.08,0.12,-0.98,3.17,3.42,2.08
4.4430,0.08,0.12,-0.98,3.23,3.36,2.08
4.4600,0.08,0.12,-0.98,3.17,3.42,2.20
4.4760,0.08,0.12,-0.98,3.30,3.11,2.14
4.4920,0.08,0.12,-0.99,3.30,3.05,2.20
4.5090,0.08,0.12,-0.98,3.05,3.42,2.01
4.5250,0.08,0.12,-0.98,3.11,3.17,1.95
4.5270,0.08,0.12,-0.98,2.99,3.30,1.95
4.5430,0.08,0.12,-0.98,3.17,3.30,2.14
4.5710,0.08,0.12,-0.98,3.05,2.93,2.20
4.5820,0.08,0.12,-0.98,3.11,3.23,2.01
4.5990,0.08,0.12,-0.98,3.17,3.23,2.20
4.6150,0.08,0.12,-0.98,3.23,3.11,2.01
4.6320,0.08,0.12,-0.98,3.23,3.17,2.08
4.6490,0.08,0.12,-0.98,3.23,3.42,2.14
4.6650,0.08,0.13,-0.98,3.11,3.17,2.44
4.6820,0.08,0.12,-0.98,3.17,3.36,2.81
4.6990,0.08,0.12,-0.98,3.05,3.54,2.14
4.7140,0.08,0.12,-0.98,3.17,3.78,2.26
4.7300,0.08,0.12,-0.98,3.42,3.23,2.26
4.7470,0.08,0.12,-0.98,3.23,3.42,2.01
4.7630,0.08,0.12,-0.98,3.17,3.36,2.14
4.7790,0.08,0.12,-0.98,3.11,3.17,2.14
4.7950,0.08,0.12,-0.98,3.30,3.42,2.14
4.8090,0.08,0.12,-0.98,3.05,3.54,2.14
4.8150,0.08,0.12,-0.98,3.23,3.30,2.08
4.8300,0.08,0.12,-0.98,3.11,3.11,2.08
4.8530,0.08,0.12,-0.98,3.17,3.54,2.08
4.8690,0.08,0.12,-0.98,3.05,3.17,2.08
4.8860,0.08,0.12,-0.98,3.30,3.17,2.08
4.9020,0.08,0.12,-0.98,3.23,2.87,2.08
4.9180,0.08,0.12,-0.98,3.05,3.05,2.01
4.9340,0.08,0.12,-0.98,3.05,2.93,1.95
4.9500,0.08,0.12,-0.98,2.99,3.66,2.08
4.9660,0.08,0.12,-0.98,3.05,3.23,2.01
4.9830,0.08,0.12,-0.98,3.30,3.23,2.20
4.9990,0.08,0.12,-0.98,3.23,3.54,2.08
5.0150,0.08,0.12,-0.98,3.11,3.42,2.14
5.0310,0.08,0.12,-0.98,2.93,3.60,2.08
5.0370,0.08,0.12,-0.98,3.11,3.23,2.08
5.0530,0.08,0.12,-0.98,3.17,3.30,2.14
5.0760,0.08,0.12,-0.98,3.11,3.17,2.01
5.0920,0.08,0.12,-0.98,3.05,3.36,2.08
5.1080,0.08,0.12,-0.98,3.11,2.93,1.95
5.1250,0.08,0.12,-0.98,3.17,3.48,2.08
5.1410,0.08,0.12,-0.98,3.11,3.36,2.14
5.1580,0.08,0.12,-0.98,3.17,3.11,2.14
5.1750,0.08,0.12,-0.98,3.17,3.23,2.08
5.1900,0.08,0.12,-0.98,3.36,3.11,2.08
5.2070,0.08,0.12,-0.98,3.36,3.30,2.08
5.2220,0.08,0.12,-0.98,3.36,3.11,2.01
5.2380,0.08,0.12,-0.98,3.36,3.30,1.95
5.2530,0.08,0.12,-0.98,3.23,3.66,2.20
5.2590,0.08,0.12,-0.98,3.23,3.60,2.01
5.2820,0.08,0.12,-0.98,3.30,3.36,2.01
5.2950,0.08,0.12,-0.98,3.23,3.11,2.08
5.3110,0.08,0.12,-0.98,3.30,3.48,2.20
5.3280,0.08,0.12,-0.99,3.23,3.54,2.14
5.3440,0.08,0.12,-0.98,3.11,3.23,2.08
5.3610,0.08,0.12,-0.98,3.11,3.17,2.08
5.3780,0.08,0.12,-0.98,3.05,3.23,2.01
5.3940,0.08,0.12,-0.98,2.99,3.36,2.20
5.4100,0.08,0.12,-0.98,3.05,3.60,2.20
5.4250,0.08,0.12,-0.98,3.17,3.23,2.20
5.4410,0.08,0.12,-0.98,3.05,3.17,2.14
5.4570,0.08,0.12,-0.98,3.17,3.23,2.20
5.4710,0.08,0.12,-0.98,3.30,3.11,2.14
5.4860,0.08,0.12,-0.98,3.23,3.66,2.08
5.5010,0.08,0.12,-0.98,3.30,3.23,2.14
5.5160,0.08,0.12,-0.98,3.23,3.48,2.01
5.5280,0.08,0.12,-0.98,3.30,3.42,2.08
5.5440,0.08,0.13,-0.98,3.30,3.23,2.08
5.5610,0.08,0.12,-0.98,3.11,3.48,2.14
5.5780,0.08,0.12,-0.98,2.99,3.42,2.14
5.5950,0.08,0.12,-0.98,3.42,3.17,2.08
5.6100,0.08,0.12,-0.98,3.17,2.75,2.01
5.6270,0.08,0.12,-0.98,3.17,3.17,2.08
5.6430,0.08,0.12,-0.99,3.11,3.23,2.01
5.6580,0.08,0.12,-0.98,3.42,3.23,2.20
5.6610,0.08,0.12,-0.98,3.42,3.36,2.20
5.6820,0.08,0.12,-0.98,3.23,3.36,2.20
5.7000,0.08,0.12,-0.98,3.30,3.23,2.08
5.7170,0.08,0.12,-0.98,3.11,3.11,2.08
5.7340,0.08,0.12,-0.98,3.23,3.23,2.20
5.7500,0.08,0.12,-0.98,3.11,3.05,2.20
5.7660,0.08,0.12,-0.98,3.23,3.17,1.95
5.7820,0.08,0.12,-0.98,3.23,3.11,2.01
5.7990,0.08,0.12,-0.98,2.99,3.60,2.14
5.8140,0.08,0.12,-0.98,3.23,3.23,2.08
5.8290,0.08,0.12,-0.98,3.17,3.48,2.20
5.8450,0.08,0.12,-0.98,3.30,3.42,2.08
5.8500,0.08,0.12,-0.98,3.23,3.36,1.95
5.8660,0.08,0.12,-0.98,2.99,3.54,2.01
5.8850,0.08,0.12,-0.98,2.93,3.17,1.95
5.9020,0.08,0.12,-0.98,3.17,3.36,2.20
5.9170,0.08,0.12,-0.98,3.36,3.42,2.20
5.9370,0.08,0.12,-0.98,3.48,3.30,2.32
5.9530,0.08,0.12,-0.99,3.42,3.11,2.20
5.9690,0.08,0.12,-0.98,3.23,3.36,1.95
5.9850,0.08,0.12,-0.98,3.11,3.30,2.14
6.0010,0.08,0.12,-0.98,3.17,3.42,1.95
6.0170,0.08,0.12,-0.98,3.30,3.48,2.08
6.0230,0.08,0.12,-0.98,3.23,3.17,1.95
6.0390,0.08,0.12,-0.98,3.30,3.30,2.14
6.0610,0.08,0.12,-0.98,3.30,3.36,2.26
6.0780,0.08,0.12,-0.98,3.17,3.30,2.08
6.0940,0.08,0.12,-0.98,3.17,3.11,2.08
6.1110,0.08,0.12,-0.98,3.23,3.11,2.01
6.1250,0.08,0.12,-0.98,3.30,3.48,2.14
6.1410,0.08,0.12,-0.98,3.30,3.17,2.14
6.1570,0.08,0.12,-0.98,3.36,3.23,2.08
6.1610,0.08,0.12,-0.98,3.42,3.23,2.20
6.1830,0.08,0.12,-0.98,3.17,3.36,2.14
6.1970,0.08,0.12,-0.98,3.17,3.42,2.14
6.2150,0.08,0.12,-0.99,3.30,2.99,1.89
6.2310,0.08,0.12,-0.98,3.36,3.30,2.01
6.2480,0.08,0.12,-0.98,3.05,2.99,2.14
6.2640,0.08,0.12,-0.98,3.05,3.17,2.08
6.2800,0.08,0.12,-0.98,3.36,3.05,1.95
6.2960,0.08,0.12,-0.98,3.30,3.11,1.95
6.3120,0.08,0.12,-0.98,2.99,3.11,2.01
6.3280,0.08,0.12,-0.98,2.87,3.11,1.95
6.3320,0.08,0.12,-0.98,3.23,3.11,2.01
6.3470,0.08,0.12,-0.98,3.54,2.99,2.14
6.3700,0.08,0.12,-0.98,3.30,3.23,1.95
6.3880,0.08,0.12,-0.98,3.36,2.93,2.08
6.4030,0.08,0.12,-0.98,3.11,3.05,2.20
6.4190,0.08,0.12,-0.98,3.17,3.30,1.95
6.4350,0.08,0.12,-0.98,3.23,3.05,2.08
6.4500,0.08,0.12,-0.98,3.36,3.05,2.08
6.4660,0.08,0.12,-0.98,3.30,3.11,2.14
6.4830,0.08,0.12,-0.98,3.11,3.05,1.95
6.4850,0.08,0.12,-0.98,2.93,3.17,2.14
6.5090,0.08,0.12,-0.98,2.99,3.23,2.08
6.5260,0.08,0.12,-0.99,3.11,3.23,2.08
6.5420,0.08,0.12,-0.98,3.23,3.17,2.01
6.5590,0.08,0.12,-0.98,2.99,2.99,2.01
6.5760,0.08,0.12,-0.98,3.05,3.36,2.14
6.5930,0.08,0.12,-0.98,3.17,3.23,2.01
6.6080,0.08,0.12,-0.98,3.30,2.93,2.01
6.6250,0.08,0.12,-0.98,3.11,3.36,2.14
6.6400,0.08,0.12,-0.98,3.36,2.99,1.89
6.6430,0.08,0.12,-0.98,3.17,2.93,2.01
6.6590,0.08,0.12,-0.98,3.17,2.87,2.01
6.6870,0.08,0.12,-0.98,3.05,2.93,2.14
6.6980,0.08,0.12,-0.98,3.17,2.87,2.14
6.7130,0.08,0.12,-0.98,3.05,3.36,2.08
6.7340,0.08,0.12,-0.98,3.17,2.99,2.01
6.7500,0.08,0.12,-0.98,3.23,3.17,2.01
6.7670,0.08,0.12,-0.98,2.99,3.36,1.95
6.7820,0.08,0.12,-0.98,2.99,3.48,2.01
6.7990,0.08,0.12,-0.98,3.11,2.93,2.01
6.8150,0.08,0.12,-0.98,3.30,3.11,1.89
6.8300,0.08,0.12,-0.98,3.30,3.17,2.01
6.8360,0.08,0.12,-0.98,3.23,2.93,2.01
6.8520,0.08,0.12,-0.98,2.93,3.11,2.01
6.8720,0.08,0.12,-0.98,2.93,3.11,2.01
6.8890,0.08,0.12,-0.98,2.81,3.05,1.95
6.9050,0.08,0.12,-0.98,3.11,3.11,2.01
6.9220,0.08,0.12,-0.98,3.23,3.48,1.89
6.9380,0.08,0.12,-0.98,3.23,3.17,2.14
6.9530,0.08,0.12,-0.98,3.11,3.48,2.08
6.9690,0.08,0.12,-0.98,3.11,3.48,2.14
6.9850,0.08,0.12,-0.98,3.11,3.23,1.95
6.9890,0.08,0.12,-0.98,3.05,3.30,1.89
7.0050,0.08,0.12,-0.98,3.36,2.99,2.01
7.0270,0.08,0.12,-0.98,3.48,3.30,1.89
7.0440,0.08,0.12,-0.98,3.36,3.05,2.14
7.0610,0.08,0.12,-0.98,3.42,3.17,2.08
7.0780,0.08,0.12,-0.98,3.36,3.23,2.14
7.0940,0.08,0.12,-0.98,3.60,3.17,2.14
7.1110,0.08,0.12,-0.98,3.11,3.60,2.14
7.1260,0.08,0.12,-0.98,3.23,2.99,1.83
7.1430,0.08,0.12,-0.98,3.30,3.36,2.08
7.1590,0.08,0.12,-0.98,3.23,2.93,2.14
7.1750,0.08,0.12,-0.98,3.17,3.60,2.01
7.1910,0.08,0.12,-0.98,3.11,3.36,2.20
7.2070,0.08,0.12,-0.98,3.36,2.93,1.95
7.2230,0.08,0.12,-0.98,3.23,3.42,2.08
7.2390,0.08,0.12,-0.98,3.30,3.30,2.08
7.2540,0.08,0.12,-0.98,3.17,3.36,2.26
7.2690,0.08,0.12,-0.98,3.11,3.17,2.14
7.2840,0.08,0.12,-0.98,3.23,3.05,2.01
7.2950,0.08,0.12,-0.99,3.30,3.05,2.01
7.3110,0.08,0.12,-0.98,3.23,3.23,2.14
7.3270,0.08,0.12,-0.98,3.23,3.48,2.01
7.3460,0.08,0.12,-0.98,3.42,3.17,2.08
7.3610,0.08,0.12,-0.98,3.36,3.11,2.32
7.3790,0.08,0.12,-0.98,3.42,3.54,2.20
7.3950,0.08,0.12,-0.99,3.23,3.11,2.01
7.4110,0.08,0.12,-0.98,3.36,3.30,2.08
7.4270,0.08,0.12,-0.98,3.23,3.11,2.01
7.4440,0.08,0.12,-0.98,3.23,3.11,2.20
7.4600,0.08,0.12,-0.98,3.17,3.23,2.08
7.4750,0.08,0.12,-0.98,3.42,3.42,2.14
7.4910,0.08,0.12,-0.98,3.42,3.23,2.20
7.4940,0.08,0.12,-0.98,3.48,3.42,2.08
7.5090,0.08,0.12,-0.98,3.30,2.93,2.01
7.5310,0.08,0.12,-0.98,3.30,2.87,2.01
7.5480,0.08,0.12,-0.98,3.30,3.05,1.89
7.5640,0.08,0.12,-0.99,3.30,3.48,2.01
7.5810,0.08,0.12,-0.98,3.23,3.17,2.20
7.5970,0.08,0.12,-0.98,3.05,3.23,2.14
7.6140,0.08,0.12,-0.98,3.17,3.36,2.20
7.6300,0.08,0.12,-0.98,3.23,3.36,2.20
7.6320,0.08,0.12,-0.98,3.36,3.05,1.89
7.6620,0.08,0.12,-0.98,3.11,3.36,2.01
7.6650,0.08,0.12,-0.98,3.17,3.42,2.01
7.6850,0.08,0.12,-0.98,3.23,3.48,2.01
7.7020,0.08,0.12,-0.98,3.17,3.42,2.14
7.7180,0.08,0.12,-0.98,3.36,3.78,2.01
7.7360,0.08,0.12,-0.98,3.23,3.05,2.08
7.7520,0.08,0.12,-0.98,3.17,3.36,2.20
7.7670,0.08,0.12,-0.98,3.17,3.66,2.20
7.7840,0.08,0.12,-0.98,3.11,3.54,2.01
7.7990,0.08,0.12,-0.98,2.99,3.23,2.26
7.8160,0.08,0.12,-0.98,3.17,3.60,2.20
7.8320,0.08,0.12,-0.98,3.17,3.54,2.08
7.8470,0.08,0.12,-0.98,3.17,3.30,2.08
7.8610,0.08,0.12,-0.98,3.23,3.30,2.01
7.8720,0.08,0.12,-0.98,3.23,3.05,2.14
7.8890,0.08,0.12,-0.98,3.17,3.30,2.01
7.9050,0.08,0.12,-0.98,3.30,3.17,2.14
7.9220,0.08,0.12,-0.98,3.30,3.30,2.01
7.9380,0.08,0.12,-0.98,3.23,2.93,2.01
7.9530,0.08,0.12,-0.98,3.23,3.42,2.08
7.9690,0.08,0.12,-0.98,3.30,3.17,2.20
7.9850,0.08,0.12,-0.98,3.30,3.11,2.01
7.9880,0.08,0.12,-0.98,3.11,3.17,2.01
8.0030,0.08,0.12,-0.98,3.42,3.54,1.95
8.0270,0.08,0.12,-0.98,3.23,3.42,2.20
8.0430,0.08,0.12,-0.98,3.17,3.54,2.08
8.0600,0.08,0.12,-0.98,3.11,3.23,2.08
8.0770,0.08,0.12,-0.98,3.23,3.05,2.08
8.0930,0.08,0.12,-0.98,2.99,3.36,2.14
8.1100,0.08,0.12,-0.98,3.05,3.30,2.20
8.1260,0.08,0.12,-0.98,3.05,3.17,1.95
8.1430,0.08,0.12,-0.98,3.11,3.60,2.08
8.1590,0.08,0.12,-0.98,3.17,3.11,2.01
8.1750,0.08,0.12,-0.98,3.23,3.36,2.01
8.1910,0.08,0.12,-0.98,2.93,3.42,2.08
8.1950,0.08,0.12,-0.98,2.99,3.48,2.08
8.2100,0.08,0.12,-0.98,3.11,3.30,2.08
8.2260,0.08,0.12,-0.98,3.23,3.42,2.14
8.2540,0.08,0.12,-0.98,3.05,3.30,2.14
8.2640,0.08,0.12,-0.98,3.11,3.66,2.08
8.2800,0.08,0.12,-0.98,3.23,3.60,2.20
8.2970,0.08,0.12,-0.98,3.17,3.36,1.95
8.3130,0.08,0.12,-0.98,3.17,3.36,2.01
8.3300,0.08,0.12,-0.98,3.23,3.17,2.20
8.3470,0.08,0.12,-0.98,3.11,3.48,2.14
8.3620,0.08,0.12,-0.98,3.05,3.48,2.01
8.3780,0.08,0.12,-0.98,3.11,3.23,2.08
8.3940,0.08,0.12,-0.98,3.17,3.17,2.08
8.3970,0.08,0.12,-0.98,3.11,3.23,2.20
8.4130,0.08,0.12,-0.98,2.69,3.30,1.89
8.4410,0.08,0.12,-0.98,2.87,3.72,2.01
8.4520,0.08,0.12,-0.98,3.05,3.23,2.14
8.4670,0.08,0.13,-0.98,2.81,3.48,1.95
8.4850,0.08,0.12,-0.98,2.69,3.60,2.01
8.5020,0.08,0.12,-0.98,2.87,3.30,2.08
8.5180,0.08,0.12,-0.98,2.99,3.36,2.01
8.5340,0.08,0.12,-0.98,2.93,3.36,2.14
8.5490,0.09,0.14,-0.98,3.30,2.99,2.99
8.5650,0.08,0.12,-0.98,3.11,3.48,2.26
8.5810,0.08,0.12,-0.98,3.23,3.23,2.14
8.5970,0.08,0.12,-0.98,3.36,3.17,2.32
8.6130,0.08,0.11,-0.98,3.36,2.99,2.38
8.6180,0.08,0.12,-0.98,3.42,3.42,2.87
8.6330,0.08,0.11,-0.98,3.42,3.48,2.08
8.6570,0.08,0.12,-0.98,3.54,3.17,2.44
8.6730,0.08,0.13,-0.98,3.42,3.54,2.32
8.6900,0.08,0.13,-0.98,3.36,3.36,2.75
8.7050,0.08,0.13,-0.98,3.23,3.36,3.66
8.7210,0.09,0.13,-0.98,3.17,3.60,3.78
8.7360,0.08,0.11,-0.99,3.17,3.17,3.36
8.7410,0.08,0.13,-0.98,3.23,3.23,3.66
8.7570,0.08,0.12,-0.98,3.11,2.99,4.15
8.7800,0.08,0.12,-0.98,3.36,3.05,3.91
8.7960,0.08,0.12,-0.98,3.30,3.17,3.66
8.8130,0.08,0.12,-0.98,3.17,2.93,3.30
8.8280,0.08,0.12,-0.98,3.36,2.99,3.48
8.8460,0.08,0.12,-0.98,3.11,3.30,3.54
8.8620,0.08,0.13,-0.98,2.99,3.17,3.91
8.8780,0.08,0.12,-0.98,2.99,3.42,4.21
8.8940,0.08,0.12,-0.98,3.11,3.05,3.97
8.9100,0.08,0.11,-0.98,2.99,2.93,3.42
8.9250,0.08,0.11,-0.99,3.05,3.11,3.36
8.9400,0.08,0.11,-0.98,2.99,3.23,2.62
8.9510,0.08,0.12,-0.98,3.11,3.17,2.69
8.9670,0.08,0.12,-0.98,3.23,3.42,2.50
8.9830,0.08,0.12,-0.98,2.99,3.30,2.56
9.0000,0.08,0.12,-0.98,3.23,2.99,2.50
9.0050,0.08,0.13,-0.98,3.11,3.36,2.87
9.0210,0.08,0.12,-0.98,3.11,3.11,2.99
9.0370,0.08,0.13,-0.98,3.11,2.99,3.05
9.0560,0.08,0.12,-0.98,3.17,3.17,2.81
9.0730,0.08,0.12,-0.98,3.05,3.17,3.05
9.0890,0.08,0.12,-0.98,2.87,3.42,3.23
9.1050,0.08,0.12,-0.98,3.11,3.17,3.11
9.1220,0.08,0.12,-0.98,3.05,2.99,3.17
9.1390,0.08,0.12,-0.98,2.99,3.11,3.17
9.1550,0.08,0.12,-0.98,2.93,3.11,3.17
9.1690,0.08,0.13,-0.98,2.99,3.11,3.11
9.1840,0.08,0.12,-0.98,3.30,3.17,3.11
9.1990,0.08,0.12,-0.98,3.11,3.17,3.23
9.2150,0.08,0.12,-0.98,2.99,3.30,2.81
9.2300,0.08,0.12,-0.98,3.05,3.11,2.93
9.2450,0.08,0.12,-0.98,3.05,3.05,2.75
9.2560,0.08,0.12,-0.98,3.05,2.69,2.81
9.2730,0.08,0.12,-0.98,2.99,2.69,2.69
9.2890,0.08,0.12,-0.98,3.11,3.17,2.32
9.3060,0.08,0.12,-0.98,3.17,3.11,2.44
9.3220,0.08,0.12,-0.99,3.05,3.66,2.62
9.3380,0.08,0.12,-0.98,2.93,3.42,2.26
9.3540,0.08,0.12,-0.98,3.05,3.36,2.14
9.3680,0.08,0.12,-0.98,3.36,3.36,2.01
9.3780,0.08,0.12,-0.98,3.17,3.54,2.08
9.3930,0.08,0.12,-0.98,3.30,3.23,1.95
9.4150,0.08,0.12,-0.98,3.30,3.36,2.14
9.4310,0.08,0.12,-0.98,3.23,3.11,2.20
9.4330,0.08,0.12,-0.98,3.17,3.36,2.01
9.4480,0.08,0.12,-0.98,3.30,3.54,2.01
9.4780,0.08,0.12,-0.98,3.36,3.54,2.14
9.4860,0.08,0.12,-0.98,3.72,3.17,2.01
9.4970,0.08,0.12,-0.98,3.66,2.93,1.71
9.5190,0.08,0.12,-0.98,3.42,3.54,1.59
9.5370,0.08,0.11,-0.98,3.48,3.54,0.24
9.5530,0.08,0.12,-0.98,3.85,3.60,-0.49
9.5690,0.08,0.12,-0.98,3.78,3.66,-0.24
9.5850,0.08,0.11,-0.98,3.66,3.23,0.37
9.6010,0.08,0.11,-0.99,3.30,3.36,0.79
9.6170,0.09,0.11,-0.98,3.72,3.30,1.28
9.6330,0.08,0.12,-0.98,3.48,3.30,0.43
9.6480,0.08,0.12,-0.98,3.42,3.30,0.18
9.6630,0.08,0.12,-0.98,3.42,3.36,0.12
9.6780,0.08,0.13,-0.98,3.54,3.30,0.31
9.6930,0.09,0.14,-0.98,3.36,3.66,0.92
9.7020,0.08,0.13,-0.98,3.36,3.05,1.04
9.7240,0.08,0.13,-0.98,3.17,3.23,1.40
9.7370,0.08,0.13,-0.98,3.23,3.42,1.28
9.7530,0.08,0.12,-0.98,3.17,3.54,1.89
9.7680,0.08,0.13,-0.98,3.48,2.93,1.95
9.7850,0.08,0.12,-0.98,3.36,3.11,2.38
9.8000,0.08,0.12,-0.98,3.23,2.75,2.14
9.8160,0.08,0.12,-0.98,3.54,2.69,2.26
9.8320,0.08,0.12,-0.98,3.23,3.11,2.26
9.8360,0.08,0.12,-0.98,3.23,3.36,2.20
9.8630,0.08,0.12,-0.98,3.17,3.36,2.14
9.8780,0.08,0.12,-0.98,3.05,3.17,2.26
9.8880,0.08,0.13,-0.98,2.99,3.23,2.44
9.9040,0.08,0.13,-0.98,2.81,3.05,4.33
9.9210,0.08,0.13,-0.98,2.69,2.93,5.37
9.9380,0.09,0.13,-0.98,2.32,2.75,5.86
9.9530,0.08,0.13,-0.98,2.81,2.87,5.62
9.9690,0.09,0.13,-0.98,2.87,2.87,5.92
9.9840,0.08,0.13,-0.98,2.87,2.87,5.25
9.9990,0.08,0.12,-0.98,2.93,2.99,5.00
10.0130,0.08,0.12,-0.98,2.81,2.81,4.58
10.0280,0.08,0.12,-0.98,2.99,3.11,4.52
10.0380,0.08,0.12,-0.98,2.93,3.17,4.03
10.0540,0.08,0.13,-0.98,3.11,2.99,3.85
10.0710,0.08,0.13,-0.98,3.05,3.05,4.21
10.0880,0.08,0.13,-0.98,3.05,2.75,4.94
10.1040,0.08,0.13,-0.98,2.56,2.69,5.37
10.1190,0.08,0.12,-0.98,2.87,3.17,4.94
10.1350,0.08,0.11,-0.98,2.81,3.23,4.27
10.1500,0.08,0.11,-0.99,2.87,2.81,4.09
10.1650,0.08,0.11,-0.99,2.81,3.48,3.72
10.1800,0.08,0.12,-0.98,2.99,2.99,3.60
10.1880,0.08,0.13,-0.98,2.93,3.30,3.11
10.2040,0.08,0.13,-0.98,3.05,2.87,3.36
10.2250,0.08,0.13,-0.98,3.11,2.69,3.97
10.2420,0.08,0.13,-0.98,2.75,2.75,5.13
10.2580,0.08,0.13,-0.98,2.50,2.69,5.62
10.2740,0.08,0.12,-0.98,2.56,2.93,5.43
10.2900,0.08,0.11,-0.99,2.62,2.75,4.70
10.2920,0.08,0.10,-0.99,2.69,3.17,3.66
10.3080,0.08,0.10,-0.99,2.56,3.11,2.93
10.3300,0.08,0.11,-0.98,2.75,3.30,2.62
10.3470,0.08,0.12,-0.98,2.93,3.17,2.38
10.3640,0.08,0.13,-0.98,2.93,3.30,2.50
10.3800,0.09,0.14,-0.98,2.93,3.23,3.05
10.3970,0.08,0.13,-0.98,2.81,3.36,2.87
10.4130,0.08,0.13,-0.98,2.81,2.99,3.42
10.4290,0.08,0.12,-0.98,2.69,3.23,3.78
10.4450,0.08,0.12,-0.98,2.81,2.56,4.09
10.4610,0.08,0.12,-0.99,2.87,2.99,3.54
10.4760,0.08,0.12,-0.98,2.87,3.05,3.48
10.4910,0.08,0.12,-0.98,2.93,2.99,3.11
10.4970,0.08,0.13,-0.98,3.05,3.11,2.99
10.5120,0.08,0.12,-0.98,2.99,3.23,3.85
10.5340,0.08,0.13,-0.98,2.87,3.36,3.91
10.5500,0.08,0.12,-0.98,3.05,3.05,4.15
10.5660,0.08,0.12,-0.98,2.81,2.99,3.72
10.5810,0.08,0.12,-0.98,3.05,2.81,3.78
10.5970,0.08,0.11,-0.99,2.93,3.30,3.60
10.6120,0.08,0.12,-0.98,2.99,2.69,3.60
10.6230,0.08,0.12,-0.98,3.05,3.05,3.66
10.6400,0.08,0.12,-0.98,2.87,3.05,3.72
10.6560,0.08,0.13,-0.98,2.93,2.81,3.42
10.6730,0.08,0.12,-0.98,2.87,2.99,3.42
10.6900,0.08,0.12,-0.98,2.81,3.30,3.23
10.7050,0.08,0.12,-0.99,3.05,3.23,3.54
10.7200,0.08,0.12,-0.98,3.23,2.81,3.78
10.7360,0.08,0.12,-0.99,2.99,2.99,3.91
10.7520,0.08,0.12,-0.98,3.11,3.11,3.42
10.7670,0.08,0.12,-0.99,3.11,2.87,3.48
10.7830,0.08,0.11,-0.99,3.05,2.99,2.87
10.8000,0.08,0.12,-0.98,2.99,2.99,2.50
10.8060,0.08,0.11,-0.99,2.99,3.42,2.08
10.8220,0.08,0.12,-0.98,2.99,3.17,2.50
10.8460,0.08,0.12,-0.98,2.99,3.30,2.62
10.8610,0.08,0.12,-0.98,2.87,2.75,3.23
10.8630,0.08,0.12,-0.98,2.93,2.93,3.23
10.8920,0.08,0.12,-0.98,2.69,3.30,3.30
10.9090,0.08,0.12,-0.98,2.93,2.93,3.23
10.9240,0.08,0.11,-0.98,2.93,3.05,3.17
10.9280,0.08,0.12,-0.98,2.99,3.11,2.87
10.9460,0.08,0.12,-0.98,2.93,3.30,2.87
10.9620,0.08,0.13,-0.98,2.93,2.93,3.23
10.9780,0.08,0.13,-0.98,3.05,3.17,3.36
10.9990,0.08,0.13,-0.98,2.81,2.99,3.42
11.0160,0.08,0.12,-0.98,3.11,3.23,3.72
11.0330,0.08,0.12,-0.98,3.05,3.05,3.36
11.0330,0.08,0.12,-0.98,2.93,2.99,3.54
11.0630,0.08,0.12,-0.98,3.05,3.17,3.85
11.0670,0.08,0.11,-0.99,2.93,2.99,3.78
11.0880,0.08,0.12,-0.98,2.81,3.11,3.60
11.1070,0.08,0.11,-0.98,2.87,3.36,3.11
11.1240,0.08,0.11,-0.98,2.93,3.30,2.75
11.1390,0.08,0.12,-0.98,2.93,3.05,2.56
11.1490,0.08,0.12,-0.98,2.99,3.11,2.44
11.1660,0.08,0.13,-0.98,3.17,3.11,2.99
11.1820,0.08,0.12,-0.98,3.23,3.42,3.11
11.2000,0.08,0.12,-0.98,3.11,3.23,3.30
11.2160,0.08,0.12,-0.98,2.99,3.30,3.17
11.2320,0.08,0.12,-0.98,3.05,3.05,3.23
11.2470,0.08,0.12,-0.98,2.93,3.54,3.48
11.2640,0.08,0.11,-0.98,2.99,3.17,3.05
11.2790,0.08,0.12,-0.98,2.99,3.05,3.05
11.2940,0.08,0.12,-0.98,3.05,3.11,3.05
11.3100,0.08,0.13,-0.98,3.11,3.23,3.42
11.3160,0.08,0.12,-0.98,2.99,3.11,3.48
11.3310,0.08,0.12,-0.98,2.93,2.93,4.03
11.3520,0.08,0.12,-0.98,2.81,2.93,3.66
11.3680,0.08,0.12,-0.98,2.81,2.93,3.78
11.3860,0.08,0.12,-0.98,3.17,3.11,3.78
11.4020,0.08,0.12,-0.98,3.05,3.05,4.09
11.4180,0.08,0.12,-0.98,3.05,2.62,4.09
11.4330,0.08,0.12,-0.98,2.93,3.30,3.66
11.4500,0.08,0.12,-0.98,3.11,3.11,3.30
11.4650,0.08,0.12,-0.98,3.05,3.30,3.23
11.4800,0.08,0.12,-0.98,3.11,3.11,3.17
11.4960,0.08,0.12,-0.98,2.99,3.17,3.11
11.5110,0.08,0.12,-0.98,3.05,3.05,3.78
11.5200,0.08,0.12,-0.98,3.23,2.81,3.66
11.5350,0.08,0.12,-0.98,3.11,2.75,3.85
11.5570,0.08,0.12,-0.98,3.11,2.62,3.78
11.5740,0.08,0.12,-0.98,3.23,2.50,3.66
11.5890,0.08,0.11,-0.98,3.11,2.81,2.93
11.6040,0.08,0.11,-0.99,3.11,3.30,2.62
11.6190,0.08,0.12,-0.98,3.11,3.23,2.56
11.6250,0.08,0.12,-0.98,3.30,3.17,2.50
11.6410,0.08,0.12,-0.98,3.11,3.17,2.69
11.6640,0.08,0.12,-0.98,2.99,3.17,2.56
11.6800,0.08,0.12,-0.98,2.99,2.93,2.87
11.6960,0.08,0.10,-0.98,2.93,3.23,2.20
11.7110,0.08,0.11,-0.98,3.17,2.93,2.32
11.7270,0.08,0.12,-0.98,2.99,3.11,2.20
11.7420,0.08,0.12,-0.98,3.36,3.11,2.56
11.7570,0.08,0.12,-0.98,3.05,3.17,2.50
11.7740,0.09,0.13,-0.98,2.93,3.05,2.81
11.7890,0.08,0.12,-0.98,3.23,3.17,2.87
11.8040,0.08,0.13,-0.98,2.99,2.99,3.36
11.8200,0.08,0.12,-0.99,3.17,3.30,3.66
11.8300,0.08,0.12,-0.99,2.75,2.87,4.03
11.8460,0.08,0.12,-0.98,2.99,2.50,3.85
11.8630,0.08,0.12,-0.98,3.05,3.23,3.54
11.8800,0.08,0.12,-0.98,3.30,3.11,3.54
11.8960,0.08,0.12,-0.98,3.17,3.23,2.99
11.9130,0.08,0.12,-0.99,3.23,3.11,2.99
11.9290,0.08,0.12,-0.98,3.23,3.42,2.69
11.9440,0.08,0.12,-0.98,3.42,3.17,2.50
11.9600,0.08,0.13,-0.98,3.23,3.36,2.56
11.9760,0.08,0.12,-0.98,3.48,3.30,2.50
11.9910,0.08,0.12,-0.98,3.17,3.23,2.81
11.9970,0.08,0.12,-0.98,3.36,3.17,2.56
12.0120,0.08,0.12,-0.98,3.05,3.30,2.56
12.0360,0.08,0.11,-0.98,3.11,3.23,2.44
12.0520,0.08,0.12,-0.98,3.23,3.17,2.32
12.0540,0.08,0.12,-0.98,3.23,3.23,2.50
12.0700,0.08,0.13,-0.98,3.36,3.05,2.62
12.0980,0.08,0.13,-0.98,3.30,3.60,3.05
12.1130,0.08,0.13,-0.98,3.23,2.93,3.30
12.1250,0.08,0.12,-0.98,3.11,3.17,3.60
12.1420,0.08,0.12,-0.98,3.11,3.17,4.03
12.1580,0.08,0.11,-0.99,2.99,3.11,3.66
12.1740,0.08,0.12,-0.98,3.05,3.05,3.30
12.1880,0.08,0.12,-0.98,3.23,3.42,3.54
12.2040,0.08,0.12,-0.98,2.99,3.23,3.36
12.2190,0.08,0.12,-0.98,3.17,3.23,3.17
12.2340,0.09,0.13,-0.98,3.17,3.30,3.48
12.2490,0.08,0.12,-0.98,3.30,2.81,3.91
12.2630,0.08,0.12,-0.98,3.11,3.05,3.97
12.2750,0.08,0.12,-0.98,3.23,2.87,4.21
12.2920,0.08,0.11,-0.98,2.93,2.81,3.85
12.3080,0.08,0.11,-0.99,3.05,2.69,2.87
12.3240,0.08,0.12,-0.98,2.99,2.93,2.87
12.3400,0.08,0.12,-0.98,2.93,3.05,2.69
12.3430,0.08,0.13,-0.98,3.30,3.23,2.99
12.3580,0.08,0.12,-0.98,2.87,3.36,2.81
12.3800,0.09,0.15,-0.98,3.36,3.30,2.50
12.3960,0.08,0.12,-0.98,3.23,3.17,2.56
12.4130,0.08,0.12,-0.98,3.23,3.05,2.93
12.4300,0.08,0.12,-0.98,3.05,3.23,3.11
12.4460,0.08,0.12,-0.98,2.99,2.81,3.91
12.4620,0.08,0.12,-0.98,2.93,2.87,3.85
12.4780,0.08,0.12,-0.98,2.69,3.17,3.54
12.4940,0.08,0.12,-0.99,3.05,3.23,3.23
12.5100,0.08,0.12,-0.98,3.11,3.23,3.54
12.5130,0.08,0.10,-0.98,3.05,3.11,3.72
12.5290,0.08,0.12,-0.99,2.87,3.05,3.72
12.5510,0.08,0.12,-0.98,2.81,2.99,3.60
12.5680,0.08,0.12,-0.98,2.99,2.87,3.66
12.5840,0.08,0.12,-0.98,2.87,2.75,3.66
12.6000,0.08,0.12,-0.98,3.05,3.05,3.85
12.6160,0.08,0.12,-0.98,2.87,2.99,3.85
12.6180,0.08,0.12,-0.98,2.87,2.93,4.39
12.6480,0.09,0.12,-0.98,2.81,2.81,4.21
12.6640,0.08,0.12,-0.98,2.81,2.81,3.78
12.6800,0.09,0.13,-0.98,2.87,2.87,4.03
12.6950,0.08,0.12,-0.98,2.87,3.17,3.97
12.7010,0.08,0.12,-0.98,2.93,2.99,4.39
12.7180,0.08,0.12,-0.99,2.93,2.81,4.46
12.7400,0.08,0.12,-0.98,2.44,3.11,4.15
12.7510,0.08,0.12,-0.98,2.93,2.93,4.09
12.7670,0.08,0.12,-0.99,2.93,3.42,3.91
12.7840,0.08,0.12,-0.98,2.87,2.87,3.78
12.8000,0.08,0.12,-0.98,2.75,3.17,3.54
12.8150,0.09,0.13,-0.98,2.93,2.99,4.33
12.8300,0.08,0.13,-0.98,3.11,2.93,4.82
12.8460,0.08,0.12,-0.98,2.87,2.69,4.94
12.8620,0.08,0.12,-0.98,2.62,2.87,4.88
12.8780,0.08,0.12,-0.98,2.44,2.56,5.00
12.8930,0.08,0.12,-0.99,2.75,2.50,4.88
12.9000,0.08,0.11,-0.99,2.81,2.56,4.15
12.9160,0.08,0.11,-0.99,2.75,2.81,3.97
12.9370,0.08,0.12,-0.99,2.75,2.56,3.91
12.9530,0.08,0.12,-0.98,2.69,3.23,3.91
12.9690,0.08,0.12,-0.98,2.75,2.81,3.78
12.9850,0.08,0.12,-0.98,2.81,3.36,3.97
12.9890,0.08,0.12,-0.98,2.93,2.99,4.03
13.0030,0.08,0.12,-0.99,2.99,2.75,3.91
13.0310,0.08,0.11,-0.98,3.05,3.11,3.91
13.0460,0.08,0.11,-0.98,2.99,2.99,4.15
13.0580,0.08,0.11,-0.98,2.87,2.75,3.97
13.0750,0.08,0.12,-0.99,2.81,2.75,3.97
13.0910,0.08,0.11,-0.99,2.75,3.17,4.03
13.1070,0.08,0.12,-0.98,2.56,3.23,3.85
13.1220,0.09,0.13,-0.98,2.87,2.62,3.85
13.1380,0.09,0.13,-0.98,3.11,2.81,4.09
13.1530,0.08,0.13,-0.98,3.05,2.81,4.70
13.1690,0.09,0.12,-0.98,2.56,2.62,5.19
13.1840,0.08,0.11,-0.98,2.81,3.17,4.82
13.1990,0.08,0.11,-0.98,2.75,2.99,4.52
13.2080,0.08,0.11,-0.99,2.93,2.87,4.27
13.2240,0.08,0.11,-0.98,2.81,2.81,4.15
13.2460,0.08,0.12,-0.98,3.05,3.11,4.39
13.2630,0.08,0.11,-0.98,2.81,3.17,4.21
13.2780,0.09,0.12,-0.98,2.75,3.05,4.09
13.2890,0.08,0.12,-0.98,3.11,2.99,4.21
13.3080,0.09,0.12,-0.98,2.69,3.17,4.52
13.3230,0.09,0.12,-0.99,3.11,2.99,4.58
13.3290,0.08,0.11,-0.98,3.05,2.87,4.39
13.3560,0.08,0.12,-0.98,2.93,2.99,4.15
13.3630,0.08,0.12,-0.99,2.93,3.23,4.15
13.3780,0.08,0.12,-0.99,3.11,3.17,3.97
13.3970,0.08,0.12,-0.98,2.87,2.93,3.30
13.4120,0.09,0.12,-0.98,3.05,2.99,4.15
13.4320,0.08,0.12,-0.98,2.93,3.05,4.21
13.4470,0.08,0.12,-0.98,2.81,3.17,4.15
13.4510,0.08,0.12,-0.98,2.87,3.05,4.39
13.4780,0.08,0.12,-0.99,2.81,2.81,4.15
13.4940,0.08,0.12,-0.99,3.42,2.99,3.97
13.5100,0.08,0.11,-0.99,3.05,3.17,3.23
13.5260,0.08,0.11,-0.99,3.11,3.30,3.17
13.5410,0.08,0.12,-0.98,2.87,3.05,2.87
13.5510,0.08,0.12,-0.98,3.23,2.93,2.93
13.5660,0.08,0.12,-0.99,3.23,2.87,2.69
13.5830,0.08,0.13,-0.98,3.17,3.30,2.62
13.6000,0.08,0.12,-0.99,3.48,2.81,3.66
13.6150,0.07,0.11,-0.98,3.05,3.23,3.78
13.6310,0.09,0.12,-0.98,2.99,3.05,4.64
13.6460,0.08,0.12,-0.98,3.42,2.99,4.21
13.6610,0.08,0.12,-0.98,3.36,2.99,4.58
13.6680,0.08,0.12,-0.98,2.99,3.17,4.21
13.6910,0.09,0.12,-0.98,3.05,3.11,4.52
13.7000,0.08,0.12,-0.99,3.05,3.11,4.27
13.7230,0.08,0.12,-0.98,3.23,3.05,4.82
13.7390,0.08,0.12,-0.98,2.75,2.81,4.58
13.7560,0.09,0.13,-0.98,2.93,2.81,5.13
13.7710,0.08,0.14,-0.98,3.23,2.81,5.19
13.7860,0.08,0.11,-0.98,3.54,2.56,4.94
13.8020,0.09,0.11,-0.98,3.42,2.69,5.07
13.8180,0.08,0.11,-0.99,2.93,2.81,4.15
13.8220,0.09,0.11,-0.98,2.93,2.99,4.09
13.8500,0.08,0.12,-0.99,3.30,2.81,3.97
13.8650,0.08,0.12,-0.98,3.36,2.93,3.54
13.8820,0.08,0.12,-0.99,3.23,2.93,3.48
13.8910,0.08,0.12,-0.98,3.11,2.87,4.09
13.9050,0.09,0.13,-0.98,2.99,2.50,4.52
13.9250,0.08,0.12,-0.99,3.17,3.05,4.09
13.9420,0.08,0.11,-0.99,2.93,2.81,3.91
13.9570,0.08,0.11,-0.98,2.69,3.36,3.17
13.9730,0.08,0.11,-0.98,2.93,2.75,2.56
13.9760,0.08,0.12,-0.98,3.05,2.87,3.23
13.9920,0.08,0.13,-0.98,3.05,2.93,3.54
14.0190,0.08,0.13,-0.98,2.99,3.17,4.03
14.0300,0.09,0.13,-0.98,3.11,2.38,4.76
14.0460,0.08,0.12,-0.98,2.99,2.75,5.31
14.0620,0.08,0.11,-0.98,2.99,2.56,4.76
14.0780,0.08,0.11,-0.99,2.81,2.69,4.70
14.0910,0.08,0.11,-0.99,2.87,2.81,4.52
14.1040,0.08,0.12,-0.98,3.05,3.17,4.88
14.1200,0.08,0.11,-0.98,2.93,2.69,5.00
14.1360,0.08,0.11,-0.99,2.93,2.62,4.70
14.1530,0.09,0.13,-0.98,2.75,2.99,4.70
14.1700,0.09,0.12,-0.99,3.17,2.56,4.88
14.1860,0.08,0.12,-0.99,2.93,2.99,5.00
14.1910,0.08,0.12,-0.98,2.81,2.99,5.13
14.2030,0.08,0.12,-0.99,3.36,2.75,4.82
14.2320,0.08,0.11,-0.98,3.23,3.11,4.21
14.2470,0.08,0.11,-0.99,2.93,2.99,4.09
14.2580,0.09,0.12,-0.99,3.17,2.99,4.21
14.2740,0.08,0.12,-0.98,3.23,2.99,3.72
14.2910,0.08,0.12,-0.99,3.17,2.75,3.78
14.3070,0.08,0.13,-0.98,3.23,2.75,3.97
14.3240,0.09,0.13,-0.98,3.23,2.75,4.21
14.3400,0.09,0.13,-0.98,3.30,2.38,5.07
14.3560,0.09,0.12,-0.98,2.87,2.75,5.37
14.3700,0.08,0.12,-0.98,3.23,2.56,4.76
14.3860,0.08,0.12,-0.98,3.17,2.87,4.70
14.3920,0.08,0.11,-0.99,2.93,2.93,4.70
14.4080,0.08,0.12,-0.98,2.99,2.32,5.13
14.4270,0.08,0.12,-0.98,2.93,2.75,5.55
14.4430,0.09,0.13,-0.98,3.05,2.75,5.80
14.4600,0.09,0.12,-0.98,2.99,2.38,6.53
14.4760,0.08,0.12,-0.98,2.81,2.56,6.29
14.4920,0.08,0.12,-0.98,2.69,2.69,5.92
14.4980,0.08,0.11,-0.98,2.99,2.44,5.25
14.5150,0.08,0.12,-0.98,2.87,2.75,5.13
14.5370,0.08,0.11,-0.98,2.93,3.36,4.58
14.5480,0.08,0.12,-0.98,2.99,2.87,3.91
14.5650,0.08,0.11,-0.99,3.17,2.93,3.85
14.5820,0.08,0.12,-0.98,2.99,3.05,4.09
14.5980,0.09,0.13,-0.98,3.17,2.56,4.33
14.6140,0.08,0.12,-0.98,2.99,2.99,4.39
14.6300,0.08,0.12,-0.98,3.11,2.62,3.97
14.6330,0.08,0.12,-0.98,3.17,3.05,3.91
14.6610,0.08,0.11,-0.98,3.11,2.81,3.66
14.6760,0.08,0.11,-0.98,3.05,2.87,3.48
14.6920,0.08,0.11,-0.98,2.93,3.23,3.11
14.7070,0.08,0.12,-0.98,2.99,2.99,2.87
14.7220,0.08,0.12,-0.98,3.05,3.05,2.75
14.7320,0.09,0.13,-0.98,3.05,3.48,3.42
14.7480,0.09,0.13,-0.98,3.17,3.30,3.72
14.7690,0.09,0.13,-0.98,3.11,3.17,4.52
14.7840,0.09,0.13,-0.98,2.87,2.87,5.31
14.8000,0.08,0.11,-0.99,3.11,2.81,4.88
14.8150,0.07,0.11,-0.99,3.11,2.56,4.46
14.8210,0.08,0.12,-0.99,2.87,2.81,5.37
14.8370,0.09,0.12,-0.98,3.11,2.81,5.25
14.8600,0.08,0.12,-0.98,3.05,2.75,5.25
14.8760,0.08,0.12,-0.98,2.75,2.87,5.68
14.8930,0.08,0.12,-0.98,2.99,2.93,5.19
14.9090,0.08,0.12,-0.98,2.75,2.75,5.13
14.9260,0.08,0.12,-0.98,2.93,3.05,4.76
14.9420,0.08,0.11,-0.98,2.99,2.99,4.76
14.9570,0.08,0.11,-0.98,2.75,2.69,4.27
14.9600,0.09,0.11,-0.98,2.62,2.87,3.72
14.9750,0.08,0.12,-0.98,2.99,3.11,3.17
15.0040,0.08,0.12,-0.98,3.05,3.05,3.05
15.0150,0.08,0.13,-0.98,2.99,3.17,3.23
15.0320,0.08,0.13,-0.98,3.05,3.05,3.97
15.0490,0.09,0.13,-0.98,3.05,2.87,5.13
15.0650,0.09,0.12,-0.98,3.05,2.99,4.58
15.0810,0.08,0.11,-0.99,3.11,2.93,4.03
15.0960,0.08,0.11,-0.99,2.87,2.99,2.93
15.1110,0.09,0.13,-0.98,2.87,3.48,2.69
15.1270,0.08,0.13,-0.98,3.36,3.05,3.54
15.1320,0.08,0.12,-0.98,2.93,2.75,3.72
15.1480,0.08,0.12,-0.98,2.81,2.69,3.54
15.1690,0.09,0.12,-0.98,2.81,2.62,3.78
15.1870,0.08,0.10,-0.99,2.93,2.69,3.30
15.2040,0.08,0.10,-0.99,2.87,3.36,2.69
15.2180,0.08,0.12,-0.98,3.30,3.36,2.20
15.2350,0.08,0.12,-0.98,3.36,3.30,1.83
15.2500,0.09,0.12,-0.98,3.30,3.30,2.14
15.2650,0.08,0.12,-0.98,3.05,3.42,2.20
15.2820,0.08,0.12,-0.98,3.11,3.36,1.95
15.2970,0.08,0.12,-0.98,3.23,3.05,2.08
15.3120,0.08,0.12,-0.98,3.30,3.11,2.14
15.3190,0.08,0.12,-0.98,3.54,3.36,2.01
15.3350,0.09,0.12,-0.98,4.09,3.11,2.08
15.3580,0.08,0.12,-0.99,4.58,2.87,1.89
15.3730,0.08,0.12,-0.99,4.52,2.75,1.71
15.3900,0.09,0.13,-0.99,4.33,2.69,1.83
15.4060,0.08,0.12,-0.98,4.09,2.81,1.95
15.4220,0.08,0.12,-0.98,3.17,3.42,2.01
15.4380,0.08,0.12,-0.99,3.05,3.11,2.01
15.4400,0.08,0.12,-0.98,2.62,3.48,2.14
15.4560,0.11,0.13,-1.02,2.81,3.54,1.95
15.4780,0.08,0.13,-0.98,3.11,3.36,2.20
15.4980,0.08,0.12,-0.98,2.75,3.30,2.08
15.5110,0.09,0.12,-0.98,3.36,2.99,2.01
15.5270,0.08,0.12,-0.98,3.11,3.54,2.26
15.5430,0.08,0.12,-0.98,3.17,3.30,2.01
15.5600,0.08,0.12,-0.98,3.30,3.17,2.14
15.5770,0.08,0.12,-0.98,3.42,2.99,2.14
15.5940,0.08,0.12,-0.98,3.23,3.23,2.14
15.6100,0.08,0.12,-0.98,3.23,3.11,2.14
15.6260,0.09,0.12,-0.98,3.23,3.60,2.20
15.6420,0.08,0.12,-0.98,3.23,3.30,2.08
15.6440,0.08,0.12,-0.98,3.30,3.23,1.95
15.6740,0.08,0.12,-0.98,3.42,3.23,2.20
15.6900,0.08,0.12,-0.98,3.42,3.17,2.08
15.7060,0.08,0.12,-0.98,3.23,2.93,2.08
15.7110,0.08,0.12,-0.98,3.42,3.17,1.89
15.7270,0.08,0.12,-0.98,3.30,3.36,2.14
15.7480,0.08,0.12,-0.98,3.17,3.17,2.32
15.7640,0.08,0.12,-0.98,3.72,2.75,2.08
15.7820,0.08,0.12,-0.98,3.30,3.23,2.08
15.8000,0.08,0.12,-0.98,3.23,2.99,2.20
15.8150,0.08,0.12,-0.98,3.36,3.11,2.08
15.8310,0.08,0.12,-0.98,3.30,3.23,1.95
15.8480,0.08,0.12,-0.98,3.17,3.48,1.95
15.8630,0.08,0.12,-0.98,3.23,3.11,2.08
15.8800,0.08,0.12,-0.98,3.30,3.05,2.08
15.8960,0.09,0.12,-0.98,3.05,2.99,2.01
15.9120,0.08,0.12,-0.98,3.23,3.36,2.01
15.9140,0.09,0.12,-0.98,3.36,3.36,2.08
15.9300,0.08,0.12,-0.98,3.42,3.11,2.26
15.9580,0.08,0.12,-0.98,3.23,3.23,2.14
15.9690,0.08,0.12,-0.98,3.42,3.30,2.01
15.9870,0.08,0.12,-0.98,3.11,2.81,1.89
16.0030,0.08,0.12,-0.98,3.05,3.17,2.08
16.0190,0.08,0.12,-0.98,3.17,3.23,2.14
16.0340,0.08,0.12,-0.98,3.05,3.05,1.89
16.0500,0.08,0.12,-0.98,3.36,2.69,2.14
16.0670,0.08,0.12,-0.98,3.11,3.30,1.95
16.0690,0.08,0.12,-0.98,3.17,3.17,1.89
16.0930,0.08,0.12,-0.98,3.11,2.75,2.08
16.1130,0.08,0.12,-0.98,3.11,3.30,1.95
16.1240,0.08,0.12,-0.98,2.99,3.30,2.08
16.1410,0.08,0.12,-0.98,3.17,2.93,1.95
16.1560,0.08,0.12,-0.98,3.23,3.30,2.08
16.1750,0.08,0.12,-0.98,3.42,3.11,2.14
16.1780,0.09,0.12,-0.98,3.42,3.11,2.08
16.1950,0.08,0.12,-0.98,3.17,3.11,2.14
16.2120,0.09,0.12,-0.98,3.11,3.60,2.14
16.2280,0.08,0.12,-0.98,3.42,3.23,2.14
16.2480,0.08,0.12,-0.98,3.30,3.30,2.14
16.2650,0.08,0.12,-0.98,3.05,3.54,2.14
16.2810,0.08,0.12,-0.98,3.05,3.36,2.08
16.2980,0.09,0.12,-0.98,3.17,3.17,1.95
16.3140,0.08,0.12,-0.98,3.17,3.42,2.14
16.3290,0.08,0.12,-0.98,2.93,3.11,2.01
16.3320,0.08,0.12,-0.98,3.30,2.93,1.89
16.3470,0.08,0.12,-0.98,3.11,3.23,1.95
16.3740,0.08,0.12,-0.98,3.11,3.36,2.01
16.3860,0.08,0.12,-0.98,2.87,3.23,2.08
16.4020,0.08,0.12,-0.98,2.69,3.23,2.14
16.4210,0.08,0.12,-0.98,2.99,3.48,2.08
16.4240,0.09,0.12,-0.98,3.11,3.17,2.01
16.4510,0.08,0.12,-0.98,3.11,3.30,2.08
16.4580,0.08,0.12,-0.98,3.17,2.87,2.08
16.4740,0.08,0.12,-0.98,2.93,3.36,2.01
16.4950,0.09,0.12,-0.98,3.23,2.99,2.14
16.5100,0.08,0.12,-0.98,3.23,3.36,2.20
16.5260,0.08,0.12,-0.98,3.30,3.17,2.08
16.5420,0.08,0.12,-0.98,3.30,3.30,2.14
16.5590,0.08,0.12,-0.98,3.23,3.66,2.14
16.5760,0.08,0.12,-0.98,3.23,3.30,1.95
16.5910,0.09,0.12,-0.98,3.36,3.30,2.01
16.6080,0.11,0.13,-0.99,3.05,3.17,2.20
16.6110,0.08,0.12,-0.98,2.81,2.87,2.01
16.6260,0.07,0.11,-0.98,2.93,2.93,2.08
16.6490,0.08,0.12,-0.99,3.54,2.93,2.08
16.6650,0.08,0.12,-0.98,3.17,3.23,2.20
16.6820,0.07,0.12,-0.98,3.17,2.75,2.32
16.6980,0.08,0.12,-0.98,3.36,2.99,2.26
16.7140,0.08,0.12,-0.98,3.36,3.11,2.08
16.7160,0.08,0.12,-0.98,3.42,3.23,2.14
16.7470,0.09,0.12,-0.98,3.17,3.05,2.08
16.7630,0.09,0.12,-0.98,3.23,2.99,2.14
16.7780,0.08,0.12,-0.98,3.30,3.17,2.44
16.7940,0.09,0.12,-0.98,3.36,2.99,2.26
16.8090,0.08,0.12,-0.98,3.23,2.75,2.26
16.8150,0.08,0.12,-0.98,3.05,3.11,2.26
16.8310,0.08,0.12,-0.98,3.05,3.23,2.26
16.8520,0.08,0.12,-0.98,3.11,3.17,2.20
16.8680,0.09,0.12,-0.98,3.42,3.30,2.20
16.8840,0.08,0.12,-0.98,3.11,3.17,2.20
16.9000,0.09,0.12,-0.98,3.36,3.36,2.38
16.9160,0.09,0.12,-0.98,3.17,3.23,2.38
16.9310,0.09,0.12,-0.98,3.48,3.23,2.62
16.9460,0.08,0.12,-0.98,3.05,3.05,2.69
16.9610,0.08,0.12,-0.98,3.30,3.11,2.56
16.9770,0.08,0.12,-0.98,3.23,2.87,2.69
16.9920,0.10,0.12,-0.98,2.99,2.99,2.44
17.0080,0.09,0.12,-0.98,3.11,2.99,2.50
17.0180,0.08,0.12,-0.98,3.11,3.11,2.50
17.0350,0.09,0.12,-0.98,3.60,3.17,2.14
17.0520,0.09,0.12,-0.98,3.42,3.05,2.26
17.0680,0.09,0.12,-0.98,3.17,3.17,2.38
17.0830,0.08,0.12,-0.98,3.05,3.54,2.38
17.0990,0.09,0.12,-0.98,3.36,2.81,2.32
17.1150,0.09,0.12,-0.98,3.42,2.87,2.69
17.1310,0.08,0.12,-0.99,3.11,3.30,2.81
17.1460,0.08,0.12,-0.98,3.54,2.56,2.81
17.1610,0.08,0.12,-0.98,3.36,3.36,2.69
17.1680,0.09,0.12,-0.98,3.17,2.99,2.69
17.1920,0.08,0.13,-0.98,3.23,3.05,2.75
17.2070,0.08,0.13,-0.98,3.36,3.30,2.69
17.2180,0.09,0.12,-0.98,3.17,3.54,2.26
17.2350,0.08,0.12,-0.98,3.23,3.11,2.14
17.2520,0.08,0.12,-0.98,3.17,3.11,2.32
17.2670,0.08,0.12,-0.98,3.11,3.54,2.44
17.2830,0.08,0.12,-0.98,3.42,3.23,2.32
17.2980,0.08,0.12,-0.98,3.23,2.99,2.32
17.3130,0.08,0.12,-0.98,3.30,2.93,2.26
17.3280,0.08,0.12,-0.98,3.17,3.17,2.44
17.3350,0.09,0.12,-0.98,2.87,3.11,2.20
17.3500,0.08,0.12,-0.98,3.11,3.11,2.01
17.3730,0.09,0.12,-0.98,2.93,3.23,2.14
17.3890,0.09,0.12,-0.98,3.23,3.05,2.08
17.4060,0.09,0.12,-0.98,3.23,2.93,2.32
17.4220,0.10,0.12,-0.98,3.23,2.87,2.14
17.4380,0.09,0.13,-0.98,2.99,2.99,2.20
17.4550,0.08,0.12,-0.98,2.87,2.99,2.08
17.4700,0.08,0.12,-0.98,3.11,3.17,2.20
17.4850,0.08,0.12,-0.98,3.05,3.30,2.01
17.5010,0.08,0.12,-0.98,3.11,3.05,2.26
17.5160,0.08,0.12,-0.98,3.23,3.17,2.38
17.5240,0.08,0.12,-0.98,3.23,3.48,2.44
17.5400,0.08,0.12,-0.98,3.23,3.11,2.38
17.5610,0.08,0.12,-0.98,3.42,2.62,2.32
17.5770,0.09,0.12,-0.98,3.42,3.11,2.26
17.5920,0.09,0.12,-0.98,3.36,3.05,2.08
17.6080,0.09,0.12,-0.98,3.36,3.23,2.26
17.6110,0.08,0.12,-0.98,3.36,3.30,2.38
17.6280,0.08,0.12,-0.98,3.48,2.99,2.44
17.6450,0.08,0.12,-0.98,3.36,3.42,2.38
17.6610,0.08,0.12,-0.98,3.23,3.17,2.38
17.6830,0.08,0.12,-0.98,3.30,2.81,2.26
17.6990,0.09,0.12,-0.98,3.17,3.30,2.20
17.7150,0.09,0.12,-0.98,2.99,2.75,2.50
17.7300,0.09,0.12,-0.98,3.17,3.30,2.32
17.7470,0.09,0.12,-0.98,3.11,3.17,2.50
17.7630,0.08,0.12,-0.98,2.99,3.36,2.44
17.7790,0.09,0.12,-0.98,3.23,2.62,2.44
17.7940,0.09,0.12,-0.98,3.30,3.05,2.20
17.8100,0.09,0.12,-0.98,3.30,3.30,2.44
17.8260,0.09,0.12,-0.98,3.17,3.05,2.44
17.8320,0.08,0.12,-0.98,3.11,3.05,2.62
17.8480,0.08,0.13,-0.98,3.05,3.17,2.56
17.8710,0.08,0.12,-0.98,2.81,3.30,2.69
17.8880,0.08,0.12,-0.98,3.05,3.05,2.69
17.9040,0.08,0.12,-0.98,2.99,2.99,2.69
17.9190,0.08,0.12,-0.98,2.99,2.99,2.69
17.9340,0.08,0.12,-0.98,3.23,2.93,2.38
17.9490,0.08,0.12,-0.98,3.42,2.99,2.44
17.9540,0.08,0.12,-0.98,3.11,2.99,2.50
17.9700,0.08,0.12,-0.98,3.05,3.17,2.44
17.9950,0.08,0.12,-0.98,3.11,3.36,2.32
18.0070,0.08,0.12,-0.98,3.17,2.93,2.32
18.0240,0.08,0.12,-0.98,3.11,2.87,2.38
18.0400,0.08,0.12,-0.98,3.23,3.17,2.32
18.0570,0.08,0.12,-0.98,3.17,3.05,2.26
18.0720,0.08,0.12,-0.98,3.05,2.93,2.44
18.0870,0.08,0.12,-0.98,3.11,3.11,2.38
18.1030,0.08,0.12,-0.98,2.99,3.17,2.32
18.1180,0.08,0.12,-0.98,3.05,3.36,2.26
18.1330,0.08,0.12,-0.98,3.05,3.17,2.14
18.1480,0.08,0.12,-0.98,3.23,3.17,2.26
18.1630,0.08,0.12,-0.98,3.23,3.11,2.20
18.1750,0.08,0.12,-0.98,3.17,2.81,2.20
18.1910,0.08,0.12,-0.98,3.05,3.30,2.32
18.2080,0.09,0.12,-0.98,2.93,3.11,2.26
18.2240,0.08,0.12,-0.98,3.05,2.87,2.26
18.2390,0.08,0.12,-0.98,3.11,2.93,2.32
18.2550,0.09,0.12,-0.98,3.11,3.17,2.32
18.2580,0.08,0.12,-0.98,3.11,3.23,2.32
18.2730,0.08,0.12,-0.98,2.93,2.93,2.44
18.3020,0.08,0.12,-0.98,2.99,3.11,2.38
18.3130,0.09,0.12,-0.98,2.93,3.48,2.56
18.3290,0.07,0.12,-0.98,2.87,3.05,2.44
18.3460,0.09,0.13,-0.98,2.87,2.99,2.01
18.3620,0.07,0.12,-0.98,2.69,3.17,1.89
18.3770,0.07,0.12,-0.98,2.93,2.99,1.83
18.3870,0.08,0.12,-0.98,3.11,2.93,2.01
18.4090,0.09,0.12,-0.98,2.99,3.11,1.95
18.4200,0.09,0.12,-0.98,3.05,3.17,2.01
18.4360,0.09,0.12,-0.98,2.99,3.23,1.89
18.4540,0.10,0.12,-0.98,2.99,3.36,1.71
18.4690,0.10,0.12,-0.98,3.05,3.17,1.65
18.4840,0.09,0.12,-0.98,3.11,3.23,1.77
18.4990,0.08,0.12,-0.98,3.05,3.42,1.71
18.5150,0.09,0.12,-0.98,3.05,3.42,2.32
18.5310,0.08,0.12,-0.98,3.11,3.23,2.20
18.5460,0.08,0.12,-0.98,3.05,3.30,2.20
18.5620,0.08,0.12,-0.99,3.48,3.11,1.83
18.5780,0.09,0.12,-0.98,3.05,3.17,2.20
18.5930,0.08,0.12,-0.98,3.05,3.11,2.26
18.6040,0.08,0.12,-0.98,3.23,2.93,2.32
18.6190,0.08,0.12,-0.98,3.30,3.17,2.01
18.6390,0.09,0.12,-0.98,3.11,3.05,2.01
18.6420,0.09,0.12,-0.98,2.87,3.30,2.08
18.6700,0.08,0.12,-0.98,3.36,3.05,2.01
18.6760,0.09,0.12,-0.98,3.05,2.93,1.83
18.6950,0.08,0.12,-0.98,3.36,3.17,1.65
18.7130,0.08,0.12,-0.98,3.23,2.99,1.71
18.7290,0.08,0.12,-0.98,3.17,2.99,1.89
18.7460,0.08,0.12,-0.98,3.23,2.81,1.89
18.7630,0.09,0.12,-0.98,3.11,2.99,1.71
18.7640,0.07,0.12,-0.98,3.05,3.05,1.40
18.7950,0.08,0.12,-0.98,3.17,3.23,1.53
18.7970,0.08,0.12,-0.98,3.05,3.17,1.59
18.8270,0.08,0.12,-0.98,3.05,3.48,1.65
18.8420,0.08,0.12,-0.98,3.23,3.30,1.71
18.8590,0.08,0.12,-0.98,3.23,3.42,1.71
18.8750,0.09,0.12,-0.98,3.42,3.30,1.89
18.8790,0.08,0.12,-0.98,3.30,2.87,1.71
18.8950,0.09,0.12,-0.98,3.30,2.99,1.77
18.9160,0.09,0.12,-0.98,2.93,3.05,1.65
18.9320,0.08,0.12,-0.98,2.81,3.05,1.77
18.9490,0.08,0.12,-0.98,2.93,3.23,1.83
18.9660,0.09,0.12,-0.98,3.17,3.05,1.77
18.9820,0.09,0.12,-0.98,3.11,3.17,1.77
18.9980,0.08,0.12,-0.98,3.30,2.99,1.65
19.0130,0.08,0.12,-0.98,3.42,3.42,1.71
19.0290,0.09,0.12,-0.98,3.54,3.11,1.77
19.0440,0.09,0.12,-0.98,3.42,3.30,1.53
19.0490,0.08,0.12,-0.98,3.36,3.11,1.59
19.0650,0.08,0.12,-0.98,3.30,3.05,1.53
19.0890,0.08,0.12,-0.98,3.36,3.17,1.83
19.1060,0.09,0.12,-0.98,3.36,3.30,1.77
19.1220,0.08,0.12,-0.98,3.42,2.93,1.89
19.1380,0.09,0.12,-0.98,3.30,3.17,1.71
19.1540,0.08,0.12,-0.98,3.11,2.93,1.59
19.1690,0.08,0.12,-0.98,2.81,2.99,1.65
19.1840,0.08,0.12,-0.98,3.23,2.69,1.83
19.2000,0.09,0.12,-0.98,3.48,3.30,2.01
19.2150,0.08,0.12,-0.98,3.36,3.11,2.01
19.2300,0.08,0.12,-0.98,3.36,2.87,1.65
19.2440,0.09,0.12,-0.98,3.11,2.81,1.83
19.2560,0.08,0.12,-0.98,3.11,3.36,2.14
19.2730,0.09,0.12,-0.98,3.36,3.30,1.89
19.2890,0.08,0.12,-0.98,3.42,2.87,1.89
19.3050,0.08,0.12,-0.98,3.36,2.69,2.20
19.3200,0.08,0.12,-0.98,3.42,2.81,2.20
19.3350,0.08,0.12,-0.98,3.23,2.99,2.26
19.3500,0.08,0.12,-0.98,3.30,2.99,2.32
19.3650,0.08,0.12,-0.99,3.17,2.99,2.20
19.3810,0.08,0.12,-0.98,3.23,3.05,2.20
19.3960,0.08,0.12,-0.98,3.23,3.11,2.20
19.4120,0.08,0.12,-0.98,3.11,3.36,2.44
19.4230,0.09,0.12,-0.98,3.36,2.81,2.14
19.4390,0.09,0.12,-0.98,2.99,2.99,2.44
19.4560,0.08,0.12,-0.98,3.17,2.56,2.38
19.4730,0.08,0.12,-0.98,3.30,2.56,2.56
19.4900,0.08,0.12,-0.99,3.17,3.05,2.38
19.5060,0.08,0.12,-0.98,3.30,2.81,2.20
19.5220,0.08,0.12,-0.98,3.17,2.93,2.44
19.5380,0.08,0.12,-0.98,3.17,2.99,2.26
19.5540,0.08,0.12,-0.98,3.11,3.60,2.32
19.5690,0.08,0.12,-0.98,3.11,3.23,2.26
19.5840,0.09,0.12,-0.98,3.30,3.17,2.20
19.6000,0.08,0.12,-0.98,3.23,2.99,2.26
19.6150,0.08,0.12,-0.99,3.23,3.11,2.26
19.6290,0.07,0.12,-0.98,2.99,2.75,2.01
19.6450,0.08,0.12,-0.98,3.23,3.30,2.14
19.6560,0.08,0.12,-0.98,3.30,2.99,2.08
19.6720,0.08,0.12,-0.98,3.42,3.23,2.20
19.6890,0.08,0.12,-0.98,3.36,2.93,1.89
19.7060,0.08,0.12,-0.98,3.30,3.30,2.14
19.7210,0.08,0.12,-0.99,3.48,3.36,2.08
19.7370,0.09,0.12,-0.98,3.36,3.17,2.01
19.7520,0.08,0.12,-0.98,3.23,3.23,1.95
19.7670,0.08,0.12,-0.98,3.23,3.17,1.83
19.7810,0.08,0.12,-0.98,3.05,3.23,1.89
19.7970,0.08,0.12,-0.98,3.48,3.11,1.83
19.8120,0.08,0.12,-0.98,3.36,2.75,1.77
19.8230,0.08,0.12,-0.99,3.30,3.11,1.83
19.8390,0.08,0.12,-0.98,3.30,3.11,1.77
19.8560,0.09,0.12,-0.98,3.42,3.23,1.95
19.8720,0.09,0.12,-0.98,3.60,2.93,1.95
19.8880,0.08,0.12,-0.98,2.99,3.05,1.71
19.9030,0.08,0.12,-0.98,3.05,2.93,1.77
19.9180,0.08,0.12,-0.98,3.36,2.93,1.83
19.9340,0.07,0.12,-0.98,3.23,2.87,2.08
19.9490,0.08,0.12,-0.98,3.60,2.81,1.95
19.9560,0.08,0.12,-0.98,3.48,3.11,1.95
19.9720,0.08,0.12,-0.98,3.23,3.36,1.95
19.9950,0.08,0.12,-0.98,3.30,2.93,1.95
20.0110,0.09,0.12,-0.98,3.23,3.36,2.01
20.0270,0.10,0.12,-0.98,2.93,2.99,1.53
20.0430,0.08,0.12,-0.98,2.87,3.05,0.43
20.0590,0.09,0.12,-0.98,3.30,3.17,0.55
20.0620,0.08,0.12,-0.98,3.30,3.11,0.18
20.0770,0.08,0.12,-0.98,3.11,3.36,0.79
20.1050,0.08,0.12,-0.98,3.42,2.87,1.22
20.1160,0.08,0.12,-0.98,3.42,3.23,1.28
20.1340,0.08,0.12,-0.98,3.30,3.17,1.59
20.1490,0.08,0.12,-0.98,3.23,2.81,1.71
20.1650,0.09,0.12,-0.98,3.23,3.48,1.59
20.1810,0.09,0.12,-0.98,3.30,3.05,1.53
20.1970,0.09,0.12,-0.98,3.05,2.81,1.16
20.2120,0.08,0.12,-0.98,3.05,3.05,0.92
20.2230,0.08,0.12,-0.98,3.23,3.23,1.10
20.2390,0.09,0.12,-0.98,3.17,3.36,1.28
20.2550,0.08,0.12,-0.98,3.17,3.30,0.98
20.2720,0.08,0.12,-0.98,3.30,3.17,0.85
20.2870,0.08,0.12,-0.98,2.99,3.60,0.98
20.2980,0.08,0.12,-0.98,3.36,2.87,1.22
20.3140,0.08,0.12,-0.98,3.36,2.99,1.59
20.3300,0.08,0.12,-0.98,3.42,3.17,1.65
20.3460,0.09,0.12,-0.98,3.23,3.05,1.59
20.3630,0.08,0.12,-0.98,3.36,2.81,1.46
20.3790,0.08,0.12,-0.98,3.30,3.05,1.40
20.3950,0.08,0.12,-0.98,3.11,3.42,1.53
20.3980,0.08,0.12,-0.98,3.36,3.11,1.83
20.4260,0.08,0.12,-0.98,3.23,3.11,1.83
20.4420,0.08,0.12,-0.98,3.36,3.17,1.89
20.4560,0.08,0.12,-0.98,3.30,3.05,1.95
20.4720,0.08,0.12,-0.98,3.05,3.11,2.14
20.4870,0.08,0.12,-0.98,3.11,2.99,2.01
20.4970,0.08,0.12,-0.98,3.36,2.99,1.89
20.5130,0.08,0.12,-0.98,3.30,2.75,2.08
20.5310,0.08,0.12,-0.98,3.42,2.87,2.01
20.5460,0.08,0.12,-0.98,3.85,2.62,1.89
20.5470,0.08,0.12,-0.98,4.03,2.93,2.08
20.5770,0.08,0.13,-0.99,4.58,2.38,2.01
20.5800,0.09,0.12,-0.98,4.03,2.56,2.08
20.6070,0.08,0.12,-0.98,3.72,2.93,2.01
20.6210,0.09,0.12,-0.98,3.17,3.11,2.08
20.6300,0.09,0.12,-0.98,2.87,3.30,2.14
20.6470,0.08,0.12,-0.98,2.50,3.48,2.08
20.6640,0.08,0.13,-0.98,2.38,3.30,2.20
20.6800,0.08,0.12,-0.98,2.50,2.99,2.26
20.6970,0.08,0.12,-0.98,2.93,3.54,2.38
20.7120,0.08,0.12,-0.98,2.99,3.60,2.32
20.7290,0.08,0.12,-0.98,3.23,3.42,2.08
20.7450,0.08,0.12,-0.98,3.17,2.93,1.83
20.7470,0.08,0.12,-0.98,2.81,3.17,2.14
20.7620,0.08,0.12,-0.98,3.30,3.17,2.01
20.7870,0.08,0.12,-0.98,3.17,3.48,2.08
20.8030,0.08,0.12,-0.98,3.23,3.23,2.20
20.8190,0.08,0.12,-0.98,3.42,3.30,2.20
20.8350,0.08,0.12,-0.98,3.30,3.30,2.14
20.8380,0.08,0.12,-0.98,3.30,3.23,2.08
20.8640,0.08,0.12,-0.98,3.36,3.23,2.14
20.8800,0.08,0.12,-0.98,3.36,3.42,2.08
20.8960,0.08,0.12,-0.98,3.36,3.30,2.14
20.9120,0.08,0.12,-0.99,3.36,3.36,1.95
20.9270,0.08,0.12,-0.98,3.17,3.17,2.08
20.9380,0.08,0.12,-0.98,3.17,3.48,2.14
20.9540,0.08,0.12,-0.98,3.42,3.30,2.08
20.9700,0.08,0.12,-0.98,3.42,3.05,2.08
20.9870,0.08,0.12,-0.98,3.36,2.93,2.14
21.0030,0.08,0.12,-0.98,3.36,2.93,2.14
21.0190,0.08,0.12,-0.98,3.48,3.30,2.20
21.0340,0.08,0.12,-0.98,3.36,3.30,2.20
21.0380,0.08,0.10,-0.99,3.36,2.75,2.69
21.0530,0.09,0.10,-0.99,2.81,2.50,4.82
21.0770,0.08,0.12,-0.98,3.11,2.20,5.19
21.0950,0.08,0.10,-0.99,3.36,2.38,5.49
21.1100,0.08,0.11,-0.99,2.99,2.20,7.39
21.1280,0.08,0.11,-0.98,2.62,2.56,6.96
21.1440,0.09,0.13,-0.98,2.93,2.93,4.52
21.1600,0.08,0.13,-0.98,3.48,3.30,2.69
21.1610,0.09,0.14,-0.98,2.75,3.36,1.83
21.1780,0.09,0.13,-0.98,3.23,3.48,0.67
21.2060,0.08,0.14,-0.98,3.48,3.48,0.55
21.2100,0.09,0.13,-0.98,3.54,3.48,0.79
21.2280,0.09,0.12,-0.98,3.48,3.91,0.67
21.2450,0.08,0.12,-0.98,3.72,3.66,0.37
21.2600,0.08,0.12,-0.98,3.30,3.48,0.73
21.2770,0.08,0.13,-0.98,3.54,2.99,0.98
21.2950,0.08,0.12,-0.99,3.48,3.66,0.98
21.3110,0.08,0.12,-0.98,3.11,3.48,1.16
21.3260,0.09,0.13,-0.98,3.23,3.36,1.59
21.3270,0.08,0.12,-0.98,3.42,3.60,1.40
21.3450,0.08,0.12,-0.99,3.17,3.05,1.95
21.3610,0.09,0.11,-0.98,3.36,3.30,1.65
21.3770,0.08,0.11,-0.99,2.93,3.05,1.89
21.4050,0.08,0.13,-0.98,2.93,3.60,1.59
21.4100,0.09,0.13,-0.98,3.48,3.60,1.65
21.4280,0.08,0.13,-0.98,3.42,3.30,1.34
21.4440,0.08,0.13,-0.98,3.30,3.11,2.01
21.4600,0.08,0.12,-0.98,3.23,3.42,1.71
21.4760,0.08,0.11,-0.98,3.42,3.42,1.65
21.4960,0.08,0.11,-0.99,3.17,3.42,1.83
21.5120,0.08,0.12,-0.99,3.30,3.54,2.08
21.5270,0.09,0.13,-0.98,3.36,3.66,1.34
21.5430,0.08,0.13,-0.98,3.36,3.17,1.16
21.5580,0.08,0.12,-0.98,3.48,3.30,1.65
21.5640,0.08,0.12,-0.98,3.11,3.23,2.32
21.5800,0.08,0.12,-0.98,3.30,3.60,1.71
21.6030,0.08,0.11,-0.98,3.54,3.85,1.16
21.6130,0.08,0.12,-0.99,3.36,3.85,1.40
21.6300,0.08,0.13,-0.98,3.17,3.78,1.34
21.6470,0.08,0.12,-0.98,3.42,3.48,0.73
21.6470,0.08,0.12,-0.98,3.36,3.30,1.34
21.6780,0.08,0.12,-0.99,3.23,3.23,1.46
21.6940,0.08,0.12,-0.98,3.36,2.99,1.40
21.6980,0.08,0.12,-0.98,3.23,3.11,1.28
21.7140,0.08,0.12,-0.98,3.42,3.66,1.59
21.7400,0.08,0.12,-0.98,3.23,3.48,1.34
21.7550,0.08,0.12,-0.98,3.36,3.48,1.04
21.7700,0.08,0.11,-0.99,3.36,3.36,0.37
21.7810,0.09,0.12,-0.98,3.11,3.36,0.49
21.7980,0.08,0.13,-0.98,3.54,3.36,0.67
21.8140,0.08,0.12,-0.98,3.42,3.48,1.34
21.8300,0.08,0.13,-0.98,3.36,3.42,1.04
21.8470,0.08,0.12,-0.99,3.30,3.78,1.10
21.8630,0.08,0.11,-0.99,2.81,3.66,1.10
21.8650,0.08,0.12,-0.98,2.81,3.36,0.92
21.8810,0.08,0.12,-0.98,3.48,3.66,0.85
21.9070,0.08,0.13,-0.98,3.48,3.36,0.18
21.9230,0.08,0.12,-0.98,3.60,3.48,-0.49
21.9300,0.08,0.12,-0.98,3.48,3.11,0.61
21.9460,0.09,0.13,-0.98,3.36,3.60,0.61
21.9660,0.08,0.12,-0.98,3.36,3.30,0.49
21.9840,0.08,0.13,-0.98,3.05,3.72,0.43
21.9980,0.08,0.12,-0.98,3.42,3.30,0.12
22.0140,0.08,0.11,-0.98,3.48,3.36,-0.49
22.0160,0.08,0.12,-0.98,3.36,3.54,-0.49
22.0460,0.08,0.12,-0.99,3.66,3.66,-0.55
22.0620,0.08,0.12,-0.99,3.48,3.54,-0.61
22.0780,0.08,0.12,-0.98,3.48,3.66,-0.79
22.0950,0.08,0.13,-0.98,3.54,3.66,-0.24
22.0990,0.08,0.13,-0.98,3.48,3.23,-0.18
22.1150,0.08,0.12,-0.98,3.23,3.60,0.18
22.1380,0.08,0.12,-0.98,3.23,3.48,0.12
22.1540,0.08,0.12,-0.98,3.54,3.54,0.00
22.1710,0.08,0.12,-0.99,3.54,3.42,-0.06
22.1880,0.09,0.13,-0.98,3.42,3.23,0.49
22.2030,0.08,0.12,-0.98,3.42,3.42,0.24
22.2190,0.08,0.12,-0.98,3.23,3.66,0.18
22.2340,0.08,0.12,-0.98,3.17,3.66,-0.31
22.2500,0.08,0.12,-0.98,3.48,3.60,-0.31
22.2650,0.08,0.11,-0.99,3.23,3.72,-0.37
22.2810,0.08,0.12,-0.98,3.36,3.48,-0.37
22.2960,0.08,0.12,-0.98,3.42,3.54,-1.04
22.3120,0.08,0.13,-0.98,3.17,3.72,-0.73
22.3280,0.08,0.13,-0.98,3.72,3.72,-0.49
22.3380,0.09,0.13,-0.98,3.42,3.54,-0.37
22.3550,0.08,0.13,-0.98,3.60,3.30,0.12
22.3720,0.08,0.13,-0.98,3.36,3.36,1.40
22.3880,0.08,0.12,-0.98,3.42,3.36,1.77
22.4030,0.08,0.12,-0.98,3.11,3.23,1.89
22.4180,0.08,0.11,-0.98,2.99,3.48,1.46
22.4330,0.08,0.13,-0.98,2.99,3.11,1.65
22.4470,0.08,0.12,-0.98,3.30,3.30,2.08
22.4640,0.08,0.12,-0.98,3.11,3.17,2.08
22.4790,0.08,0.12,-0.98,3.30,3.42,1.59
22.4940,0.08,0.12,-0.98,3.42,2.93,1.40
22.5050,0.08,0.13,-0.98,3.42,2.75,1.46
22.5210,0.08,0.12,-0.98,3.36,2.87,1.10
22.5410,0.08,0.13,-0.98,3.23,3.23,0.79
22.5430,0.08,0.13,-0.98,3.42,3.60,0.49
22.5720,0.08,0.13,-0.99,3.54,3.30,0.55
22.5880,0.08,0.13,-0.98,3.36,3.42,0.79
22.5980,0.08,0.13,-0.98,3.42,3.42,0.85
22.6110,0.08,0.12,-0.99,3.30,3.36,1.40
22.6350,0.08,0.12,-0.98,3.17,3.30,1.04
22.6440,0.08,0.11,-0.98,3.30,3.36,0.73
22.6620,0.08,0.11,-0.99,3.54,3.60,-0.12
22.6770,0.08,0.12,-0.98,3.42,3.85,-0.98
22.6950,0.08,0.12,-0.98,3.54,3.72,-1.16
22.7110,0.08,0.13,-0.98,3.42,3.54,-0.43
22.7260,0.08,0.12,-0.98,3.72,3.60,-0.12
22.7420,0.08,0.12,-0.98,3.23,3.85,-0.31
22.7590,0.09,0.13,-0.98,3.42,3.54,0.12
22.7610,0.08,0.11,-0.99,3.36,3.36,0.12
22.7780,0.08,0.12,-0.98,3.48,3.48,-0.06
22.7980,0.08,0.11,-0.99,3.48,3.60,-0.37
22.8210,0.08,0.12,-0.98,3.23,3.54,0.00
22.8260,0.09,0.12,-0.98,3.30,3.48,0.67
22.8420,0.08,0.13,-0.98,3.23,3.42,1.40
22.8660,0.08,0.13,-0.98,2.99,3.23,1.40
22.8820,0.09,0.13,-0.98,3.17,3.17,2.08
22.8860,0.08,0.12,-0.99,3.36,2.99,2.32
22.9120,0.08,0.12,-0.98,2.81,2.99,3.48
22.9270,0.08,0.13,-0.98,3.17,2.75,3.42
22.9340,0.08,0.12,-0.98,3.30,2.87,3.11
22.9500,0.08,0.12,-0.98,2.75,3.23,2.75
22.9710,0.08,0.13,-0.98,2.75,3.11,2.56
22.9870,0.08,0.12,-0.98,3.23,3.36,1.65
23.0020,0.08,0.13,-0.98,2.99,3.54,0.98
23.0180,0.08,0.12,-0.98,3.36,3.72,0.85
23.0330,0.08,0.12,-0.99,3.36,3.42,0.55
23.0490,0.08,0.13,-0.98,3.23,3.42,-0.06
23.0650,0.08,0.13,-0.98,3.30,3.36,0.00
23.0810,0.08,0.12,-0.98,3.23,3.11,0.49
23.0960,0.08,0.12,-0.99,3.42,3.05,0.73
23.1100,0.08,0.12,-0.98,3.11,3.54,0.43
23.1210,0.08,0.12,-0.98,3.17,3.48,-0.12
23.1390,0.08,0.11,-0.98,3.42,3.48,-0.18
23.1560,0.09,0.13,-0.98,3.23,3.42,0.49
23.1560,0.08,0.12,-0.98,3.36,3.23,0.55
23.1850,0.09,0.13,-0.98,2.93,3.05,2.08
23.2010,0.08,0.13,-0.98,3.30,3.42,1.16
23.2160,0.08,0.12,-0.98,3.42,3.36,0.98
23.2310,0.08,0.12,-0.98,3.17,3.23,0.85
23.2460,0.08,0.12,-0.98,3.36,3.72,-0.31
23.2610,0.08,0.12,-0.98,3.36,3.36,-0.67
23.2720,0.08,0.12,-0.98,3.54,3.60,-1.04
23.2880,0.08,0.12,-0.98,3.60,3.66,-0.43
23.3050,0.08,0.13,-0.98,3.54,3.91,-0.55
23.3220,0.08,0.14,-0.98,3.66,3.66,-0.67
23.3380,0.08,0.14,-0.98,3.42,3.36,0.24
23.3550,0.09,0.13,-0.98,3.17,3.78,0.92
23.3710,0.08,0.12,-0.99,3.23,3.30,1.59
23.3870,0.08,0.11,-0.98,3.36,3.60,0.79
23.4020,0.08,0.11,-0.98,3.23,3.72,-0.06
23.4170,0.08,0.12,-0.98,3.42,3.23,-0.49
23.4320,0.08,0.11,-0.98,3.48,3.66,-0.31
23.4470,0.09,0.13,-0.99,3.36,3.60,0.00
23.4560,0.09,0.12,-0.99,3.42,3.66,-0.31
23.4720,0.08,0.13,-0.99,3.23,3.30,0.49
23.4880,0.08,0.13,-0.98,3.17,3.17,0.79
23.5050,0.08,0.13,-0.98,3.48,3.54,0.61
23.5220,0.08,0.11,-0.98,3.42,2.93,0.49
23.5370,0.08,0.11,-0.99,3.42,3.11,-0.12
23.5520,0.09,0.12,-0.98,3.48,3.11,-0.24
23.5670,0.08,0.11,-0.98,3.60,3.60,-1.34
23.5830,0.08,0.13,-0.98,3.42,3.72,-1.34
23.5990,0.08,0.12,-0.98,3.72,3.54,-0.92
23.6150,0.08,0.13,-0.98,3.42,3.23,-0.06
23.6300,0.09,0.13,-0.98,3.30,3.30,0.73
23.6450,0.09,0.13,-0.98,3.42,3.23,0.43
23.6600,0.08,0.12,-0.98,3.54,3.60,0.00
23.6720,0.08,0.12,-0.98,3.30,3.30,-0.37
23.6890,0.08,0.12,-0.98,3.36,3.85,-0.55
23.7050,0.08,0.12,-0.98,3.30,3.91,-1.16
23.7200,0.08,0.11,-0.99,3.72,3.78,-1.34
23.7360,0.08,0.12,-0.98,3.17,3.91,-1.59
23.7500,0.08,0.12,-0.98,3.54,4.21,-2.26
23.7660,0.09,0.13,-0.98,3.30,3.97,-1.40
23.7730,0.08,0.14,-0.98,3.36,3.54,0.06
23.7960,0.08,0.12,-0.99,3.36,3.42,0.49
23.8110,0.08,0.12,-0.98,3.17,3.30,0.92
23.8220,0.08,0.11,-0.98,3.48,3.30,0.55
23.8380,0.08,0.12,-0.99,3.30,3.36,-0.18
23.8550,0.08,0.12,-0.98,3.54,3.60,-1.40
23.8710,0.08,0.13,-0.98,3.48,3.85,-1.77
23.8870,0.09,0.14,-0.98,3.30,3.60,-1.34
23.9020,0.09,0.14,-0.98,3.54,3.42,0.24
23.9170,0.08,0.14,-0.98,3.23,3.54,1.10
23.9330,0.08,0.13,-0.98,3.23,3.23,1.65
23.9490,0.08,0.13,-0.98,3.11,3.05,1.46
23.9640,0.08,0.11,-0.99,3.23,3.30,0.98
23.9790,0.09,0.11,-0.99,3.30,3.42,0.55
23.9940,0.08,0.11,-0.98,3.48,3.66,-0.61
24.0050,0.08,0.12,-0.99,3.42,3.72,-0.61
24.0210,0.08,0.12,-0.98,3.48,3.36,-0.67
24.0420,0.08,0.12,-0.98,3.11,3.60,-1.10
24.0570,0.09,0.13,-0.98,3.11,3.54,-0.92
24.0620,0.08,0.13,-0.98,3.36,3.91,-1.10
24.0870,0.08,0.13,-0.98,3.60,3.54,-0.18
24.0980,0.08,0.12,-0.99,3.30,3.97,-0.18
24.1110,0.08,0.12,-0.98,3.42,3.72,-0.18
24.1280,0.08,0.12,-0.98,3.54,3.36,-0.67
24.1440,0.08,0.13,-0.99,3.42,3.78,-0.79
24.1590,0.08,0.13,-0.98,3.54,3.11,-0.43
24.1790,0.08,0.13,-0.99,3.42,3.36,0.49
24.1950,0.08,0.12,-0.98,3.54,3.48,1.16
24.2100,0.08,0.13,-0.98,3.17,3.17,2.01
24.2240,0.09,0.13,-0.98,3.36,3.30,1.71
24.2400,0.08,0.11,-0.98,3.11,3.17,1.16
24.2470,0.08,0.11,-0.99,3.30,3.48,0.55
24.2630,0.08,0.11,-0.98,3.48,3.42,-0.12
24.2850,0.08,0.12,-0.98,3.23,3.36,-0.61
24.3010,0.08,0.12,-0.98,3.42,3.60,-1.34
24.3170,0.08,0.11,-0.99,3.54,4.09,-2.08
24.3330,0.08,0.13,-0.98,3.60,3.91,-2.56
24.3360,0.08,0.12,-0.99,3.91,4.03,-2.75
24.3520,0.08,0.12,-0.98,3.48,3.97,-2.50
24.3740,0.08,0.13,-0.98,3.30,4.09,-2.32
24.3910,0.08,0.13,-0.98,3.60,3.66,-2.56
24.4080,0.08,0.12,-0.98,3.42,4.03,-2.44
24.4240,0.08,0.13,-0.98,3.36,4.27,-2.14
24.4400,0.08,0.13,-0.98,3.54,3.97,-2.08
24.4570,0.08,0.13,-0.98,3.23,3.91,-0.73
24.4730,0.08,0.13,-0.98,3.48,3.54,0.18
24.4880,0.08,0.13,-0.98,3.42,3.60,0.31
24.5030,0.08,0.12,-0.98,3.36,3.36,0.00
24.5180,0.08,0.11,-0.99,3.60,3.85,-0.85
24.5330,0.08,0.11,-0.98,3.42,3.66,-1.65
24.5470,0.08,0.12,-0.99,3.97,3.97,-1.59
24.5580,0.08,0.11,-0.99,3.91,3.97,-1.65
24.5750,0.08,0.13,-0.98,3.23,3.72,-1.34
24.5910,0.08,0.13,-0.98,3.36,3.72,-1.71
24.6080,0.08,0.13,-0.98,3.48,3.72,-1.89
24.6240,0.08,0.12,-0.98,3.66,3.30,-1.95
24.6400,0.08,0.12,-0.98,3.42,3.54,-1.71
24.6570,0.08,0.12,-0.98,3.60,3.60,-1.28
24.6730,0.08,0.12,-0.98,3.54,4.03,-1.16
24.6890,0.08,0.12,-0.98,3.42,3.72,-1.16
24.7050,0.08,0.13,-0.98,3.54,4.03,-1.95
24.7210,0.08,0.14,-0.98,3.48,3.78,-1.34
24.7370,0.08,0.13,-0.98,3.36,3.72,-0.18
24.7530,0.08,0.13,-0.99,3.36,3.54,0.43
24.7680,0.08,0.12,-0.98,3.30,3.17,0.24
24.7820,0.07,0.12,-0.99,3.30,3.72,-0.18
24.7990,0.08,0.12,-0.99,3.48,3.36,-0.06
24.8140,0.08,0.13,-0.98,3.36,3.66,0.06
24.8240,0.08,0.13,-0.98,3.36,2.93,0.24
24.8410,0.08,0.12,-0.98,3.30,3.42,0.92
24.8580,0.08,0.12,-0.98,3.11,3.36,1.10
24.8740,0.08,0.13,-0.98,3.30,3.36,0.85
24.8910,0.08,0.12,-0.98,3.23,3.42,0.85
24.9070,0.08,0.11,-0.98,2.99,3.23,1.04
24.9230,0.08,0.13,-1.00,3.11,3.36,0.55
24.9390,0.08,0.11,-0.98,3.23,3.48,0.43
24.9540,0.08,0.13,-0.99,3.23,3.30,0.85
24.9700,0.08,0.12,-0.98,3.42,3.54,0.49
24.9850,0.08,0.13,-0.98,3.17,3.42,0.06
24.9990,0.09,0.14,-0.98,3.23,3.42,0.37
25.0140,0.08,0.12,-0.98,3.66,3.54,0.92
25.0300,0.08,0.12,-0.98,3.17,3.48,0.55
25.0420,0.08,0.12,-0.98,3.48,3.48,0.43
25.0580,0.08,0.12,-0.99,3.36,3.54,0.24
25.0740,0.08,0.13,-0.98,3.30,3.36,0.55
25.0910,0.08,0.13,-0.98,3.48,3.17,0.85
25.1070,0.08,0.13,-0.98,3.54,3.17,1.10
25.1230,0.08,0.12,-0.98,3.23,3.36,1.10
25.1380,0.08,0.12,-0.98,3.30,3.05,1.04
25.1530,0.08,0.11,-0.98,3.48,3.66,0.37
25.1680,0.08,0.11,-0.99,3.36,3.42,0.37
25.1830,0.08,0.12,-0.98,3.11,3.17,0.06
25.1990,0.08,0.13,-0.98,2.99,3.36,-0.12
25.2080,0.08,0.13,-0.98,3.36,3.36,0.55
25.2240,0.08,0.13,-0.98,3.23,3.23,1.22
25.2450,0.08,0.13,-0.98,3.17,3.36,1.65
25.2620,0.08,0.12,-0.98,3.17,3.54,1.40
25.2770,0.08,0.12,-0.98,3.05,3.48,1.34
25.2930,0.08,0.13,-0.98,3.17,3.05,1.77
25.3000,0.08,0.12,-0.98,3.36,2.99,2.14
25.3230,0.08,0.12,-0.98,3.30,2.87,2.32
25.3360,0.08,0.12,-0.98,2.93,2.93,2.44
25.3530,0.08,0.13,-0.98,3.23,3.17,2.08
25.3680,0.08,0.13,-0.99,2.93,3.42,1.83
25.3840,0.08,0.13,-0.98,3.42,3.42,1.89
25.3980,0.08,0.13,-0.99,3.30,3.23,2.14
25.4130,0.08,0.12,-0.98,3.17,2.93,2.20
25.4280,0.08,0.12,-0.98,2.99,3.36,2.08
25.4360,0.08,0.12,-0.98,3.17,3.30,2.20
25.4530,0.08,0.12,-0.98,3.30,3.30,2.20
25.4690,0.08,0.12,-0.98,3.17,3.11,2.01
25.4850,0.08,0.12,-0.98,3.23,3.23,2.01
25.5020,0.08,0.12,-0.98,3.48,3.05,2.08
25.5190,0.08,0.12,-0.98,4.09,2.75,1.95
25.5330,0.10,0.14,-1.01,4.82,2.69,2.20
25.5490,0.08,0.12,-0.98,3.66,2.56,2.14
25.5650,0.08,0.13,-0.98,3.60,2.56,2.20
25.5800,0.08,0.12,-0.98,3.36,2.99,2.14
25.5970,0.08,0.13,-0.98,3.17,3.36,2.14
25.6120,0.09,0.12,-1.00,3.30,3.17,2.14
25.6270,0.08,0.13,-0.98,3.17,3.42,2.26
25.6350,0.08,0.13,-0.98,2.81,3.30,2.14
25.6520,0.08,0.12,-0.98,2.75,3.54,2.14
25.6680,0.08,0.12,-0.98,2.87,3.11,2.01
25.6850,0.08,0.12,-0.98,2.81,3.36,2.14
25.7020,0.08,0.13,-0.98,3.36,3.23,2.01
25.7170,0.08,0.12,-0.98,3.23,3.36,2.14
25.7330,0.08,0.12,-0.98,3.23,3.42,2.14
25.7490,0.08,0.12,-0.98,3.17,3.60,2.14
25.7510,0.08,0.12,-0.98,3.36,2.99,1.95
25.7670,0.08,0.13,-0.98,3.30,3.30,2.01
25.7940,0.08,0.12,-0.98,3.05,3.23,2.01
25.8050,0.08,0.12,-0.98,3.11,2.81,1.95
25.8210,0.08,0.12,-0.98,3.30,3.05,2.14
25.8380,0.08,0.13,-0.98,3.30,3.23,2.20
25.8540,0.08,0.12,-0.98,2.93,3.30,2.14
25.8710,0.08,0.13,-0.98,3.30,3.05,2.01
25.8860,0.08,0.12,-0.98,3.11,3.30,2.01
25.9020,0.08,0.12,-0.98,3.42,3.42,2.26
25.9170,0.08,0.12,-0.98,3.23,3.36,2.08
25.9210,0.08,0.13,-0.98,3.30,2.99,1.95
25.9370,0.08,0.12,-0.98,2.93,2.99,2.01
25.9620,0.08,0.12,-0.98,3.72,2.75,2.14
25.9780,0.09,0.14,-0.98,3.42,2.81,3.05
25.9920,0.08,0.14,-0.98,3.36,3.05,2.75
26.0070,0.08,0.13,-0.98,3.11,3.48,2.14
26.0120,0.08,0.12,-0.98,3.11,3.11,1.95
26.0370,0.08,0.12,-0.98,3.23,3.23,2.01
26.0520,0.08,0.13,-0.98,3.30,3.23,1.89
26.0620,0.08,0.12,-0.98,3.30,2.99,2.01
26.0800,0.08,0.12,-0.98,3.05,3.36,2.08
26.0960,0.08,0.12,-0.98,2.93,3.30,2.69
26.1120,0.09,0.13,-0.98,2.99,3.23,2.44
26.1130,0.08,0.13,-0.98,2.87,2.81,1.95
26.1300,0.08,0.12,-0.98,2.93,2.93,1.95
26.1460,0.08,0.12,-0.98,2.75,2.87,2.56
26.1630,0.08,0.13,-0.98,2.69,3.05,3.36
26.1790,0.07,0.12,-0.98,2.87,3.30,2.99
26.2040,0.07,0.12,-0.98,2.50,2.81,3.36
26.2190,0.08,0.13,-0.98,2.69,2.75,3.36
26.2290,0.08,0.13,-0.98,2.75,3.23,3.48
26.2460,0.08,0.12,-0.98,2.69,3.05,2.99
26.2610,0.08,0.13,-0.98,2.81,3.23,3.30
26.2770,0.08,0.12,-0.98,2.75,3.17,3.30
26.2920,0.08,0.12,-0.98,2.87,3.05,3.48
26.3040,0.08,0.13,-0.98,2.62,2.99,3.54
26.3200,0.08,0.13,-0.98,2.93,3.05,3.23
26.3370,0.08,0.12,-0.98,2.81,2.87,3.23
26.3530,0.08,0.13,-0.98,2.87,3.05,3.36
26.3700,0.08,0.12,-0.99,2.87,2.87,3.60
26.3850,0.08,0.13,-0.98,2.75,2.87,3.85
26.3990,0.09,0.13,-0.98,2.75,3.11,3.72
26.4040,0.09,0.12,-0.98,3.23,2.87,3.42
26.4190,0.09,0.13,-0.98,3.23,3.17,3.30
26.4440,0.09,0.12,-0.98,3.11,2.93,3.23
26.4610,0.08,0.12,-0.98,3.11,3.17,2.75
26.4770,0.08,0.12,-0.98,3.05,3.23,2.99
26.4930,0.08,0.12,-0.98,3.17,2.93,2.87
26.5010,0.08,0.13,-0.98,3.36,3.60,2.75
26.5250,0.08,0.12,-0.98,3.30,3.23,2.50
26.5280,0.08,0.09,-0.98,3.42,2.93,2.56
26.5460,0.08,0.12,-0.98,3.54,3.17,2.50
26.5610,0.07,0.13,-0.98,3.36,3.17,2.32
26.5830,0.09,0.12,-0.98,3.11,3.23,2.08
26.6020,0.08,0.12,-0.98,3.17,3.54,2.32
26.6160,0.07,0.13,-0.99,3.23,3.48,2.08
26.6320,0.08,0.12,-0.98,3.30,3.17,2.20
26.6470,0.08,0.12,-0.98,3.11,3.36,2.26
26.6560,0.08,0.12,-0.98,3.11,3.54,2.56
26.6710,0.08,0.12,-0.99,3.30,2.69,2.56
26.6940,0.08,0.13,-0.98,3.17,3.30,2.56
26.7010,0.08,0.12,-0.98,3.30,3.11,2.81
26.7250,0.08,0.12,-0.98,3.17,3.17,2.69
26.7410,0.08,0.12,-0.98,3.36,2.99,2.81
26.7450,0.08,0.13,-0.99,3.17,3.23,2.62
26.7730,0.07,0.13,-0.99,3.36,3.11,2.50
26.7880,0.09,0.12,-0.98,3.17,2.99,2.32
26.8030,0.08,0.12,-0.98,3.23,3.11,2.32
26.8120,0.08,0.12,-0.98,3.30,3.36,2.01
26.8290,0.08,0.13,-0.99,3.42,3.30,1.95
26.8440,0.07,0.13,-0.99,3.36,3.17,1.83
26.8610,0.08,0.12,-0.98,3.23,2.87,1.53
26.8770,0.08,0.12,-0.98,3.36,3.42,1.77
26.8930,0.08,0.12,-0.98,3.36,3.48,1.71
26.9070,0.09,0.12,-0.98,3.23,3.11,1.71
26.9230,0.08,0.12,-0.98,2.99,3.23,1.65
26.9290,0.09,0.12,-0.98,3.23,2.75,1.83
26.9450,0.08,0.12,-0.98,3.23,3.17,2.08
26.9690,0.08,0.12,-0.98,3.05,2.99,1.83
26.9840,0.08,0.12,-0.98,3.05,3.30,1.77
27.0000,0.08,0.12,-0.98,3.17,2.75,1.77
27.0150,0.08,0.12,-0.98,3.17,3.11,1.89
27.0310,0.08,0.12,-0.98,3.23,2.99,2.14
27.0470,0.08,0.12,-0.98,3.05,3.23,2.08
27.0620,0.08,0.12,-0.98,3.11,3.30,1.89
27.0770,0.09,0.12,-0.98,2.87,3.23,1.71
27.0860,0.09,0.12,-0.98,3.23,3.30,1.95
27.1080,0.08,0.12,-0.98,3.11,3.11,1.95
27.1190,0.09,0.12,-0.98,2.87,3.42,1.89
27.1350,0.08,0.12,-0.98,3.36,2.93,1.95
27.1540,0.09,0.12,-0.98,3.05,3.36,1.89
27.1690,0.09,0.12,-0.98,3.11,3.30,2.14
27.1840,0.08,0.12,-0.98,3.23,3.05,2.14
27.1900,0.08,0.12,-0.98,3.23,3.05,1.95
27.2050,0.08,0.12,-0.98,3.11,3.17,2.20
27.2290,0.09,0.12,-0.98,2.99,3.60,2.26
27.2450,0.08,0.12,-0.98,2.93,3.23,2.26
27.2590,0.08,0.12,-0.98,2.99,3.11,2.26
27.2630,0.08,0.12,-0.98,2.93,3.17,2.32
27.2910,0.08,0.12,-0.98,2.99,3.17,2.26
27.3070,0.08,0.12,-0.99,3.05,3.30,2.38
27.3210,0.08,0.12,-0.98,3.05,3.72,2.50
27.3290,0.08,0.12,-0.98,2.93,3.48,2.26
27.3440,0.08,0.12,-0.98,3.30,3.36,2.69
27.3670,0.08,0.12,-0.98,2.99,3.05,2.62
27.3820,0.08,0.12,-0.98,3.11,3.30,2.62
27.3980,0.09,0.12,-0.98,2.81,3.42,2.26
27.4130,0.08,0.12,-0.98,3.11,3.05,2.38
27.4300,0.08,0.12,-0.98,2.75,3.05,2.01
27.4450,0.08,0.12,-0.98,3.05,3.42,2.14
27.4610,0.08,0.12,-0.98,3.05,3.17,2.08
27.4760,0.06,0.12,-0.98,3.54,3.23,2.14
27.4910,0.07,0.12,-0.99,3.85,3.17,2.01
27.5020,0.08,0.12,-0.98,3.48,2.99,2.20
27.5150,0.09,0.12,-0.98,3.48,2.99,2.44
27.5350,0.08,0.12,-0.98,3.36,3.36,2.50
27.5520,0.09,0.12,-0.98,3.17,3.60,2.44
27.5680,0.08,0.12,-0.98,3.42,3.30,2.50
27.5830,0.08,0.12,-0.98,3.42,3.30,2.50
27.5990,0.09,0.12,-0.98,3.30,3.17,2.26
27.6030,0.08,0.12,-0.98,3.30,3.23,2.26
27.6190,0.09,0.12,-0.98,3.48,2.93,2.20
27.6350,0.08,0.12,-0.98,3.36,2.87,2.14
27.6570,0.08,0.12,-0.98,3.11,3.66,2.14
27.6740,0.08,0.12,-0.98,3.05,3.17,2.32
27.6910,0.07,0.12,-0.98,3.11,2.99,2.20
27.7060,0.08,0.12,-0.98,3.17,3.42,2.32
27.7230,0.08,0.12,-0.98,3.11,3.66,2.50
27.7390,0.08,0.12,-0.98,3.11,2.93,2.26
27.7550,0.08,0.12,-0.98,3.36,3.05,2.38
27.7710,0.09,0.12,-0.98,3.17,3.30,2.38
27.7740,0.08,0.12,-0.98,3.11,3.60,2.32
27.7900,0.07,0.13,-0.98,3.11,3.36,2.20
27.8140,0.08,0.12,-0.98,3.23,2.99,2.14
27.8300,0.09,0.13,-0.98,3.11,3.11,2.20
27.8470,0.08,0.12,-0.98,2.99,3.23,2.08
27.8630,0.08,0.12,-0.98,2.99,3.48,2.01
27.8790,0.08,0.12,-0.98,3.05,2.93,1.77
27.8950,0.08,0.12,-0.98,3.17,2.93,1.59
27.9110,0.09,0.12,-0.98,3.30,2.93,1.83
27.9140,0.08,0.12,-0.99,3.23,3.36,2.26
27.9430,0.07,0.12,-0.98,3.23,3.23,2.32
27.9590,0.08,0.12,-0.98,3.17,3.17,2.56
27.9640,0.08,0.12,-0.98,2.99,3.17,2.62
27.9800,0.09,0.12,-0.98,2.99,3.30,2.26
28.0020,0.08,0.12,-0.98,2.99,3.23,2.01
28.0140,0.08,0.12,-0.98,3.36,2.81,1.65
28.0360,0.08,0.12,-0.98,3.17,3.05,1.65
28.0470,0.08,0.12,-0.98,2.93,3.36,1.71
28.0630,0.08,0.12,-0.98,2.93,2.99,1.71
28.0810,0.08,0.12,-0.98,2.99,3.11,1.65
28.0970,0.08,0.12,-0.98,3.05,3.23,1.77
28.1130,0.08,0.12,-0.98,3.17,3.05,1.83
28.1300,0.09,0.12,-0.99,3.17,2.87,2.08
28.1440,0.08,0.12,-0.98,2.87,2.99,1.95
28.1600,0.08,0.12,-0.98,3.23,2.99,2.08
28.1640,0.08,0.12,-0.98,3.05,3.36,1.71
28.1910,0.08,0.12,-0.98,3.17,3.11,1.71
28.2020,0.08,0.12,-0.98,3.11,3.11,1.22
28.2130,0.09,0.12,-0.98,3.11,2.87,1.28
28.2340,0.08,0.12,-0.99,2.87,3.11,1.28
28.2510,0.08,0.12,-0.98,2.99,3.05,1.04
28.2670,0.07,0.13,-0.98,2.56,2.87,1.04
28.2830,0.08,0.12,-0.98,2.93,3.30,0.92
28.2850,0.08,0.12,-0.98,2.87,3.11,1.16
28.3150,0.09,0.12,-0.98,2.87,3.42,1.40
28.3310,0.08,0.12,-0.98,2.93,3.17,1.71
28.3460,0.08,0.12,-0.98,2.75,3.48,1.71
28.3630,0.08,0.12,-0.98,3.11,3.05,1.83
28.3790,0.08,0.12,-0.98,3.17,3.23,1.95
28.3950,0.08,0.12,-0.99,2.93,2.75,2.50
28.4110,0.08,0.12,-0.98,3.11,3.05,2.75
28.4270,0.08,0.12,-0.98,2.69,2.81,2.50
28.4430,0.08,0.12,-0.98,2.75,3.23,2.50
28.4570,0.08,0.12,-0.99,3.30,3.11,2.38
28.4680,0.07,0.12,-0.99,2.87,2.99,2.56
28.4850,0.07,0.12,-0.98,2.69,3.17,2.56
28.5010,0.08,0.12,-0.98,3.23,2.69,2.56
28.5170,0.08,0.12,-0.98,3.17,2.87,2.75
28.5330,0.08,0.12,-0.98,3.23,2.62,2.81
28.5490,0.08,0.12,-0.99,3.42,2.87,2.93
28.5520,0.08,0.12,-0.98,3.05,2.93,2.99
28.5800,0.08,0.12,-0.98,2.93,3.17,3.05
28.5970,0.08,0.12,-0.98,2.75,2.87,3.05
28.6130,0.09,0.12,-0.98,2.81,2.62,2.93
28.6290,0.08,0.12,-0.98,3.11,2.75,3.17
28.6450,0.09,0.12,-0.98,2.81,2.56,3.17
28.6600,0.08,0.12,-0.98,3.11,2.87,3.05
28.6690,0.09,0.12,-0.99,3.11,2.99,3.36
28.6840,0.08,0.12,-0.98,3.23,2.44,3.30
28.7050,0.09,0.12,-0.99,3.36,2.50,3.11
28.7210,0.08,0.12,-0.98,2.75,2.26,3.17
28.7380,0.08,0.12,-0.98,2.75,2.69,3.23
28.7540,0.08,0.12,-0.98,2.93,2.75,2.99
28.7710,0.08,0.12,-0.99,3.42,2.69,2.93
28.7870,0.08,0.12,-0.98,2.93,2.69,3.17
28.7890,0.08,0.12,-0.99,3.11,2.69,3.36
28.8170,0.07,0.12,-0.98,3.17,2.56,3.36
28.8320,0.08,0.12,-0.98,3.30,2.62,3.72
28.8400,0.09,0.12,-0.98,3.36,2.56,3.97
28.8620,0.09,0.12,-0.99,3.42,2.50,3.54
28.8770,0.08,0.12,-0.98,2.99,2.75,3.54
28.8880,0.08,0.12,-0.98,3.17,2.93,3.66
28.9050,0.09,0.12,-0.98,3.48,2.93,3.60
28.9220,0.09,0.12,-0.98,3.36,3.05,3.30
28.9380,0.09,0.12,-0.98,3.23,3.05,3.23
28.9550,0.09,0.12,-0.98,2.99,2.75,2.81
28.9700,0.09,0.12,-0.98,3.11,2.69,2.81
28.9850,0.09,0.12,-0.98,2.99,2.87,2.44
29.0010,0.08,0.12,-0.99,3.17,3.05,2.32
29.0150,0.08,0.12,-0.98,3.23,3.05,2.32
29.0300,0.08,0.12,-0.98,3.11,3.11,2.14
29.0460,0.08,0.12,-0.98,3.48,2.93,2.20
29.0600,0.08,0.12,-0.98,3.66,3.11,2.08
29.0710,0.08,0.12,-0.98,4.09,2.81,1.95
29.0890,0.08,0.12,-0.98,4.46,2.56,2.08
29.1050,0.08,0.15,-1.00,4.70,2.62,2.20
29.1210,0.09,0.11,-1.00,4.52,2.44,2.20
29.1380,0.08,0.12,-0.98,3.48,3.11,2.20
29.1550,0.08,0.12,-0.98,3.42,2.87,2.20
29.1710,0.08,0.12,-0.99,3.54,3.05,2.14
29.1870,0.08,0.12,-0.98,3.17,3.48,2.08
29.2030,0.08,0.12,-0.98,3.23,3.42,2.01
29.2180,0.08,0.12,-0.98,3.11,3.11,2.01
29.2330,0.08,0.12,-0.99,2.81,3.78,2.08
29.2390,0.08,0.12,-0.98,3.05,3.72,2.08
29.2550,0.08,0.12,-0.98,3.05,3.60,2.14
29.2720,0.08,0.12,-0.98,3.23,3.54,2.08
29.2880,0.09,0.12,-0.98,2.99,3.66,2.01
29.3050,0.08,0.12,-0.98,3.11,3.66,1.83
29.3220,0.08,0.12,-0.98,3.17,3.42,1.83
29.3380,0.08,0.13,-0.98,3.66,3.66,1.83
29.3530,0.08,0.12,-0.98,3.85,3.30,1.83
29.3690,0.09,0.13,-0.98,5.19,3.54,1.71
29.3830,0.06,0.12,-0.99,4.46,2.87,2.01
29.3890,0.08,0.12,-0.98,4.15,3.30,2.26
29.4060,0.08,0.13,-0.99,4.03,3.11,2.26
29.4210,0.08,0.12,-0.98,3.91,3.11,2.20
29.4380,0.08,0.12,-0.98,4.39,3.54,2.14
29.4550,0.08,0.13,-0.98,4.94,3.48,2.20
29.4730,0.08,0.10,-0.97,0.24,3.17,1.95
29.4880,0.08,0.12,-0.98,3.72,2.81,2.01
29.5030,0.08,0.12,-0.98,3.17,3.17,2.14
29.5190,0.08,0.12,-0.98,3.23,3.05,2.01
29.5340,0.08,0.12,-0.98,3.30,3.17,1.95
29.5380,0.08,0.12,-0.98,3.23,3.30,2.08
29.5640,0.08,0.12,-0.98,3.17,3.30,2.01
29.5710,0.08,0.12,-0.98,3.23,3.11,2.08
29.5890,0.08,0.12,-0.98,3.42,2.99,2.01
29.6040,0.08,0.12,-0.98,3.23,3.05,2.08
29.6210,0.08,0.12,-0.98,3.23,3.05,2.01
29.6380,0.08,0.12,-0.98,3.23,2.93,2.01
29.6540,0.08,0.12,-0.98,3.23,3.17,2.08
29.6560,0.08,0.12,-0.98,3.30,3.05,2.01
29.6850,0.08,0.12,-0.98,3.30,2.93,2.01
29.6890,0.08,0.12,-0.98,3.17,2.62,2.14
29.7050,0.08,0.12,-0.98,3.17,3.11,2.01
29.7210,0.08,0.12,-0.98,3.11,3.48,2.08
29.7450,0.08,0.12,-0.98,3.05,3.48,1.89
29.7610,0.08,0.12,-0.98,3.23,3.48,2.01
29.7770,0.08,0.12,-0.98,3.30,3.05,2.01
29.7790,0.08,0.12,-0.98,3.30,2.81,1.95
29.8050,0.08,0.13,-0.98,3.36,3.42,2.14
29.8120,0.08,0.13,-0.98,3.11,3.23,2.08
29.8350,0.08,0.12,-0.98,3.05,2.87,2.01
29.8520,0.08,0.12,-0.98,3.11,3.36,2.08
29.8680,0.08,0.13,-0.98,2.93,3.30,2.01
29.8840,0.08,0.12,-0.98,2.75,3.11,2.01
29.9000,0.08,0.12,-0.98,2.81,3.17,2.01
29.9160,0.08,0.12,-0.98,3.11,3.11,2.01
29.9190,0.08,0.12,-0.98,3.30,2.81,2.01
29.9340,0.08,0.12,-0.98,3.42,2.99,1.89
29.9600,0.08,0.12,-0.98,3.36,2.99,1.95
29.9770,0.08,0.12,-0.98,3.48,3.05,2.08
29.9930,0.08,0.12,-0.98,3.36,3.11,2.14
30.0060,0.08,0.12,-0.98,3.11,3.11,2.01
30.0100,0.08,0.12,-0.98,3.30,3.36,2.14
30.0270,0.08,0.12,-0.98,3.30,3.17,2.08
30.0440,0.09,0.12,-0.98,3.48,3.17,2.08
30.0600,0.08,0.12,-0.98,3.11,3.17,1.71
30.0760,0.09,0.12,-0.98,3.11,2.69,1.83
30.1000,0.09,0.12,-0.98,3.05,3.30,1.65
30.1160,0.09,0.12,-0.98,3.23,3.36,1.28
30.1310,0.09,0.12,-0.98,3.17,3.05,0.98
30.1470,0.09,0.12,-0.98,3.48,3.30,1.16
30.1630,0.08,0.12,-0.99,3.17,3.36,0.61
30.1790,0.10,0.12,-0.98,3.23,3.11,0.18
30.1950,0.09,0.13,-0.98,2.99,3.36,-0.24
30.2110,0.08,0.13,-0.98,3.11,3.54,0.06
30.2160,0.08,0.12,-0.98,3.30,3.23,0.55
30.2420,0.08,0.13,-0.98,3.36,3.30,0.85
30.2570,0.08,0.13,-0.98,3.23,3.11,0.37
30.2720,0.08,0.13,-0.98,3.36,3.78,-0.12
30.2830,0.08,0.13,-0.98,3.23,3.72,0.06
30.2990,0.08,0.12,-0.98,3.48,3.23,0.85
30.3150,0.08,0.13,-0.98,3.30,3.23,1.71
30.3340,0.09,0.12,-0.98,3.48,2.81,2.08
30.3490,0.09,0.13,-0.98,3.48,3.42,2.08
30.3540,0.09,0.14,-0.98,3.42,2.99,2.26
30.3690,0.09,0.13,-0.98,3.17,3.23,2.62
30.3930,0.08,0.13,-0.98,3.23,3.48,2.81
30.4060,0.07,0.12,-0.99,3.23,3.17,2.81
30.4130,0.07,0.12,-0.98,2.93,3.72,2.75
30.4300,0.07,0.11,-0.99,2.87,3.48,2.62
30.4560,0.08,0.12,-0.99,2.99,3.36,2.38
30.4710,0.08,0.12,-0.98,2.93,3.17,2.56
30.4800,0.08,0.13,-0.98,2.62,3.48,2.75
30.4960,0.08,0.13,-0.98,2.38,2.87,2.56
30.5180,0.08,0.13,-0.98,2.93,2.99,2.38
30.5210,0.08,0.12,-0.98,2.69,2.81,3.48
30.5380,0.08,0.12,-0.99,2.62,2.69,3.91
30.5630,0.08,0.12,-0.99,2.56,2.87,3.48
30.5780,0.08,0.12,-0.98,2.50,2.81,3.05
30.5880,0.08,0.11,-0.99,2.56,2.75,3.05
30.6070,0.08,0.12,-0.98,2.20,3.17,2.99
30.6200,0.08,0.12,-0.99,2.44,3.30,2.50
30.6400,0.08,0.12,-0.98,2.75,3.17,2.50
30.6460,0.08,0.12,-0.98,2.69,3.66,2.38
30.6700,0.08,0.12,-0.98,2.87,3.17,2.81
30.6790,0.07,0.12,-0.99,3.05,2.99,2.81
30.6960,0.08,0.11,-0.98,2.87,3.36,2.75
30.7120,0.09,0.11,-0.98,2.87,3.05,3.05
30.7330,0.09,0.12,-0.98,2.75,3.42,2.93
30.7490,0.09,0.12,-0.98,2.93,3.11,2.81
30.7650,0.08,0.12,-0.98,3.17,3.23,2.56
30.7810,0.08,0.12,-0.98,3.23,3.36,2.75
30.7850,0.07,0.12,-0.99,3.23,3.17,2.87
30.8130,0.07,0.12,-0.99,2.99,3.17,3.30
30.8280,0.06,0.12,-0.99,2.38,3.23,3.85
30.8430,0.08,0.12,-0.99,2.56,3.36,3.78
30.8540,0.09,0.11,-0.98,2.81,2.99,3.11
30.8690,0.09,0.12,-0.98,3.54,2.87,2.81
30.8870,0.10,0.12,-0.98,3.42,2.99,2.99
30.9030,0.09,0.12,-0.98,3.42,2.81,2.62
30.9180,0.08,0.12,-0.98,3.30,3.23,2.62
30.9350,0.08,0.12,-0.98,3.36,3.30,2.81
30.9500,0.08,0.11,-0.98,3.60,2.93,2.93
30.9660,0.08,0.11,-0.99,3.72,3.05,3.05
30.9700,0.08,0.12,-0.99,3.60,3.05,2.81
30.9990,0.09,0.13,-0.98,3.30,2.62,3.05
31.0070,0.09,0.13,-0.98,3.48,2.87,3.05
31.0220,0.09,0.13,-0.98,3.17,3.17,3.11
31.0430,0.09,0.13,-0.98,3.17,3.11,2.62
31.0550,0.08,0.12,-0.98,3.11,3.23,2.01
31.0720,0.08,0.12,-0.98,3.11,3.30,2.01
31.0890,0.08,0.12,-0.98,3.36,3.30,1.95
31.1050,0.08,0.12,-0.98,3.23,3.11,1.83
31.1210,0.09,0.12,-0.98,3.11,3.11,1.71
31.1380,0.09,0.12,-0.98,3.42,3.48,1.40
31.1530,0.09,0.12,-0.98,3.36,3.23,0.79
31.1700,0.08,0.12,-0.98,3.30,3.42,0.55
31.1720,0.08,0.15,-0.98,3.30,3.48,0.61
31.1870,0.10,0.13,-0.98,3.23,3.42,0.00
31.2110,0.09,0.12,-0.98,3.72,3.72,-1.59
31.2290,0.08,0.12,-0.98,3.72,3.48,-1.34
31.2440,0.08,0.12,-0.98,3.66,3.72,-0.85
31.2610,0.07,0.11,-0.99,3.42,3.60,-0.06
31.2760,0.07,0.11,-0.99,3.42,3.30,0.98
31.2920,0.08,0.12,-0.99,3.36,3.42,1.34
31.3080,0.08,0.12,-0.98,3.17,3.48,1.95
31.3110,0.08,0.12,-0.98,3.17,3.17,2.20
31.3400,0.08,0.12,-0.98,2.99,3.11,2.50
31.3560,0.08,0.12,-0.98,3.17,3.17,2.38
31.3620,0.08,0.12,-0.98,2.99,3.17,2.56
31.3880,0.09,0.13,-0.98,3.05,3.11,2.26
31.4030,0.08,0.12,-0.98,3.05,3.23,2.75
31.4120,0.08,0.13,-0.98,3.11,2.93,2.87
31.4290,0.08,0.13,-0.98,2.56,3.36,3.60
31.4450,0.08,0.12,-0.98,2.50,3.11,4.15
31.4610,0.08,0.12,-0.98,2.69,3.17,3.72
31.4790,0.08,0.12,-0.98,2.81,2.87,3.66
31.4950,0.08,0.12,-0.98,3.05,3.05,3.23
31.5110,0.08,0.12,-0.98,3.17,3.17,2.99
31.5280,0.08,0.13,-0.98,3.05,3.17,2.93
31.5430,0.08,0.12,-0.98,3.11,2.69,3.85
31.5600,0.08,0.12,-0.98,3.11,2.62,4.27
31.5770,0.08,0.12,-0.98,2.81,2.32,4.33
31.5780,0.08,0.12,-0.98,2.93,2.81,4.64
31.6080,0.08,0.11,-0.98,2.93,3.05,3.97
31.6230,0.08,0.11,-0.99,3.23,2.99,2.87
31.6280,0.08,0.11,-0.99,3.05,2.75,2.62
31.6440,0.08,0.12,-0.98,3.23,2.87,2.50
31.6680,0.09,0.13,-0.98,3.30,2.93,2.38
31.6830,0.09,0.13,-0.98,3.36,2.99,2.81
31.6980,0.09,0.13,-0.98,3.36,2.50,2.93
31.7130,0.08,0.13,-0.98,3.23,2.99,2.99
31.7290,0.08,0.12,-0.98,2.99,2.81,2.99
31.7440,0.08,0.12,-0.98,3.11,2.75,2.99
31.7530,0.08,0.11,-0.99,2.99,3.30,2.93
31.7680,0.08,0.12,-0.98,3.23,3.23,2.44
31.7900,0.09,0.12,-0.98,3.17,3.05,1.89
31.8050,0.08,0.12,-0.98,3.48,2.75,1.71
31.8210,0.08,0.12,-0.98,3.17,2.87,1.95
31.8250,0.09,0.13,-0.98,3.42,3.05,1.89
31.8530,0.08,0.11,-0.98,3.54,3.48,1.16
31.8650,0.08,0.11,-0.98,3.42,3.54,1.10
31.8820,0.08,0.12,-0.98,3.48,3.60,1.53
31.8980,0.08,0.12,-0.98,3.48,3.36,1.77
31.9140,0.08,0.12,-0.98,3.17,3.11,2.32
31.9310,0.08,0.12,-0.98,3.17,2.87,2.93
31.9320,0.08,0.13,-0.98,3.30,2.50,3.36
31.9640,0.08,0.12,-0.98,3.11,3.17,3.85
31.9650,0.08,0.11,-0.98,3.05,2.87,3.66
31.9810,0.08,0.11,-0.99,3.36,3.05,2.99
32.0070,0.08,0.11,-0.98,3.36,2.99,1.95
32.0260,0.08,0.12,-0.98,3.42,3.23,1.22
32.0310,0.09,0.13,-0.98,3.30,3.48,0.98
32.0470,0.08,0.13,-0.98,3.42,3.17,1.10
32.0710,0.08,0.13,-0.98,3.17,2.81,1.59
32.0750,0.08,0.12,-0.98,3.42,2.99,1.77
32.1030,0.08,0.12,-0.99,3.30,2.93,1.89
32.1070,0.08,0.11,-0.99,3.23,3.30,2.08
32.1230,0.07,0.11,-0.99,3.17,2.56,2.14
32.1450,0.08,0.12,-0.98,3.42,2.50,2.20
32.1630,0.09,0.13,-0.98,3.42,3.30,2.26
32.1790,0.09,0.13,-0.98,3.30,3.36,1.28
32.1950,0.08,0.12,-0.98,3.05,3.30,1.22
32.2110,0.09,0.12,-0.98,3.23,3.17,0.98
32.2130,0.08,0.12,-0.98,3.30,3.42,0.67
32.2300,0.08,0.11,-0.99,3.36,3.30,0.73
32.2590,0.08,0.11,-0.98,3.30,3.48,0.67
32.2630,0.08,0.12,-0.98,3.30,3.30,1.16
32.2800,0.09,0.13,-0.98,3.17,3.23,1.59
32.3070,0.09,0.13,-0.98,3.23,2.75,1.71
32.3190,0.08,0.12,-0.98,3.05,2.87,1.89
32.3360,0.08,0.11,-0.99,2.87,3.05,2.56
32.3520,0.08,0.11,-0.99,3.11,2.87,2.69
32.3690,0.08,0.12,-0.98,2.99,3.05,3.17
32.3840,0.08,0.12,-0.98,3.11,3.05,3.23
32.3990,0.08,0.12,-0.98,3.11,2.87,2.44
32.4080,0.09,0.12,-0.98,2.87,3.11,1.89
32.4190,0.08,0.12,-0.98,3.36,2.93,2.01
32.4420,0.08,0.12,-0.99,3.42,2.99,2.38
32.4580,0.08,0.12,-0.98,3.11,3.17,2.50
32.4750,0.09,0.13,-0.98,2.93,3.11,2.08
32.4910,0.08,0.12,-0.98,3.23,3.05,1.46
32.5080,0.08,0.12,-0.98,3.23,3.17,1.53
32.5250,0.08,0.12,-0.98,3.05,2.99,1.65
32.5400,0.08,0.11,-0.99,3.17,3.05,2.08
32.5570,0.08,0.11,-0.98,3.30,3.30,2.20
32.5730,0.08,0.12,-0.98,3.17,3.17,2.20
32.5890,0.08,0.12,-0.98,3.36,3.05,2.32
32.6050,0.08,0.12,-0.98,3.11,3.36,2.50
32.6080,0.08,0.13,-0.98,3.23,3.05,2.69
32.6240,0.08,0.12,-0.98,2.93,2.87,3.05
32.6490,0.08,0.12,-0.98,2.99,2.87,3.30
32.6650,0.08,0.11,-0.98,3.11,3.23,3.23
32.6810,0.08,0.11,-0.98,3.30,2.99,2.44
32.6980,0.09,0.13,-0.98,3.30,3.11,2.20
32.7140,0.08,0.13,-0.98,3.30,3.42,2.08
32.7150,0.08,0.12,-0.98,2.99,3.23,2.01
32.7450,0.08,0.13,-0.98,2.99,2.93,2.38
32.7480,0.09,0.13,-0.98,3.23,3.05,2.87
32.7780,0.08,0.12,-0.98,2.93,2.75,2.99
32.7820,0.08,0.12,-0.98,2.93,2.99,3.42
32.8080,0.08,0.12,-0.99,2.99,3.17,3.54
32.8140,0.08,0.11,-0.99,2.87,2.99,3.85
32.8370,0.08,0.11,-0.98,2.87,2.75,3.42
32.8530,0.08,0.12,-0.98,3.05,3.11,2.75
32.8700,0.08,0.13,-0.98,3.17,2.75,3.23
32.8860,0.08,0.13,-0.98,3.11,2.87,3.05
32.9020,0.09,0.13,-0.98,3.23,2.81,2.81
32.9170,0.09,0.12,-0.98,3.30,2.99,2.20
32.9330,0.08,0.11,-0.98,3.17,2.87,2.32
32.9490,0.08,0.11,-0.99,3.05,2.93,2.62
32.9540,0.08,0.11,-0.99,3.17,2.87,2.56
32.9690,0.08,0.11,-0.98,3.36,3.05,2.44
32.9940,0.08,0.12,-0.98,3.23,3.11,2.14
33.0100,0.09,0.13,-0.98,3.42,3.11,2.32
33.0120,0.09,0.13,-0.98,3.36,2.99,2.50
33.0420,0.09,0.13,-0.98,2.99,3.36,2.56
33.0450,0.08,0.12,-0.99,2.99,3.05,2.38
33.0620,0.08,0.12,-0.98,3.05,2.87,2.44
33.0900,0.08,0.11,-0.98,3.23,3.11,2.69
33.1060,0.08,0.11,-0.98,3.23,3.30,1.89
33.1120,0.08,0.12,-0.98,3.60,3.17,0.85
33.1280,0.08,0.12,-0.98,3.60,2.87,1.04
33.1510,0.08,0.12,-0.99,3.66,2.93,0.98
33.1660,0.08,0.12,-0.98,3.54,3.23,1.40
33.1820,0.08,0.12,-0.98,3.42,2.93,1.89
33.1840,0.08,0.12,-0.98,3.48,3.23,2.56
33.2130,0.08,0.12,-0.98,3.17,3.05,2.56
33.2290,0.08,0.12,-0.98,3.36,2.81,2.32
33.2450,0.08,0.12,-0.98,3.36,2.93,2.44
33.2600,0.08,0.12,-0.98,3.11,3.23,2.62
33.2770,0.08,0.12,-0.99,3.05,3.11,2.69
33.2920,0.08,0.12,-0.98,2.93,2.81,2.69
33.3070,0.08,0.12,-0.98,3.11,2.87,2.38
33.3170,0.09,0.12,-0.98,3.17,3.11,2.62
33.3340,0.09,0.12,-0.98,3.48,3.11,2.69
33.3500,0.08,0.12,-0.98,3.11,3.42,2.44
33.3670,0.09,0.13,-0.98,3.17,3.11,2.44
33.3830,0.08,0.12,-0.98,3.23,2.87,2.75
33.3990,0.09,0.12,-0.98,3.11,2.62,2.93
33.4150,0.08,0.12,-0.98,3.36,2.87,2.75
33.4310,0.08,0.12,-0.98,3.36,2.87,2.20
33.4480,0.08,0.12,-0.99,3.05,2.87,1.95
33.4630,0.09,0.12,-0.98,3.30,3.11,1.53
33.4790,0.08,0.12,-0.99,3.60,3.23,1.10
33.4950,0.08,0.12,-0.98,3.42,3.17,1.22
33.5080,0.09,0.13,-0.98,3.48,3.17,1.16
33.5160,0.09,0.12,-0.98,3.30,3.36,0.49
33.5360,0.08,0.12,-0.98,3.42,3.36,0.67
33.5530,0.08,0.12,-0.99,3.30,3.11,0.92
33.5700,0.09,0.12,-0.98,3.17,3.30,0.85
33.5860,0.08,0.12,-0.99,3.48,3.48,0.06
33.6040,0.07,0.11,-0.99,3.48,3.72,0.06
33.6200,0.08,0.12,-0.98,3.11,3.54,0.79
33.6360,0.08,0.12,-0.98,3.42,3.17,1.34
33.6520,0.08,0.12,-0.98,3.48,2.81,1.53
33.6660,0.09,0.13,-0.98,3.42,3.54,1.40
33.6810,0.09,0.13,-0.98,3.23,3.36,1.04
33.6980,0.08,0.12,-0.99,3.30,3.42,1.04
33.7130,0.07,0.11,-0.99,3.23,3.48,1.22
33.7290,0.08,0.12,-0.98,3.30,2.93,1.65
33.7440,0.08,0.12,-0.98,3.17,3.36,1.89
33.7590,0.08,0.12,-0.99,3.23,2.93,2.08
33.7720,0.08,0.12,-0.98,3.11,2.87,2.44
33.7870,0.08,0.12,-0.98,3.05,2.87,2.62
33.8030,0.08,0.13,-0.98,2.93,2.99,2.81
33.8130,0.08,0.12,-0.98,3.11,2.99,3.36
33.8300,0.08,0.12,-0.98,2.75,3.23,3.48
33.8460,0.08,0.12,-0.98,2.75,2.87,3.36
33.8640,0.08,0.12,-0.98,3.05,3.05,3.72
33.8790,0.08,0.12,-0.98,2.87,2.56,4.27
33.8940,0.08,0.12,-0.99,2.93,2.56,3.78
33.9080,0.08,0.12,-0.99,2.87,2.93,4.03
33.9240,0.08,0.12,-0.98,2.62,2.93,3.97
33.9340,0.08,0.12,-0.98,2.93,2.81,4.09
33.9520,0.08,0.12,-0.98,2.93,2.87,3.85
33.9680,0.09,0.12,-0.98,2.81,3.11,3.36
33.9850,0.09,0.12,-0.98,3.36,2.99,3.30
34.0000,0.08,0.12,-0.98,3.11,2.93,3.42
34.0160,0.08,0.12,-0.98,3.11,2.81,3.11
34.0330,0.08,0.12,-0.98,2.87,2.56,2.81
34.0480,0.09,0.12,-0.98,3.17,3.11,2.08
34.0640,0.08,0.12,-0.98,3.30,3.11,1.95
34.0790,0.08,0.12,-0.98,3.54,2.87,1.65
34.0950,0.08,0.12,-0.98,3.42,3.17,1.83
34.1110,0.09,0.12,-0.98,3.42,2.93,1.83
34.1260,0.08,0.12,-0.98,3.66,2.87,1.65
34.1410,0.09,0.13,-0.98,3.42,2.87,1.95
34.1520,0.08,0.12,-0.98,3.60,2.75,2.32
34.1680,0.09,0.13,-0.98,3.48,3.23,2.26
34.1830,0.09,0.12,-0.98,3.48,3.05,1.34
34.2040,0.08,0.12,-0.98,3.48,2.75,1.34
34.2190,0.07,0.11,-0.99,3.23,2.87,1.77
34.2330,0.08,0.12,-0.98,3.11,3.17,1.89
34.2480,0.08,0.12,-0.98,3.30,3.05,2.62
34.2630,0.08,0.12,-0.98,3.11,2.69,2.75
34.2730,0.08,0.12,-0.98,3.05,2.87,2.62
34.2890,0.08,0.13,-0.98,2.99,2.87,2.93
34.3090,0.08,0.13,-0.98,2.81,2.75,4.15
34.3230,0.08,0.13,-0.98,3.05,2.38,5.37
34.3400,0.08,0.12,-0.98,2.50,2.50,5.37
34.3560,0.08,0.11,-0.98,2.87,2.75,4.52
34.3730,0.08,0.11,-0.98,2.81,2.81,3.60
34.3880,0.08,0.11,-0.98,2.81,2.99,3.36
34.4040,0.08,0.12,-0.99,3.11,2.62,2.75
34.4180,0.08,0.12,-0.98,2.99,2.93,2.26
34.4230,0.08,0.12,-0.99,2.99,3.11,2.38
34.4380,0.08,0.12,-0.98,2.81,3.17,2.38
34.4620,0.08,0.12,-0.98,2.99,2.69,2.14
34.4800,0.08,0.11,-0.99,3.05,3.11,2.14
34.4960,0.08,0.12,-0.98,3.05,3.05,1.83
34.5120,0.08,0.12,-0.98,3.36,2.99,1.83
34.5120,0.09,0.12,-0.98,3.36,2.87,1.77
34.5290,0.09,0.12,-0.98,3.36,2.99,1.83
34.5460,0.09,0.13,-0.98,3.30,2.93,2.08
34.5640,0.08,0.12,-0.98,3.17,3.11,2.38
34.5800,0.08,0.12,-0.98,3.17,2.93,2.26
34.6030,0.08,0.12,-0.98,3.30,2.99,2.62
34.6190,0.08,0.12,-0.99,3.30,2.56,2.87
34.6370,0.08,0.12,-0.98,3.23,2.99,2.20
34.6370,0.09,0.13,-0.98,3.36,3.23,1.65
34.6670,0.08,0.12,-0.99,3.48,2.87,1.89
34.6700,0.08,0.12,-0.99,3.42,2.99,2.26
34.6970,0.08,0.12,-0.98,3.30,3.05,2.44
34.7120,0.08,0.12,-0.99,3.48,2.87,2.26
34.7290,0.09,0.13,-0.98,3.17,2.93,2.38
34.7430,0.08,0.12,-0.98,3.23,2.87,2.75
34.7580,0.08,0.12,-0.99,3.23,2.62,2.99
34.7700,0.08,0.12,-0.98,2.75,2.81,3.17
34.7860,0.08,0.12,-0.98,3.05,2.99,2.50
34.8020,0.08,0.12,-0.98,2.81,2.99,2.38
34.8190,0.08,0.11,-0.98,3.05,3.23,2.62
34.8350,0.08,0.12,-0.98,2.93,3.42,2.50
34.8520,0.08,0.12,-0.99,3.23,3.17,1.95
34.8670,0.09,0.13,-0.98,3.05,3.11,2.14
34.8700,0.09,0.13,-0.98,3.42,3.17,2.75
34.8860,0.08,0.12,-0.99,3.30,2.87,2.81
34.9100,0.08,0.11,-0.99,2.99,3.30,3.42
34.9260,0.07,0.11,-0.98,2.44,3.11,4.27
34.9440,0.07,0.10,-0.99,2.81,2.99,3.54
34.9590,0.08,0.11,-0.98,2.87,2.81,2.99
34.9750,0.09,0.12,-0.98,3.11,3.11,2.69
34.9910,0.08,0.13,-0.98,2.99,3.30,2.50
34.9920,0.09,0.12,-0.98,2.56,2.99,1.95
35.0230,0.08,0.12,-0.98,2.99,2.62,3.17
35.0250,0.08,0.11,-0.99,3.17,2.75,3.85
35.0430,0.08,0.11,-0.98,2.93,2.81,3.30
35.0680,0.08,0.11,-0.99,3.11,3.11,2.87
35.0760,0.08,0.11,-0.99,3.23,2.75,2.93
35.0930,0.08,0.12,-0.98,3.48,2.93,2.99
35.1100,0.08,0.13,-0.98,3.42,3.17,3.17
35.1250,0.09,0.13,-0.98,3.48,2.87,2.99
35.1430,0.09,0.13,-0.98,3.17,3.23,2.75
35.1580,0.09,0.12,-0.98,3.17,3.05,2.87
35.1750,0.08,0.13,-0.98,3.05,2.93,3.85
35.1910,0.09,0.12,-0.98,2.87,2.38,3.97
35.1920,0.08,0.11,-0.99,3.36,2.56,3.78
35.2110,0.08,0.11,-0.98,3.42,2.62,3.85
35.2260,0.08,0.11,-0.98,3.36,2.56,3.60
35.2550,0.09,0.12,-0.99,3.72,2.87,2.87
35.2590,0.08,0.12,-0.98,3.85,3.42,1.65
35.2750,0.08,0.12,-0.98,3.72,2.99,1.22
35.3020,0.09,0.13,-0.98,3.60,2.99,1.53
35.3110,0.09,0.13,-0.98,3.78,3.05,2.75
35.3250,0.08,0.12,-0.98,3.30,2.56,3.36
35.3410,0.08,0.12,-0.98,2.93,2.75,3.78
35.3620,0.08,0.11,-0.99,3.05,2.50,4.09
35.3770,0.07,0.11,-0.99,3.05,2.81,3.85
35.3930,0.08,0.12,-0.98,2.93,2.56,3.97
35.4070,0.09,0.12,-0.98,3.05,2.99,4.27
35.4170,0.08,0.12,-0.98,3.23,2.56,4.33
35.4320,0.09,0.12,-0.98,3.42,2.87,4.39
35.4530,0.09,0.13,-0.98,3.36,2.75,4.21
35.4690,0.09,0.13,-0.98,3.42,2.75,4.88
35.4850,0.08,0.12,-0.98,2.87,2.87,5.49
35.5010,0.08,0.12,-0.98,3.05,2.56,5.13
35.5110,0.08,0.11,-0.98,2.87,3.11,4.09
35.5220,0.08,0.11,-0.98,3.23,3.17,3.85
35.5380,0.08,0.12,-0.98,3.66,2.81,3.36
35.5550,0.08,0.12,-0.98,3.42,2.99,2.93
35.5710,0.08,0.12,-0.98,3.60,2.87,2.69
35.5890,0.09,0.12,-0.98,3.42,2.56,2.69
35.6050,0.08,0.12,-0.98,3.36,2.99,3.42
35.6210,0.09,0.12,-0.98,3.23,2.81,3.42
35.6380,0.08,0.12,-0.98,3.11,2.81,2.75
35.6530,0.08,0.12,-0.98,3.30,2.93,2.62
35.6700,0.07,0.11,-0.99,2.93,2.93,2.87
35.6850,0.08,0.12,-0.98,3.11,2.81,2.99
35.6880,0.09,0.13,-0.98,3.11,2.93,2.99
35.7110,0.08,0.12,-0.98,3.17,2.62,3.23
35.7250,0.08,0.12,-0.98,3.17,2.75,3.66
35.7410,0.09,0.13,-0.98,2.99,2.99,4.46
35.7580,0.08,0.12,-0.98,3.05,2.62,4.82
35.7740,0.09,0.13,-0.98,3.17,2.50,5.07
35.7900,0.08,0.13,-0.98,3.05,2.69,4.82
35.8050,0.08,0.12,-0.98,2.99,2.56,4.82
35.8200,0.08,0.12,-0.99,2.75,2.87,5.13
35.8240,0.08,0.12,-0.98,2.99,2.81,5.80
35.8500,0.07,0.11,-0.99,2.75,2.69,5.86
35.8580,0.08,0.12,-0.98,2.50,2.44,5.62
35.8750,0.08,0.12,-0.98,2.75,2.87,5.49
35.8910,0.08,0.12,-0.98,2.99,2.26,5.25
35.9080,0.09,0.13,-0.98,2.99,2.20,5.49
35.9260,0.09,0.13,-0.98,3.05,2.20,6.84
35.9420,0.09,0.12,-0.98,2.69,2.38,7.20
35.9580,0.08,0.10,-0.99,2.56,2.81,6.16
35.9730,0.07,0.10,-0.99,2.87,2.87,4.70
35.9890,0.08,0.11,-0.99,2.99,2.99,3.17
36.0040,0.08,0.11,-0.99,3.23,3.42,2.14
36.0110,0.08,0.12,-0.98,3.42,2.93,1.95
36.0230,0.09,0.12,-0.98,3.23,3.48,2.01
36.0470,0.09,0.14,-0.98,3.23,2.99,2.14
36.0650,0.09,0.14,-0.98,3.42,2.50,3.23
36.0810,0.10,0.13,-0.98,3.17,2.62,4.39
36.0970,0.09,0.12,-0.98,3.23,2.81,4.46
36.1120,0.09,0.11,-0.98,3.30,2.62,3.66
36.1290,0.07,0.10,-0.98,3.42,2.99,3.42
36.1310,0.09,0.13,-0.98,3.60,3.05,3.78
36.1610,0.08,0.12,-0.99,3.54,2.93,4.09
36.1640,0.08,0.12,-0.98,3.30,2.38,4.03
36.1810,0.09,0.13,-0.98,2.93,2.56,5.25
36.2090,0.09,0.14,-0.98,2.69,2.26,7.75
36.2250,0.09,0.13,-0.98,2.69,1.71,9.03
36.2400,0.08,0.13,-0.98,2.69,2.14,8.91
36.2550,0.09,0.12,-0.98,2.62,2.20,8.67
36.2640,0.09,0.12,-0.98,2.75,2.08,8.42
36.2820,0.07,0.10,-0.99,3.05,2.56,7.08
36.2970,0.07,0.10,-0.99,3.11,2.81,5.74
36.3140,0.07,0.10,-0.99,2.99,2.81,4.21
36.3300,0.07,0.10,-0.99,3.23,2.56,3.66
36.3470,0.09,0.13,-0.98,3.05,2.99,3.54
36.3480,0.09,0.14,-0.98,3.30,2.50,4.94
36.3640,0.09,0.13,-0.98,2.99,2.20,5.92
36.3950,0.08,0.12,-0.99,2.69,2.87,5.74
36.3970,0.08,0.12,-0.98,2.50,2.69,5.55
36.4280,0.07,0.11,-0.99,3.11,2.75,5.07
36.4310,0.08,0.11,-0.99,2.93,2.75,4.33
36.4470,0.08,0.11,-0.98,3.17,2.50,4.21
36.4760,0.08,0.12,-0.99,3.30,2.87,4.09
36.4800,0.09,0.13,-0.98,3.05,2.81,4.64
36.5080,0.08,0.12,-0.99,2.99,2.56,5.07
36.5150,0.09,0.12,-0.98,2.62,2.62,4.82
36.5300,0.08,0.12,-0.98,2.99,2.56,5.00
36.5460,0.08,0.12,-0.98,2.62,2.44,4.58
36.5700,0.09,0.12,-0.98,2.62,2.56,5.19
36.5870,0.08,0.12,-0.99,2.56,2.50,5.80
36.6030,0.08,0.12,-0.98,2.50,2.69,5.19
36.6120,0.09,0.12,-0.98,2.81,2.50,4.94
36.6210,0.08,0.12,-0.98,3.11,2.69,5.19
36.6450,0.08,0.12,-0.98,2.69,2.50,4.52
36.6610,0.07,0.10,-0.99,2.93,2.81,3.60
36.6780,0.08,0.11,-0.98,2.87,2.99,2.38
36.6960,0.09,0.13,-0.98,3.42,2.93,2.32
36.7130,0.08,0.12,-0.99,3.42,2.75,2.81
36.7280,0.09,0.13,-0.98,2.93,2.93,3.30
36.7440,0.08,0.11,-0.99,2.87,3.11,2.87
36.7610,0.08,0.11,-0.98,2.99,3.23,2.20
36.7620,0.08,0.12,-0.98,3.60,2.81,1.77
36.7930,0.08,0.12,-0.98,3.54,2.99,1.89
36.8090,0.08,0.12,-0.98,3.23,3.23,1.89
36.8240,0.08,0.12,-0.98,3.23,3.11,2.01
36.8280,0.08,0.12,-0.98,3.30,2.87,1.95
36.8450,0.08,0.12,-0.98,3.48,3.05,2.01
36.8680,0.08,0.12,-0.98,3.60,2.87,2.01
36.8850,0.08,0.12,-0.98,3.72,3.23,2.14
36.8990,0.09,0.12,-0.99,4.15,2.69,2.08
36.9130,0.09,0.11,-0.98,4.33,2.44,1.89
36.9170,0.09,0.13,-0.99,4.03,2.81,2.08
36.9380,0.08,0.12,-0.99,3.23,3.05,2.01
36.9590,0.08,0.12,-0.99,2.87,3.23,2.20
36.9710,0.08,0.13,-0.98,3.23,3.30,2.26
36.9880,0.08,0.12,-0.98,2.87,3.17,2.26
37.0040,0.08,0.12,-0.98,2.20,3.54,2.26
37.0200,0.08,0.12,-0.98,2.93,3.30,2.14
37.0350,0.08,0.12,-0.98,2.81,3.42,2.14
37.0500,0.08,0.12,-0.98,2.81,3.05,2.14
37.0540,0.08,0.12,-0.98,2.93,3.48,2.20
37.0710,0.08,0.12,-0.98,3.17,2.93,1.95
37.0940,0.08,0.12,-0.98,3.11,2.81,2.01
37.1030,0.08,0.12,-0.99,3.23,2.93,2.01
37.1210,0.08,0.12,-0.98,3.30,3.05,2.14
37.1370,0.08,0.12,-0.99,3.60,3.11,1.95
37.1550,0.08,0.12,-0.98,3.48,3.17,2.08
37.1700,0.08,0.12,-0.98,3.42,3.17,1.89
37.1710,0.08,0.12,-0.98,3.66,3.30,2.14
37.2000,0.08,0.12,-0.99,3.54,3.11,2.01
37.2140,0.08,0.12,-0.98,3.48,2.87,2.08
37.2300,0.08,0.12,-0.98,3.36,3.11,2.08
37.2370,0.08,0.12,-0.99,3.48,3.23,2.14
37.2600,0.08,0.12,-0.98,3.48,2.81,2.20
37.2710,0.08,0.12,-0.98,3.23,2.99,1.95
37.2870,0.08,0.12,-0.98,3.30,3.17,1.95
37.3070,0.08,0.12,-0.98,3.48,2.99,2.08
37.3220,0.08,0.12,-0.98,3.54,3.36,1.95
37.3390,0.08,0.12,-0.98,3.54,3.30,2.14
37.3550,0.08,0.12,-0.98,3.72,3.11,2.08
37.3690,0.08,0.12,-0.98,3.54,3.23,2.08
37.3730,0.08,0.12,-0.98,3.42,3.11,2.08
37.3890,0.08,0.12,-0.98,3.36,3.17,2.01
37.4140,0.08,0.12,-0.99,3.36,2.87,2.20
37.4310,0.08,0.12,-0.98,2.69,3.30,1.95
37.4470,0.08,0.12,-0.98,2.93,3.30,1.95
37.4620,0.08,0.12,-0.98,3.66,3.05,2.08
37.4790,0.08,0.12,-0.99,3.17,2.69,1.95
37.4800,0.08,0.12,-0.98,3.17,3.17,2.08
37.5100,0.08,0.12,-0.98,3.05,2.99,2.01
37.5140,0.08,0.12,-0.98,3.11,2.93,2.01
37.5290,0.08,0.12,-0.98,3.23,3.42,2.14
37.5440,0.08,0.12,-0.98,3.36,3.05,2.14
37.5700,0.08,0.12,-0.98,3.42,3.17,2.20
37.5880,0.09,0.12,-0.99,3.42,3.17,2.20
37.6030,0.08,0.13,-0.98,2.69,3.17,1.95
37.6190,0.08,0.12,-0.98,2.50,3.05,2.14
37.6350,0.08,0.12,-0.98,3.66,3.11,2.32
37.6510,0.09,0.12,-0.99,3.11,3.36,2.69
37.6660,0.08,0.12,-0.98,3.11,3.23,2.20
37.6820,0.08,0.11,-0.98,3.42,3.42,2.20
37.6860,0.08,0.12,-0.99,3.48,3.11,2.56
37.7020,0.10,0.13,-0.99,2.44,3.54,2.62
37.7260,0.08,0.12,-0.97,2.14,3.72,2.08
37.7430,0.08,0.12,-0.98,3.23,3.23,2.01
37.7590,0.08,0.11,-0.99,3.60,3.60,2.26
37.7760,0.08,0.13,-0.98,3.11,3.36,2.44
37.7920,0.08,0.11,-0.98,3.17,3.23,2.38
37.8080,0.08,0.12,-0.98,3.11,2.93,2.99
37.8150,0.08,0.12,-0.98,3.30,2.99,2.62
37.8400,0.08,0.12,-0.98,3.30,2.75,2.38
37.8420,0.08,0.12,-0.99,2.87,3.05,2.32
37.8590,0.08,0.11,-0.98,2.87,3.11,2.38
37.8760,0.08,0.11,-0.98,2.87,2.87,2.93
37.8930,0.08,0.12,-0.98,2.87,2.99,3.05
37.9150,0.08,0.11,-0.99,2.99,3.30,2.81
37.9250,0.08,0.12,-0.98,3.23,3.11,2.44
37.9490,0.08,0.12,-0.98,3.11,3.36,2.14
37.9650,0.08,0.12,-0.99,3.23,3.23,2.62
37.9660,0.08,0.12,-0.98,2.69,3.17,2.56
37.9960,0.08,0.11,-0.99,3.23,2.69,2.44
38.0120,0.08,0.12,-0.98,3.05,2.69,3.05
38.0280,0.09,0.13,-0.98,2.87,2.75,3.66
38.0330,0.09,0.12,-0.98,3.42,2.99,3.36
38.0590,0.09,0.12,-0.98,3.60,3.23,2.32
38.0660,0.08,0.12,-0.98,3.11,3.72,1.95
38.0820,0.08,0.12,-0.98,3.11,3.23,1.95
38.1050,0.08,0.09,-0.99,3.05,3.23,2.75
38.1230,0.08,0.13,-0.98,2.56,2.69,3.36
38.1380,0.08,0.13,-0.98,2.93,2.93,3.78
38.1540,0.09,0.14,-0.98,3.42,3.11,3.72
38.1570,0.08,0.13,-0.98,3.42,3.17,2.56
38.1840,0.08,0.12,-0.98,3.23,2.99,2.87
38.1900,0.09,0.13,-0.98,3.05,3.48,2.75
38.2070,0.08,0.11,-0.98,3.42,3.48,1.10
38.2240,0.09,0.13,-0.98,3.11,3.54,1.34
38.2400,0.08,0.13,-0.98,3.66,3.85,0.61
38.2580,0.08,0.12,-0.98,3.30,3.54,1.10
38.2740,0.08,0.12,-0.98,3.17,3.42,1.40
38.2890,0.09,0.12,-0.98,3.30,3.11,1.16
38.3060,0.08,0.12,-0.98,3.23,3.60,0.55
38.3210,0.08,0.12,-0.99,3.36,3.78,0.55
38.3240,0.08,0.11,-0.99,3.91,3.36,-0.18
38.3400,0.08,0.12,-0.98,3.36,3.60,0.12
38.3570,0.09,0.13,-0.98,3.36,3.48,0.49
38.3740,0.08,0.12,-0.98,3.42,3.42,1.16
38.3970,0.08,0.12,-0.98,3.48,3.42,1.40
38.4070,0.08,0.12,-0.98,3.23,3.60,1.22
38.4230,0.08,0.12,-0.98,3.30,3.85,0.85
38.4450,0.08,0.12,-0.98,3.42,3.36,0.49
38.4610,0.08,0.12,-0.99,3.36,3.48,0.73
38.4630,0.08,0.12,-0.98,3.11,3.48,1.04
38.4800,0.08,0.11,-0.99,3.05,3.48,0.67
38.4970,0.08,0.11,-0.98,2.93,3.48,0.43
38.5150,0.08,0.12,-0.98,3.17,3.54,-0.12
38.5360,0.08,0.11,-0.98,3.30,3.78,-0.61
38.5510,0.09,0.13,-0.98,3.42,3.78,-0.61
38.5660,0.09,0.13,-0.98,3.48,3.42,-0.31
38.5700,0.09,0.13,-0.98,3.30,3.48,0.49
38.5860,0.09,0.12,-0.98,3.36,3.66,0.73
38.6090,0.09,0.12,-0.98,3.36,3.66,0.49
38.6270,0.08,0.12,-0.98,3.05,3.66,0.43
38.6430,0.08,0.11,-0.98,3.23,3.48,0.49
38.6600,0.08,0.11,-0.99,3.11,3.30,0.06
38.6760,0.08,0.12,-0.99,3.42,3.78,-0.24
38.6770,0.08,0.13,-0.98,3.36,3.66,-0.18
38.6940,0.08,0.13,-0.98,3.54,3.54,0.55
38.7230,0.08,0.13,-0.98,3.36,3.17,0.85
38.7270,0.09,0.13,-0.98,3.17,3.36,0.79
38.7430,0.08,0.12,-0.98,2.99,3.42,1.22
38.7660,0.08,0.12,-0.99,3.23,3.42,1.46
38.7840,0.08,0.12,-0.98,3.05,3.36,1.04
38.7990,0.08,0.12,-0.98,3.11,3.66,1.40
38.8150,0.08,0.12,-0.99,3.11,3.48,1.10
38.8300,0.08,0.12,-0.98,3.11,3.42,0.85
38.8450,0.08,0.12,-0.98,3.36,3.30,0.79
38.8620,0.08,0.12,-0.99,3.11,3.66,0.85
38.8670,0.09,0.12,-0.98,3.23,3.54,0.98
38.8830,0.08,0.12,-0.98,3.36,3.42,0.92
38.9000,0.09,0.12,-0.98,3.36,3.48,0.92
38.9240,0.09,0.12,-0.98,3.48,3.72,0.24
38.9330,0.08,0.12,-0.98,3.66,3.60,0.24
38.9490,0.08,0.12,-0.98,3.66,3.48,0.12
38.9650,0.08,0.12,-0.99,3.11,3.60,0.00
38.9870,0.08,0.12,-0.98,3.78,3.54,0.31
39.0020,0.08,0.12,-0.98,3.48,3.23,0.37
39.0170,0.08,0.12,-0.98,3.42,3.36,0.85
39.0320,0.09,0.13,-0.98,3.36,3.23,0.98
39.0380,0.08,0.12,-0.99,3.42,3.60,0.49
39.0640,0.08,0.12,-0.98,3.54,3.60,0.24
39.0720,0.08,0.12,-0.99,3.91,3.66,-0.12
39.0880,0.08,0.12,-0.98,3.85,3.54,-0.31
39.1060,0.08,0.11,-0.98,3.54,3.23,-0.12
39.1210,0.08,0.12,-0.98,3.66,3.42,0.49
39.1380,0.08,0.11,-0.99,3.30,3.66,1.04
39.1540,0.08,0.12,-0.98,3.48,3.17,1.59
39.1700,0.08,0.12,-0.98,3.36,3.23,1.34
39.1860,0.08,0.12,-0.98,3.23,3.48,2.08
39.2010,0.08,0.13,-0.99,3.48,3.23,2.69
39.2160,0.08,0.13,-0.98,3.23,2.99,3.17
39.2310,0.08,0.12,-0.98,3.42,3.36,2.75
39.2460,0.09,0.12,-0.98,3.30,3.30,2.50
39.2540,0.08,0.11,-0.99,3.48,3.42,2.38
39.2760,0.09,0.12,-0.98,3.23,3.11,2.50
39.2880,0.08,0.12,-0.98,3.54,3.60,1.22
39.3050,0.08,0.11,-0.99,3.91,3.42,0.55
39.3200,0.08,0.12,-0.98,3.48,3.11,1.83
39.3360,0.08,0.13,-0.98,3.30,3.05,2.38
39.3510,0.08,0.13,-0.98,3.30,3.11,1.89
39.3550,0.08,0.12,-0.99,3.30,3.36,1.34
39.3700,0.08,0.13,-0.98,3.23,3.17,1.95
39.3940,0.08,0.12,-0.98,3.48,3.36,0.92
39.4120,0.08,0.12,-0.99,3.30,3.60,0.85
39.4280,0.08,0.11,-0.98,3.42,3.36,0.55
39.4280,0.08,0.11,-0.99,3.48,3.36,0.43
39.4580,0.09,0.13,-0.98,3.42,3.30,0.31
39.4740,0.08,0.12,-0.98,3.78,3.48,0.73
39.4890,0.08,0.12,-0.98,3.42,3.30,0.85
39.5050,0.08,0.11,-0.98,3.72,3.30,0.73
39.5160,0.08,0.11,-0.99,3.36,3.48,0.79
39.5270,0.08,0.11,-0.99,3.60,3.23,0.67
39.5440,0.08,0.12,-0.99,3.66,3.17,0.61
39.5600,0.08,0.12,-0.98,3.85,3.36,0.43
39.5830,0.08,0.13,-0.98,3.54,3.78,0.00
39.6000,0.08,0.12,-0.98,3.78,3.42,-0.12
39.6150,0.08,0.12,-0.98,3.72,3.48,0.37
39.6180,0.08,0.13,-0.98,3.66,3.54,-0.31
39.6470,0.08,0.13,-0.98,3.78,3.72,-0.12
39.6640,0.08,0.12,-0.98,3.91,3.66,-0.06
39.6790,0.08,0.12,-0.98,3.60,3.60,0.24
39.6840,0.08,0.13,-0.98,3.66,3.72,-0.12
39.7120,0.08,0.13,-0.98,3.60,3.60,-0.12
39.7270,0.08,0.13,-0.98,3.54,3.36,0.00
39.7340,0.08,0.12,-0.98,3.60,3.48,0.00
39.7520,0.08,0.13,-0.98,3.42,3.91,-0.67
39.7670,0.08,0.13,-0.98,3.54,3.66,-0.67
39.7830,0.09,0.13,-0.98,3.42,3.54,0.00
39.8030,0.08,0.13,-0.98,3.36,3.60,0.31
39.8180,0.08,0.12,-0.98,3.23,3.66,1.04
39.8330,0.08,0.13,-0.98,3.17,3.48,0.31
39.8480,0.08,0.13,-0.98,3.36,3.54,0.18
39.8570,0.08,0.13,-0.98,3.48,3.17,0.43
39.8730,0.08,0.12,-0.98,3.17,3.11,0.55
39.8930,0.08,0.11,-0.98,3.23,3.30,0.73
39.9080,0.08,0.11,-0.99,3.23,3.60,0.37
39.9170,0.08,0.12,-0.98,3.11,3.78,0.24
39.9310,0.08,0.13,-0.98,3.05,3.48,0.55
39.9520,0.08,0.13,-0.98,3.17,3.48,1.16
39.9690,0.08,0.13,-0.98,3.05,3.54,1.28
39.9700,0.08,0.12,-0.98,3.05,3.42,0.61
39.9850,0.08,0.13,-0.98,2.99,3.36,0.31
40.0030,0.08,0.12,-0.98,3.54,3.78,0.37
40.0290,0.08,0.11,-0.98,3.42,3.54,-0.37
40.0440,0.08,0.12,-0.98,3.30,3.78,-0.79
40.0520,0.08,0.12,-0.98,3.36,3.66,-0.79
40.0740,0.08,0.13,-0.98,3.36,3.78,-0.61
40.0860,0.09,0.13,-0.98,3.36,3.85,-0.06
40.1010,0.08,0.14,-0.98,3.23,3.85,0.00
40.1200,0.09,0.14,-0.98,3.23,3.66,0.43
40.1350,0.09,0.13,-0.98,3.30,3.23,1.16
40.1400,0.08,0.12,-0.98,3.23,3.30,1.40
40.1560,0.08,0.11,-0.99,3.23,3.05,0.85
40.1800,0.08,0.11,-0.99,3.30,3.54,0.00
40.1950,0.08,0.11,-0.99,3.54,3.48,-0.24
40.1960,0.08,0.12,-0.98,3.42,3.48,0.18
40.2260,0.08,0.12,-0.98,3.60,3.42,-0.24
40.2290,0.08,0.13,-0.98,3.36,3.54,0.55
40.2460,0.08,0.12,-0.98,3.60,3.78,0.06
40.2630,0.08,0.13,-0.98,3.48,3.30,0.18
40.2800,0.08,0.13,-0.98,3.60,3.05,1.59
40.3050,0.08,0.11,-0.99,3.23,3.17,2.50
40.3200,0.08,0.11,-0.98,3.30,3.48,2.81
40.3290,0.08,0.12,-0.98,3.54,3.66,2.32
40.3460,0.08,0.12,-0.99,3.42,3.23,2.32
40.3640,0.09,0.13,-0.98,3.17,3.48,2.75
40.3790,0.08,0.13,-0.98,3.23,3.11,3.42
40.3950,0.08,0.13,-0.98,3.11,3.11,3.36
40.4120,0.08,0.13,-0.98,3.36,3.23,2.69
40.4180,0.08,0.12,-0.98,3.23,3.11,2.93
40.4440,0.08,0.12,-0.99,3.11,3.23,2.56
40.4460,0.08,0.12,-0.98,3.17,3.30,1.95
40.4760,0.08,0.11,-0.99,3.23,3.42,0.85
40.4790,0.08,0.13,-0.98,3.30,3.78,-0.43
40.4960,0.08,0.12,-0.98,3.78,3.60,-1.16
40.5210,0.08,0.12,-0.99,4.03,3.36,-1.53
40.5300,0.08,0.13,-0.98,3.54,3.91,-0.67
40.5460,0.08,0.13,-0.98,3.66,3.23,0.24
40.5630,0.08,0.13,-0.98,3.36,3.23,1.22
40.5790,0.08,0.13,-0.98,3.36,2.99,1.22
40.5970,0.08,0.12,-0.98,3.48,3.23,0.98
40.6020,0.08,0.11,-0.98,3.48,3.36,0.49
40.6190,0.08,0.11,-0.99,3.30,3.23,0.49
40.6380,0.08,0.13,-0.98,3.54,3.23,0.92
40.6520,0.08,0.10,-0.99,3.48,3.30,1.22
40.6690,0.08,0.13,-0.98,3.17,3.17,1.28
40.6870,0.09,0.14,-0.98,3.48,3.48,0.79
40.7020,0.08,0.12,-0.98,3.66,3.66,0.43
40.7180,0.08,0.12,-0.99,3.23,3.36,0.92
40.7190,0.08,0.14,-0.98,3.30,3.54,1.04
40.7490,0.08,0.13,-0.98,3.54,3.60,0.61
40.7520,0.08,0.12,-0.98,3.60,3.17,0.49
40.7680,0.08,0.11,-0.98,3.30,3.11,1.40
40.7930,0.09,0.13,-0.98,3.11,3.36,0.92
40.8100,0.08,0.13,-0.98,3.54,3.23,0.98
40.8250,0.08,0.12,-0.99,3.23,3.60,0.92
40.8270,0.08,0.12,-0.98,3.17,3.23,1.22
40.8550,0.08,0.14,-0.98,2.99,3.23,1.46
40.8590,0.08,0.13,-0.98,3.54,3.23,1.71
40.8860,0.08,0.13,-0.98,3.48,3.36,1.59
40.8930,0.08,0.12,-0.98,3.42,2.87,2.08
40.9110,0.08,0.11,-0.99,3.30,3.11,2.08
40.9260,0.08,0.11,-0.98,3.36,2.99,1.34
40.9430,0.09,0.13,-0.98,3.42,3.36,1.10
40.9600,0.08,0.12,-0.99,3.72,3.60,0.00
40.9770,0.08,0.14,-0.98,3.11,3.54,0.67
40.9920,0.08,0.14,-0.98,3.72,3.48,0.61
41.0090,0.08,0.13,-0.98,3.66,3.54,0.79
41.0250,0.08,0.13,-0.98,3.42,3.54,0.85
41.0260,0.08,0.11,-0.99,3.42,3.23,0.67
41.0430,0.08,0.12,-0.98,2.87,3.48,0.85
41.0600,0.08,0.13,-0.98,3.42,3.48,0.31
41.0870,0.08,0.12,-0.99,3.66,3.54,0.79
41.0940,0.08,0.12,-0.99,3.42,3.48,1.89
41.1090,0.09,0.15,-0.98,2.99,3.23,1.95
41.1310,0.08,0.13,-0.98,3.66,3.42,1.16
41.1480,0.08,0.12,-0.98,3.17,2.99,2.81
41.1640,0.08,0.12,-0.98,2.99,3.17,3.54
41.1800,0.08,0.12,-0.98,3.42,2.87,4.58
41.1830,0.09,0.11,-0.98,3.36,2.87,5.13
41.2120,0.08,0.12,-0.99,2.62,2.75,5.98
41.2190,0.08,0.14,-0.98,2.99,2.75,5.92
41.2420,0.08,0.13,-0.98,2.93,3.05,4.82
41.2570,0.09,0.14,-0.98,3.30,3.36,2.26
41.2720,0.08,0.11,-0.99,3.85,3.54,1.28
41.2820,0.08,0.11,-0.99,3.60,3.17,0.61
41.2980,0.09,0.14,-0.98,3.48,3.48,-0.61
41.3170,0.08,0.10,-0.99,4.09,3.91,-1.77
41.3210,0.09,0.15,-0.98,2.93,3.72,0.06
41.3370,0.08,0.12,-0.98,3.66,3.91,-0.98
41.3550,0.08,0.12,-0.98,3.36,3.54,-0.79
41.3730,0.08,0.13,-0.98,3.30,3.72,-0.61
41.3890,0.08,0.12,-0.98,3.36,3.91,-1.04
41.4060,0.08,0.13,-0.98,3.54,4.09,-1.89
41.4230,0.08,0.12,-0.99,4.03,3.85,-2.08
41.4390,0.08,0.12,-0.99,3.05,3.72,-0.98
41.4550,0.09,0.15,-0.98,3.23,3.54,-0.73
41.4700,0.08,0.12,-0.99,3.97,3.42,0.31
41.4850,0.08,0.12,-0.98,2.93,3.54,0.24
41.5000,0.08,0.13,-0.98,3.54,3.42,-0.49
41.5060,0.08,0.11,-0.99,3.60,3.66,-0.55
41.5220,0.08,0.13,-0.98,3.30,3.78,-0.85
41.5400,0.08,0.12,-0.98,4.03,3.91,-1.28
41.5560,0.08,0.13,-0.98,3.30,3.54,-0.98
41.5740,0.08,0.13,-0.98,3.66,3.72,-1.16
41.5890,0.08,0.13,-0.98,3.66,3.72,-0.61
41.6060,0.08,0.13,-0.98,3.66,3.78,-0.85
41.6210,0.08,0.12,-0.98,3.66,3.78,-1.46
41.6370,0.09,0.14,-0.98,3.36,3.60,-1.22
41.6540,0.08,0.13,-0.98,3.72,3.97,-0.61
41.6700,0.08,0.12,-0.98,3.36,3.85,-0.31
41.6730,0.08,0.13,-0.98,3.36,3.78,-0.73
41.7020,0.08,0.11,-0.99,3.66,3.91,-1.65
41.7170,0.08,0.11,-0.99,3.42,4.03,-2.50
41.7320,0.08,0.14,-0.98,3.11,3.97,-2.62
41.7400,0.08,0.12,-0.98,4.03,3.60,-0.79
41.7560,0.08,0.15,-0.98,2.75,3.78,0.31
41.7790,0.08,0.14,-0.98,3.23,3.36,0.85
41.7790,0.08,0.12,-0.99,3.23,3.60,1.16
41.8090,0.08,0.11,-0.99,3.17,3.60,0.55
41.8190,0.08,0.10,-0.99,3.30,3.54,0.00
41.8300,0.08,0.12,-0.98,3.48,3.78,-0.61
41.8450,0.08,0.12,-0.99,3.91,4.03,-0.06
41.8670,0.09,0.15,-0.98,2.87,3.42,0.79
41.8840,0.09,0.15,-0.98,3.54,3.66,0.49
41.9000,0.08,0.13,-0.98,3.23,3.72,0.37
41.9000,0.09,0.13,-0.98,2.87,3.54,-0.06
41.9300,0.08,0.13,-0.98,3.48,3.36,0.24
41.9390,0.08,0.12,-0.98,3.11,3.85,0.00
41.9550,0.08,0.12,-0.98,3.23,3.23,-0.37
41.9770,0.08,0.12,-0.98,3.23,3.36,-0.61
41.9800,0.08,0.12,-0.99,3.48,3.30,-0.37
41.9970,0.08,0.13,-0.98,3.23,3.17,-0.24
42.0190,0.08,0.12,-0.98,3.17,3.66,0.24
42.0300,0.09,0.14,-0.98,2.99,3.42,0.61
42.0470,0.09,0.14,-0.98,3.36,3.23,0.85
42.0640,0.08,0.14,-0.98,3.36,3.11,1.59
42.0880,0.08,0.13,-0.98,3.11,3.30,1.77
42.0960,0.08,0.13,-0.98,2.93,3.05,1.71
42.1190,0.08,0.12,-0.98,3.11,3.48,1.71
42.1280,0.08,0.12,-0.99,3.17,3.48,0.98
42.1500,0.08,0.11,-0.98,3.36,3.54,-0.18
42.1650,0.08,0.11,-0.99,3.42,3.54,-0.18
42.1810,0.08,0.13,-0.98,3.23,3.54,-0.12
42.1960,0.08,0.13,-0.98,3.23,3.11,0.12
42.2040,0.08,0.13,-0.98,3.42,2.93,0.12
42.2210,0.08,0.14,-0.98,3.23,3.23,0.73
42.2370,0.08,0.13,-0.98,3.23,3.48,1.59
42.2530,0.08,0.12,-0.98,3.11,3.17,1.59
42.2730,0.08,0.12,-0.98,3.36,3.36,1.71
42.2770,0.08,0.12,-0.98,3.23,3.17,1.53
42.3040,0.08,0.12,-0.98,3.36,3.11,0.73
42.3190,0.08,0.12,-0.98,3.36,3.60,0.61
42.3270,0.08,0.12,-0.98,3.48,3.42,0.61
42.3500,0.08,0.13,-0.98,3.30,3.36,-0.18
42.3650,0.08,0.13,-0.98,3.60,3.30,0.61
42.3810,0.08,0.12,-0.98,3.30,3.30,0.49
42.3980,0.08,0.12,-0.98,3.23,3.23,0.85
42.4140,0.09,0.13,-0.98,3.60,3.66,-0.18
42.4300,0.08,0.13,-0.98,3.78,3.60,-0.43
42.4450,0.08,0.13,-0.98,3.42,3.72,-0.12
42.4600,0.08,0.12,-0.98,3.23,3.54,0.92
42.4770,0.08,0.13,-0.98,3.11,3.36,0.79
42.4930,0.08,0.13,-0.98,3.66,3.36,0.12
42.5080,0.08,0.12,-0.98,3.48,3.42,-0.55
42.5230,0.08,0.12,-0.98,3.54,3.54,-0.67
42.5330,0.08,0.12,-0.98,3.17,3.54,-0.37
42.5500,0.08,0.13,-0.98,3.48,3.36,-0.49
42.5680,0.08,0.12,-0.99,3.42,3.36,-0.37
42.5830,0.08,0.13,-0.98,2.99,3.11,-0.12
42.5990,0.08,0.13,-0.98,3.42,3.36,-0.43
42.6150,0.08,0.11,-0.99,3.48,3.30,-0.37
42.6310,0.08,0.14,-0.98,2.93,3.85,1.04
42.6340,0.08,0.13,-0.98,3.48,3.30,1.65
42.6620,0.08,0.13,-0.98,3.11,3.30,1.40
42.6780,0.09,0.13,-0.98,3.11,3.54,0.92
42.6840,0.08,0.12,-0.98,3.23,3.48,0.12
42.7100,0.08,0.11,-0.99,3.23,3.48,0.61
42.7260,0.08,0.12,-0.98,3.11,3.72,0.43
42.7330,0.08,0.14,-0.98,3.42,3.66,0.43
42.7500,0.08,0.13,-0.98,3.60,3.23,0.79
42.7720,0.08,0.13,-0.98,3.17,3.72,0.61
42.7830,0.09,0.14,-0.98,2.93,3.36,1.65
42.7990,0.08,0.14,-0.98,3.36,3.42,2.20
42.8160,0.08,0.12,-0.98,3.23,3.17,1.71
42.8320,0.08,0.11,-0.99,2.99,3.36,1.46
42.8330,0.08,0.12,-0.98,2.93,3.36,0.67
42.8640,0.08,0.13,-0.98,3.36,3.66,0.79
42.8800,0.08,0.13,-0.98,3.05,3.36,0.79
42.8950,0.08,0.13,-0.98,3.23,3.54,0.67
42.8990,0.08,0.14,-0.98,3.05,3.23,0.92
42.9200,0.08,0.13,-0.98,3.30,3.30,1.22
42.9410,0.08,0.13,-0.98,3.05,3.23,1.53
42.9570,0.08,0.12,-0.98,2.81,3.48,1.95
42.9600,0.08,0.11,-0.99,3.05,2.93,2.14
42.9750,0.08,0.12,-0.98,2.93,3.17,2.14
43.0000,0.08,0.13,-0.98,3.11,3.11,2.50
43.0170,0.08,0.13,-0.98,3.17,2.99,2.01
43.0330,0.08,0.12,-0.99,3.11,3.23,1.71
43.0490,0.08,0.14,-0.98,3.17,3.54,2.08
43.0640,0.08,0.14,-0.98,3.30,3.36,2.14
43.0790,0.08,0.13,-0.98,3.36,3.23,2.81
43.0840,0.08,0.13,-0.98,3.23,2.99,2.93
43.1000,0.08,0.11,-0.99,3.23,2.81,2.50
43.1230,0.08,0.12,-0.98,3.05,3.17,2.01
43.1410,0.08,0.15,-0.98,3.30,3.30,1.95
43.1560,0.08,0.14,-0.98,3.66,2.81,2.08
43.1720,0.08,0.13,-0.98,3.05,2.87,1.95
43.1880,0.08,0.12,-0.98,3.05,2.81,2.08
43.2050,0.08,0.12,-0.98,3.42,2.81,2.14
43.2200,0.08,0.13,-0.98,3.36,3.05,2.01
43.2230,0.08,0.13,-0.98,3.30,2.75,2.01
43.2390,0.08,0.12,-0.98,3.05,2.81,1.95
43.2670,0.08,0.13,-0.98,3.30,2.81,2.01
43.2780,0.08,0.14,-0.99,3.05,2.99,2.14
43.2960,0.08,0.12,-0.98,2.75,3.60,2.01
43.3110,0.08,0.10,-0.98,3.05,3.60,2.08
43.3280,0.08,0.12,-0.98,2.56,3.85,2.20
43.3440,0.08,0.12,-0.98,2.99,3.36,2.01
43.3590,0.08,0.13,-0.98,3.23,3.54,2.08
43.3750,0.08,0.13,-0.98,3.42,3.36,2.08
43.3780,0.08,0.13,-0.98,3.11,3.11,2.01
43.3930,0.08,0.13,-0.99,3.23,2.99,2.08
43.4200,0.08,0.13,-0.99,2.93,3.17,2.01
43.4340,0.08,0.12,-0.98,2.93,3.54,2.08
43.4510,0.08,0.13,-0.98,2.93,3.78,2.26
43.4670,0.09,0.16,-1.00,4.94,3.48,2.14
43.4830,0.08,0.13,-0.98,4.33,3.42,1.83
43.4980,0.08,0.13,-0.98,2.75,3.23,1.71
43.5130,0.08,0.12,-0.98,2.50,3.11,1.71
43.5200,0.08,0.13,-0.98,3.23,2.93,1.95
43.5330,0.08,0.13,-0.98,3.17,3.05,2.01
43.5560,0.08,0.13,-0.98,3.05,3.11,2.01
43.5730,0.08,0.12,-0.98,3.36,2.69,2.01
43.5890,0.08,0.13,-0.98,3.30,2.75,1.83
43.6050,0.08,0.13,-0.98,3.17,2.75,2.01
43.6210,0.08,0.13,-0.98,3.11,3.23,2.14
43.6360,0.08,0.13,-0.98,3.23,3.11,2.01
43.6510,0.08,0.12,-0.98,3.42,3.17,1.95
43.6660,0.08,0.13,-0.98,3.17,2.93,2.01
43.6810,0.08,0.13,-0.98,2.99,3.05,1.89
43.6900,0.08,0.12,-0.98,2.81,3.17,1.95
43.7060,0.08,0.13,-0.98,3.05,3.42,2.14
43.7240,0.08,0.12,-0.98,3.05,3.05,2.14
43.7410,0.08,0.13,-0.98,2.99,2.99,2.08
43.7570,0.08,0.12,-0.98,2.99,2.99,2.01
43.7730,0.08,0.12,-0.98,3.11,3.54,2.08
43.7900,0.08,0.12,-0.98,3.17,3.36,2.20
43.8060,0.08,0.12,-0.98,3.17,3.05,2.01
43.8220,0.08,0.12,-0.98,3.05,3.66,2.08
43.8230,0.08,0.12,-0.98,3.05,3.36,1.95
43.8550,0.08,0.12,-0.98,3.30,2.75,1.89
43.8560,0.08,0.12,-0.98,3.11,2.93,2.20
43.8720,0.08,0.12,-0.98,3.23,2.93,1.95
43.8960,0.08,0.12,-0.98,3.30,2.87,2.01
43.9140,0.08,0.12,-0.98,3.30,3.05,2.20
43.9320,0.08,0.12,-0.98,3.36,3.23,2.14
43.9470,0.08,0.13,-0.98,3.72,2.56,2.08
43.9630,0.10,0.13,-0.99,3.97,2.38,2.14
43.9630,0.08,0.12,-0.98,3.91,2.38,2.08
43.9800,0.08,0.12,-0.98,4.15,2.56,2.26
43.9970,0.08,0.13,-0.99,3.91,2.69,2.32
44.0210,0.08,0.13,-0.98,3.66,2.75,1.77
44.0400,0.08,0.13,-0.98,3.30,2.93,2.14
44.0550,0.08,0.13,-0.98,3.05,3.36,2.14
44.0640,0.09,0.13,-0.98,2.62,3.85,2.20
44.0800,0.08,0.13,-0.98,2.69,3.85,2.20
44.0970,0.07,0.12,-0.97,2.56,3.48,2.08
44.1130,0.08,0.13,-0.98,2.14,3.85,2.08
44.1300,0.08,0.12,-0.98,2.20,3.72,2.20
44.1450,0.08,0.12,-0.98,2.75,3.60,2.20
44.1600,0.08,0.13,-0.98,2.93,3.36,2.20
44.1750,0.08,0.12,-0.98,3.05,3.30,2.08
44.1900,0.08,0.12,-0.98,3.11,2.93,2.20
44.2050,0.08,0.12,-0.98,3.30,3.23,2.20
44.2130,0.08,0.12,-0.98,3.11,3.30,2.01
44.2300,0.08,0.12,-0.98,3.11,3.30,2.20
44.2470,0.08,0.12,-0.98,3.17,3.36,2.20
44.2640,0.08,0.12,-0.98,3.23,2.93,2.01
44.2800,0.08,0.12,-0.98,3.17,3.23,2.08
44.2960,0.08,0.12,-0.98,3.11,3.42,1.95
44.3120,0.08,0.12,-0.98,3.05,3.30,2.08
44.3280,0.08,0.12,-0.98,2.87,3.30,1.95
44.3440,0.08,0.12,-0.98,3.05,3.48,2.08
44.3460,0.08,0.12,-0.98,3.48,3.30,2.14
44.3770,0.08,0.12,-0.98,3.30,2.99,2.08
44.3920,0.08,0.13,-0.98,2.87,3.54,2.08
44.4070,0.09,0.12,-0.98,2.87,3.17,2.08
44.4210,0.08,0.12,-0.98,3.30,2.93,2.08
44.4290,0.08,0.12,-0.98,3.36,3.05,2.14
44.4540,0.08,0.13,-0.98,3.48,3.36,2.20
44.4570,0.08,0.13,-0.98,3.36,2.44,1.95
44.4720,0.08,0.12,-0.98,3.05,3.23,1.95
44.4970,0.08,0.12,-0.98,2.93,3.11,1.95
44.5150,0.08,0.12,-0.98,2.87,3.17,1.95
44.5300,0.08,0.13,-0.98,2.93,3.30,2.01
44.5470,0.08,0.12,-0.98,2.62,3.30,2.01
44.5620,0.08,0.12,-0.99,2.75,3.23,2.08
44.5640,0.08,0.13,-0.98,2.62,2.93,2.26
44.5940,0.08,0.13,-0.98,2.75,2.93,4.15
44.6110,0.08,0.13,-0.98,2.87,2.62,5.13
44.6260,0.07,0.14,-0.98,2.44,2.56,7.14
44.6420,0.07,0.13,-0.98,2.38,1.83,11.72
44.6470,0.08,0.13,-0.98,1.89,1.65,13.24
44.6740,0.08,0.14,-0.98,2.14,1.83,11.90
44.6800,0.09,0.13,-0.98,2.93,2.38,9.95
44.6980,0.09,0.12,-0.98,3.36,2.56,7.51
44.7130,0.08,0.13,-0.98,3.36,2.50,6.29
44.7300,0.08,0.11,-0.99,3.78,2.93,5.25
44.7470,0.09,0.12,-0.98,3.30,2.56,5.80
44.7630,0.08,0.12,-0.98,3.23,2.56,5.19
44.7800,0.08,0.12,-0.99,3.36,2.81,4.76
44.7950,0.08,0.11,-0.99,3.23,3.05,4.58
44.7970,0.08,0.12,-0.98,3.17,2.26,4.94
44.8260,0.08,0.12,-0.98,3.17,2.87,3.97
44.8310,0.08,0.12,-0.99,3.30,2.93,4.46
44.8580,0.08,0.12,-0.98,3.23,2.99,4.27
44.8730,0.08,0.12,-0.98,3.05,2.93,3.78
44.8800,0.08,0.11,-0.98,3.23,2.81,4.09
44.8970,0.08,0.13,-0.98,2.99,2.99,4.15
44.9130,0.09,0.12,-0.98,3.36,3.11,2.38
44.9350,0.08,0.12,-0.99,3.17,3.05,2.01
44.9380,0.08,0.12,-0.98,2.93,3.36,2.08
44.9660,0.08,0.13,-0.98,3.05,2.99,3.11
44.9710,0.08,0.13,-0.98,2.87,3.17,3.17
44.9960,0.08,0.12,-0.98,3.11,2.99,2.99
45.0050,0.08,0.12,-0.98,2.93,2.81,2.93
45.0210,0.08,0.12,-0.98,2.99,2.81,3.11
45.0380,0.08,0.12,-0.99,2.87,2.93,4.03
45.0560,0.08,0.12,-0.99,3.05,2.81,3.78
45.0710,0.08,0.13,-0.98,2.75,3.05,3.66
45.0870,0.08,0.13,-0.98,3.17,2.93,3.54
45.0880,0.08,0.13,-0.98,2.99,2.56,4.21
45.1180,0.08,0.13,-0.98,2.99,3.11,4.76
45.1220,0.08,0.12,-0.99,2.81,2.87,4.76
45.1500,0.08,0.12,-0.98,2.81,2.99,4.09
45.1650,0.08,0.12,-0.98,2.93,2.62,4.27
45.1730,0.08,0.12,-0.99,2.87,2.50,4.64
45.1880,0.08,0.12,-0.98,2.93,2.93,4.46
45.2040,0.08,0.13,-0.98,2.81,2.81,4.70
45.2280,0.08,0.12,-0.99,2.87,2.69,5.31
45.2320,0.08,0.13,-0.98,2.44,2.38,6.10
45.2580,0.08,0.12,-0.98,2.62,2.32,5.86
45.2650,0.09,0.11,-0.98,2.81,2.69,5.49
45.2810,0.09,0.11,-0.98,2.81,2.50,3.72
45.3040,0.08,0.12,-0.98,2.87,3.17,2.81
45.3200,0.09,0.12,-0.98,3.05,2.99,3.42
45.3360,0.08,0.13,-0.98,2.69,2.99,4.03
45.3390,0.08,0.12,-0.98,2.50,2.99,4.52
45.3680,0.08,0.13,-0.98,2.38,2.62,4.46
45.3720,0.08,0.12,-0.98,2.75,2.87,4.70
45.3870,0.08,0.12,-0.98,2.99,2.99,4.27
45.4110,0.08,0.13,-0.98,3.30,2.87,4.03
45.4280,0.08,0.12,-0.99,3.30,2.81,4.15
45.4450,0.08,0.12,-0.98,2.93,2.75,4.46
45.4620,0.09,0.12,-0.98,2.99,2.56,4.58
45.4780,0.08,0.12,-0.98,3.05,2.87,4.82
45.4940,0.09,0.12,-0.98,3.36,2.93,4.33
45.5100,0.08,0.12,-0.98,3.11,3.54,4.03
45.5260,0.08,0.13,-0.98,3.23,2.50,4.27
45.5410,0.09,0.12,-0.98,3.11,2.69,4.52
45.5450,0.09,0.12,-0.98,3.05,2.81,3.72
45.5720,0.08,0.12,-0.98,3.42,2.75,3.42
45.5780,0.08,0.12,-0.99,3.54,2.93,3.17
45.5950,0.08,0.12,-0.98,3.17,2.87,2.93
45.6100,0.08,0.13,-0.98,3.42,2.69,3.66
45.6260,0.08,0.13,-0.98,2.99,3.30,4.15
45.6420,0.08,0.12,-0.98,2.93,2.75,4.88
45.6510,0.09,0.12,-0.98,3.11,2.99,4.64
45.6800,0.08,0.12,-0.98,3.36,2.50,3.60
45.6840,0.08,0.12,-0.98,3.17,2.69,3.66
45.7010,0.08,0.12,-0.98,2.99,2.81,3.91
45.7280,0.08,0.13,-0.98,3.23,2.69,4.58
45.7430,0.08,0.13,-0.98,3.11,2.81,4.94
45.7520,0.08,0.13,-0.98,2.69,2.99,5.07
45.7680,0.08,0.12,-0.98,2.75,2.62,4.94
45.7850,0.09,0.12,-0.98,2.62,2.62,5.00
45.8010,0.08,0.12,-0.98,2.87,2.99,4.27
45.8180,0.08,0.11,-0.98,3.11,2.99,4.15
45.8340,0.09,0.12,-0.98,2.69,2.87,3.30
45.8490,0.08,0.11,-0.99,3.48,3.17,2.62
45.8510,0.08,0.12,-0.99,3.30,2.87,2.93
45.8800,0.08,0.12,-0.99,2.99,2.87,2.93
45.8840,0.08,0.11,-0.98,3.11,2.87,2.50
45.9010,0.08,0.12,-0.98,3.11,3.54,2.56
45.9260,0.08,0.13,-0.98,3.30,3.17,2.62
45.9340,0.08,0.12,-0.98,3.48,3.17,2.50
45.9520,0.08,0.13,-0.98,3.48,2.99,2.93
45.9680,0.08,0.12,-0.98,3.23,2.81,2.56
45.9860,0.08,0.12,-0.99,3.05,2.81,2.69
46.0010,0.08,0.12,-0.98,2.93,3.17,2.81
46.0170,0.08,0.12,-0.98,3.05,2.81,2.93
46.0330,0.08,0.13,-0.98,2.75,3.05,3.05
46.0340,0.08,0.13,-0.98,2.93,3.23,3.05
46.0510,0.09,0.11,-0.98,3.42,2.81,2.50
46.0680,0.08,0.12,-0.98,3.23,2.69,2.87
46.0840,0.07,0.12,-0.98,3.23,3.42,3.17
46.1060,0.09,0.11,-0.98,2.93,2.87,4.21
46.1230,0.09,0.11,-0.99,3.17,2.44,3.54
46.1390,0.08,0.13,-0.98,3.11,2.38,3.54
46.1560,0.09,0.12,-0.99,3.30,2.93,3.23
46.1720,0.08,0.13,-0.98,3.23,2.99,3.05
46.1870,0.08,0.12,-0.98,3.23,2.62,3.17
46.2030,0.08,0.13,-0.99,3.23,2.75,3.23
46.2190,0.09,0.12,-0.98,3.11,2.99,3.30
46.2350,0.09,0.12,-0.98,2.93,2.93,3.42
46.2400,0.08,0.13,-0.98,2.99,2.99,3.36
46.2560,0.08,0.12,-0.98,3.42,2.99,3.66
46.2780,0.08,0.13,-0.98,3.36,2.69,4.21
46.2960,0.08,0.12,-0.98,3.30,2.69,4.52
46.3120,0.08,0.13,-0.98,3.23,2.75,3.36
46.3280,0.08,0.12,-0.98,3.54,2.99,3.66
46.3430,0.08,0.12,-0.98,3.30,3.11,3.97
46.3450,0.08,0.12,-0.98,3.05,3.11,4.27
46.3630,0.08,0.13,-0.98,3.17,2.69,4.39
46.3790,0.08,0.13,-0.98,3.05,2.87,3.78
46.4020,0.08,0.12,-0.98,3.17,2.56,4.46
46.4180,0.08,0.12,-0.99,3.36,2.87,3.91
46.4360,0.08,0.12,-0.98,3.30,2.99,3.78
46.4510,0.08,0.13,-0.98,3.17,2.99,4.15
46.4670,0.08,0.12,-0.98,3.17,2.99,4.21
46.4820,0.08,0.13,-0.98,3.23,3.11,4.39
46.4970,0.09,0.13,-0.98,3.23,2.93,4.46
46.5010,0.08,0.12,-0.98,3.23,2.75,4.21
46.5270,0.08,0.12,-0.98,3.05,2.99,4.58
46.5420,0.08,0.12,-0.98,3.11,2.56,4.52
46.5510,0.08,0.13,-0.98,3.05,2.38,5.19
46.5700,0.08,0.13,-0.98,3.36,2.69,4.33
46.5850,0.08,0.13,-0.98,3.11,2.56,4.03
46.6030,0.08,0.12,-0.98,3.17,2.44,4.39
46.6180,0.08,0.12,-0.98,3.05,2.62,4.70
46.6230,0.08,0.12,-0.98,3.05,2.32,5.25
46.6480,0.08,0.12,-0.99,2.69,3.11,4.46
46.6510,0.08,0.11,-0.99,2.75,2.69,4.46
46.6790,0.08,0.12,-0.98,2.62,2.75,4.39
46.6840,0.08,0.11,-0.98,2.87,3.17,3.30
46.7020,0.08,0.12,-0.98,2.87,3.11,3.17
46.7230,0.08,0.12,-0.98,2.93,3.23,2.32
46.7350,0.08,0.12,-0.98,3.11,3.23,2.44
46.7520,0.08,0.12,-0.98,3.11,3.23,2.44
46.7690,0.08,0.12,-0.99,3.11,2.99,2.75
46.7840,0.08,0.13,-0.98,2.93,2.62,3.11
46.7990,0.08,0.12,-0.98,2.93,3.17,3.30
46.8140,0.08,0.12,-0.98,2.69,2.62,3.30
46.8230,0.08,0.12,-0.98,3.11,2.99,3.36
46.8340,0.08,0.12,-0.98,3.05,2.87,4.09
46.8580,0.08,0.12,-0.98,2.69,2.62,4.64
46.8740,0.09,0.12,-0.98,2.81,2.69,3.91
46.8910,0.09,0.12,-0.98,2.87,2.93,3.66
46.9060,0.09,0.12,-0.98,3.11,2.75,3.36
46.9220,0.08,0.12,-0.98,3.30,2.87,3.11
46.9240,0.09,0.12,-0.98,3.11,2.56,3.36
46.9530,0.08,0.12,-0.98,3.11,2.44,3.36
46.9690,0.08,0.12,-0.98,3.05,2.87,3.72
46.9870,0.08,0.12,-0.98,3.17,3.11,3.60
47.0020,0.08,0.12,-0.98,2.99,2.69,3.91
47.0080,0.08,0.13,-0.98,3.11,2.62,4.21
47.0230,0.08,0.13,-0.98,2.99,2.69,4.46
47.0480,0.09,0.12,-0.98,2.99,2.69,4.64
47.0630,0.08,0.12,-0.98,3.11,2.81,4.46
47.0670,0.08,0.12,-0.98,2.99,2.50,4.15
47.0830,0.08,0.13,-0.98,2.93,2.69,4.33
47.1100,0.08,0.13,-0.98,3.17,2.38,4.21
47.1250,0.08,0.12,-0.98,3.11,2.50,4.27
47.1410,0.08,0.12,-0.98,3.05,2.50,4.09
47.1450,0.07,0.12,-0.98,2.81,3.05,4.15
47.1600,0.09,0.11,-0.98,3.11,2.62,3.36
47.1880,0.08,0.12,-0.98,3.11,2.87,2.75
47.1880,0.08,0.12,-0.98,2.99,3.17,2.62
47.2180,0.08,0.13,-0.98,3.05,3.11,2.69
47.2240,0.08,0.12,-0.98,2.99,2.69,3.23
47.2490,0.08,0.12,-0.98,3.05,2.93,3.72
47.2540,0.08,0.12,-0.98,2.99,3.05,3.48
47.2780,0.09,0.12,-0.99,2.99,2.93,3.30
47.2870,0.09,0.12,-0.98,3.05,2.81,3.42
47.3040,0.08,0.12,-0.98,3.36,2.62,2.87
47.3240,0.08,0.13,-0.98,2.99,2.93,3.17
47.3380,0.08,0.13,-0.98,3.05,2.81,3.91
47.3540,0.08,0.12,-0.98,2.87,2.99,4.39
47.3550,0.08,0.12,-0.98,2.87,2.99,4.52
47.3840,0.08,0.11,-0.98,2.69,2.99,4.21
47.4000,0.08,0.12,-0.98,2.93,2.87,3.66
47.4040,0.09,0.11,-0.98,3.05,2.75,3.60
47.4300,0.08,0.12,-0.98,2.99,2.56,3.72
47.4440,0.08,0.12,-0.98,3.05,2.81,3.66
47.4540,0.08,0.12,-0.98,3.36,2.81,3.72
47.4700,0.08,0.13,-0.98,3.05,2.69,4.09
47.4880,0.08,0.13,-0.98,2.75,2.99,4.27
47.5040,0.08,0.13,-0.98,2.93,2.69,4.15
47.5200,0.08,0.12,-0.98,2.87,2.50,3.91
47.5350,0.08,0.13,-0.98,2.87,2.62,4.15
47.5370,0.08,0.12,-0.98,2.93,2.99,4.64
47.5540,0.09,0.11,-0.98,2.75,2.69,4.64
47.5710,0.09,0.11,-0.98,2.69,2.75,3.78
47.5870,0.08,0.11,-0.99,2.93,2.56,3.66
47.6030,0.08,0.11,-0.99,3.23,2.75,3.11
47.6270,0.08,0.12,-0.99,2.99,2.69,2.99
47.6420,0.08,0.12,-0.98,3.23,2.69,3.48
47.6440,0.08,0.12,-0.98,2.87,2.87,3.66
47.6740,0.08,0.12,-0.98,3.17,2.69,3.23
47.6900,0.08,0.12,-0.98,2.99,2.93,3.97
