Timestamp, AccX, AccY, AccZ, GyroX, GyroY, GyroZ
0.0110,0.08,0.12,-0.98,2.69,3.42,1.83
0.0220,0.08,0.13,-0.98,2.69,3.30,1.71
0.0410,0.09,0.12,-0.98,2.69,3.60,1.83
0.0500,0.08,0.12,-0.98,2.56,3.48,1.89
0.0670,0.09,0.12,-0.98,3.23,3.60,1.95
0.0840,0.08,0.13,-0.98,2.50,3.54,1.89
0.1000,0.09,0.12,-0.98,2.75,3.54,1.95
0.1160,0.08,0.12,-0.98,3.17,3.91,2.01
0.1210,0.08,0.12,-0.98,2.87,3.66,1.83
0.1460,0.08,0.13,-0.98,2.99,3.78,1.95
0.1500,0.08,0.13,-0.98,2.99,3.78,1.89
0.1670,0.08,0.12,-0.98,2.69,3.05,1.95
0.1910,0.09,0.12,-0.99,2.75,3.30,1.95
0.2000,0.09,0.12,-0.98,2.93,3.48,1.95
0.2210,0.08,0.13,-0.98,3.05,3.72,1.95
0.2320,0.09,0.12,-0.98,2.75,3.54,1.89
0.2490,0.09,0.12,-0.98,2.56,3.48,1.77
0.2680,0.09,0.12,-0.98,2.81,3.54,1.83
0.2830,0.08,0.12,-0.98,2.81,3.48,1.89
0.2990,0.08,0.12,-0.98,2.75,3.60,1.89
0.3140,0.08,0.12,-0.98,2.69,3.48,1.95
0.3210,0.08,0.12,-0.98,2.81,3.48,1.89
0.3440,0.08,0.12,-0.98,2.87,3.66,1.89
0.3490,0.08,0.12,-0.98,2.99,3.78,1.95
0.3730,0.08,0.12,-0.98,3.48,3.66,2.08
0.3820,0.08,0.12,-0.98,3.60,3.54,2.01
0.4000,0.09,0.12,-0.98,2.99,3.60,1.95
0.4170,0.08,0.13,-0.98,2.87,3.48,2.01
0.4340,0.08,0.13,-0.99,1.77,3.17,1.77
0.4490,0.08,0.13,-0.99,1.71,3.54,1.71
0.4660,0.08,0.13,-0.99,4.03,3.60,2.20
0.4660,0.09,0.11,-0.97,1.89,3.30,1.95
0.4970,0.08,0.14,-0.99,3.60,3.91,2.08
0.5120,0.08,0.12,-0.98,2.69,3.60,1.83
0.5260,0.08,0.12,-0.98,2.69,3.30,1.89
0.5410,0.09,0.12,-0.98,2.75,3.60,1.95
0.5500,0.08,0.13,-0.98,2.87,3.54,1.89
0.5660,0.09,0.12,-0.98,2.69,3.78,2.01
0.5830,0.09,0.12,-0.98,2.75,3.54,1.89
0.6000,0.08,0.12,-0.98,3.05,3.48,1.89
0.6170,0.08,0.12,-0.98,2.81,3.36,2.01
0.6320,0.08,0.12,-0.98,2.75,3.30,2.01
0.6480,0.09,0.12,-0.98,2.87,3.60,1.95
0.6630,0.08,0.12,-0.98,2.99,3.78,1.83
0.6670,0.09,0.12,-0.98,2.75,3.48,1.89
0.6820,0.08,0.13,-0.98,2.81,3.60,1.95
0.7100,0.08,0.12,-0.98,2.87,3.66,1.95
0.7220,0.08,0.12,-0.98,3.05,3.48,1.89
0.7370,0.08,0.12,-0.98,2.75,3.54,1.89
0.7530,0.08,0.12,-0.98,2.69,3.60,2.01
0.7720,0.08,0.12,-0.98,2.87,3.66,1.89
0.7870,0.08,0.12,-0.98,2.93,3.42,2.01
0.8020,0.08,0.12,-0.98,2.87,3.42,1.77
0.8180,0.08,0.12,-0.98,2.81,3.54,2.01
0.8220,0.08,0.12,-0.98,2.81,3.60,2.01
0.8380,0.08,0.12,-0.98,2.93,3.60,1.83
0.8600,0.08,0.12,-0.98,2.99,3.72,1.83
0.8770,0.08,0.12,-0.98,2.69,3.72,1.89
0.8930,0.08,0.12,-0.98,2.93,3.23,1.89
0.9090,0.08,0.12,-0.98,2.87,3.42,2.01
0.9260,0.09,0.12,-0.98,2.87,3.54,1.95
0.9420,0.08,0.12,-0.98,2.81,3.66,1.89
0.9570,0.09,0.12,-0.98,2.93,3.54,2.01
0.9720,0.08,0.12,-0.98,2.87,3.48,1.83
0.9880,0.08,0.12,-0.98,2.81,3.17,2.01
0.9920,0.09,0.12,-0.98,2.69,3.54,1.95
1.0080,0.08,0.12,-0.98,2.69,3.66,2.01
1.0310,0.08,0.12,-0.98,2.93,3.54,1.83
1.0480,0.08,0.12,-0.98,2.99,3.66,1.89
1.0640,0.08,0.12,-0.98,2.93,3.54,1.95
1.0800,0.08,0.12,-0.98,2.87,3.60,2.01
1.0960,0.09,0.12,-0.98,2.87,3.78,2.08
1.1130,0.09,0.12,-0.98,2.99,3.48,1.89
1.1280,0.08,0.12,-0.98,2.87,3.48,1.89
1.1430,0.09,0.12,-0.98,2.69,3.42,1.95
1.1480,0.09,0.12,-0.98,2.87,3.54,1.95
1.1630,0.09,0.12,-0.98,2.93,3.42,1.77
1.1850,0.08,0.12,-0.98,2.75,3.54,1.95
1.2010,0.08,0.12,-0.98,2.69,3.72,1.83
1.2180,0.08,0.12,-0.98,2.81,3.42,1.77
1.2340,0.08,0.12,-0.98,2.93,3.66,2.14
1.2510,0.09,0.12,-0.98,3.05,3.66,2.01
1.2680,0.08,0.12,-0.98,2.81,3.42,1.83
1.2830,0.09,0.12,-0.98,2.69,3.60,1.83
1.2980,0.08,0.12,-0.98,2.81,3.60,2.01
1.3140,0.08,0.12,-0.98,2.81,3.54,2.01
1.3230,0.08,0.12,-0.98,2.81,3.48,2.08
1.3330,0.08,0.13,-0.98,2.93,3.42,2.01
1.3560,0.09,0.12,-0.98,2.81,3.97,1.95
1.3730,0.08,0.13,-0.98,2.99,3.42,1.95
1.3900,0.08,0.12,-0.99,2.93,3.60,1.83
1.4060,0.08,0.12,-0.98,2.75,3.66,1.89
1.4230,0.08,0.12,-0.98,2.81,3.48,1.95
1.4390,0.09,0.12,-0.98,2.81,3.54,1.83
1.4540,0.09,0.12,-0.99,2.87,3.42,1.95
1.4570,0.08,0.12,-0.98,3.11,3.85,1.83
1.4730,0.08,0.13,-0.98,2.87,3.72,2.01
1.4970,0.09,0.12,-0.98,2.81,3.72,2.01
1.5140,0.09,0.12,-0.98,2.87,3.48,1.95
1.5290,0.08,0.13,-0.98,2.87,3.42,2.01
1.5460,0.09,0.12,-0.98,2.75,3.91,2.01
1.5620,0.08,0.12,-0.98,2.75,3.54,2.01
1.5790,0.08,0.12,-0.98,2.99,3.48,1.95
1.5950,0.09,0.12,-0.98,2.81,3.54,1.95
1.6110,0.08,0.12,-0.98,2.69,3.60,2.01
1.6230,0.08,0.12,-0.98,2.99,3.42,1.95
1.6290,0.09,0.13,-0.98,2.99,3.85,1.89
1.6520,0.08,0.12,-0.98,2.99,3.72,1.89
1.6690,0.08,0.12,-0.98,3.05,3.60,1.89
1.6860,0.08,0.12,-0.98,2.93,3.60,2.01
1.7030,0.08,0.12,-0.98,2.99,3.54,1.89
1.7190,0.08,0.12,-0.98,2.87,3.54,1.95
1.7350,0.08,0.12,-0.98,2.87,3.54,1.89
1.7510,0.08,0.12,-0.98,2.75,3.48,1.95
1.7670,0.09,0.12,-0.98,2.93,3.42,1.95
1.7820,0.08,0.12,-0.98,2.62,3.72,2.08
1.7980,0.09,0.12,-0.98,2.99,3.48,2.01
1.8030,0.09,0.12,-0.98,2.81,3.72,1.89
1.8280,0.08,0.12,-0.98,2.93,3.54,2.08
1.8360,0.09,0.12,-0.98,2.75,3.54,1.95
1.8530,0.08,0.12,-0.98,2.99,3.66,2.01
1.8690,0.09,0.12,-0.98,2.99,3.72,2.01
1.8860,0.08,0.12,-0.98,2.87,3.54,2.14
1.9010,0.08,0.12,-0.98,2.81,3.54,2.01
1.9180,0.09,0.12,-0.98,2.99,3.72,2.08
1.9240,0.08,0.13,-0.98,2.99,3.72,2.01
1.9490,0.09,0.12,-0.98,2.99,3.54,1.89
1.9640,0.08,0.12,-0.98,2.87,3.66,1.95
1.9780,0.08,0.12,-0.98,2.99,3.72,1.89
1.9890,0.08,0.13,-0.98,3.05,3.36,1.83
2.0050,0.09,0.12,-0.98,2.99,3.48,2.08
2.0240,0.08,0.12,-0.98,3.05,3.48,1.95
2.0240,0.08,0.12,-0.98,2.93,3.60,2.01
2.0540,0.08,0.12,-0.98,2.93,3.66,1.89
2.0700,0.08,0.12,-0.99,2.93,3.48,1.89
2.0870,0.08,0.12,-0.98,2.87,3.78,1.77
2.1020,0.08,0.12,-0.98,3.05,3.66,1.89
2.1180,0.08,0.12,-0.98,2.87,3.66,1.95
2.1340,0.08,0.12,-0.99,2.99,3.54,1.89
2.1500,0.08,0.12,-0.98,2.87,3.60,2.01
2.1660,0.08,0.13,-0.98,2.99,3.36,1.83
2.1830,0.09,0.12,-0.98,2.81,3.60,1.89
2.1980,0.09,0.12,-0.98,2.69,3.66,1.89
2.2130,0.09,0.12,-0.98,2.99,3.54,1.95
2.2280,0.08,0.12,-0.98,2.81,3.72,1.89
2.2380,0.09,0.12,-0.98,2.81,3.60,1.83
2.2560,0.08,0.12,-0.98,2.93,3.60,1.89
2.2720,0.09,0.12,-0.98,3.23,3.42,1.89
2.2890,0.09,0.12,-0.98,2.93,3.42,1.95
2.3040,0.08,0.12,-0.98,2.87,3.72,1.95
2.3200,0.09,0.12,-0.98,2.75,3.66,2.08
2.3360,0.08,0.12,-0.99,2.87,3.54,2.01
2.3510,0.09,0.12,-0.98,2.81,3.66,1.95
2.3670,0.08,0.12,-0.98,2.75,3.78,1.95
2.3830,0.09,0.13,-0.98,2.99,3.78,1.89
2.3980,0.09,0.12,-0.98,2.87,3.54,1.89
2.4060,0.09,0.12,-0.99,2.75,3.72,1.89
2.4240,0.08,0.13,-0.98,2.99,3.48,2.01
2.4440,0.08,0.12,-0.98,2.81,3.36,1.77
2.4600,0.09,0.12,-0.98,2.87,3.54,1.89
2.4750,0.08,0.12,-0.98,2.87,3.72,1.83
2.4900,0.08,0.12,-0.98,2.75,3.72,2.01
2.5040,0.08,0.12,-0.98,2.81,3.66,1.89
2.5190,0.09,0.12,-0.98,2.81,3.30,1.83
2.5340,0.08,0.12,-0.98,2.87,3.66,1.95
2.5430,0.08,0.12,-0.98,2.87,3.54,1.83
2.5650,0.09,0.12,-0.98,2.75,3.54,1.95
2.5760,0.08,0.12,-0.98,2.87,3.85,2.01
2.5930,0.09,0.12,-0.98,2.87,3.60,1.95
2.6100,0.08,0.12,-0.98,2.69,3.72,1.95
2.6250,0.08,0.12,-0.98,2.93,3.54,1.95
2.6400,0.08,0.12,-0.98,2.99,3.54,1.83
2.6550,0.08,0.12,-0.98,2.93,3.72,1.83
2.6710,0.08,0.12,-0.98,2.81,3.36,1.89
2.6870,0.09,0.12,-0.98,2.75,3.91,1.83
2.7030,0.08,0.12,-0.98,2.93,3.48,1.95
2.7180,0.08,0.12,-0.98,2.87,3.54,1.89
2.7330,0.09,0.13,-0.98,2.93,3.60,1.95
2.7440,0.08,0.13,-0.98,2.62,3.78,1.83
2.7590,0.08,0.13,-0.98,2.93,3.36,1.95
2.7790,0.08,0.12,-0.98,2.56,3.30,1.95
2.7940,0.09,0.12,-0.98,2.87,3.48,1.95
2.8090,0.08,0.12,-0.98,2.69,3.66,1.95
2.8250,0.08,0.12,-0.98,2.38,3.54,1.89
2.8400,0.08,0.12,-0.98,2.69,3.66,2.01
2.8550,0.08,0.12,-0.98,2.69,3.66,1.89
2.8640,0.09,0.13,-0.98,2.93,3.66,1.89
2.8860,0.08,0.13,-0.99,2.81,3.60,1.89
2.8970,0.08,0.12,-0.98,2.69,3.54,1.89
2.9120,0.06,0.19,-0.97,2.32,2.62,6.53
2.9330,0.09,0.17,-0.98,3.72,4.58,-2.81
2.9490,0.09,0.10,-0.99,2.93,3.05,5.74
2.9640,0.09,0.10,-0.99,2.38,2.93,6.35
2.9690,0.09,0.10,-0.98,2.56,3.48,3.30
2.9950,0.09,0.10,-0.99,2.62,3.17,2.69
3.0110,0.09,0.11,-0.99,2.81,3.66,2.32
3.0270,0.09,0.12,-0.99,2.99,3.85,1.40
3.0350,0.09,0.13,-0.98,3.23,3.91,1.46
3.0510,0.10,0.13,-0.98,3.30,3.85,0.67
3.0730,0.10,0.13,-0.98,3.54,4.09,-0.73
3.0890,0.09,0.12,-0.99,3.42,4.27,-1.59
3.0920,0.08,0.12,-0.98,2.99,4.21,-1.04
3.1070,0.08,0.12,-0.98,3.17,3.72,-0.55
3.1350,0.08,0.12,-0.98,2.87,3.97,-0.37
3.1470,0.08,0.12,-0.98,2.81,3.91,0.06
3.1630,0.08,0.12,-0.98,3.11,4.15,0.98
3.1800,0.08,0.12,-0.98,3.23,3.91,1.10
3.1940,0.08,0.13,-0.98,2.99,3.78,1.22
3.2090,0.09,0.14,-0.97,2.14,3.60,0.61
3.2250,0.08,0.11,-0.98,2.99,4.09,0.00
3.2360,0.08,0.12,-0.98,2.87,3.78,0.92
3.2540,0.09,0.12,-0.98,3.11,3.72,1.28
3.2690,0.09,0.12,-0.98,3.05,3.72,0.55
3.2700,0.09,0.13,-0.98,3.30,3.91,0.98
3.2860,0.09,0.13,-0.98,3.17,3.60,0.73
3.3150,0.08,0.12,-0.98,3.17,3.72,1.04
3.3310,0.08,0.13,-0.98,3.17,3.72,1.53
3.3470,0.09,0.12,-0.98,2.50,3.11,1.71
3.3620,0.08,0.12,-0.98,2.93,3.66,1.95
3.3770,0.09,0.12,-0.98,3.23,3.85,1.53
3.3860,0.09,0.13,-0.98,3.54,3.78,1.77
3.4030,0.08,0.13,-0.98,3.17,3.60,1.83
3.4210,0.08,0.13,-0.99,2.87,3.91,1.89
3.4360,0.08,0.12,-0.98,2.93,3.60,1.95
3.4530,0.09,0.13,-0.98,2.99,3.60,1.89
3.4690,0.08,0.12,-0.98,2.87,3.54,1.89
3.4840,0.08,0.12,-0.98,3.17,3.78,1.95
3.5010,0.09,0.12,-0.98,3.42,3.78,1.89
3.5040,0.09,0.12,-0.98,3.36,3.72,1.95
3.5320,0.08,0.13,-0.98,3.17,3.66,2.01
3.5480,0.08,0.13,-0.98,2.69,3.72,2.08
3.5640,0.08,0.13,-0.98,2.50,3.66,1.89
3.5800,0.09,0.12,-0.98,2.62,3.66,2.08
3.5960,0.08,0.13,-0.98,2.75,3.60,1.89
3.6120,0.08,0.12,-0.98,2.81,3.60,1.83
3.6280,0.09,0.13,-0.98,3.11,3.60,1.89
3.6430,0.08,0.12,-0.98,2.99,3.48,2.14
3.6550,0.08,0.13,-0.98,3.11,3.78,2.14
3.6710,0.08,0.13,-0.98,2.75,3.48,1.83
3.6900,0.08,0.13,-0.98,2.32,3.30,1.83
3.7050,0.09,0.12,-0.98,2.38,3.48,1.89
3.7200,0.09,0.12,-0.98,2.75,3.42,1.77
3.7350,0.08,0.12,-0.98,3.11,3.97,1.89
3.7500,0.08,0.13,-0.98,3.17,3.72,2.08
3.7650,0.08,0.13,-0.98,2.99,3.72,1.95
3.7770,0.09,0.13,-0.98,2.87,3.85,2.01
3.7930,0.09,0.12,-0.98,2.87,3.72,2.14
3.8100,0.08,0.13,-0.98,2.38,3.36,2.38
3.8260,0.08,0.12,-0.98,2.99,3.66,2.50
3.8430,0.08,0.13,-0.98,2.56,3.66,2.62
3.8590,0.09,0.13,-0.98,2.26,3.23,1.83
3.8750,0.09,0.12,-0.98,1.83,3.42,1.83
3.8910,0.09,0.12,-0.98,2.44,3.48,1.95
3.9060,0.09,0.12,-0.98,3.17,4.03,1.89
3.9100,0.08,0.12,-0.98,3.48,3.66,2.01
3.9260,0.09,0.13,-0.98,3.36,3.85,2.14
3.9510,0.08,0.12,-0.98,2.87,3.54,1.83
3.9640,0.08,0.13,-0.98,2.69,3.60,2.01
3.9800,0.09,0.13,-0.98,2.44,3.23,1.83
3.9970,0.09,0.12,-0.98,2.14,3.60,1.89
4.0130,0.08,0.12,-0.98,2.56,3.54,1.95
4.0290,0.08,0.12,-0.98,2.56,3.48,1.83
4.0450,0.08,0.13,-0.98,2.44,3.66,1.83
4.0600,0.08,0.12,-0.98,2.14,3.60,1.89
4.0770,0.09,0.13,-0.98,2.75,3.54,1.59
4.0940,0.08,0.12,-0.98,2.87,3.36,1.71
4.1090,0.09,0.12,-0.98,2.99,3.66,2.14
4.1250,0.09,0.12,-0.98,3.30,3.42,2.20
4.1400,0.09,0.12,-0.98,3.30,3.42,2.14
4.1470,0.09,0.12,-0.98,3.17,3.60,1.89
4.1620,0.09,0.12,-0.98,2.99,3.60,2.01
4.1860,0.08,0.12,-0.98,2.93,3.72,1.95
4.2010,0.08,0.12,-0.98,2.93,3.78,1.83
4.2170,0.08,0.12,-0.98,3.05,3.48,1.95
4.2340,0.08,0.13,-0.98,2.99,3.60,1.95
4.2490,0.08,0.12,-0.98,2.81,3.91,1.95
4.2650,0.09,0.12,-0.98,3.05,3.54,1.95
4.2800,0.08,0.13,-0.98,2.75,3.54,1.83
4.2870,0.09,0.12,-0.98,2.99,3.23,1.89
4.3020,0.08,0.12,-0.98,3.05,3.54,2.08
4.3270,0.08,0.12,-0.98,2.87,3.54,1.95
4.3410,0.08,0.12,-0.98,2.81,3.36,1.89
4.3570,0.08,0.12,-0.98,2.75,3.48,2.01
4.3740,0.08,0.13,-0.98,2.81,3.60,1.95
4.3900,0.08,0.12,-0.98,2.38,3.42,1.77
4.4050,0.08,0.12,-0.98,2.87,3.36,1.95
4.4220,0.08,0.12,-0.98,2.99,3.72,1.95
4.4370,0.09,0.12,-0.98,2.93,3.60,1.95
4.4420,0.09,0.12,-0.98,2.62,3.54,1.95
4.4570,0.08,0.12,-0.98,2.87,3.72,1.83
4.4840,0.08,0.12,-0.98,3.05,3.72,1.89
4.4940,0.09,0.12,-0.98,3.30,3.42,2.08
4.5110,0.08,0.13,-0.98,3.36,3.85,2.14
4.5290,0.08,0.13,-0.98,2.99,3.54,2.01
4.5440,0.09,0.13,-0.98,2.75,4.03,2.01
4.5600,0.09,0.12,-0.98,2.44,3.60,2.01
4.5760,0.08,0.12,-0.98,2.93,3.60,1.89
4.5900,0.09,0.12,-0.98,3.05,3.66,1.89
4.5950,0.09,0.12,-0.98,3.11,3.42,2.01
4.6100,0.08,0.12,-0.98,3.05,3.78,1.95
4.6340,0.08,0.12,-0.98,3.17,3.78,2.08
4.6500,0.08,0.13,-0.98,3.05,3.72,2.01
4.6680,0.09,0.13,-0.98,2.93,3.54,2.01
4.6830,0.08,0.12,-0.98,2.93,3.42,2.14
4.7000,0.09,0.12,-0.98,2.93,4.03,1.95
4.7160,0.08,0.12,-0.98,3.36,3.60,1.95
4.7320,0.08,0.12,-0.98,3.11,3.78,1.95
4.7470,0.08,0.12,-0.98,2.87,3.85,2.08
4.7620,0.09,0.12,-0.98,2.99,3.54,2.01
4.7800,0.09,0.12,-0.98,2.75,3.72,2.01
4.7830,0.08,0.12,-0.98,2.81,3.66,2.08
4.7990,0.08,0.12,-0.98,2.93,3.66,1.89
4.8220,0.08,0.12,-0.98,2.93,3.54,1.95
4.8400,0.08,0.12,-0.98,2.93,3.30,2.01
4.8560,0.08,0.12,-0.98,2.93,3.54,1.95
4.8710,0.08,0.12,-0.98,2.93,3.60,1.77
4.8880,0.09,0.12,-0.98,2.75,3.72,1.89
4.9030,0.08,0.12,-0.98,2.81,3.72,2.01
4.9190,0.09,0.13,-0.98,2.87,3.36,2.01
4.9350,0.09,0.12,-0.98,3.05,3.48,2.08
4.9520,0.08,0.12,-0.98,2.87,3.42,1.83
4.9670,0.09,0.13,-0.98,3.05,3.91,1.89
4.9830,0.09,0.12,-0.98,2.81,3.54,2.01
4.9980,0.09,0.12,-0.98,2.75,3.30,1.95
5.0140,0.09,0.12,-0.98,2.75,3.60,2.08
5.0290,0.09,0.12,-0.98,2.93,3.97,2.01
5.0440,0.08,0.12,-0.98,3.17,3.48,1.95
5.0560,0.08,0.12,-0.98,2.93,3.36,1.95
5.0720,0.09,0.13,-0.98,2.87,3.72,2.08
5.0890,0.08,0.12,-0.98,2.93,3.78,2.01
5.1050,0.09,0.12,-0.98,2.69,3.72,1.95
5.1200,0.09,0.12,-0.98,3.36,3.60,2.01
5.1360,0.09,0.13,-0.98,3.54,3.91,2.14
5.1530,0.08,0.13,-0.98,3.48,3.72,2.01
5.1680,0.09,0.13,-0.98,2.99,3.85,1.89
5.1840,0.08,0.13,-0.98,2.75,3.42,1.95
5.2000,0.08,0.12,-0.98,2.69,3.72,1.95
5.2160,0.09,0.12,-0.99,3.17,3.54,2.14
5.2310,0.08,0.13,-0.98,3.23,3.78,1.89
5.2390,0.08,0.12,-0.98,2.99,4.15,1.89
5.2550,0.08,0.12,-0.98,3.11,3.78,2.08
5.2730,0.08,0.13,-0.98,2.81,3.85,2.14
5.2890,0.08,0.13,-0.98,2.87,3.72,2.01
5.3050,0.08,0.12,-0.98,2.81,3.60,1.95
5.3220,0.09,0.13,-0.98,2.87,3.78,2.08
5.3370,0.09,0.12,-0.98,2.69,3.72,2.01
5.3530,0.08,0.13,-0.98,3.05,3.60,2.08
5.3680,0.08,0.13,-0.98,3.30,3.91,2.08
5.3830,0.08,0.13,-0.98,3.17,3.66,2.20
5.4000,0.08,0.13,-0.98,3.05,3.54,2.08
5.4150,0.08,0.13,-0.98,2.62,3.60,2.50
5.4280,0.09,0.12,-0.98,2.81,3.66,2.44
5.4460,0.09,0.12,-0.98,2.81,3.42,1.95
5.4610,0.08,0.13,-0.98,2.75,3.72,2.01
5.4720,0.08,0.13,-0.98,2.93,3.60,1.95
5.4890,0.08,0.13,-0.98,2.99,3.72,1.83
5.5060,0.08,0.13,-0.98,2.69,3.78,2.08
5.5210,0.08,0.13,-0.98,2.56,3.66,1.95
5.5370,0.08,0.12,-0.98,2.99,3.60,1.95
5.5530,0.08,0.12,-0.98,2.69,3.54,1.89
5.5680,0.08,0.13,-0.98,2.81,3.48,1.95
5.5840,0.09,0.12,-0.98,2.87,3.78,1.89
5.6020,0.08,0.13,-0.98,2.87,3.66,2.01
5.6170,0.08,0.13,-0.98,2.93,3.66,1.95
5.6330,0.08,0.13,-0.98,2.93,3.72,1.89
5.6490,0.08,0.12,-0.98,3.05,3.60,2.08
5.6640,0.08,0.13,-0.98,2.69,3.54,1.95
5.6790,0.08,0.13,-0.98,2.62,3.36,1.89
5.6890,0.08,0.12,-0.98,2.75,3.60,1.83
5.7060,0.08,0.12,-0.98,2.87,3.48,2.01
5.7230,0.08,0.12,-0.98,2.81,3.66,1.95
5.7380,0.08,0.13,-0.98,2.81,3.60,1.95
5.7560,0.08,0.12,-0.98,2.81,3.66,1.95
5.7720,0.08,0.12,-0.98,2.87,3.60,2.01
5.7880,0.08,0.13,-0.98,2.93,3.54,1.95
5.8040,0.08,0.13,-0.98,3.11,3.72,1.95
5.8210,0.08,0.13,-0.98,2.93,3.72,1.89
5.8360,0.08,0.13,-0.98,2.81,3.54,1.95
5.8510,0.08,0.13,-0.98,2.75,3.48,1.89
5.8680,0.08,0.12,-0.98,2.38,3.48,1.95
5.8840,0.09,0.12,-0.98,2.62,3.60,1.89
5.9000,0.09,0.12,-0.98,2.44,3.60,2.01
5.9170,0.08,0.12,-0.98,2.87,3.60,1.95
5.9320,0.09,0.12,-0.98,3.11,3.60,2.08
5.9390,0.08,0.13,-0.99,3.36,3.66,1.95
5.9550,0.08,0.13,-0.98,2.99,3.72,2.01
5.9770,0.08,0.13,-0.98,2.81,3.54,1.95
5.9940,0.08,0.12,-0.98,3.05,3.72,1.89
6.0090,0.08,0.12,-0.98,3.17,3.60,1.89
6.0260,0.08,0.12,-0.98,3.05,3.48,1.95
6.0420,0.08,0.13,-0.98,2.93,3.36,1.89
6.0580,0.08,0.13,-0.98,2.81,3.48,1.95
6.0600,0.08,0.12,-0.98,2.75,3.60,1.77
6.0750,0.08,0.13,-0.98,2.93,3.54,2.08
6.1040,0.09,0.12,-0.98,2.87,3.48,1.83
6.1140,0.08,0.13,-0.98,2.93,3.66,1.89
6.1300,0.08,0.12,-0.98,3.11,3.60,1.95
6.1510,0.08,0.12,-0.98,2.99,3.91,2.14
6.1540,0.09,0.12,-0.98,3.11,3.48,1.89
6.1830,0.08,0.13,-0.98,3.05,3.48,1.95
6.1980,0.08,0.13,-0.98,2.81,3.60,2.01
6.2030,0.08,0.12,-0.98,2.26,3.66,1.95
6.2300,0.08,0.12,-0.98,3.17,3.66,2.01
6.2410,0.08,0.13,-0.98,2.75,3.60,1.77
6.2580,0.08,0.12,-0.98,2.50,3.48,1.89
6.2750,0.08,0.13,-0.98,2.69,3.36,1.89
6.2910,0.08,0.13,-0.98,2.81,3.36,1.89
6.3080,0.08,0.13,-0.98,2.87,3.54,2.01
6.3240,0.08,0.13,-0.98,3.11,3.48,1.89
6.3390,0.08,0.13,-0.98,3.11,3.54,1.95
6.3560,0.08,0.13,-0.98,2.87,3.54,1.95
6.3710,0.08,0.13,-0.98,2.93,3.60,1.89
6.3870,0.08,0.13,-0.98,2.69,3.60,1.83
6.4030,0.09,0.13,-0.98,2.56,3.72,1.77
6.4190,0.08,0.13,-0.98,2.44,3.30,1.95
6.4360,0.08,0.13,-0.98,2.38,3.42,2.01
6.4510,0.08,0.12,-0.98,2.75,3.42,1.95
6.4670,0.09,0.13,-0.98,2.93,3.60,1.89
6.4830,0.09,0.13,-0.98,3.11,3.60,2.20
6.4990,0.08,0.12,-0.98,3.11,3.48,2.08
6.5080,0.08,0.12,-0.98,3.11,3.48,1.95
6.5300,0.08,0.12,-0.98,2.87,3.78,2.01
6.5440,0.08,0.12,-0.98,2.87,4.21,2.14
6.5610,0.08,0.13,-0.98,2.75,3.60,1.95
6.5640,0.09,0.12,-0.98,3.17,3.48,2.08
6.5800,0.08,0.12,-0.98,2.93,3.72,1.89
6.6010,0.08,0.13,-0.98,2.69,3.42,1.77
6.6190,0.08,0.13,-0.98,2.87,3.60,1.83
6.6340,0.08,0.12,-0.98,2.87,3.54,1.83
6.6540,0.09,0.13,-0.98,2.81,3.60,1.77
6.6700,0.08,0.13,-0.98,2.93,3.72,1.89
6.6850,0.08,0.13,-0.98,2.81,3.60,1.95
6.7010,0.09,0.12,-0.98,2.99,2.93,1.89
6.7170,0.09,0.13,-0.98,3.05,3.66,1.95
6.7320,0.08,0.13,-0.98,3.17,3.60,2.08
6.7390,0.08,0.13,-0.98,2.81,3.60,2.01
6.7550,0.08,0.12,-0.98,2.75,3.60,1.95
6.7760,0.08,0.12,-0.98,2.81,3.66,2.01
6.7930,0.08,0.13,-0.98,3.11,3.66,1.89
6.8090,0.08,0.12,-0.98,2.87,3.72,2.14
6.8240,0.08,0.12,-0.98,2.87,3.60,2.08
6.8390,0.09,0.12,-0.98,2.93,3.72,1.95
6.8540,0.08,0.13,-0.98,2.87,3.66,2.01
6.8700,0.09,0.13,-0.98,2.81,3.66,1.89
6.8860,0.09,0.13,-0.98,2.81,3.42,1.95
6.9010,0.09,0.12,-0.98,2.81,3.85,1.89
6.9160,0.08,0.13,-0.98,2.87,3.97,2.14
6.9320,0.08,0.12,-0.98,2.62,3.91,1.89
6.9430,0.09,0.12,-0.98,2.75,3.78,1.89
6.9600,0.08,0.12,-0.98,3.17,3.42,2.08
6.9770,0.08,0.12,-0.99,3.17,3.48,1.95
6.9930,0.08,0.13,-0.98,2.99,3.42,1.89
7.0100,0.09,0.12,-0.98,2.81,3.54,2.01
7.0260,0.08,0.12,-0.98,2.93,3.48,2.01
7.0420,0.08,0.13,-0.98,3.05,3.85,2.01
7.0580,0.08,0.12,-0.98,2.81,3.60,2.01
7.0730,0.08,0.13,-0.98,2.99,3.60,1.89
7.0890,0.08,0.12,-0.98,2.93,3.66,1.95
7.1040,0.08,0.12,-0.98,2.99,3.48,1.95
7.1190,0.08,0.13,-0.98,3.17,3.72,1.83
7.1350,0.08,0.12,-0.98,2.93,3.72,1.95
7.1490,0.08,0.12,-0.98,2.87,3.60,1.95
7.1600,0.09,0.12,-0.98,2.93,3.72,2.01
7.1770,0.08,0.13,-0.98,3.11,3.60,2.01
7.1930,0.08,0.13,-0.98,3.11,3.85,1.95
7.2090,0.08,0.13,-0.98,2.87,3.72,1.95
7.2260,0.09,0.12,-0.98,2.56,3.66,1.95
7.2430,0.08,0.12,-0.98,2.69,3.66,1.89
7.2590,0.08,0.13,-0.99,2.93,3.66,1.89
7.2750,0.08,0.13,-0.98,2.81,3.60,1.95
7.2910,0.08,0.13,-0.98,2.75,3.78,1.89
7.3070,0.08,0.13,-0.98,3.05,3.36,1.89
7.3220,0.08,0.13,-0.98,2.62,3.54,2.01
7.3380,0.08,0.12,-0.98,2.75,3.66,1.89
7.3550,0.08,0.12,-0.98,2.81,3.72,1.77
7.3600,0.08,0.13,-0.98,2.99,3.66,1.83
7.3750,0.09,0.12,-0.98,2.99,3.97,1.89
7.4010,0.08,0.12,-0.98,2.93,3.78,1.89
7.4120,0.09,0.13,-0.98,2.93,3.54,2.01
7.4280,0.08,0.13,-0.98,2.87,3.30,1.95
7.4450,0.09,0.12,-0.98,2.75,3.66,1.89
7.4620,0.08,0.12,-0.98,2.75,3.54,1.83
7.4770,0.08,0.12,-0.98,2.75,3.36,1.89
7.4930,0.08,0.12,-0.98,2.62,3.54,1.89
7.5080,0.09,0.12,-0.98,2.56,3.60,1.77
7.5230,0.09,0.12,-0.98,2.62,3.78,1.77
7.5310,0.08,0.12,-0.98,2.69,3.85,1.95
7.5440,0.08,0.13,-0.98,3.11,3.60,1.89
7.5650,0.08,0.12,-0.98,2.81,3.66,2.01
7.5810,0.09,0.12,-0.98,2.93,3.60,2.01
7.5990,0.08,0.12,-0.98,2.87,3.78,1.95
7.5990,0.08,0.13,-0.98,2.81,3.48,2.01
7.6140,0.08,0.12,-0.98,2.81,3.78,2.01
7.6440,0.08,0.12,-0.98,3.05,3.72,1.95
7.6480,0.09,0.13,-0.98,2.99,3.48,2.01
7.6750,0.09,0.13,-0.98,2.99,3.54,1.95
7.6810,0.08,0.13,-0.98,2.99,3.54,1.95
7.7060,0.08,0.12,-0.98,2.81,3.36,1.89
7.7140,0.09,0.12,-0.98,2.99,3.54,1.89
7.7320,0.08,0.13,-0.98,3.05,3.54,1.89
7.7480,0.08,0.12,-0.98,2.75,3.54,1.83
7.7640,0.09,0.12,-0.98,2.75,3.54,1.77
7.7820,0.08,0.13,-0.98,2.99,3.66,1.83
7.7980,0.09,0.12,-0.98,2.69,3.48,1.83
7.8140,0.08,0.12,-0.98,2.81,3.54,1.95
7.8290,0.09,0.12,-0.98,2.81,3.17,1.83
7.8460,0.09,0.13,-0.98,2.75,3.36,1.89
7.8470,0.08,0.12,-0.98,2.99,3.36,1.83
7.8640,0.08,0.13,-0.98,2.81,3.60,2.01
7.8810,0.08,0.12,-0.98,2.81,3.42,1.89
7.8970,0.09,0.12,-0.99,2.56,3.36,1.89
7.9240,0.08,0.12,-0.98,2.44,3.54,1.77
7.9350,0.08,0.13,-0.98,2.81,3.48,1.83
7.9510,0.08,0.12,-0.98,2.93,3.72,1.95
7.9660,0.09,0.13,-0.98,2.93,3.72,1.89
7.9850,0.09,0.12,-0.98,2.99,3.72,1.95
8.0000,0.09,0.13,-0.98,2.93,3.60,2.08
8.0160,0.08,0.13,-0.98,2.75,3.48,1.95
8.0320,0.08,0.12,-0.98,2.87,3.48,1.83
8.0480,0.09,0.12,-0.98,2.93,3.60,1.89
8.0540,0.09,0.12,-0.98,2.99,3.42,2.01
8.0770,0.09,0.13,-0.98,3.05,3.48,1.95
8.0920,0.09,0.13,-0.98,2.87,3.72,1.89
8.1040,0.08,0.12,-0.98,2.93,3.72,2.01
8.1200,0.09,0.12,-0.98,2.56,3.23,1.95
8.1370,0.09,0.12,-0.99,2.81,3.17,1.89
8.1520,0.09,0.13,-0.98,2.75,3.23,2.01
8.1690,0.08,0.12,-0.98,2.75,3.85,1.89
8.1710,0.08,0.12,-0.98,2.99,3.36,1.89
8.2010,0.09,0.12,-0.98,2.75,3.72,1.77
8.2040,0.08,0.12,-0.98,2.93,3.97,1.95
8.2190,0.09,0.12,-0.98,2.81,3.60,1.83
8.2470,0.08,0.12,-0.99,2.93,3.54,1.95
8.2580,0.09,0.12,-0.98,2.87,3.72,2.01
8.2740,0.08,0.12,-0.98,2.81,3.48,1.89
8.2920,0.08,0.12,-0.99,2.87,3.72,1.89
8.3080,0.08,0.12,-0.98,2.87,3.48,1.83
8.3240,0.08,0.12,-0.98,2.75,3.78,1.83
8.3400,0.08,0.12,-0.98,2.75,3.42,1.83
8.3550,0.09,0.12,-0.98,2.87,3.60,1.77
8.3710,0.08,0.13,-0.98,3.05,3.42,1.77
8.3870,0.09,0.13,-0.98,2.99,3.72,1.53
8.4010,0.09,0.12,-0.98,2.87,3.72,1.16
8.4170,0.09,0.13,-0.98,2.87,3.66,1.53
8.4330,0.09,0.12,-0.98,2.87,3.60,1.77
8.4480,0.09,0.13,-0.98,2.87,3.66,1.71
8.4580,0.09,0.12,-0.98,2.87,3.72,1.65
8.4730,0.09,0.12,-0.98,2.81,3.72,1.83
8.4940,0.09,0.13,-0.98,2.99,3.72,1.83
8.5090,0.08,0.12,-0.98,2.81,3.54,2.56
8.5250,0.09,0.12,-0.98,2.69,3.66,2.44
8.5410,0.09,0.12,-0.98,2.81,3.66,2.20
8.5450,0.08,0.12,-0.98,2.87,3.42,1.89
8.5610,0.09,0.13,-0.98,2.93,3.85,1.65
8.5820,0.08,0.12,-0.98,2.99,3.48,1.65
8.5980,0.09,0.12,-0.98,2.81,3.72,1.65
8.6150,0.08,0.12,-0.98,3.11,3.36,1.83
8.6330,0.08,0.12,-0.98,2.87,3.36,2.08
8.6480,0.08,0.12,-0.98,2.81,3.42,1.95
8.6650,0.09,0.12,-0.98,2.93,3.42,2.08
8.6810,0.09,0.12,-0.98,2.81,3.23,1.95
8.6970,0.09,0.12,-0.98,2.81,3.66,1.89
8.7130,0.09,0.12,-0.98,2.99,3.48,1.89
8.7150,0.08,0.12,-0.98,2.93,3.54,2.01
8.7330,0.09,0.12,-0.98,2.87,3.60,1.95
8.7600,0.09,0.12,-0.98,2.69,3.36,1.89
8.7710,0.09,0.12,-0.98,2.81,3.30,1.83
8.7890,0.09,0.12,-0.98,2.87,3.60,2.01
8.8050,0.09,0.12,-0.98,2.93,3.78,1.95
8.8210,0.08,0.12,-0.98,2.93,3.36,1.89
8.8370,0.09,0.12,-0.98,2.93,3.66,1.89
8.8530,0.09,0.12,-0.98,2.75,3.91,1.95
8.8690,0.09,0.12,-0.98,2.93,3.54,1.83
8.8840,0.09,0.12,-0.98,3.05,3.42,1.89
8.9010,0.09,0.12,-0.98,2.87,3.48,1.95
8.9170,0.09,0.12,-0.98,2.81,3.54,1.89
8.9330,0.09,0.12,-0.98,2.99,3.54,1.83
8.9490,0.09,0.12,-0.98,2.93,3.48,1.83
8.9550,0.09,0.13,-0.98,2.81,3.42,1.65
8.9710,0.09,0.13,-0.98,2.99,3.72,1.34
8.9930,0.09,0.12,-0.99,2.87,3.60,1.83
9.0100,0.08,0.12,-0.98,3.17,3.48,2.01
9.0260,0.09,0.12,-0.98,2.87,3.66,1.89
9.0430,0.09,0.12,-0.98,2.99,3.42,1.89
9.0580,0.08,0.12,-0.98,2.56,3.42,1.89
9.0750,0.09,0.12,-0.98,3.11,3.66,1.95
9.0910,0.09,0.12,-0.98,2.93,3.60,1.89
9.1060,0.09,0.12,-0.98,2.93,3.66,1.83
9.1210,0.09,0.12,-0.98,2.99,3.72,1.83
9.1370,0.08,0.12,-0.98,2.75,3.78,1.83
9.1530,0.09,0.13,-0.98,3.17,3.78,2.01
9.1680,0.08,0.12,-0.98,2.87,3.36,1.95
9.1780,0.09,0.12,-0.98,2.87,3.72,1.83
9.1940,0.09,0.12,-0.98,2.81,3.42,1.77
9.2090,0.09,0.12,-0.98,3.05,3.78,1.89
9.2260,0.09,0.12,-0.98,2.81,3.36,2.01
9.2430,0.08,0.12,-0.98,2.93,3.97,1.89
9.2590,0.09,0.12,-0.98,2.99,3.66,1.83
9.2770,0.08,0.12,-0.98,2.99,3.66,1.77
9.2940,0.09,0.12,-0.98,2.87,3.42,1.77
9.3100,0.09,0.12,-0.98,2.99,3.66,1.89
9.3260,0.09,0.13,-0.98,2.93,3.72,2.01
9.3420,0.08,0.12,-0.98,2.99,3.60,2.32
9.3590,0.08,0.12,-0.98,2.87,3.85,2.20
9.3740,0.09,0.12,-0.98,2.81,3.54,1.83
9.3890,0.09,0.12,-0.98,2.69,3.66,1.89
9.4040,0.09,0.12,-0.98,2.93,3.36,1.65
9.4190,0.09,0.12,-0.98,3.05,3.30,1.77
9.4340,0.09,0.12,-0.98,2.81,3.97,1.89
9.4420,0.08,0.12,-0.98,2.87,3.72,1.95
9.4650,0.09,0.12,-0.98,2.81,3.78,1.95
9.4810,0.09,0.12,-0.98,2.93,3.78,1.95
9.4970,0.09,0.12,-0.98,2.99,3.48,1.89
9.5000,0.09,0.13,-0.98,2.87,3.91,1.95
9.5150,0.09,0.12,-0.98,3.05,3.72,1.95
9.5430,0.08,0.12,-0.99,2.69,3.60,2.14
9.5540,0.09,0.12,-0.98,2.81,3.48,2.01
9.5700,0.09,0.12,-0.98,2.69,3.42,1.89
9.5870,0.09,0.12,-0.98,2.81,3.23,2.01
9.6030,0.09,0.12,-0.98,2.99,3.42,1.89
9.6200,0.09,0.12,-0.98,2.62,3.36,2.08
9.6360,0.09,0.13,-0.98,2.69,3.60,2.26
9.6510,0.08,0.12,-0.98,2.81,3.66,2.50
9.6540,0.08,0.12,-0.98,2.87,3.42,2.50
9.6690,0.09,0.12,-0.98,2.81,3.60,2.32
9.6930,0.09,0.12,-0.98,2.99,3.42,2.20
9.7090,0.09,0.12,-0.98,2.81,3.42,1.83
9.7270,0.09,0.12,-0.98,2.81,3.42,1.95
9.7420,0.09,0.12,-0.98,2.87,3.78,2.01
9.7580,0.09,0.12,-0.98,2.93,3.72,2.01
9.7730,0.09,0.12,-0.98,2.93,3.54,2.01
9.7880,0.09,0.12,-0.98,2.69,3.54,1.95
9.8040,0.09,0.12,-0.98,2.81,3.72,2.01
9.8190,0.09,0.12,-0.98,2.81,3.42,1.95
9.8340,0.09,0.12,-0.98,2.99,3.42,1.89
9.8500,0.09,0.12,-0.98,2.93,3.48,1.95
9.8640,0.09,0.13,-0.98,2.81,3.72,2.08
9.8770,0.09,0.13,-0.98,2.87,3.42,2.44
9.8930,0.09,0.13,-0.98,3.11,3.48,2.87
9.9100,0.08,0.12,-0.99,2.87,3.72,2.69
9.9270,0.09,0.12,-0.98,2.93,3.30,1.83
9.9430,0.09,0.12,-0.98,2.62,3.36,1.89
9.9590,0.09,0.15,-0.98,2.75,3.54,2.01
9.9750,0.09,0.16,-0.98,2.93,3.17,4.94
9.9910,0.09,0.15,-0.98,1.71,2.81,7.93
10.0060,0.09,0.11,-0.99,2.26,3.23,7.39
10.0200,0.09,0.09,-0.99,2.32,2.93,6.84
10.0360,0.08,0.09,-0.99,2.56,3.36,4.82
10.0530,0.08,0.09,-0.99,2.69,3.60,2.69
10.0690,0.09,0.12,-0.99,2.93,3.66,2.01
10.0840,0.08,0.12,-0.98,2.87,3.60,1.95
10.0930,0.09,0.12,-0.98,2.93,3.72,1.95
10.1090,0.09,0.12,-0.99,3.23,3.42,1.83
10.1310,0.09,0.12,-0.98,2.87,3.48,2.01
10.1480,0.09,0.12,-0.98,2.81,3.54,2.14
10.1490,0.09,0.12,-0.98,2.93,3.54,2.01
10.1800,0.08,0.12,-0.98,2.87,3.54,1.95
10.1810,0.09,0.12,-0.98,2.99,3.60,1.95
10.2110,0.09,0.12,-0.98,2.75,3.66,2.08
10.2140,0.09,0.12,-0.98,2.87,3.54,2.08
10.2340,0.09,0.12,-0.98,2.93,3.66,1.83
10.2560,0.08,0.12,-0.98,2.99,3.36,1.71
10.2720,0.08,0.12,-0.98,2.81,3.60,1.89
10.2810,0.09,0.12,-0.98,3.05,3.66,1.95
10.2970,0.09,0.12,-0.98,2.99,3.54,2.01
10.3130,0.08,0.12,-0.98,2.81,3.66,2.01
10.3310,0.08,0.12,-0.99,2.99,3.91,2.01
10.3340,0.09,0.12,-0.98,2.87,3.60,2.08
10.3480,0.08,0.12,-0.98,2.93,3.54,1.95
10.3650,0.09,0.13,-0.98,2.93,3.30,2.01
10.3810,0.09,0.13,-0.98,2.75,3.42,3.54
10.4070,0.09,0.12,-0.98,2.44,3.36,3.23
10.4220,0.09,0.12,-0.98,2.62,3.60,2.56
10.4340,0.09,0.12,-0.98,2.75,3.36,2.20
10.4480,0.09,0.12,-0.98,2.75,3.60,2.01
10.4640,0.09,0.12,-0.98,2.81,3.48,1.77
10.4810,0.09,0.12,-0.98,2.87,3.42,1.95
10.4970,0.09,0.12,-0.99,2.87,3.54,2.01
10.5150,0.09,0.12,-0.98,2.81,3.66,1.89
10.5300,0.09,0.12,-0.98,2.62,3.72,1.89
10.5340,0.09,0.12,-0.98,2.93,3.72,1.83
10.5470,0.09,0.12,-0.98,2.93,3.48,1.83
10.5640,0.09,0.13,-0.98,2.81,3.60,1.89
10.5820,0.09,0.13,-0.98,3.11,3.48,2.75
10.5980,0.08,0.13,-0.98,2.81,3.36,3.66
10.6180,0.09,0.12,-0.98,2.75,3.54,2.99
10.6340,0.09,0.12,-0.98,2.87,3.48,1.89
10.6520,0.08,0.12,-0.98,2.87,3.60,1.95
10.6670,0.08,0.12,-0.98,2.87,3.54,1.89
10.6840,0.09,0.12,-0.98,3.11,3.66,1.89
10.7010,0.09,0.12,-0.98,2.56,3.42,1.83
10.7180,0.09,0.12,-0.98,2.81,3.66,2.01
10.7350,0.09,0.12,-0.98,2.93,3.48,2.01
10.7360,0.09,0.12,-0.98,2.87,3.42,1.71
10.7510,0.09,0.16,-0.98,3.05,3.23,2.14
10.7690,0.11,0.19,-0.97,2.87,3.05,6.41
10.7970,0.09,0.17,-0.98,2.44,2.44,10.74
10.8120,0.09,0.15,-0.98,1.53,2.14,10.13
10.8270,0.09,0.10,-0.98,2.14,2.69,8.42
10.8360,0.08,0.07,-0.99,2.20,2.81,6.53
10.8510,0.08,0.06,-0.99,2.50,3.30,3.30
10.8730,0.09,0.12,-0.98,3.42,3.66,1.95
10.8880,0.09,0.13,-0.98,2.93,3.72,2.01
10.9040,0.09,0.12,-0.99,2.87,3.23,2.08
10.9210,0.09,0.12,-0.98,2.81,3.42,2.01
10.9360,0.08,0.12,-0.98,3.05,3.85,1.95
10.9530,0.09,0.12,-0.98,3.05,3.72,1.95
10.9690,0.09,0.12,-0.98,2.99,3.85,2.01
10.9850,0.09,0.12,-0.98,2.93,3.72,2.01
10.9990,0.09,0.12,-0.98,2.87,3.66,1.95
11.0140,0.09,0.12,-0.98,2.81,3.78,1.95
11.0300,0.09,0.12,-0.98,2.81,3.72,2.01
11.0440,0.09,0.13,-0.98,2.93,3.60,1.95
11.0560,0.09,0.12,-0.98,3.05,3.72,1.89
11.0720,0.09,0.12,-0.98,3.11,3.60,1.95
11.0890,0.09,0.12,-0.98,2.99,3.48,1.95
11.1040,0.09,0.12,-0.98,2.87,3.36,1.89
11.1200,0.09,0.12,-0.98,2.99,3.60,1.95
11.1350,0.09,0.12,-0.98,2.99,3.78,1.95
11.1380,0.09,0.12,-0.98,2.87,3.60,1.95
11.1670,0.09,0.13,-0.98,2.75,3.78,2.08
11.1770,0.09,0.15,-0.98,2.87,3.42,3.48
11.1930,0.08,0.16,-0.98,2.38,2.38,8.12
11.2110,0.08,0.14,-0.98,1.83,2.56,7.93
11.2260,0.08,0.11,-0.99,2.14,2.93,7.08
11.2440,0.08,0.07,-0.99,2.26,3.17,4.64
11.2600,0.08,0.10,-0.99,2.81,3.60,1.89
11.2610,0.08,0.12,-0.98,3.42,3.48,2.08
11.2920,0.08,0.12,-0.98,2.81,3.54,2.01
11.3080,0.09,0.12,-0.98,2.75,3.78,1.83
11.3240,0.09,0.12,-0.98,2.81,3.60,2.08
11.3380,0.09,0.12,-0.98,2.93,3.36,2.14
11.3540,0.09,0.12,-0.98,2.93,3.60,1.89
11.3600,0.09,0.12,-0.98,2.99,3.60,1.95
11.3760,0.09,0.12,-0.98,2.87,3.91,2.08
11.4010,0.09,0.13,-0.98,2.87,3.60,3.05
11.4130,0.08,0.12,-0.98,2.44,3.48,3.42
11.4300,0.09,0.12,-0.98,2.75,3.60,2.38
11.4460,0.09,0.12,-0.98,2.87,3.36,2.38
11.4630,0.09,0.13,-0.98,2.87,3.42,2.38
11.4780,0.10,0.18,-0.97,2.87,3.36,4.52
11.4950,0.09,0.17,-0.98,2.44,2.20,9.95
11.5100,0.09,0.16,-0.98,1.65,2.20,11.35
11.5250,0.09,0.12,-0.99,1.89,2.32,10.38
11.5400,0.08,0.06,-0.99,1.89,2.69,8.30
11.5550,0.07,0.05,-0.99,2.56,3.30,3.42
11.5710,0.08,0.12,-0.99,3.48,3.78,1.95
11.5850,0.09,0.13,-0.99,3.11,3.60,1.89
11.5960,0.09,0.12,-0.98,2.69,3.48,1.89
11.6130,0.09,0.12,-0.98,2.99,3.72,1.89
11.6290,0.09,0.12,-0.98,2.69,3.60,1.83
11.6460,0.09,0.12,-0.98,2.99,3.66,1.83
11.6630,0.09,0.13,-0.98,2.93,3.42,1.89
11.6790,0.09,0.12,-0.98,2.75,3.72,1.95
11.6950,0.09,0.12,-0.98,2.87,3.72,1.77
11.7100,0.09,0.12,-0.98,2.93,3.85,1.95
11.7260,0.08,0.12,-0.98,2.75,3.36,1.83
11.7420,0.09,0.12,-0.98,2.75,3.72,1.83
11.7570,0.09,0.12,-0.98,2.99,3.42,1.89
11.7730,0.09,0.12,-0.98,2.93,3.36,2.01
11.7890,0.09,0.12,-0.98,2.87,3.78,2.01
11.8040,0.09,0.12,-0.98,2.93,3.78,2.08
11.8130,0.09,0.14,-0.98,3.05,3.17,2.99
11.8280,0.09,0.12,-0.99,2.44,3.66,3.72
11.8490,0.09,0.13,-0.98,2.99,3.36,3.54
11.8650,0.09,0.14,-0.98,2.75,3.30,4.64
11.8810,0.08,0.12,-0.99,2.38,3.42,3.60
11.8970,0.09,0.11,-0.99,2.44,3.42,2.75
11.9010,0.08,0.11,-0.99,2.81,3.72,2.14
11.9160,0.09,0.12,-0.98,2.93,3.36,1.83
11.9430,0.09,0.12,-0.98,2.87,3.66,1.89
11.9540,0.09,0.12,-0.98,2.99,3.54,1.95
11.9720,0.09,0.12,-0.98,2.81,3.78,1.89
11.9870,0.08,0.12,-0.98,2.56,3.60,1.89
12.0030,0.09,0.13,-0.98,2.56,3.23,2.01
12.0200,0.09,0.12,-0.98,2.99,4.03,1.89
12.0360,0.09,0.12,-0.98,2.87,3.48,2.26
12.0520,0.09,0.12,-0.98,2.99,3.36,2.01
12.0690,0.08,0.12,-0.98,3.11,3.66,2.32
12.0850,0.09,0.14,-0.98,2.69,3.42,3.11
12.1010,0.09,0.14,-0.98,2.93,3.36,5.19
12.1170,0.09,0.15,-0.98,2.62,3.11,5.74
12.1320,0.09,0.14,-0.98,2.69,2.81,7.02
12.1480,0.09,0.13,-0.98,2.44,2.87,7.45
12.1630,0.08,0.09,-0.99,2.56,2.56,6.59
12.1780,0.08,0.07,-0.99,2.75,3.36,3.17
12.1880,0.09,0.12,-0.98,3.11,3.78,1.83
12.2040,0.09,0.12,-0.99,2.69,3.60,1.83
12.2230,0.09,0.13,-0.98,2.56,3.48,1.83
12.2410,0.09,0.12,-0.98,3.05,3.78,1.65
12.2560,0.09,0.12,-0.98,3.17,3.66,1.95
12.2720,0.08,0.12,-0.98,3.36,3.42,2.08
12.2870,0.08,0.13,-0.98,3.11,3.42,2.14
12.3020,0.08,0.10,-0.98,2.81,3.48,2.87
12.3170,0.09,0.12,-0.98,2.56,3.54,2.69
12.3310,0.09,0.12,-0.98,2.38,3.36,2.20
12.3470,0.09,0.13,-0.98,2.62,3.66,2.20
12.3580,0.09,0.12,-0.98,3.05,3.66,1.89
12.3740,0.09,0.12,-0.98,2.93,3.66,1.95
12.3910,0.08,0.14,-0.98,2.93,3.91,2.14
12.4080,0.08,0.13,-0.98,2.87,3.42,3.85
12.4240,0.08,0.15,-0.98,3.11,3.54,5.31
12.4390,0.09,0.14,-0.98,2.44,2.99,6.59
12.4540,0.09,0.11,-0.99,2.50,2.93,6.47
12.4700,0.08,0.10,-0.99,2.62,3.17,5.25
12.4860,0.08,0.08,-0.99,2.75,3.30,3.78
12.5020,0.09,0.12,-0.98,2.75,3.78,1.77
12.5180,0.09,0.12,-0.98,3.11,3.85,1.83
12.5340,0.09,0.12,-0.99,2.81,3.66,1.77
12.5490,0.09,0.12,-0.98,2.87,3.85,2.01
12.5630,0.08,0.12,-0.98,3.05,3.54,2.01
12.5740,0.08,0.13,-0.98,2.99,3.78,3.05
12.5910,0.09,0.12,-0.99,2.87,3.23,3.78
12.6070,0.09,0.12,-0.98,2.62,3.30,2.93
12.6250,0.09,0.12,-0.98,2.81,3.54,1.59
12.6400,0.09,0.12,-0.98,3.05,3.30,2.01
12.6560,0.08,0.17,-0.98,3.23,3.54,2.62
12.6700,0.09,0.19,-0.97,3.11,3.05,5.13
12.6860,0.08,0.16,-0.98,2.14,2.44,9.77
12.7010,0.09,0.13,-0.98,1.77,2.38,9.64
12.7170,0.09,0.07,-0.99,2.20,2.50,7.93
12.7330,0.08,0.05,-0.99,2.38,3.42,3.60
12.7490,0.09,0.12,-0.98,3.54,3.85,1.95
12.7640,0.09,0.13,-0.99,3.48,3.91,1.89
12.7740,0.09,0.12,-0.98,2.69,3.72,1.95
12.7910,0.09,0.12,-0.98,2.87,4.03,1.95
12.8080,0.09,0.12,-0.98,2.87,3.60,1.95
12.8250,0.09,0.12,-0.98,3.05,3.60,1.95
12.8400,0.09,0.12,-0.98,2.87,3.60,1.89
12.8560,0.09,0.12,-0.98,2.87,3.78,1.95
12.8700,0.08,0.13,-0.98,2.93,3.54,2.44
12.8870,0.09,0.12,-0.98,2.81,3.30,2.87
12.9020,0.09,0.13,-0.98,2.93,3.48,3.48
12.9080,0.09,0.14,-0.98,2.62,3.11,4.64
12.9240,0.09,0.13,-0.98,2.20,3.11,5.43
12.9460,0.09,0.13,-0.98,2.56,2.93,4.82
12.9630,0.09,0.12,-0.98,2.87,3.23,4.82
12.9790,0.09,0.12,-0.99,2.69,2.99,4.82
12.9950,0.09,0.11,-0.99,2.75,3.11,5.31
13.0120,0.09,0.10,-0.99,2.81,3.36,3.54
13.0280,0.09,0.12,-0.98,2.93,3.48,1.77
13.0440,0.09,0.12,-0.98,2.93,3.60,1.89
13.0600,0.09,0.12,-0.98,2.87,3.48,1.83
13.0620,0.09,0.12,-0.98,3.11,3.66,1.89
13.0780,0.09,0.12,-0.98,3.11,3.60,1.89
13.1000,0.09,0.12,-0.99,2.75,3.54,1.95
13.1160,0.09,0.12,-0.98,3.17,3.60,1.95
13.1340,0.09,0.12,-0.98,3.11,3.66,2.75
13.1500,0.09,0.13,-0.98,2.87,3.48,2.81
13.1670,0.09,0.14,-0.98,2.62,3.60,3.60
13.1680,0.09,0.13,-0.99,2.81,3.48,3.36
13.1840,0.09,0.14,-0.98,2.87,3.11,3.11
13.2150,0.09,0.13,-0.98,2.87,3.30,4.58
13.2300,0.08,0.12,-0.98,2.56,2.75,5.98
13.2460,0.09,0.12,-0.99,2.50,3.48,5.92
13.2620,0.09,0.12,-0.98,2.75,3.23,5.49
13.2670,0.08,0.09,-0.99,2.62,3.36,3.78
13.2930,0.08,0.10,-0.99,2.56,3.85,2.20
13.3040,0.08,0.12,-0.98,2.99,3.78,1.95
13.3160,0.09,0.13,-0.98,3.11,3.85,1.95
13.3350,0.08,0.12,-0.98,2.99,3.54,2.08
13.3500,0.08,0.13,-0.98,3.05,3.48,3.05
13.3670,0.09,0.13,-0.98,2.93,3.42,3.72
13.3840,0.09,0.14,-0.98,2.32,3.36,4.15
13.4000,0.09,0.12,-0.98,2.75,3.36,3.85
13.4160,0.09,0.11,-0.99,2.87,3.72,3.17
13.4180,0.09,0.12,-0.98,2.87,3.54,2.38
13.4480,0.09,0.14,-0.98,2.99,3.30,2.75
13.4640,0.09,0.15,-0.98,2.62,2.87,5.31
13.4800,0.09,0.14,-0.98,2.38,3.05,6.71
13.4830,0.09,0.12,-0.99,2.56,3.05,6.10
13.5100,0.08,0.11,-0.98,2.56,3.11,5.49
13.5190,0.08,0.10,-0.99,2.69,3.17,4.15
13.5350,0.08,0.12,-0.98,2.93,3.54,2.93
13.5510,0.09,0.13,-0.98,3.17,3.66,2.75
13.5730,0.09,0.14,-0.98,2.99,3.54,3.85
13.5870,0.09,0.13,-0.98,2.81,3.36,4.76
13.6030,0.09,0.12,-0.98,2.62,3.42,4.46
13.6190,0.09,0.13,-1.00,2.44,3.11,4.39
13.6350,0.09,0.11,-0.98,2.93,3.17,3.78
13.6390,0.09,0.11,-0.98,2.87,3.66,2.87
13.6550,0.09,0.14,-0.98,3.05,3.66,2.69
13.6810,0.09,0.16,-0.98,2.69,3.30,5.80
13.6930,0.09,0.15,-0.98,2.44,3.11,6.90
13.7100,0.08,0.13,-0.98,2.08,2.44,7.20
13.7260,0.09,0.11,-0.98,2.01,3.05,5.86
13.7430,0.09,0.10,-0.98,2.38,3.42,4.58
13.7570,0.08,0.09,-0.99,2.69,3.72,3.85
13.7720,0.09,0.10,-0.99,2.87,3.66,3.11
13.7870,0.09,0.12,-0.98,3.23,3.60,2.20
13.8030,0.09,0.12,-0.98,3.05,3.91,2.08
13.8180,0.08,0.13,-0.98,2.99,3.72,2.32
13.8330,0.09,0.14,-0.98,2.87,3.42,4.33
13.8480,0.09,0.15,-0.98,2.81,3.11,5.62
13.8590,0.09,0.14,-0.98,2.50,3.11,5.25
13.8760,0.09,0.12,-0.98,2.69,3.23,5.68
13.8930,0.09,0.13,-0.98,2.32,3.36,5.74
13.9080,0.08,0.11,-0.99,2.87,2.62,6.10
13.9230,0.08,0.10,-0.99,2.62,2.75,5.68
13.9390,0.08,0.09,-0.99,2.69,3.54,3.72
13.9540,0.09,0.11,-0.99,3.11,3.72,2.38
13.9690,0.09,0.12,-0.98,3.23,3.85,2.08
13.9840,0.08,0.13,-0.98,2.75,3.60,2.08
13.9990,0.08,0.13,-0.98,2.93,3.72,2.62
14.0150,0.09,0.17,-0.97,2.81,3.17,4.52
14.0260,0.09,0.14,-0.98,2.62,3.11,6.65
14.0430,0.09,0.13,-0.98,2.44,2.50,6.71
14.0590,0.09,0.12,-0.99,2.32,2.87,7.14
14.0740,0.08,0.11,-0.99,2.32,2.99,7.02
14.0890,0.08,0.09,-0.99,2.38,3.17,4.82
14.1050,0.08,0.10,-0.99,2.87,3.54,2.69
14.1200,0.09,0.12,-0.98,3.11,3.66,1.95
14.1350,0.09,0.12,-0.98,2.99,3.36,1.89
14.1500,0.09,0.12,-0.98,2.75,3.54,1.89
14.1650,0.09,0.13,-0.98,2.99,3.91,2.38
14.1760,0.08,0.12,-0.98,2.75,3.54,2.50
14.1930,0.09,0.12,-0.98,2.93,3.42,2.87
14.2100,0.09,0.13,-0.98,2.81,3.36,2.44
14.2250,0.09,0.12,-0.98,2.75,3.23,2.69
14.2400,0.09,0.12,-0.98,2.99,3.48,2.62
14.2540,0.09,0.16,-0.98,2.75,3.60,3.54
14.2700,0.09,0.13,-0.98,2.75,3.17,5.43
14.2870,0.09,0.13,-0.98,2.50,3.05,5.07
14.2940,0.09,0.13,-0.98,2.81,3.17,4.88
14.3170,0.09,0.12,-0.98,2.62,2.81,5.55
14.3270,0.09,0.11,-0.98,2.50,3.23,5.31
14.3430,0.08,0.10,-0.99,2.69,3.30,3.91
14.3590,0.08,0.10,-0.99,2.75,3.72,2.44
14.3760,0.09,0.13,-0.98,3.11,3.42,2.75
14.3920,0.08,0.13,-0.98,2.75,3.42,4.33
14.4080,0.09,0.13,-0.98,2.62,3.23,4.21
14.4230,0.09,0.12,-0.98,2.56,3.30,3.78
14.4380,0.09,0.13,-0.98,2.75,3.36,3.17
14.4540,0.09,0.13,-0.98,2.93,3.42,3.54
14.4690,0.08,0.12,-0.98,2.56,2.87,4.94
14.4850,0.09,0.13,-0.98,2.50,3.60,4.27
14.5000,0.09,0.14,-0.98,2.56,3.17,4.82
14.5150,0.09,0.13,-0.98,2.32,2.81,5.62
14.5260,0.08,0.11,-0.99,2.38,2.99,4.76
14.5420,0.09,0.12,-0.98,2.62,3.17,4.46
14.5590,0.08,0.10,-0.99,2.69,3.36,3.66
14.5760,0.09,0.11,-0.99,2.75,3.72,2.32
14.5920,0.09,0.12,-0.98,2.99,3.48,2.01
14.6090,0.09,0.13,-0.98,2.87,3.42,1.95
14.6250,0.09,0.12,-0.98,2.75,3.66,2.26
14.6410,0.09,0.13,-0.98,2.81,3.66,2.08
14.6560,0.09,0.14,-0.98,2.93,3.54,2.50
14.6590,0.09,0.14,-0.98,2.69,3.23,4.82
14.6750,0.09,0.14,-0.98,2.26,2.99,5.55
14.6970,0.09,0.15,-0.98,2.38,2.93,6.65
14.7150,0.09,0.13,-0.98,2.32,2.75,8.00
14.7300,0.08,0.11,-0.99,2.14,2.75,7.14
14.7370,0.08,0.09,-0.99,2.81,3.05,5.49
14.7480,0.09,0.11,-0.98,2.69,3.05,4.94
14.7660,0.08,0.10,-0.99,2.99,3.42,4.09
14.7820,0.09,0.12,-0.98,2.87,3.54,2.26
14.7970,0.09,0.12,-0.99,2.81,3.30,2.01
14.8190,0.09,0.12,-0.98,2.75,3.60,2.01
14.8360,0.09,0.12,-0.98,2.99,3.72,2.08
14.8510,0.09,0.13,-0.98,3.05,3.42,2.44
14.8700,0.08,0.13,-0.98,2.87,3.48,3.36
14.8730,0.09,0.14,-0.98,2.56,3.30,4.58
14.9000,0.09,0.14,-0.98,2.62,2.93,6.04
14.9150,0.09,0.12,-0.99,2.38,2.93,6.29
14.9300,0.09,0.10,-0.99,2.38,3.17,5.19
14.9410,0.08,0.11,-0.99,2.62,3.54,3.97
14.9570,0.09,0.12,-0.98,2.75,3.23,3.48
14.9750,0.09,0.12,-0.98,2.75,3.54,3.48
14.9900,0.08,0.12,-0.98,2.75,3.42,2.99
15.0060,0.09,0.12,-0.99,2.75,3.48,2.50
15.0200,0.09,0.12,-0.98,2.87,3.54,1.95
15.0350,0.09,0.13,-0.98,3.05,3.72,2.01
15.0510,0.09,0.14,-0.98,3.11,3.97,2.38
15.0670,0.10,0.19,-0.97,2.99,3.17,4.52
15.0820,0.09,0.15,-0.98,2.50,2.38,9.58
15.0980,0.09,0.12,-0.98,2.08,2.62,8.48
15.1130,0.08,0.08,-0.99,2.14,2.93,6.71
15.1240,0.08,0.09,-0.99,2.69,3.36,4.27
15.1410,0.08,0.10,-0.99,2.99,3.48,3.11
15.1570,0.08,0.11,-0.98,2.93,3.48,2.81
15.1740,0.09,0.12,-0.98,3.05,3.60,2.01
15.1900,0.09,0.13,-0.98,2.99,3.17,1.89
15.2060,0.09,0.13,-0.98,2.81,3.66,2.81
15.2210,0.08,0.13,-0.99,2.81,3.36,4.03
15.2360,0.08,0.12,-0.98,2.81,3.54,3.97
15.2520,0.09,0.14,-0.98,2.93,3.66,3.97
15.2570,0.09,0.13,-0.98,2.75,2.93,6.04
15.2820,0.09,0.13,-0.98,2.69,3.11,6.16
15.2940,0.09,0.11,-0.98,2.62,3.42,6.04
15.3110,0.09,0.12,-0.98,2.56,2.93,5.62
15.3280,0.08,0.11,-0.99,2.62,3.05,5.25
15.3430,0.08,0.11,-0.99,2.69,3.42,4.27
15.3590,0.09,0.11,-0.99,2.56,3.36,3.66
15.3740,0.09,0.11,-0.98,2.62,3.66,2.56
15.3900,0.09,0.12,-0.98,3.11,3.78,2.20
15.4050,0.09,0.12,-0.98,3.11,3.66,1.95
15.4200,0.08,0.13,-0.98,2.93,3.60,2.01
15.4360,0.09,0.17,-0.98,2.81,3.36,3.97
15.4510,0.09,0.14,-0.98,2.50,2.99,6.23
15.4660,0.09,0.12,-0.98,2.38,3.48,5.07
15.4770,0.09,0.12,-0.98,2.75,3.17,5.13
15.4940,0.08,0.11,-0.99,2.81,3.11,5.25
15.5100,0.08,0.10,-0.99,2.93,3.11,3.78
15.5270,0.09,0.12,-0.98,3.05,3.48,2.87
15.5440,0.09,0.13,-0.98,2.93,3.36,3.60
15.5600,0.09,0.16,-0.98,2.62,3.42,5.43
15.5760,0.09,0.15,-0.98,2.50,2.44,7.57
15.5920,0.09,0.13,-0.98,2.01,2.56,8.54
15.6080,0.08,0.11,-0.99,2.08,2.99,7.32
15.6230,0.09,0.09,-0.99,2.38,2.99,6.53
15.6370,0.08,0.09,-0.99,2.81,3.17,4.33
15.6530,0.08,0.11,-0.98,2.93,3.91,2.69
15.6680,0.09,0.12,-0.98,2.99,3.54,1.95
15.6770,0.09,0.12,-0.98,2.81,3.66,2.20
15.6930,0.08,0.13,-0.98,2.75,3.60,3.17
15.7150,0.09,0.12,-0.98,2.81,3.36,3.60
15.7310,0.09,0.15,-0.98,2.93,3.48,4.21
15.7470,0.09,0.13,-0.98,2.87,3.23,4.82
15.7620,0.09,0.13,-0.98,2.62,2.87,4.64
15.7660,0.09,0.12,-0.98,2.75,3.17,5.49
15.7840,0.08,0.11,-0.99,2.62,3.17,5.13
15.8090,0.08,0.11,-0.99,2.56,3.36,4.39
15.8170,0.09,0.11,-0.99,2.81,3.48,2.99
15.8380,0.09,0.12,-0.98,2.99,3.54,2.44
15.8500,0.09,0.14,-0.98,2.99,3.78,2.50
15.8660,0.09,0.14,-0.98,2.62,2.87,6.29
15.8830,0.09,0.14,-0.98,2.26,2.87,5.92
15.9010,0.09,0.12,-0.98,2.69,3.05,5.98
15.9160,0.09,0.12,-0.98,2.50,2.81,5.55
15.9320,0.08,0.11,-0.99,2.93,3.11,5.49
15.9380,0.09,0.12,-0.98,2.81,3.17,3.85
15.9630,0.08,0.11,-0.99,2.87,3.48,3.91
15.9790,0.08,0.11,-0.99,2.56,3.17,3.42
15.9830,0.08,0.11,-0.98,2.87,3.54,2.32
15.9980,0.09,0.12,-0.98,3.05,3.60,2.01
16.0250,0.09,0.12,-0.98,2.87,3.66,1.89
16.0380,0.09,0.13,-0.98,2.87,3.54,1.89
16.0530,0.09,0.14,-0.98,2.93,3.60,2.26
16.0720,0.10,0.17,-0.98,2.93,3.54,3.72
16.0860,0.09,0.14,-0.98,2.75,3.05,5.37
16.1020,0.09,0.12,-0.98,2.20,3.17,4.70
16.1180,0.08,0.10,-0.99,2.69,2.99,3.78
16.1330,0.08,0.11,-0.99,2.87,3.66,3.11
16.1390,0.09,0.12,-0.98,2.99,3.42,2.50
16.1650,0.09,0.13,-0.98,2.87,3.54,2.87
16.1810,0.09,0.12,-0.98,2.87,3.42,3.11
16.1970,0.09,0.13,-0.98,2.69,3.66,3.11
16.2120,0.09,0.12,-0.98,2.81,3.66,3.05
16.2220,0.09,0.13,-0.98,2.81,3.11,3.30
16.2380,0.09,0.14,-0.98,2.93,3.30,4.58
16.2550,0.09,0.12,-0.98,2.75,3.36,5.19
16.2710,0.09,0.12,-0.98,2.44,3.17,4.09
16.2880,0.08,0.11,-0.99,2.81,3.11,4.09
16.3040,0.08,0.10,-0.99,2.50,3.42,3.36
16.3200,0.09,0.12,-0.98,2.99,3.42,1.83
16.3220,0.09,0.12,-0.98,3.23,3.78,2.01
16.3390,0.09,0.12,-0.98,2.99,3.72,2.01
16.3660,0.09,0.13,-0.98,2.81,3.36,2.93
16.3790,0.09,0.16,-0.98,2.62,3.11,4.70
16.3960,0.09,0.13,-0.98,2.75,3.17,5.19
16.4110,0.09,0.12,-0.98,2.69,3.17,4.46
16.4260,0.09,0.12,-0.99,2.93,3.36,3.78
16.4410,0.09,0.13,-0.98,2.81,3.30,3.91
16.4560,0.09,0.14,-0.98,2.75,2.87,5.19
16.4720,0.08,0.12,-0.98,2.62,3.11,5.19
16.4880,0.08,0.12,-0.98,2.69,3.30,4.88
16.5020,0.08,0.11,-0.99,2.56,3.23,4.52
16.5110,0.09,0.11,-0.98,2.81,3.36,3.72
16.5270,0.09,0.13,-0.98,2.93,3.54,3.85
16.5480,0.09,0.13,-0.98,2.69,3.60,3.85
16.5640,0.09,0.14,-0.98,2.62,3.11,4.76
16.5810,0.09,0.13,-0.98,2.75,3.30,5.74
16.5970,0.08,0.11,-0.99,2.50,3.05,5.13
16.6000,0.08,0.11,-0.99,2.56,3.48,3.91
16.6150,0.09,0.11,-0.99,2.87,3.42,3.23
16.6430,0.09,0.13,-0.98,2.69,3.60,2.99
16.6550,0.09,0.14,-0.98,2.87,3.42,3.97
16.6700,0.09,0.12,-0.98,2.75,3.48,4.27
16.6880,0.09,0.14,-0.98,2.75,3.23,3.91
16.7050,0.08,0.12,-0.99,2.75,3.23,4.76
16.7050,0.08,0.11,-0.99,2.75,3.17,3.42
16.7350,0.09,0.14,-0.98,2.93,3.42,3.17
16.7500,0.09,0.13,-0.99,2.81,3.36,4.03
16.7660,0.09,0.12,-0.98,2.69,3.30,3.78
16.7830,0.09,0.12,-0.98,2.93,3.54,3.36
16.7980,0.09,0.12,-0.98,2.87,3.48,3.05
16.8140,0.09,0.13,-0.98,2.81,3.36,2.87
16.8290,0.09,0.15,-0.98,2.69,3.54,3.30
16.8460,0.09,0.12,-0.98,2.56,2.99,4.94
16.8610,0.09,0.14,-0.98,2.62,3.17,4.21
16.8710,0.09,0.13,-0.98,2.56,3.23,5.19
16.8870,0.08,0.11,-0.99,2.75,3.17,5.43
16.9080,0.08,0.10,-0.99,2.75,3.23,3.72
16.9230,0.08,0.11,-0.99,2.87,3.72,2.50
16.9370,0.09,0.12,-0.98,2.87,3.42,1.95
16.9530,0.09,0.12,-0.98,2.81,3.66,2.14
16.9680,0.09,0.13,-0.98,2.75,3.72,2.44
16.9830,0.09,0.13,-0.98,2.81,3.36,4.52
16.9980,0.09,0.13,-0.98,2.69,2.99,5.31
17.0090,0.09,0.12,-0.98,2.62,3.17,5.13
17.0260,0.09,0.11,-0.99,2.75,3.42,4.88
17.0430,0.08,0.11,-0.99,2.50,3.30,3.72
17.0580,0.09,0.12,-0.98,2.93,3.42,3.17
17.0750,0.09,0.14,-0.98,2.93,3.54,3.97
17.0910,0.09,0.13,-0.98,2.62,3.23,5.37
17.1070,0.09,0.13,-0.98,2.56,3.11,5.07
17.1220,0.08,0.11,-0.98,2.75,3.23,4.64
17.1360,0.09,0.13,-0.98,2.75,3.30,4.76
17.1520,0.08,0.10,-0.99,2.44,3.42,4.76
17.1600,0.08,0.11,-0.99,3.05,3.42,2.62
17.1770,0.09,0.13,-0.98,3.11,3.78,2.01
17.1940,0.09,0.12,-0.98,2.93,3.36,1.83
17.2100,0.09,0.12,-0.98,2.93,3.72,1.95
17.2260,0.09,0.13,-0.98,2.99,3.66,2.75
17.2420,0.08,0.12,-0.98,2.75,2.99,3.17
17.2580,0.09,0.12,-0.98,2.56,3.54,2.81
17.2730,0.09,0.12,-0.98,2.87,3.60,2.14
17.2890,0.09,0.12,-0.98,3.05,3.91,2.08
17.3050,0.09,0.12,-0.98,2.93,3.42,2.01
17.3210,0.09,0.12,-0.98,2.81,3.36,1.71
17.3360,0.09,0.12,-0.98,3.05,3.48,1.53
17.3510,0.09,0.12,-0.98,2.99,3.85,1.95
17.3670,0.09,0.12,-0.98,3.05,3.60,2.01
17.3760,0.09,0.12,-0.98,3.17,3.66,2.08
17.3930,0.09,0.12,-0.98,3.05,3.66,2.01
17.4100,0.09,0.12,-0.98,2.99,3.78,2.08
17.4260,0.09,0.12,-0.98,2.75,3.60,1.89
17.4430,0.09,0.12,-0.98,2.87,3.72,2.01
17.4600,0.09,0.12,-0.98,3.05,3.66,1.83
17.4750,0.09,0.12,-0.98,2.87,3.54,1.95
17.4900,0.09,0.12,-0.98,2.99,3.36,1.77
17.5060,0.09,0.13,-0.99,2.99,3.36,1.83
17.5220,0.09,0.12,-0.98,2.99,3.85,2.08
17.5360,0.09,0.12,-0.98,2.87,3.72,1.89
17.5510,0.09,0.12,-0.98,3.17,3.66,2.08
17.5660,0.09,0.12,-0.98,3.23,3.54,1.83
17.5770,0.09,0.12,-0.98,3.23,3.42,1.89
17.5930,0.09,0.12,-0.98,3.05,3.66,1.89
17.6100,0.09,0.12,-0.98,3.05,3.66,2.01
17.6260,0.09,0.12,-0.98,2.99,3.60,1.89
17.6430,0.09,0.12,-0.98,3.05,3.48,1.83
17.6580,0.09,0.12,-0.98,2.81,3.72,1.89
17.6740,0.09,0.12,-0.98,2.81,3.72,1.89
17.6900,0.09,0.12,-0.98,2.93,3.42,1.95
17.6930,0.09,0.12,-0.98,3.05,3.72,2.08
17.7080,0.09,0.12,-0.98,2.99,3.60,2.08
17.7300,0.09,0.12,-0.98,3.17,3.66,2.14
17.7460,0.08,0.12,-0.99,3.36,3.66,2.14
17.7630,0.09,0.13,-0.98,2.93,3.60,2.26
17.7800,0.09,0.12,-0.98,2.81,3.66,1.95
17.7960,0.09,0.13,-0.98,2.44,3.42,1.95
17.7980,0.08,0.12,-0.98,2.62,4.03,2.08
17.8140,0.09,0.11,-0.97,2.75,4.15,1.95
17.8450,0.08,0.10,-0.97,2.81,4.09,2.08
17.8470,0.09,0.12,-0.98,2.93,3.54,2.01
17.8640,0.09,0.12,-0.98,3.11,3.85,1.89
17.8800,0.09,0.13,-0.98,3.54,3.60,2.01
17.9080,0.09,0.12,-0.98,3.11,3.91,2.14
17.9180,0.09,0.12,-0.98,2.87,3.48,2.01
17.9340,0.09,0.12,-0.98,2.93,3.97,1.95
17.9510,0.09,0.12,-0.98,2.87,3.72,2.14
17.9680,0.08,0.12,-0.99,2.93,3.48,1.95
17.9840,0.09,0.12,-0.98,2.87,3.48,1.89
18.0000,0.08,0.12,-0.98,2.93,3.60,2.01
18.0170,0.09,0.13,-0.98,2.87,3.54,2.08
18.0320,0.09,0.12,-0.98,2.75,3.42,1.89
18.0470,0.09,0.13,-0.98,2.69,3.48,2.01
18.0520,0.09,0.13,-0.98,2.38,3.42,2.08
18.0790,0.09,0.12,-0.98,2.56,3.54,3.11
18.0950,0.09,0.11,-0.99,2.56,3.66,2.56
18.1110,0.09,0.12,-0.98,2.20,3.85,1.95
18.1190,0.08,0.12,-0.98,2.38,3.78,2.14
18.1400,0.08,0.12,-0.98,2.38,3.54,1.83
18.1570,0.09,0.13,-0.99,2.62,4.09,1.89
18.1730,0.09,0.12,-0.98,1.95,4.03,1.95
18.1880,0.09,0.13,-0.98,2.56,3.72,1.65
18.2030,0.08,0.12,-0.98,3.97,3.54,1.53
18.2190,0.09,0.12,-0.99,4.52,3.36,1.59
18.2340,0.09,0.13,-0.99,2.62,3.72,1.83
18.2500,0.08,0.12,-0.98,2.20,3.91,1.53
18.2670,0.08,0.11,-0.98,2.26,3.48,1.53
18.2830,0.09,0.12,-0.98,3.05,3.60,1.59
18.2970,0.09,0.13,-1.01,4.70,3.17,1.34
18.3080,0.09,0.13,-0.99,3.23,3.97,1.46
18.3250,0.09,0.13,-0.99,2.62,3.85,1.89
18.3410,0.08,0.12,-0.98,0.92,4.09,2.01
18.3570,0.08,0.13,-0.99,1.46,4.15,2.56
18.3740,0.09,0.13,-0.99,1.34,4.70,3.66
18.3890,0.08,0.12,-0.98,1.65,4.58,2.62
18.4060,0.08,0.11,-0.98,3.30,4.21,2.93
18.4220,0.08,0.12,-0.99,3.66,2.81,1.83
18.4370,0.08,0.12,-0.99,3.42,2.81,1.71
18.4530,0.08,0.11,-0.97,2.44,2.50,1.65
18.4580,0.09,0.12,-0.99,4.46,3.05,1.40
18.4740,0.09,0.11,-0.98,4.88,3.42,0.43
18.4990,0.09,0.13,-1.01,5.49,3.23,1.16
18.5110,0.08,0.13,-0.99,3.36,3.72,1.71
18.5280,0.08,0.12,-0.98,2.93,3.66,2.38
18.5450,0.09,0.12,-0.98,3.05,3.85,2.38
18.5610,0.08,0.12,-0.98,3.42,3.66,2.20
18.5770,0.09,0.13,-0.98,3.30,3.60,2.26
18.5930,0.09,0.12,-0.98,3.05,3.60,1.89
18.6090,0.09,0.12,-0.98,3.17,3.60,2.08
18.6250,0.09,0.12,-0.98,3.05,3.48,1.89
18.6410,0.09,0.12,-0.98,2.99,3.66,1.95
18.6430,0.09,0.12,-0.98,3.11,3.60,2.01
18.6720,0.09,0.12,-0.99,3.11,3.66,1.89
18.6810,0.09,0.13,-0.99,3.23,3.60,1.95
18.6990,0.09,0.12,-0.98,2.93,3.48,1.95
18.7160,0.09,0.12,-0.98,2.99,3.66,1.95
18.7320,0.08,0.12,-0.98,3.11,3.60,1.95
18.7480,0.09,0.12,-0.98,2.99,3.42,2.08
18.7660,0.09,0.12,-0.98,3.05,3.54,2.08
18.7810,0.09,0.12,-0.98,2.93,3.72,2.01
18.7980,0.09,0.12,-0.98,2.87,3.60,1.89
18.8140,0.09,0.12,-0.98,3.11,3.85,1.95
18.8300,0.09,0.12,-0.98,3.23,3.91,1.95
18.8460,0.08,0.12,-0.98,3.23,3.78,2.08
18.8610,0.09,0.12,-0.98,2.87,3.60,1.95
18.8760,0.09,0.12,-0.98,2.99,3.60,1.89
18.8920,0.09,0.12,-0.98,3.11,3.42,2.01
18.8980,0.09,0.12,-0.98,2.87,3.48,2.14
18.9130,0.09,0.12,-0.98,2.87,3.85,2.01
18.9330,0.08,0.13,-0.98,2.81,3.54,2.08
18.9500,0.09,0.12,-0.98,2.99,3.66,2.01
18.9670,0.09,0.12,-0.98,3.05,3.85,2.01
18.9830,0.09,0.12,-0.98,3.11,3.60,1.83
19.0010,0.09,0.12,-0.98,2.81,3.72,2.01
19.0010,0.09,0.12,-0.98,2.81,3.36,2.08
19.0310,0.09,0.13,-0.98,3.11,3.72,1.89
19.0460,0.09,0.12,-0.98,2.99,3.60,1.83
19.0610,0.09,0.12,-0.98,2.93,3.54,2.01
19.0760,0.09,0.12,-0.98,2.75,3.48,1.83
19.0840,0.09,0.12,-0.98,2.93,3.48,1.95
19.1010,0.08,0.12,-0.98,3.23,3.60,2.01
19.1160,0.09,0.12,-0.98,2.99,3.78,2.20
19.1340,0.09,0.12,-0.98,2.99,3.72,1.95
19.1510,0.08,0.12,-0.96,3.30,3.54,2.01
19.1670,0.09,0.12,-0.98,2.99,3.54,1.95
19.1830,0.09,0.12,-0.98,2.99,3.48,2.01
19.2000,0.09,0.12,-0.98,3.05,3.48,2.01
19.2170,0.09,0.12,-0.98,2.93,4.03,2.01
19.2320,0.09,0.12,-0.98,2.93,3.72,2.08
19.2490,0.09,0.12,-0.98,2.93,3.66,2.01
19.2650,0.09,0.12,-0.98,2.93,3.78,1.95
19.2800,0.09,0.12,-0.98,3.17,3.54,2.08
19.2950,0.09,0.12,-0.98,2.93,3.72,1.95
19.3090,0.09,0.12,-0.98,2.93,4.03,1.89
19.3170,0.09,0.12,-0.98,2.87,3.78,2.01
19.3330,0.09,0.13,-1.00,2.81,3.66,2.01
19.3510,0.09,0.12,-0.98,2.62,3.66,2.38
19.3670,0.09,0.13,-0.99,2.56,3.48,2.01
19.3850,0.09,0.13,-0.99,2.81,3.72,2.01
19.4000,0.09,0.13,-0.99,2.87,3.66,1.95
19.4010,0.09,0.12,-0.98,2.62,3.85,1.95
19.4170,0.09,0.12,-0.99,3.30,3.66,1.89
19.4430,0.09,0.12,-0.98,3.42,3.48,2.01
19.4610,0.09,0.12,-0.98,3.36,3.72,2.14
19.4770,0.09,0.12,-0.98,3.30,3.54,1.95
19.4920,0.09,0.13,-0.99,3.30,3.48,1.95
19.5000,0.09,0.12,-0.99,3.11,3.78,2.01
19.5170,0.09,0.12,-0.98,3.23,3.60,2.08
19.5340,0.09,0.12,-0.98,2.81,3.91,1.83
19.5500,0.09,0.12,-0.98,2.87,3.91,1.95
19.5680,0.09,0.12,-0.98,2.87,3.54,2.01
19.5840,0.09,0.12,-0.98,2.87,3.66,1.89
19.6000,0.09,0.12,-0.98,2.87,3.36,1.95
19.6010,0.09,0.12,-0.98,3.17,3.48,2.08
19.6330,0.09,0.12,-0.99,2.99,3.42,1.95
19.6490,0.09,0.12,-0.98,3.05,3.66,2.01
19.6650,0.08,0.12,-0.98,3.11,3.30,1.89
19.6810,0.09,0.12,-0.98,3.17,3.97,1.95
19.6970,0.08,0.12,-0.99,3.23,3.42,2.01
19.7000,0.09,0.13,-0.98,2.99,3.66,2.08
19.7160,0.09,0.13,-0.98,2.75,3.60,1.89
19.7380,0.09,0.12,-0.98,2.56,3.42,1.89
19.7550,0.09,0.12,-0.98,2.50,3.66,1.89
19.7710,0.09,0.12,-0.98,2.81,3.48,1.89
19.7870,0.09,0.12,-0.98,2.93,3.66,1.95
19.8030,0.09,0.12,-0.98,3.05,3.48,1.95
19.8190,0.09,0.12,-0.98,2.62,3.66,1.95
19.8350,0.09,0.12,-0.98,2.99,3.42,2.01
19.8510,0.09,0.12,-0.98,2.99,3.85,2.08
19.8550,0.09,0.12,-0.98,3.17,3.48,1.89
19.8700,0.08,0.11,-0.99,3.05,3.85,2.26
19.8920,0.09,0.13,-0.99,2.62,3.78,2.14
19.9090,0.09,0.12,-0.98,3.48,3.54,2.08
19.9260,0.08,0.13,-0.99,3.42,3.72,2.20
19.9410,0.09,0.13,-0.98,3.17,3.72,2.08
19.9580,0.09,0.12,-0.98,3.11,3.78,2.14
19.9740,0.09,0.13,-0.98,3.17,3.60,2.14
19.9910,0.09,0.13,-0.98,2.81,3.60,1.95
20.0060,0.09,0.12,-0.98,2.75,3.97,1.83
20.0220,0.09,0.12,-0.98,2.81,3.66,2.14
20.0370,0.09,0.13,-0.98,2.75,3.60,2.75
20.0530,0.09,0.13,-0.98,3.54,3.72,2.69
20.0680,0.09,0.14,-0.99,2.93,3.91,3.05
20.0840,0.07,0.12,-0.99,3.17,3.66,3.48
20.1000,0.07,0.13,-0.99,3.05,3.23,2.38
20.1150,0.08,0.13,-0.98,2.75,3.42,2.08
20.1260,0.08,0.12,-0.98,2.38,3.42,1.89
20.1440,0.08,0.13,-0.99,3.23,3.78,1.89
20.1580,0.09,0.13,-0.99,3.72,3.78,1.95
20.1750,0.09,0.13,-0.99,3.17,3.72,1.89
20.1920,0.09,0.12,-0.98,3.23,3.85,1.89
20.2090,0.10,0.13,-0.99,3.36,3.54,1.89
20.2240,0.09,0.12,-0.98,2.99,3.66,2.26
20.2420,0.09,0.12,-0.98,2.08,3.17,2.44
20.2570,0.10,0.12,-0.98,2.93,3.42,2.08
20.2720,0.12,0.13,-0.98,2.56,3.42,1.89
20.2870,0.11,0.12,-0.99,1.53,3.23,2.38
20.3020,0.08,0.11,-0.99,0.98,2.93,2.93
20.3160,0.09,0.11,-0.99,2.69,3.60,2.26
20.3320,0.11,0.13,-0.98,2.81,3.91,0.85
20.3450,0.12,0.11,-0.98,2.87,4.03,-1.28
20.3580,0.12,0.11,-0.98,2.93,3.78,-1.65
20.3770,0.11,0.12,-0.98,3.54,4.21,-0.92
20.3820,0.10,0.12,-0.98,3.54,4.09,-0.18
20.3980,0.06,0.14,-0.99,5.92,4.21,0.31
20.4160,0.06,0.16,-0.98,4.09,4.33,1.16
20.4320,0.08,0.14,-0.99,3.17,3.91,0.92
20.4480,0.04,0.14,-0.99,2.26,3.48,1.34
20.4640,0.04,0.12,-0.99,1.89,3.30,1.71
20.4830,0.04,0.11,-0.98,1.46,3.36,1.34
20.4980,0.06,0.11,-0.99,3.23,3.66,2.69
20.5130,0.05,0.12,-0.98,2.93,3.36,4.27
20.5290,0.07,0.14,-0.99,3.23,2.81,6.96
20.5430,0.03,0.13,-0.99,2.08,2.32,8.61
20.5490,0.03,0.12,-0.99,1.10,2.26,10.68
20.5640,0.08,0.11,-0.98,1.65,2.32,11.05
20.5810,0.09,0.14,-0.98,2.62,2.93,7.08
20.5980,0.12,0.13,-0.98,3.23,3.30,5.92
20.6140,0.10,0.13,-0.99,2.62,3.78,0.12
20.6410,0.10,0.10,-0.99,1.65,3.66,0.00
20.6560,0.09,0.09,-0.99,2.75,4.03,-1.59
20.6650,0.07,0.09,-1.00,2.44,4.70,-4.33
20.6820,0.11,0.10,-0.99,1.53,5.92,-5.80
20.6990,0.08,0.14,-0.97,2.01,8.61,-3.36
20.7140,0.04,0.14,-0.98,5.00,8.85,0.92
20.7320,0.01,0.14,-0.97,6.04,3.48,4.46
20.7480,0.06,0.14,-1.00,6.90,-2.44,4.21
20.7640,0.06,0.17,-1.14,3.91,-4.03,3.42
20.7790,0.09,0.16,-0.99,5.37,3.91,2.87
20.7820,0.08,0.14,-0.99,2.56,2.81,6.35
20.8100,0.13,0.12,-0.97,1.65,2.69,7.45
20.8150,0.14,0.11,-0.98,0.61,2.62,6.84
20.8300,0.15,0.11,-0.98,2.38,3.11,4.33
20.8550,0.16,0.10,-0.98,0.49,2.56,3.97
20.8710,0.13,0.10,-0.98,2.44,3.54,0.31
20.8860,0.15,0.09,-0.98,3.66,4.15,-1.71
20.8900,0.12,0.11,-0.98,4.39,5.07,-5.92
20.9050,0.09,0.14,-0.98,5.25,5.00,-4.39
20.9300,0.07,0.15,-0.98,3.78,4.15,-2.32
20.9470,0.07,0.14,-0.98,3.60,4.33,-1.71
20.9630,0.06,0.12,-0.99,3.42,4.15,-1.53
20.9780,0.06,0.12,-0.98,3.30,4.15,-1.53
20.9790,0.07,0.12,-0.98,3.85,4.46,-1.04
20.9970,0.07,0.13,-0.98,4.21,4.21,1.04
21.0140,0.07,0.13,-0.98,3.91,4.03,1.77
21.0300,0.08,0.13,-0.99,3.30,3.91,1.53
21.0460,0.07,0.12,-0.98,2.69,3.78,1.77
21.0670,0.09,0.13,-0.98,2.75,3.42,1.89
21.0840,0.08,0.12,-0.98,2.93,3.60,2.01
21.1000,0.08,0.12,-0.99,3.36,3.78,1.71
21.1010,0.08,0.11,-0.99,2.93,3.78,1.04
21.1300,0.09,0.11,-0.99,2.20,3.97,-0.43
21.1450,0.09,0.13,-0.98,3.05,4.03,-0.43
21.1500,0.10,0.11,-0.99,3.36,3.78,2.44
21.1670,0.09,0.12,-0.98,3.30,3.78,2.08
21.1850,0.09,0.13,-0.98,3.30,3.60,1.53
21.2000,0.09,0.13,-0.98,2.87,3.72,1.40
21.2170,0.06,0.14,-0.98,2.99,3.60,0.31
21.2340,0.07,0.14,-0.98,2.75,3.66,1.40
21.2500,0.08,0.13,-0.98,2.14,3.30,1.71
21.2650,0.08,0.13,-0.98,2.44,3.60,1.40
21.2800,0.08,0.13,-0.98,3.42,3.97,2.62
21.2960,0.08,0.12,-0.98,3.23,3.60,3.11
21.3110,0.08,0.12,-0.98,2.93,3.42,2.50
21.3180,0.09,0.12,-0.98,2.81,3.72,2.14
21.3350,0.09,0.13,-0.99,2.81,3.36,1.71
21.3510,0.08,0.12,-0.98,2.14,3.23,2.38
21.3670,0.09,0.13,-0.98,2.32,3.54,2.50
21.3840,0.09,0.13,-0.98,2.20,3.48,2.26
21.4020,0.09,0.13,-0.98,2.08,3.17,2.01
21.4180,0.09,0.12,-0.98,1.95,3.11,1.83
21.4340,0.09,0.12,-0.98,2.38,3.54,1.95
21.4500,0.09,0.12,-0.98,2.99,3.54,1.83
21.4660,0.08,0.13,-0.98,3.05,3.72,2.08
21.4840,0.09,0.13,-0.98,2.93,3.72,2.20
21.4990,0.08,0.13,-0.98,3.11,3.54,2.14
21.5150,0.09,0.12,-0.98,2.99,3.60,2.20
21.5310,0.09,0.12,-0.98,3.17,3.66,2.20
21.5470,0.09,0.12,-0.98,3.05,3.66,1.71
21.5620,0.08,0.12,-0.98,3.11,3.60,1.59
21.5780,0.09,0.13,-0.98,2.93,3.78,1.40
21.5940,0.08,0.13,-0.98,3.17,3.91,1.89
21.6090,0.08,0.13,-0.98,2.93,3.60,2.26
21.6240,0.09,0.13,-0.98,3.11,3.54,2.75
21.6340,0.09,0.13,-0.98,2.44,3.66,2.14
21.6530,0.09,0.13,-0.98,2.26,3.48,2.01
21.6680,0.09,0.12,-0.99,2.01,3.54,1.83
21.6860,0.08,0.12,-0.98,2.20,3.72,1.46
21.7010,0.08,0.13,-0.98,2.99,3.78,1.16
21.7170,0.08,0.12,-0.98,2.62,3.66,1.16
21.7190,0.08,0.15,-0.98,2.62,3.66,1.22
21.7480,0.08,0.12,-0.98,2.75,3.60,0.98
21.7510,0.09,0.13,-0.98,3.42,3.66,0.61
21.7810,0.09,0.12,-0.98,3.05,3.42,1.95
21.7970,0.09,0.13,-0.98,2.99,3.91,1.89
21.8130,0.08,0.12,-0.98,2.81,3.54,1.95
21.8290,0.08,0.13,-0.98,2.44,3.72,2.08
21.8450,0.09,0.12,-0.98,2.62,3.54,1.89
21.8600,0.09,0.12,-0.98,2.93,3.48,1.83
21.8770,0.09,0.12,-0.98,3.23,3.54,1.89
21.8920,0.09,0.12,-0.98,3.05,3.66,1.95
21.9070,0.08,0.12,-0.98,3.23,3.97,2.26
21.9180,0.09,0.12,-0.98,3.78,3.66,2.01
21.9330,0.08,0.12,-0.98,3.30,3.48,2.99
21.9540,0.08,0.12,-0.98,3.42,3.60,3.17
21.9690,0.09,0.13,-0.98,3.17,3.54,2.75
21.9740,0.08,0.13,-0.98,2.75,3.48,1.40
21.9900,0.08,0.13,-0.98,2.93,3.54,1.40
22.0140,0.09,0.12,-0.98,2.75,3.72,2.38
22.0290,0.08,0.12,-0.98,3.36,3.60,2.81
22.0450,0.08,0.13,-0.98,3.05,3.48,2.32
22.0610,0.08,0.13,-0.98,2.56,3.54,1.89
22.0640,0.08,0.13,-0.98,2.44,3.36,1.77
22.0800,0.09,0.13,-0.99,2.62,3.54,1.89
22.1020,0.09,0.12,-0.98,2.81,3.48,1.95
22.1190,0.08,0.12,-0.98,2.81,3.54,1.89
22.1350,0.09,0.13,-0.98,3.23,3.91,2.20
22.1520,0.09,0.13,-0.98,2.93,3.54,2.08
22.1690,0.08,0.13,-0.98,3.30,3.36,2.01
22.1700,0.08,0.13,-0.99,3.23,3.48,2.08
22.2010,0.09,0.13,-0.98,2.99,3.72,1.95
22.2170,0.09,0.12,-0.98,2.99,3.85,2.01
22.2330,0.09,0.13,-0.98,2.81,3.78,2.01
22.2490,0.09,0.13,-0.98,3.23,3.72,2.32
22.2650,0.09,0.13,-0.98,3.05,3.72,3.05
22.2810,0.08,0.12,-0.98,2.50,3.17,3.36
22.2960,0.08,0.13,-0.98,2.50,3.48,2.20
22.3020,0.08,0.13,-0.98,2.56,3.23,2.08
22.3260,0.09,0.12,-0.98,2.62,3.66,1.95
22.3350,0.09,0.12,-0.98,3.05,3.48,1.95
22.3510,0.09,0.12,-0.98,3.05,4.03,1.95
22.3710,0.09,0.12,-0.98,3.30,4.03,2.01
22.3850,0.09,0.13,-0.98,3.42,3.36,2.08
22.4010,0.08,0.12,-0.98,2.81,3.36,2.01
22.4060,0.09,0.13,-0.98,2.50,3.72,1.95
22.4210,0.08,0.12,-0.99,2.81,3.36,1.95
22.4480,0.09,0.13,-0.98,2.99,3.91,2.01
22.4590,0.09,0.13,-0.98,2.93,3.66,2.32
22.4760,0.10,0.13,-0.98,2.81,3.60,2.38
22.4930,0.08,0.13,-0.98,2.99,3.91,2.50
22.5100,0.07,0.12,-0.98,1.95,3.30,2.01
22.5260,0.08,0.12,-0.98,2.50,3.17,1.77
22.5420,0.09,0.12,-0.98,2.87,3.54,1.83
22.5580,0.09,0.12,-0.98,2.75,3.36,2.08
22.5730,0.09,0.12,-0.98,2.99,3.60,2.08
22.5880,0.09,0.13,-0.98,2.99,3.42,1.95
22.6040,0.09,0.13,-0.98,2.75,3.48,2.08
22.6100,0.08,0.12,-0.98,2.69,3.54,2.01
22.6250,0.09,0.13,-0.98,2.44,3.54,2.08
22.6480,0.09,0.15,-0.98,2.69,3.60,1.89
22.6640,0.10,0.13,-0.98,2.93,3.54,1.65
22.6800,0.09,0.13,-0.98,3.17,3.36,1.40
22.6820,0.07,0.12,-0.99,2.93,3.48,0.85
22.7110,0.07,0.12,-0.98,2.87,3.66,1.46
22.7150,0.08,0.13,-0.99,2.75,3.48,1.89
22.7310,0.09,0.13,-0.99,1.83,3.54,1.89
22.7530,0.09,0.12,-0.98,2.32,3.42,1.89
22.7690,0.09,0.12,-0.98,2.93,3.36,1.77
22.7860,0.09,0.12,-0.98,2.87,3.78,1.95
22.8010,0.09,0.12,-0.98,3.85,4.21,2.20
22.8170,0.08,0.13,-0.98,3.78,3.78,2.26
22.8340,0.09,0.13,-0.98,3.60,3.48,2.38
22.8490,0.08,0.13,-0.98,3.23,3.54,2.08
22.8650,0.09,0.12,-0.98,1.83,3.30,1.89
22.8810,0.09,0.12,-0.98,2.01,3.17,1.77
22.8970,0.09,0.12,-0.98,3.11,3.30,1.77
22.9020,0.09,0.12,-0.98,3.30,3.60,1.95
22.9180,0.09,0.12,-0.98,3.30,3.30,2.08
22.9420,0.09,0.13,-0.98,3.42,3.54,1.95
22.9580,0.08,0.13,-0.98,3.48,3.54,2.01
22.9750,0.08,0.13,-0.99,3.17,3.23,1.95
22.9910,0.09,0.12,-0.98,2.81,3.54,2.14
23.0080,0.09,0.13,-0.98,2.81,3.60,1.89
23.0230,0.09,0.13,-0.98,2.81,3.66,1.89
23.0380,0.10,0.13,-0.98,3.11,3.85,2.14
23.0530,0.08,0.13,-0.99,2.81,3.36,2.38
23.0580,0.08,0.12,-0.98,2.93,3.78,2.20
23.0740,0.08,0.13,-0.98,3.05,3.72,2.08
23.0900,0.09,0.13,-0.98,3.05,3.54,2.01
23.1140,0.09,0.13,-0.98,3.11,3.54,2.08
23.1290,0.08,0.12,-0.96,2.99,3.48,1.95
23.1450,0.09,0.13,-0.98,3.05,3.48,1.95
23.1480,0.08,0.13,-0.98,3.05,3.78,1.89
23.1630,0.09,0.13,-0.98,2.81,3.60,2.01
23.1870,0.09,0.12,-0.98,2.87,3.60,1.83
23.2040,0.09,0.13,-0.98,3.17,3.60,2.01
23.2190,0.09,0.12,-0.98,3.05,3.23,2.01
23.2360,0.08,0.12,-0.98,3.11,3.54,2.08
23.2480,0.09,0.13,-0.98,3.11,3.72,1.95
23.2530,0.09,0.12,-0.98,2.93,3.72,2.14
23.2780,0.09,0.13,-0.98,3.17,3.48,2.01
23.2940,0.09,0.12,-0.98,2.50,3.60,2.01
23.3100,0.09,0.13,-0.98,2.75,3.66,1.95
23.3270,0.08,0.13,-0.98,2.69,3.23,2.01
23.3440,0.08,0.13,-0.98,2.81,3.42,1.95
23.3610,0.09,0.12,-0.98,2.75,3.54,1.83
23.3770,0.09,0.12,-0.98,2.69,3.72,2.01
23.3930,0.07,0.12,-0.99,2.75,3.66,2.01
23.4080,0.09,0.14,-1.00,2.50,3.48,2.44
23.4230,0.10,0.13,-0.98,2.81,3.91,2.75
23.4280,0.08,0.13,-0.99,2.75,3.78,2.44
23.4480,0.10,0.11,-0.97,2.69,3.54,2.50
23.4690,0.09,0.12,-0.99,2.87,3.42,2.56
23.4850,0.09,0.13,-0.99,2.93,3.85,2.08
23.5000,0.08,0.13,-0.99,2.87,3.72,1.83
23.5170,0.08,0.12,-0.98,2.81,3.23,1.95
23.5320,0.08,0.12,-0.98,3.11,3.72,1.89
23.5470,0.08,0.12,-0.98,2.87,3.66,1.89
23.5510,0.08,0.13,-0.99,3.11,3.54,2.08
23.5790,0.09,0.13,-0.99,3.17,3.72,2.01
23.5940,0.09,0.12,-0.98,2.87,3.30,1.83
23.6020,0.08,0.12,-0.98,2.69,3.78,1.89
23.6170,0.09,0.12,-0.98,3.05,3.66,1.95
23.6390,0.09,0.13,-0.98,3.11,3.66,1.89
23.6540,0.09,0.13,-0.98,2.81,3.72,1.89
23.6700,0.09,0.12,-0.98,2.75,3.48,1.89
23.6860,0.09,0.12,-0.98,3.05,3.60,2.14
23.7010,0.09,0.12,-0.99,2.75,3.60,1.95
23.7160,0.10,0.13,-0.98,2.93,3.66,1.89
23.7320,0.08,0.13,-0.98,2.56,3.30,1.83
23.7470,0.09,0.12,-0.98,3.05,3.54,1.83
23.7640,0.09,0.12,-0.98,2.69,3.66,1.40
23.7790,0.08,0.12,-0.98,3.11,3.54,1.22
23.7900,0.08,0.13,-0.98,2.93,3.78,1.40
23.8070,0.08,0.13,-0.99,2.87,3.85,1.65
23.8220,0.08,0.12,-0.98,2.93,3.48,1.77
23.8390,0.09,0.12,-0.98,2.93,3.91,1.65
23.8560,0.09,0.12,-0.98,2.93,3.78,1.65
23.8730,0.09,0.12,-0.98,2.99,3.78,1.59
23.8870,0.08,0.12,-0.98,3.17,3.60,1.77
23.9040,0.09,0.13,-0.99,2.81,3.66,1.65
23.9190,0.09,0.13,-0.99,3.11,3.72,1.53
23.9230,0.09,0.13,-0.99,3.05,3.85,1.77
23.9490,0.09,0.13,-0.98,2.99,3.91,1.59
23.9630,0.08,0.12,-0.98,2.38,3.66,1.59
23.9810,0.09,0.12,-0.98,2.99,3.72,1.53
23.9960,0.07,0.13,-0.99,2.93,3.85,1.65
24.0130,0.09,0.13,-0.99,3.05,3.66,1.95
24.0280,0.08,0.13,-0.98,2.99,3.54,1.95
24.0440,0.08,0.12,-0.98,2.99,3.60,2.14
24.0490,0.10,0.12,-0.98,3.05,3.72,1.71
24.0750,0.10,0.13,-0.98,2.81,3.97,1.59
24.0790,0.09,0.13,-0.98,2.93,3.78,1.40
24.0960,0.08,0.12,-0.98,3.05,3.36,1.40
24.1120,0.08,0.12,-0.98,2.81,3.54,1.40
24.1330,0.08,0.12,-0.98,2.81,3.78,1.46
24.1500,0.08,0.13,-0.98,2.93,3.78,1.65
24.1670,0.08,0.13,-0.99,3.11,3.66,1.77
24.1820,0.08,0.12,-0.98,2.87,3.66,1.95
24.1980,0.09,0.12,-0.98,2.93,3.54,1.89
24.2120,0.09,0.12,-0.98,2.99,3.66,1.83
24.2280,0.09,0.13,-0.98,3.11,3.54,1.89
24.2430,0.09,0.13,-0.98,2.93,3.85,1.95
24.2500,0.08,0.12,-0.98,2.81,3.42,1.83
24.2740,0.09,0.12,-0.98,2.99,3.60,1.77
24.2830,0.08,0.12,-0.98,2.93,3.66,1.95
24.2990,0.09,0.13,-0.98,3.05,3.66,2.01
24.3200,0.09,0.13,-0.98,2.99,3.66,1.89
24.3220,0.09,0.12,-0.98,2.99,3.78,1.89
24.3490,0.08,0.12,-0.98,2.81,3.97,1.65
24.3550,0.09,0.13,-0.98,2.81,3.78,1.71
24.3780,0.08,0.13,-0.98,3.17,3.85,1.77
24.3950,0.08,0.13,-0.98,3.05,3.78,1.83
24.4120,0.08,0.12,-0.98,2.93,3.78,2.01
24.4270,0.09,0.12,-0.98,3.11,3.54,2.08
24.4430,0.09,0.12,-0.98,2.99,3.42,2.01
24.4490,0.09,0.12,-0.98,3.17,3.48,1.53
24.4610,0.09,0.12,-0.98,3.17,3.72,1.77
24.4840,0.08,0.13,-0.98,2.99,3.42,1.65
24.5010,0.09,0.13,-0.99,2.93,4.03,1.53
24.5160,0.08,0.13,-0.99,2.93,3.66,1.53
24.5340,0.09,0.13,-0.98,2.99,3.66,1.40
24.5500,0.08,0.12,-0.98,2.81,3.66,1.59
24.5670,0.08,0.12,-0.98,2.69,3.54,1.77
24.5830,0.08,0.13,-0.98,2.69,3.54,1.89
24.5840,0.09,0.13,-0.98,2.62,3.48,1.95
24.6000,0.09,0.12,-0.98,2.75,3.30,1.89
24.6280,0.09,0.12,-0.98,2.75,3.66,2.08
24.6430,0.11,0.12,-0.98,2.87,3.60,1.71
24.6500,0.09,0.12,-0.98,3.11,3.48,1.59
24.6660,0.08,0.13,-0.98,3.17,3.48,1.65
24.6860,0.08,0.13,-0.98,2.87,3.72,1.65
24.7040,0.08,0.12,-0.98,2.93,3.42,1.89
24.7200,0.09,0.12,-0.98,2.87,3.48,2.08
24.7350,0.09,0.13,-0.99,2.69,3.42,1.95
24.7520,0.09,0.13,-0.98,2.87,3.78,1.89
24.7670,0.09,0.12,-0.98,2.93,3.66,1.77
24.7820,0.08,0.12,-0.98,2.81,3.54,1.59
24.7970,0.09,0.12,-0.98,2.93,3.78,1.53
24.8120,0.08,0.13,-0.98,3.05,3.60,1.59
24.8270,0.08,0.13,-0.98,2.87,3.36,1.83
24.8420,0.08,0.13,-0.98,2.93,3.60,1.83
24.8530,0.09,0.12,-0.98,3.17,3.72,2.01
24.8700,0.09,0.12,-0.98,2.99,3.66,1.89
24.8870,0.09,0.13,-0.98,2.87,3.48,1.83
24.9020,0.09,0.13,-0.99,2.87,3.72,1.71
24.9190,0.08,0.12,-0.98,2.69,3.72,1.71
24.9340,0.08,0.12,-0.98,2.81,3.54,1.71
24.9490,0.08,0.12,-0.98,2.93,3.60,1.83
24.9530,0.09,0.12,-0.98,2.81,3.85,1.89
24.9770,0.09,0.12,-0.98,3.05,3.66,1.77
24.9930,0.09,0.12,-0.98,2.87,3.48,1.77
25.0100,0.08,0.12,-0.98,2.87,3.42,1.65
25.0250,0.09,0.12,-0.98,2.75,3.78,1.65
25.0410,0.09,0.13,-0.98,2.81,3.78,1.77
25.0560,0.08,0.12,-0.98,2.87,3.60,1.65
25.0710,0.08,0.12,-0.98,2.99,3.54,1.83
25.0860,0.08,0.12,-0.98,2.93,3.66,1.89
25.1010,0.09,0.13,-0.98,2.87,3.78,1.95
25.1100,0.09,0.13,-0.98,2.93,3.66,1.83
25.1260,0.09,0.12,-0.98,2.87,3.42,1.77
25.1470,0.09,0.12,-0.98,2.87,3.66,1.71
25.1640,0.09,0.12,-0.98,2.87,3.30,1.59
25.1790,0.08,0.13,-0.98,3.11,3.60,1.65
25.1840,0.08,0.13,-0.99,2.75,3.85,1.83
25.2000,0.09,0.12,-0.98,2.87,3.48,2.01
25.2210,0.09,0.12,-0.98,2.75,3.72,2.01
25.2380,0.09,0.12,-0.99,2.81,3.72,2.01
25.2540,0.09,0.12,-0.98,2.87,3.60,1.83
25.2690,0.09,0.12,-0.98,3.11,3.78,1.71
25.2860,0.09,0.12,-0.98,2.99,3.36,1.89
25.2870,0.10,0.12,-0.98,2.87,3.60,1.95
25.3030,0.09,0.13,-0.98,2.69,3.42,1.83
25.3320,0.09,0.13,-0.98,2.69,3.97,1.89
25.3430,0.09,0.12,-0.98,2.99,3.91,1.71
25.3590,0.08,0.12,-0.98,2.93,3.42,1.89
25.3760,0.08,0.12,-0.98,2.99,3.85,1.83
25.3920,0.08,0.13,-0.98,2.99,3.85,1.89
25.4090,0.08,0.13,-0.98,2.93,3.66,2.01
25.4260,0.09,0.12,-0.98,2.99,3.85,1.95
25.4420,0.09,0.12,-0.98,2.87,3.54,1.95
25.4580,0.09,0.12,-0.98,2.75,3.54,1.65
25.4740,0.09,0.12,-0.98,2.99,3.72,1.65
25.4900,0.09,0.12,-0.98,3.11,3.54,1.59
25.5050,0.09,0.12,-0.98,3.05,3.54,1.53
25.5200,0.09,0.12,-0.98,3.05,3.60,1.65
25.5360,0.09,0.13,-0.99,2.99,3.48,1.40
25.5520,0.08,0.13,-0.99,2.93,3.97,1.83
25.5670,0.08,0.13,-0.99,2.81,3.78,1.77
25.5820,0.08,0.12,-0.98,2.75,3.72,1.89
25.5920,0.09,0.12,-0.98,2.93,3.72,1.95
25.6080,0.09,0.13,-0.99,3.30,3.85,2.08
25.6270,0.09,0.13,-0.98,2.93,3.36,1.89
25.6420,0.09,0.12,-0.98,2.87,3.60,2.14
25.6580,0.09,0.12,-0.98,2.87,3.85,2.14
25.6650,0.09,0.12,-0.98,2.69,3.85,1.95
25.6810,0.09,0.13,-0.98,3.05,3.85,2.14
25.6980,0.09,0.13,-0.99,3.05,3.54,1.89
25.7150,0.08,0.13,-0.99,2.87,3.66,1.89
25.7310,0.08,0.12,-0.98,2.87,3.48,1.89
25.7500,0.08,0.12,-0.98,2.87,3.78,2.01
25.7650,0.09,0.13,-0.98,2.75,3.60,1.89
25.7820,0.12,0.12,-0.98,3.11,3.66,1.77
25.7970,0.11,0.12,-0.98,3.23,3.72,1.46
25.8130,0.09,0.12,-0.98,3.11,3.78,1.40
25.8150,0.10,0.12,-0.99,3.30,3.60,1.22
25.8440,0.08,0.13,-0.98,3.05,3.72,1.40
25.8500,0.08,0.13,-0.98,2.81,3.60,1.40
25.8650,0.08,0.12,-0.98,2.93,3.72,1.83
25.8810,0.08,0.12,-0.98,2.93,3.66,1.89
25.9070,0.08,0.12,-0.98,2.99,3.48,1.89
25.9190,0.09,0.13,-0.98,2.99,3.54,2.01
25.9350,0.09,0.13,-0.98,2.81,3.85,1.95
25.9530,0.09,0.12,-0.98,2.75,3.78,1.95
25.9700,0.09,0.12,-0.98,2.99,3.48,1.89
25.9860,0.09,0.12,-0.98,2.62,3.54,1.77
26.0010,0.08,0.12,-0.98,2.93,3.48,1.59
26.0170,0.08,0.12,-0.98,3.23,3.66,1.83
26.0310,0.09,0.12,-0.98,2.81,3.60,1.77
26.0470,0.09,0.12,-0.98,2.75,3.48,1.59
26.0580,0.09,0.12,-0.98,2.93,3.72,1.53
26.0750,0.09,0.12,-0.98,3.05,3.66,1.40
26.0910,0.08,0.13,-0.99,3.05,3.60,1.53
26.1070,0.07,0.13,-0.99,2.81,3.78,1.65
26.1230,0.08,0.13,-0.98,2.75,3.85,1.77
26.1390,0.08,0.12,-0.98,2.56,3.66,1.83
26.1540,0.09,0.12,-0.98,2.81,3.66,1.83
26.1690,0.09,0.12,-0.98,3.11,3.85,1.89
26.1840,0.09,0.12,-0.98,3.05,3.72,1.89
26.1990,0.09,0.13,-0.98,2.93,3.78,1.95
26.2150,0.09,0.12,-0.98,2.87,3.78,1.65
26.2300,0.09,0.12,-0.98,3.05,3.72,1.46
26.2410,0.08,0.12,-0.98,2.87,3.60,1.46
26.2580,0.08,0.12,-0.98,3.11,3.66,1.65
26.2740,0.08,0.12,-0.98,3.05,3.66,1.89
26.2910,0.08,0.12,-0.98,2.93,3.78,2.01
26.3080,0.09,0.12,-0.98,3.05,3.60,1.89
26.3240,0.09,0.12,-0.98,2.99,3.91,2.01
26.3400,0.09,0.12,-0.98,2.99,3.85,1.89
26.3550,0.09,0.13,-0.98,2.81,3.54,1.95
26.3700,0.09,0.12,-0.98,2.87,3.97,1.83
26.3850,0.09,0.12,-0.98,2.93,3.48,1.95
26.4010,0.09,0.12,-0.98,2.87,3.72,2.08
26.4080,0.09,0.13,-0.98,2.87,3.66,1.89
26.4230,0.09,0.12,-0.98,2.99,3.60,1.83
26.4450,0.09,0.12,-0.98,2.87,3.60,1.46
26.4610,0.09,0.12,-0.98,2.99,3.60,1.40
26.4780,0.09,0.12,-0.98,2.99,3.97,1.40
26.4940,0.09,0.12,-0.98,2.75,3.48,1.65
26.5100,0.09,0.13,-0.98,2.93,3.85,1.83
26.5270,0.08,0.12,-0.98,2.99,3.66,1.28
26.5430,0.09,0.12,-0.98,3.11,3.72,1.34
26.5590,0.08,0.12,-0.98,3.11,3.66,0.98
26.5620,0.08,0.12,-0.98,3.05,3.78,0.85
26.5900,0.08,0.12,-0.98,2.81,3.91,1.22
26.5940,0.08,0.12,-0.98,3.05,3.72,1.28
26.6100,0.08,0.12,-0.98,2.87,3.66,1.65
26.6320,0.09,0.12,-0.98,2.87,3.78,1.83
26.6490,0.08,0.12,-0.98,3.17,3.66,1.89
26.6660,0.09,0.13,-0.99,3.05,3.60,2.01
26.6830,0.09,0.13,-0.98,2.75,3.72,1.83
26.6990,0.09,0.12,-0.98,2.81,3.97,1.77
26.7160,0.08,0.12,-0.98,3.05,3.60,1.89
26.7310,0.09,0.12,-0.98,2.87,3.60,1.83
26.7480,0.09,0.12,-0.98,2.87,3.54,1.89
26.7640,0.09,0.13,-0.98,2.93,3.91,2.01
26.7790,0.09,0.12,-0.98,2.87,3.42,1.83
26.7950,0.09,0.12,-0.98,2.87,3.66,1.77
26.8090,0.09,0.12,-0.98,2.62,3.54,1.40
26.8250,0.08,0.12,-0.98,3.11,3.54,1.59
26.8330,0.08,0.12,-0.98,2.93,3.78,1.77
26.8490,0.09,0.12,-0.98,2.99,3.66,1.95
26.8650,0.09,0.12,-0.98,3.05,3.72,1.89
26.8810,0.09,0.12,-0.98,2.62,3.78,2.01
26.9020,0.09,0.12,-0.98,2.87,3.72,2.14
26.9170,0.09,0.12,-0.98,2.81,3.60,1.89
26.9330,0.09,0.12,-0.98,2.99,3.60,1.95
26.9490,0.09,0.12,-0.98,3.11,3.78,1.83
26.9650,0.09,0.12,-0.98,3.05,3.72,1.65
26.9810,0.09,0.12,-0.98,2.99,3.78,1.53
26.9970,0.09,0.13,-0.98,2.87,3.66,1.71
27.0120,0.09,0.12,-0.98,2.81,3.30,1.59
27.0280,0.09,0.12,-0.98,2.99,3.66,1.65
27.0430,0.08,0.12,-0.98,3.05,3.66,1.59
27.0540,0.09,0.12,-0.98,2.99,3.72,2.08
27.0700,0.09,0.12,-0.98,3.17,3.85,1.95
27.0880,0.08,0.12,-0.98,3.17,3.78,1.89
27.1040,0.09,0.13,-0.99,2.87,3.23,1.95
27.1190,0.09,0.13,-0.98,2.75,3.78,1.71
27.1350,0.09,0.12,-0.98,2.81,3.60,1.53
27.1490,0.09,0.12,-0.99,2.87,3.66,1.53
27.1540,0.08,0.12,-0.98,2.87,3.66,1.71
27.1700,0.09,0.12,-0.98,2.99,3.97,1.95
27.1920,0.09,0.12,-0.98,3.05,3.60,1.89
27.2080,0.09,0.12,-0.98,2.81,3.78,1.83
27.2240,0.09,0.12,-0.98,3.05,3.42,1.95
27.2400,0.09,0.12,-0.98,2.69,3.78,1.89
27.2580,0.09,0.12,-0.98,2.69,3.54,1.83
27.2730,0.09,0.12,-0.98,2.81,3.42,2.01
27.2900,0.09,0.12,-0.98,3.05,3.66,2.01
27.3060,0.09,0.13,-0.98,3.11,3.48,1.89
27.3220,0.09,0.12,-0.98,3.11,3.36,1.83
27.3360,0.09,0.13,-0.98,2.87,3.85,1.83
27.3490,0.09,0.13,-0.98,2.93,3.78,1.65
27.3670,0.09,0.12,-0.98,2.93,3.78,1.59
27.3830,0.10,0.12,-0.98,2.87,3.54,1.59
27.3910,0.08,0.12,-0.98,2.87,3.72,1.34
27.4080,0.09,0.13,-0.98,2.81,3.78,1.71
27.4250,0.08,0.13,-0.98,2.93,3.54,1.65
27.4410,0.08,0.12,-0.98,2.87,3.66,1.77
27.4570,0.09,0.12,-0.98,2.87,3.91,1.89
27.4760,0.09,0.12,-0.98,2.99,3.91,1.83
27.4760,0.08,0.13,-0.98,2.62,3.66,1.71
27.5060,0.09,0.13,-0.98,2.75,3.54,1.89
27.5090,0.09,0.12,-0.98,2.62,3.48,1.77
27.5360,0.08,0.12,-0.98,2.75,3.42,1.95
27.5520,0.08,0.12,-0.99,2.93,3.30,2.01
27.5580,0.09,0.12,-0.98,3.05,3.66,1.89
27.5730,0.10,0.12,-0.98,2.93,3.54,1.89
27.5960,0.09,0.12,-0.98,2.99,3.85,1.71
27.6140,0.08,0.12,-0.98,2.81,3.54,1.71
27.6300,0.09,0.12,-0.98,2.99,3.54,1.46
27.6300,0.09,0.12,-0.98,2.99,3.66,1.46
27.6500,0.08,0.13,-0.98,3.05,3.66,1.28
27.6620,0.09,0.12,-0.98,2.93,3.85,1.34
27.6780,0.08,0.12,-0.98,2.93,3.54,1.40
27.7010,0.09,0.12,-0.98,2.69,3.54,1.53
27.7180,0.09,0.12,-0.98,2.69,3.48,1.59
27.7340,0.08,0.13,-0.98,2.99,3.48,1.71
27.7520,0.08,0.12,-0.98,2.99,3.36,1.59
27.7670,0.09,0.12,-0.98,2.99,3.42,1.59
27.7840,0.08,0.13,-0.98,2.93,3.60,1.77
27.7850,0.08,0.12,-0.98,2.81,3.78,1.89
27.8150,0.09,0.12,-0.98,2.87,3.36,2.01
27.8310,0.08,0.13,-0.98,2.93,3.66,1.89
27.8470,0.09,0.13,-0.98,2.93,3.42,1.89
27.8630,0.09,0.12,-0.98,2.87,3.78,1.95
27.8790,0.09,0.13,-0.98,2.93,3.66,1.83
27.8950,0.08,0.12,-0.98,2.87,3.36,1.89
27.9100,0.09,0.12,-0.98,2.93,3.72,1.95
27.9180,0.09,0.12,-0.98,2.81,3.42,1.89
27.9330,0.09,0.12,-0.98,2.87,3.72,1.95
27.9550,0.09,0.12,-0.98,2.99,3.54,2.01
27.9700,0.09,0.12,-0.98,2.93,3.78,1.89
27.9850,0.09,0.12,-0.98,2.81,3.54,2.08
28.0010,0.08,0.13,-0.98,2.69,3.54,1.95
28.0170,0.08,0.12,-0.98,2.75,3.60,1.95
28.0330,0.08,0.12,-0.98,2.93,3.36,1.83
28.0500,0.09,0.12,-0.98,2.87,3.66,1.95
28.0550,0.09,0.12,-0.98,2.75,3.30,1.83
28.0790,0.09,0.12,-0.98,2.62,3.60,1.95
28.0950,0.09,0.12,-0.98,2.62,3.60,1.89
28.1110,0.09,0.12,-0.98,2.81,3.66,2.01
28.1270,0.09,0.12,-0.98,2.62,3.72,2.01
28.1290,0.09,0.12,-0.98,2.93,4.09,1.83
28.1590,0.09,0.12,-0.98,2.81,3.36,1.71
28.1620,0.09,0.12,-0.98,2.87,3.48,1.77
28.1770,0.09,0.12,-0.98,2.99,3.78,1.89
28.2010,0.10,0.12,-0.98,2.75,3.66,1.77
28.2180,0.08,0.12,-0.98,2.81,3.48,1.59
28.2340,0.09,0.12,-0.98,2.81,3.85,1.83
28.2510,0.08,0.12,-0.98,2.99,3.66,1.65
28.2680,0.08,0.12,-0.98,3.05,3.85,1.71
28.2840,0.09,0.12,-0.98,2.81,3.66,1.65
28.2990,0.09,0.13,-0.98,2.81,3.54,1.65
28.3150,0.12,0.13,-0.98,2.99,3.66,1.22
28.3310,0.09,0.12,-0.98,3.05,3.91,0.98
28.3480,0.09,0.12,-0.98,2.87,3.72,0.85
28.3630,0.09,0.12,-0.98,2.99,3.66,0.73
28.3800,0.08,0.12,-0.98,2.87,3.48,0.92
28.3850,0.09,0.12,-0.98,2.93,3.60,1.04
28.4010,0.08,0.12,-0.98,2.93,3.60,1.46
28.4210,0.08,0.12,-0.98,2.93,3.48,1.53
28.4390,0.08,0.12,-0.98,3.05,3.60,1.77
28.4550,0.09,0.13,-0.98,2.93,3.72,1.89
28.4720,0.09,0.12,-0.98,2.99,3.42,1.95
28.4880,0.09,0.12,-0.98,2.99,3.85,1.95
28.5030,0.08,0.13,-0.98,2.75,3.60,1.83
28.5190,0.08,0.12,-0.98,2.81,3.42,1.77
28.5340,0.08,0.12,-0.98,2.93,3.66,1.95
28.5510,0.08,0.12,-0.98,2.87,3.54,2.08
28.5550,0.08,0.12,-0.98,3.17,3.60,2.14
28.5710,0.08,0.12,-0.98,2.87,3.60,2.01
28.5920,0.09,0.13,-0.98,2.99,3.60,1.95
28.6090,0.09,0.12,-0.98,2.99,3.72,2.14
28.6250,0.09,0.13,-0.98,3.11,3.48,2.38
28.6420,0.09,0.12,-0.98,2.99,3.48,2.26
28.6580,0.09,0.12,-0.98,2.99,3.66,2.32
28.6740,0.09,0.13,-0.98,2.93,3.54,2.26
28.6890,0.08,0.13,-0.98,2.87,3.72,2.08
28.6920,0.08,0.12,-0.98,2.81,3.66,2.20
28.7080,0.08,0.12,-0.98,2.87,3.42,2.14
28.7370,0.09,0.13,-0.98,2.75,3.60,2.32
28.7510,0.09,0.12,-0.98,2.81,3.36,2.14
28.7650,0.09,0.12,-0.98,2.75,3.42,2.14
28.7800,0.09,0.12,-0.98,2.87,3.17,2.44
28.7970,0.09,0.12,-0.98,2.99,3.30,2.32
28.7980,0.08,0.12,-0.98,2.81,3.66,2.44
28.8290,0.09,0.13,-0.98,2.99,3.72,2.32
28.8450,0.08,0.12,-0.98,2.75,3.66,2.14
28.8510,0.08,0.12,-0.98,2.93,3.11,2.01
28.8770,0.09,0.13,-0.98,2.69,3.72,1.77
28.8810,0.09,0.12,-0.98,3.11,3.66,1.83
28.8980,0.09,0.12,-0.98,2.87,3.42,2.01
28.9130,0.08,0.12,-0.98,2.93,3.54,2.08
28.9350,0.08,0.13,-0.98,2.87,3.85,2.14
28.9510,0.08,0.12,-0.98,2.87,3.36,1.89
28.9690,0.09,0.12,-0.98,2.93,3.72,2.08
28.9850,0.08,0.13,-0.98,2.93,3.48,1.95
29.0000,0.09,0.12,-0.98,2.93,3.42,2.01
29.0170,0.08,0.13,-0.99,2.93,3.91,1.89
29.0320,0.08,0.12,-0.98,2.81,3.78,2.01
29.0480,0.08,0.13,-0.99,2.81,3.60,2.08
29.0520,0.09,0.12,-0.98,2.93,3.66,1.95
29.0670,0.09,0.12,-0.98,2.87,3.66,2.14
29.0910,0.09,0.13,-0.98,2.93,3.30,2.01
29.1070,0.09,0.12,-0.98,2.87,3.60,1.83
29.1250,0.09,0.13,-0.98,2.75,3.78,1.89
29.1420,0.09,0.12,-0.98,3.05,3.66,2.01
29.1570,0.09,0.12,-0.98,3.17,3.60,2.01
29.1730,0.09,0.12,-0.98,2.81,3.60,1.89
29.1890,0.09,0.12,-0.98,2.62,3.60,1.95
29.2060,0.08,0.13,-0.98,2.93,3.48,2.01
29.2210,0.09,0.12,-0.98,2.93,3.66,1.95
29.2250,0.10,0.13,-0.98,2.81,3.48,1.95
29.2410,0.08,0.12,-0.98,3.05,3.60,2.08
29.2630,0.09,0.13,-0.98,3.05,3.48,1.71
29.2810,0.09,0.13,-0.98,2.75,3.54,1.77
29.2960,0.08,0.13,-0.98,2.99,3.66,1.89
29.3130,0.08,0.13,-0.99,2.69,3.54,1.89
29.3290,0.08,0.12,-0.98,2.81,3.85,1.89
29.3450,0.08,0.13,-0.98,2.81,3.42,1.89
29.3610,0.09,0.13,-0.98,3.11,3.66,2.08
29.3780,0.09,0.13,-0.98,2.99,3.72,2.01
29.3930,0.09,0.12,-0.98,2.87,3.66,2.08
29.4090,0.09,0.12,-0.98,2.87,3.42,1.89
29.4250,0.09,0.13,-0.98,3.17,3.48,1.89
29.4300,0.09,0.12,-0.98,2.81,3.66,1.95
29.4530,0.09,0.12,-0.98,2.93,3.78,2.08
29.4700,0.09,0.13,-0.98,2.93,3.72,1.95
29.4860,0.09,0.13,-0.98,2.99,3.60,2.01
29.5020,0.09,0.12,-0.98,2.75,3.66,1.95
29.5170,0.09,0.12,-0.98,2.87,3.54,1.95
29.5330,0.09,0.13,-0.98,2.87,3.66,1.83
29.5490,0.09,0.13,-0.98,2.99,3.42,1.77
29.5650,0.09,0.12,-0.98,3.05,3.54,2.01
29.5810,0.09,0.13,-0.98,2.93,3.66,2.08
29.5970,0.09,0.12,-0.98,2.99,3.54,2.01
29.6130,0.07,0.12,-0.98,2.93,3.54,1.65
29.6300,0.08,0.13,-0.99,3.05,3.48,1.83
29.6360,0.08,0.13,-0.98,2.81,3.54,1.77
29.6530,0.11,0.13,-0.99,2.93,3.54,1.89
29.6690,0.08,0.13,-0.98,2.75,3.48,1.83
29.6850,0.08,0.13,-0.98,2.93,3.66,1.95
29.7070,0.08,0.13,-0.98,2.81,3.78,1.95
29.7220,0.08,0.13,-0.98,2.93,3.60,2.14
29.7380,0.09,0.13,-0.98,2.99,3.60,1.89
29.7540,0.09,0.13,-0.98,2.93,3.36,1.89
29.7580,0.09,0.12,-0.98,2.75,3.60,1.83
29.7740,0.09,0.13,-0.98,2.99,3.78,1.95
29.7960,0.09,0.09,-0.98,2.75,3.60,1.89
29.8140,0.09,0.12,-0.98,2.87,3.30,1.89
29.8280,0.09,0.12,-0.98,2.87,3.72,2.01
29.8460,0.09,0.12,-0.98,2.81,3.72,1.89
29.8620,0.09,0.12,-0.98,2.99,3.66,1.95
29.8780,0.09,0.12,-0.98,3.05,3.78,2.08
29.8940,0.09,0.13,-0.98,2.99,3.66,2.01
29.8960,0.09,0.13,-0.98,2.87,3.48,1.89
29.9120,0.09,0.12,-0.98,2.81,3.60,1.95
29.9410,0.09,0.13,-0.98,2.93,3.97,2.01
29.9570,0.09,0.12,-0.98,2.93,3.78,1.89
29.9680,0.09,0.13,-0.98,2.93,3.78,1.89
29.9840,0.09,0.13,-0.98,2.87,3.72,1.95
30.0030,0.09,0.13,-0.98,2.87,3.42,1.95
30.0180,0.10,0.12,-0.98,2.81,3.72,1.77
30.0340,0.08,0.12,-0.98,2.87,3.72,1.59
30.0500,0.09,0.13,-0.98,3.11,3.60,1.71
30.0660,0.08,0.13,-0.98,3.11,3.72,1.77
30.0830,0.09,0.13,-0.98,2.87,3.66,1.95
30.0980,0.09,0.12,-0.98,2.81,3.66,1.83
30.1150,0.09,0.12,-0.98,2.93,3.42,2.01
30.1190,0.09,0.12,-0.98,2.99,3.60,1.95
30.1460,0.09,0.12,-0.98,2.99,3.78,1.77
30.1620,0.09,0.12,-0.98,2.87,3.66,1.65
30.1770,0.09,0.12,-0.98,3.11,3.72,1.71
30.1930,0.09,0.12,-0.98,3.11,3.72,2.01
30.2090,0.08,0.13,-0.98,2.87,3.60,2.08
30.2240,0.09,0.13,-0.98,3.11,3.30,1.95
30.2350,0.09,0.12,-0.98,2.87,3.85,1.83
30.2510,0.08,0.12,-0.98,2.87,3.54,1.95
30.2680,0.09,0.13,-0.98,3.05,3.66,1.89
30.2840,0.08,0.12,-0.98,2.99,3.66,2.01
30.3020,0.09,0.13,-0.98,2.87,3.91,1.89
30.3170,0.09,0.12,-0.98,3.05,3.60,2.01
30.3330,0.09,0.12,-0.98,2.87,3.30,2.01
30.3480,0.09,0.12,-0.98,2.99,3.78,1.95
30.3650,0.08,0.13,-0.98,3.11,3.36,2.20
30.3810,0.09,0.13,-0.98,2.93,3.36,2.01
30.3980,0.08,0.13,-0.98,2.81,3.66,2.01
30.4130,0.09,0.12,-0.98,2.93,3.72,1.89
30.4290,0.09,0.13,-0.98,3.11,3.78,2.08
30.4460,0.09,0.13,-0.98,2.93,3.78,2.01
30.4620,0.09,0.13,-0.99,2.93,3.60,1.89
30.4680,0.10,0.12,-0.98,2.87,3.72,2.01
30.4920,0.09,0.12,-0.98,2.93,3.60,2.50
30.5020,0.09,0.12,-0.98,2.69,3.54,3.17
30.5250,0.08,0.14,-0.98,2.75,3.54,2.62
30.5400,0.08,0.13,-0.99,2.81,3.66,2.26
30.5550,0.08,0.13,-0.98,2.93,3.60,2.14
30.5670,0.09,0.13,-0.98,3.05,3.66,2.08
30.5860,0.09,0.12,-0.98,3.05,3.66,1.83
30.5900,0.09,0.12,-0.98,2.99,3.60,1.77
30.6070,0.08,0.13,-0.98,2.93,3.91,2.01
30.6240,0.09,0.12,-0.98,2.99,3.85,1.95
30.6470,0.09,0.12,-0.98,2.93,3.85,1.83
30.6570,0.09,0.13,-0.98,2.99,3.66,1.71
30.6740,0.09,0.12,-0.98,2.93,3.66,1.65
30.6910,0.09,0.12,-0.98,3.05,3.54,1.40
30.7070,0.09,0.13,-0.98,2.81,3.48,1.40
30.7230,0.09,0.12,-0.98,2.81,3.60,1.53
30.7390,0.09,0.12,-0.98,2.93,3.66,1.89
30.7540,0.08,0.13,-0.98,2.87,3.66,2.01
30.7700,0.09,0.13,-0.98,2.93,3.66,1.95
30.7850,0.09,0.12,-0.98,2.87,3.42,1.89
30.7910,0.09,0.13,-0.98,2.81,3.36,1.83
30.8150,0.11,0.13,-0.98,2.69,3.60,1.65
30.8310,0.09,0.13,-0.98,2.93,3.66,0.12
30.8460,0.08,0.12,-0.98,3.17,3.91,0.67
30.8570,0.08,0.12,-0.98,2.99,3.72,1.77
30.8740,0.09,0.12,-0.98,2.81,3.72,1.89
30.8900,0.09,0.12,-0.98,3.05,3.54,1.89
30.9070,0.09,0.13,-0.98,2.99,3.72,2.01
30.9240,0.08,0.12,-0.98,2.87,3.78,1.10
30.9400,0.08,0.12,-0.98,2.93,3.48,1.16
30.9560,0.08,0.13,-0.98,2.99,3.66,1.53
30.9710,0.08,0.12,-0.98,2.81,3.78,1.71
30.9860,0.08,0.12,-0.98,3.11,3.66,1.83
31.0020,0.08,0.12,-0.98,3.11,3.72,1.95
31.0170,0.09,0.13,-0.98,2.87,3.60,2.01
31.0330,0.09,0.12,-0.98,2.75,3.66,1.89
31.0480,0.09,0.12,-0.98,2.81,3.23,1.77
31.0640,0.09,0.12,-0.98,2.93,3.42,1.83
31.0740,0.09,0.12,-0.98,3.11,3.54,1.89
31.0900,0.09,0.13,-0.98,2.93,3.54,1.89
31.1060,0.09,0.12,-0.98,2.93,3.66,1.89
31.1210,0.09,0.12,-0.98,2.93,3.60,1.89
31.1370,0.09,0.12,-0.98,3.11,3.72,2.08
31.1560,0.09,0.12,-0.98,2.81,3.78,2.14
31.1670,0.10,0.13,-0.98,2.87,3.42,1.40
31.1830,0.09,0.13,-0.98,3.05,3.78,1.28
31.2010,0.08,0.12,-0.98,3.11,3.78,1.46
31.2170,0.09,0.12,-0.99,3.17,3.66,1.83
31.2310,0.09,0.12,-0.98,2.81,3.72,1.95
31.2480,0.09,0.13,-0.99,2.93,3.66,2.01
31.2650,0.09,0.12,-0.98,2.87,3.66,1.77
31.2820,0.09,0.12,-0.98,2.93,3.66,1.40
31.2980,0.09,0.12,-0.98,2.99,3.85,1.34
31.3140,0.09,0.12,-0.98,3.11,3.66,1.40
31.3300,0.09,0.12,-0.98,2.93,3.54,1.28
31.3450,0.08,0.13,-0.98,2.99,3.97,1.77
31.3560,0.08,0.12,-0.98,2.81,3.60,1.89
31.3690,0.09,0.12,-0.98,2.93,3.66,1.95
31.3910,0.09,0.12,-0.98,2.87,4.03,2.01
31.4070,0.10,0.13,-0.98,2.93,3.78,1.22
31.4230,0.09,0.12,-0.98,2.87,3.66,1.22
31.4380,0.12,0.12,-0.98,3.11,3.66,1.28
31.4530,0.09,0.12,-0.98,2.99,3.85,1.59
31.4680,0.09,0.12,-0.98,2.87,4.03,1.10
31.4840,0.10,0.12,-0.99,2.93,3.54,0.79
31.4980,0.10,0.13,-0.98,2.81,3.60,0.61
31.5100,0.09,0.12,-0.98,2.75,3.78,0.43
31.5260,0.08,0.13,-0.99,2.87,3.85,0.85
31.5430,0.08,0.13,-0.98,2.93,3.78,1.28
31.5590,0.08,0.12,-0.98,3.05,3.66,1.71
31.5760,0.07,0.13,-0.98,2.99,3.78,1.95
31.5920,0.08,0.16,-0.98,2.99,3.66,1.89
31.6090,0.08,0.13,-0.98,2.93,3.36,1.83
31.6240,0.08,0.13,-0.98,2.93,3.85,2.08
31.6400,0.08,0.12,-0.98,3.05,3.36,1.89
31.6560,0.08,0.12,-0.98,2.81,3.72,1.83
31.6590,0.09,0.12,-0.98,2.99,3.60,1.95
31.6750,0.09,0.12,-0.98,3.05,3.54,1.95
31.6980,0.09,0.12,-0.98,3.11,3.54,2.08
31.7150,0.08,0.12,-0.98,3.05,3.23,1.89
31.7310,0.09,0.12,-0.98,3.11,3.72,2.08
31.7470,0.09,0.12,-0.98,2.99,3.60,1.95
31.7640,0.09,0.12,-0.98,2.75,3.72,2.14
31.7810,0.07,0.13,-0.98,2.69,3.30,2.32
31.7990,0.08,0.13,-0.98,2.87,3.66,2.44
31.8140,0.08,0.13,-0.98,2.81,3.42,2.14
31.8310,0.15,0.12,-0.98,2.93,3.78,1.83
31.8320,0.11,0.13,-0.98,2.87,3.42,1.28
31.8570,0.09,0.13,-0.98,2.99,3.66,0.43
31.8650,0.07,0.13,-0.99,2.99,3.78,0.37
31.8950,0.09,0.13,-0.99,3.17,3.72,1.16
31.9110,0.07,0.13,-0.98,3.11,3.78,1.46
31.9270,0.07,0.13,-0.99,2.87,3.78,1.77
31.9310,0.09,0.12,-0.98,2.81,3.42,2.01
31.9570,0.09,0.12,-0.98,3.05,3.78,2.01
31.9630,0.09,0.13,-0.98,2.93,3.66,1.95
31.9850,0.09,0.12,-0.98,2.93,3.48,1.83
32.0010,0.09,0.12,-0.98,2.87,3.42,1.95
32.0180,0.08,0.12,-0.98,2.87,3.60,2.01
32.0340,0.09,0.12,-0.98,2.99,3.72,1.95
32.0510,0.09,0.12,-0.98,3.05,3.54,1.89
32.0570,0.09,0.12,-0.98,2.99,3.66,1.77
32.0830,0.09,0.12,-0.98,2.81,3.72,1.65
32.0980,0.09,0.12,-0.98,2.93,3.30,1.59
32.1150,0.08,0.12,-0.98,2.99,3.66,1.83
32.1310,0.08,0.13,-0.98,2.93,3.78,1.89
32.1470,0.08,0.12,-0.98,2.93,3.66,1.95
32.1630,0.09,0.12,-0.98,2.87,3.54,2.08
32.1780,0.09,0.12,-0.98,2.87,3.60,1.95
32.1930,0.09,0.12,-0.98,3.05,3.60,1.65
32.2090,0.09,0.13,-0.98,2.75,3.60,1.53
32.2190,0.09,0.13,-0.99,2.99,3.66,1.46
32.2350,0.08,0.12,-0.98,2.99,3.54,1.59
32.2520,0.09,0.12,-0.98,2.81,3.54,1.59
32.2690,0.09,0.13,-0.98,2.69,3.72,1.16
32.2850,0.08,0.12,-0.98,3.05,3.48,0.92
32.3000,0.09,0.12,-0.98,3.05,3.54,1.46
32.3150,0.09,0.12,-0.98,2.87,3.78,1.59
32.3310,0.08,0.12,-0.98,3.05,3.54,1.59
32.3470,0.09,0.12,-0.98,2.99,3.66,1.83
32.3620,0.09,0.12,-0.98,3.05,3.60,1.71
32.3770,0.09,0.12,-0.98,2.93,3.60,1.71
32.3930,0.08,0.12,-0.98,2.75,3.91,1.59
32.4080,0.09,0.13,-0.98,3.05,3.60,2.01
32.4180,0.09,0.12,-0.98,2.87,3.48,1.89
32.4350,0.09,0.12,-0.98,2.81,3.60,1.77
32.4510,0.09,0.12,-0.98,2.87,3.72,1.28
32.4680,0.09,0.12,-0.98,3.05,3.78,1.10
32.4830,0.09,0.12,-0.98,2.93,3.85,1.22
32.4850,0.09,0.12,-0.98,3.11,3.66,1.10
32.5140,0.08,0.13,-0.98,3.05,4.03,0.55
32.5240,0.09,0.12,-0.98,3.23,3.97,0.55
32.5410,0.09,0.13,-0.98,3.17,3.97,0.24
32.5580,0.08,0.12,-0.98,3.36,3.97,0.24
32.5740,0.08,0.12,-0.98,3.05,3.78,0.55
32.5780,0.09,0.13,-0.98,2.93,3.60,0.43
32.5950,0.08,0.12,-0.98,2.99,3.78,0.43
32.6120,0.09,0.12,-0.98,3.17,3.91,1.04
32.6280,0.08,0.12,-0.98,2.93,3.78,1.34
32.6450,0.09,0.12,-0.98,3.17,3.60,1.65
32.6610,0.09,0.13,-0.98,2.87,3.66,0.98
32.6820,0.10,0.13,-0.98,2.93,3.97,0.49
32.6990,0.08,0.12,-0.98,3.11,4.15,-0.55
32.7150,0.08,0.12,-0.98,2.87,3.91,-0.12
32.7310,0.08,0.12,-0.98,3.05,3.91,0.37
32.7330,0.08,0.12,-0.98,3.11,3.85,0.98
32.7630,0.08,0.12,-0.98,3.23,3.72,1.46
32.7660,0.09,0.13,-0.98,2.93,3.72,1.59
32.7950,0.09,0.13,-0.98,2.99,3.60,1.34
32.7990,0.09,0.12,-0.98,2.93,3.78,1.04
32.8150,0.08,0.12,-0.98,3.11,3.72,0.92
32.8390,0.09,0.12,-0.98,2.99,3.66,0.98
32.8550,0.09,0.13,-0.98,3.30,3.91,0.98
32.8720,0.09,0.13,-0.98,3.17,3.97,0.12
32.8880,0.10,0.12,-0.98,3.05,4.03,-0.73
32.9040,0.07,0.12,-0.98,3.11,4.09,-1.04
32.9190,0.08,0.13,-0.98,3.23,3.78,0.18
32.9350,0.08,0.12,-0.98,3.05,3.85,0.49
32.9510,0.09,0.12,-0.98,2.93,3.60,0.98
32.9580,0.08,0.12,-0.98,2.99,4.03,1.10
32.9710,0.08,0.12,-0.99,3.11,3.78,1.40
32.9970,0.08,0.12,-0.98,2.99,3.72,1.59
33.0090,0.09,0.12,-0.98,2.87,3.72,1.59
33.0250,0.09,0.13,-0.98,2.99,3.66,1.71
33.0420,0.09,0.12,-0.98,3.30,3.66,1.65
33.0580,0.09,0.12,-0.98,3.11,4.15,1.46
33.0740,0.10,0.13,-0.98,2.69,4.03,1.46
33.0920,0.09,0.13,-0.98,2.99,3.72,1.04
33.1080,0.08,0.12,-0.98,3.05,3.85,0.37
33.1240,0.10,0.12,-0.98,3.11,4.03,-0.12
33.1400,0.14,0.12,-0.98,3.05,4.21,-1.59
33.1560,0.10,0.12,-0.98,3.30,4.09,-2.14
33.1710,0.09,0.12,-0.99,3.11,4.03,-1.77
33.1860,0.10,0.12,-0.98,3.17,4.03,-1.16
33.1920,0.10,0.12,-0.98,3.30,3.91,-0.79
33.2170,0.08,0.12,-0.98,3.11,3.91,-0.79
33.2260,0.07,0.13,-0.98,3.11,3.91,0.00
33.2420,0.07,0.13,-0.99,2.99,4.15,0.37
33.2590,0.09,0.13,-0.98,2.87,3.91,0.85
33.2770,0.06,0.13,-0.99,2.93,3.66,1.46
33.2920,0.09,0.13,-0.98,2.99,3.54,1.65
33.3090,0.08,0.12,-0.98,2.93,3.30,1.71
33.3250,0.08,0.12,-0.98,2.93,3.36,1.71
33.3410,0.11,0.12,-0.98,2.99,3.48,1.53
33.3570,0.10,0.12,-0.98,3.05,3.78,1.46
33.3730,0.07,0.13,-0.99,3.11,3.48,1.22
33.3890,0.08,0.13,-0.98,2.81,3.97,0.79
33.4060,0.11,0.12,-0.98,2.93,3.66,0.61
33.4210,0.07,0.13,-0.99,2.93,3.48,0.55
33.4370,0.09,0.12,-0.98,2.99,3.85,0.98
33.4530,0.09,0.12,-0.98,2.81,3.54,0.79
33.4690,0.07,0.12,-0.99,3.05,3.60,0.79
33.4840,0.11,0.13,-0.98,3.05,3.78,1.16
33.5000,0.10,0.13,-0.99,2.87,3.72,1.22
33.5150,0.09,0.13,-0.98,3.05,3.48,1.04
33.5250,0.09,0.13,-0.99,2.81,3.72,1.10
33.5420,0.08,0.13,-0.98,2.75,3.54,0.92
33.5590,0.08,0.13,-0.98,2.93,3.72,0.98
33.5740,0.07,0.12,-0.98,2.75,3.78,1.10
33.5910,0.09,0.12,-0.98,3.05,3.78,1.10
33.6070,0.11,0.13,-0.98,2.99,3.91,0.85
33.6230,0.07,0.12,-0.98,3.05,4.03,-0.31
33.6390,0.09,0.12,-0.99,3.05,3.91,0.24
33.6410,0.06,0.12,-0.98,2.87,3.91,0.43
33.6590,0.08,0.12,-0.98,2.93,3.54,1.40
33.6800,0.09,0.12,-0.98,2.99,3.23,1.28
33.6970,0.09,0.12,-0.98,2.93,3.72,1.22
33.7150,0.08,0.12,-0.98,2.99,3.97,1.34
33.7300,0.09,0.12,-0.98,2.93,3.78,1.65
33.7470,0.09,0.12,-0.98,2.93,3.54,1.59
33.7620,0.08,0.12,-0.98,2.93,3.72,1.71
33.7640,0.08,0.12,-0.98,2.93,3.66,1.71
33.7940,0.09,0.12,-0.98,2.81,3.60,1.83
33.7960,0.09,0.13,-0.98,2.87,3.42,1.40
33.8260,0.09,0.13,-0.98,2.93,3.60,0.73
33.8410,0.09,0.12,-0.98,3.05,4.15,0.73
33.8570,0.10,0.13,-0.98,2.93,3.85,0.67
33.8630,0.08,0.12,-0.98,2.99,4.09,0.06
33.8790,0.09,0.12,-0.98,2.99,3.91,0.37
33.9010,0.09,0.12,-0.98,3.05,4.09,0.31
33.9180,0.10,0.13,-0.98,3.30,3.97,-1.10
33.9350,0.09,0.13,-0.99,3.30,4.27,-1.83
33.9360,0.08,0.12,-0.99,3.42,3.91,-1.89
33.9600,0.06,0.12,-0.99,3.05,4.15,-0.43
33.9760,0.07,0.12,-0.99,3.11,3.97,1.16
33.9920,0.12,0.10,-0.98,3.05,3.60,1.71
34.0090,0.09,0.13,-0.99,2.87,3.72,1.89
34.0250,0.09,0.12,-0.98,2.75,3.60,1.89
34.0420,0.09,0.12,-0.98,2.93,3.48,1.83
34.0590,0.09,0.12,-0.98,3.23,3.36,2.01
34.0750,0.09,0.12,-0.98,3.05,3.72,1.89
34.0910,0.09,0.13,-0.98,3.11,3.48,2.32
34.1070,0.09,0.13,-0.98,2.81,3.60,2.20
34.1230,0.09,0.12,-0.98,2.75,3.48,1.95
34.1400,0.09,0.12,-0.98,2.75,3.60,2.01
34.1550,0.09,0.13,-0.98,2.93,3.66,1.89
34.1700,0.10,0.13,-0.98,2.81,3.66,1.95
34.1850,0.08,0.12,-0.99,3.11,3.66,1.34
34.1920,0.08,0.12,-0.98,2.87,3.42,1.89
34.2080,0.09,0.12,-0.98,3.11,3.54,1.77
34.2300,0.09,0.12,-0.98,3.11,3.78,1.89
34.2470,0.09,0.12,-0.99,3.05,3.60,1.83
34.2630,0.09,0.13,-0.98,3.05,3.66,1.77
34.2790,0.09,0.12,-0.98,3.05,3.54,2.01
34.2800,0.09,0.12,-0.98,2.99,3.66,2.01
34.2960,0.09,0.12,-0.98,2.81,3.85,1.95
34.3190,0.09,0.12,-0.98,2.93,3.66,1.83
34.3360,0.09,0.13,-0.98,2.99,3.66,1.89
34.3520,0.09,0.13,-0.98,3.05,4.03,1.89
34.3680,0.09,0.12,-0.98,2.75,3.78,1.89
34.3850,0.09,0.12,-0.98,2.75,3.72,1.83
34.4000,0.09,0.12,-0.98,2.87,3.60,1.77
34.4170,0.09,0.13,-0.98,2.93,3.85,1.89
34.4320,0.09,0.12,-0.98,2.87,3.72,1.95
34.4470,0.09,0.12,-0.98,2.81,3.72,1.95
34.4620,0.09,0.12,-0.98,2.93,3.42,1.77
34.4700,0.09,0.12,-0.98,2.87,3.60,1.83
34.4930,0.09,0.13,-0.98,3.05,3.72,1.89
34.5080,0.09,0.12,-0.98,2.93,3.60,1.89
34.5190,0.09,0.12,-0.99,2.99,4.03,1.89
34.5350,0.09,0.12,-0.98,2.99,3.72,1.95
34.5530,0.09,0.12,-0.98,2.87,3.66,1.89
34.5690,0.09,0.12,-0.98,2.75,3.66,1.83
34.5850,0.09,0.12,-0.98,2.99,4.03,2.20
34.6000,0.09,0.12,-0.98,3.05,3.23,1.95
34.6090,0.09,0.12,-0.98,3.05,3.66,2.08
34.6250,0.08,0.13,-0.98,3.17,3.72,1.89
34.6410,0.08,0.12,-0.99,3.30,3.85,1.77
34.6600,0.08,0.12,-0.98,2.99,3.66,1.40
34.6750,0.09,0.13,-0.98,3.11,3.60,1.46
34.6900,0.09,0.12,-0.98,3.11,3.72,1.53
34.7060,0.09,0.12,-0.98,2.81,3.91,1.77
34.7220,0.08,0.12,-0.98,2.99,3.54,1.65
34.7370,0.09,0.12,-0.98,2.99,3.72,1.46
34.7520,0.09,0.13,-0.98,2.87,3.78,1.71
34.7680,0.09,0.12,-0.98,2.93,3.72,2.01
34.7840,0.08,0.13,-0.98,2.93,3.54,2.01
34.7990,0.09,0.12,-0.98,2.62,3.54,1.89
34.8070,0.09,0.12,-0.98,2.81,3.66,1.65
34.8230,0.09,0.13,-0.98,2.87,3.91,1.34
34.8450,0.09,0.12,-0.98,3.05,3.97,1.53
34.8610,0.09,0.12,-0.98,2.62,3.85,1.89
34.8770,0.09,0.12,-0.98,2.75,3.60,1.89
34.8800,0.09,0.12,-0.98,2.62,4.09,1.04
34.9090,0.08,0.13,-0.98,2.93,3.72,0.98
34.9250,0.09,0.12,-0.98,2.93,3.48,1.89
34.9410,0.09,0.12,-0.98,2.69,3.85,2.14
34.9460,0.09,0.12,-0.98,2.93,3.78,1.83
34.9630,0.09,0.12,-0.98,2.69,3.72,1.65
34.9780,0.09,0.13,-0.98,2.50,3.60,1.77
35.0000,0.09,0.12,-0.98,2.56,3.97,2.01
35.0170,0.09,0.12,-0.98,2.69,3.72,1.77
35.0350,0.09,0.12,-0.98,2.56,3.78,2.01
35.0350,0.09,0.12,-0.98,2.93,3.60,1.89
35.0660,0.09,0.12,-0.98,2.99,3.97,1.22
35.0810,0.08,0.13,-0.98,3.05,3.85,0.18
35.0830,0.08,0.13,-0.99,2.99,3.91,1.28
35.1130,0.09,0.13,-0.98,2.69,3.78,1.46
35.1290,0.08,0.12,-0.99,2.99,3.91,1.10
35.1460,0.08,0.12,-0.98,3.05,3.30,1.53
35.1630,0.09,0.12,-0.98,2.99,3.97,1.71
35.1780,0.09,0.12,-0.98,3.23,3.48,1.95
35.1940,0.09,0.13,-0.98,2.87,3.48,2.01
35.2000,0.09,0.13,-0.98,3.05,3.78,1.71
35.2240,0.09,0.12,-0.98,2.75,3.72,1.65
35.2340,0.09,0.12,-0.98,2.99,3.66,1.71
35.2490,0.09,0.12,-0.98,2.93,3.60,1.77
35.2700,0.09,0.12,-0.99,2.87,3.60,1.89
35.2850,0.09,0.13,-0.98,2.56,3.78,1.95
35.3000,0.09,0.13,-0.98,2.44,3.54,2.01
35.3150,0.09,0.12,-0.98,2.93,3.36,1.83
35.3310,0.08,0.12,-0.98,2.99,3.91,1.89
35.3460,0.09,0.12,-0.98,2.87,3.72,1.71
35.3620,0.09,0.12,-0.98,2.99,3.42,1.89
35.3710,0.09,0.13,-0.98,2.93,3.97,1.59
35.3870,0.09,0.12,-0.98,2.93,3.97,1.46
35.4080,0.09,0.12,-0.98,3.11,3.36,1.65
35.4230,0.09,0.12,-0.98,3.30,3.48,1.83
35.4280,0.09,0.12,-0.98,3.36,3.48,1.95
35.4460,0.09,0.12,-0.98,3.30,3.72,1.89
35.4630,0.09,0.12,-0.98,3.05,3.66,2.20
35.4790,0.09,0.12,-0.98,3.05,3.54,2.08
35.4960,0.09,0.12,-0.98,2.99,3.72,1.95
35.5130,0.09,0.12,-0.99,3.23,3.48,1.89
35.5290,0.09,0.12,-0.98,3.23,3.54,1.95
35.5460,0.09,0.12,-0.98,2.87,3.42,1.83
35.5620,0.09,0.13,-0.98,2.81,3.72,2.01
35.5780,0.09,0.12,-0.98,2.87,3.48,1.95
35.5950,0.09,0.12,-0.98,2.87,3.36,2.01
35.6110,0.09,0.12,-0.98,3.11,3.72,2.01
35.6130,0.09,0.12,-0.98,2.99,3.78,1.89
35.6430,0.08,0.13,-0.98,2.93,3.60,1.89
35.6450,0.08,0.13,-0.99,2.87,3.85,1.89
35.6630,0.09,0.12,-0.98,2.44,3.66,1.71
35.6900,0.10,0.12,-0.99,2.20,3.60,1.10
35.6960,0.08,0.10,-0.98,2.93,3.91,1.28
35.7220,0.08,0.12,-0.98,3.42,3.78,0.79
35.7290,0.08,0.13,-0.98,3.23,3.91,1.46
35.7450,0.09,0.13,-0.98,2.81,3.85,1.83
35.7660,0.09,0.12,-0.98,2.56,3.54,1.83
35.7830,0.09,0.12,-0.98,2.75,3.54,2.01
35.7980,0.10,0.13,-0.99,2.75,3.48,1.89
35.8150,0.09,0.11,-0.98,2.93,3.72,2.62
35.8310,0.09,0.12,-0.98,2.75,3.66,2.01
35.8330,0.09,0.13,-0.98,2.50,3.48,1.83
35.8630,0.08,0.12,-0.98,2.75,3.48,2.14
35.8660,0.09,0.12,-0.98,2.87,3.78,1.95
35.8830,0.09,0.12,-0.98,3.11,3.78,1.89
35.8980,0.09,0.12,-0.98,2.81,3.54,1.40
35.9140,0.09,0.12,-0.98,2.75,3.97,0.61
35.9390,0.09,0.12,-0.98,2.99,3.72,0.79
35.9560,0.09,0.12,-0.98,3.05,3.85,0.67
35.9720,0.09,0.12,-0.98,2.99,3.72,0.37
35.9870,0.08,0.12,-0.98,2.81,3.91,0.43
36.0020,0.08,0.12,-0.98,2.69,3.78,0.24
36.0180,0.09,0.12,-0.98,3.11,4.15,0.31
36.0220,0.09,0.12,-0.98,3.23,3.78,0.24
36.0380,0.11,0.12,-0.99,3.05,3.78,1.34
36.0620,0.09,0.12,-0.98,3.05,3.78,1.77
36.0790,0.08,0.13,-0.98,2.62,3.85,0.85
36.0950,0.07,0.13,-0.99,0.98,4.15,0.79
36.1000,0.08,0.12,-0.98,0.73,4.03,2.14
36.1150,0.08,0.12,-0.98,2.75,3.97,2.08
36.1420,0.08,0.11,-0.97,3.85,3.36,2.01
36.1580,0.10,0.14,-1.01,6.47,3.05,2.69
36.1730,0.09,0.13,-0.98,3.30,3.60,2.01
36.1820,0.09,0.12,-0.98,3.11,3.85,2.08
36.1970,0.09,0.12,-0.98,2.69,3.54,2.08
36.2190,0.09,0.12,-0.98,2.99,3.66,1.95
36.2340,0.09,0.12,-0.98,2.93,3.54,1.77
36.2500,0.09,0.12,-0.98,3.36,3.54,1.95
36.2660,0.09,0.12,-0.98,3.11,3.66,2.01
36.2810,0.09,0.12,-0.99,2.93,3.54,2.01
36.2970,0.09,0.12,-0.98,2.87,3.60,1.89
36.3120,0.09,0.12,-0.98,3.48,3.78,2.01
36.3280,0.09,0.13,-0.98,3.42,4.21,1.95
36.3380,0.08,0.13,-0.99,2.99,3.97,2.01
36.3540,0.09,0.12,-0.98,2.75,3.23,1.83
36.3710,0.09,0.12,-0.98,3.05,3.91,2.01
36.3890,0.09,0.12,-0.98,4.03,4.03,2.14
36.4040,0.09,0.13,-0.99,4.21,4.15,2.32
36.4200,0.09,0.13,-0.98,2.99,3.72,2.01
36.4360,0.09,0.13,-0.98,2.87,3.48,1.95
36.4510,0.09,0.12,-0.98,2.99,3.66,1.95
36.4670,0.09,0.13,-0.98,2.87,3.48,1.89
36.4710,0.09,0.13,-0.98,2.75,3.54,1.89
36.4880,0.09,0.12,-0.98,2.87,4.03,2.08
36.5040,0.09,0.13,-0.98,3.42,4.09,1.95
36.5280,0.09,0.12,-0.98,3.11,3.60,2.01
36.5450,0.08,0.13,-0.98,2.81,3.66,2.01
36.5630,0.09,0.12,-0.98,2.93,3.60,1.83
36.5790,0.09,0.13,-0.98,2.81,3.54,1.89
36.5940,0.09,0.12,-0.98,2.69,3.78,2.08
36.6120,0.09,0.12,-0.98,2.93,3.72,2.01
36.6270,0.08,0.13,-0.98,2.99,3.54,1.59
36.6440,0.09,0.12,-0.98,2.87,3.66,1.89
36.6450,0.09,0.13,-0.99,2.62,3.36,1.95
36.6630,0.09,0.12,-0.98,2.26,3.66,1.71
36.6780,0.09,0.13,-0.98,2.93,3.72,1.89
36.6950,0.09,0.13,-0.98,2.69,3.72,1.95
36.7110,0.09,0.12,-0.98,2.62,3.72,1.95
36.7330,0.09,0.12,-0.98,2.75,3.60,2.08
36.7500,0.09,0.13,-0.98,3.23,3.78,2.26
36.7680,0.09,0.12,-0.98,3.11,3.78,2.01
36.7850,0.09,0.12,-0.99,3.42,3.91,2.01
36.8000,0.09,0.12,-0.98,3.05,3.78,2.01
36.8150,0.08,0.12,-0.98,2.93,3.72,1.89
36.8310,0.09,0.12,-0.98,2.99,3.72,1.89
36.8470,0.09,0.13,-0.99,3.05,3.60,1.95
36.8630,0.09,0.12,-0.98,2.93,3.66,2.08
36.8790,0.09,0.13,-0.98,3.17,3.23,2.14
36.8950,0.09,0.13,-0.98,2.99,3.66,1.89
36.9100,0.09,0.13,-0.98,2.99,3.42,1.95
36.9250,0.09,0.12,-0.98,2.87,3.60,1.83
36.9430,0.09,0.12,-0.98,2.81,3.78,1.89
36.9570,0.08,0.12,-0.98,2.87,3.60,1.65
36.9730,0.08,0.13,-0.98,3.23,3.48,1.04
36.9880,0.08,0.13,-0.99,3.17,3.78,2.08
37.0040,0.09,0.13,-0.98,3.05,3.78,1.89
37.0200,0.09,0.12,-0.98,2.99,3.60,1.83
37.0350,0.09,0.12,-0.98,3.11,3.72,1.04
37.0500,0.08,0.13,-0.98,3.23,3.48,0.85
37.0650,0.09,0.12,-0.98,3.23,3.66,1.71
37.0790,0.08,0.13,-0.98,2.69,3.54,2.08
37.0920,0.09,0.13,-0.98,3.05,3.66,1.95
37.1090,0.09,0.13,-0.98,3.17,3.66,2.26
37.1260,0.09,0.12,-0.98,2.99,3.78,2.14
37.1420,0.09,0.12,-0.98,2.81,3.72,2.14
37.1590,0.08,0.13,-0.98,2.56,3.48,1.89
37.1750,0.08,0.13,-0.98,3.05,3.42,1.71
37.1910,0.09,0.12,-0.98,3.30,3.85,1.71
37.2070,0.09,0.12,-0.98,3.05,3.72,0.67
37.2240,0.09,0.12,-0.98,3.17,3.85,1.10
37.2390,0.08,0.14,-0.98,2.56,3.66,1.71
37.2550,0.08,0.13,-0.98,2.87,3.48,2.14
37.2680,0.09,0.13,-0.98,2.69,3.11,2.01
37.2850,0.09,0.12,-0.98,3.11,3.91,1.95
37.2990,0.09,0.11,-0.98,2.32,3.54,0.92
37.3150,0.09,0.13,-0.98,2.87,4.09,1.40
37.3310,0.08,0.13,-0.98,2.81,3.60,1.04
37.3470,0.08,0.13,-0.98,3.11,3.48,1.95
37.3640,0.09,0.12,-0.98,2.81,3.66,2.08
37.3800,0.09,0.12,-0.98,2.75,3.66,2.08
37.3970,0.09,0.12,-0.98,2.75,3.48,1.77
37.4120,0.09,0.12,-0.98,2.50,3.72,1.28
37.4260,0.08,0.13,-0.98,3.05,3.66,1.71
37.4430,0.09,0.13,-0.98,2.99,3.85,2.38
37.4580,0.09,0.13,-0.98,2.87,3.72,2.01
37.4760,0.09,0.12,-0.99,3.05,3.91,1.53
37.4910,0.09,0.13,-0.98,2.81,3.66,1.22
37.5060,0.08,0.13,-0.98,3.05,3.85,1.16
37.5230,0.09,0.13,-0.98,2.93,3.60,1.40
37.5400,0.09,0.13,-0.98,2.50,3.60,2.01
37.5550,0.09,0.13,-0.98,2.50,3.42,2.01
37.5710,0.09,0.13,-0.98,2.93,3.66,2.01
37.5870,0.09,0.13,-0.98,2.93,3.54,2.01
37.6020,0.09,0.12,-0.98,3.17,3.60,1.95
37.6170,0.09,0.13,-0.98,3.17,3.66,2.01
37.6310,0.08,0.12,-0.98,2.99,3.78,2.01
37.6460,0.09,0.13,-0.98,2.99,3.60,2.08
37.6600,0.09,0.13,-0.98,2.99,3.72,2.14
37.6760,0.09,0.13,-0.98,2.99,3.78,2.01
37.6900,0.09,0.13,-0.98,2.99,3.78,2.08
37.7060,0.09,0.13,-0.98,2.75,3.66,2.01
37.7230,0.09,0.13,-0.98,2.87,3.30,2.08
37.7400,0.09,0.13,-0.98,2.93,3.54,2.14
37.7560,0.09,0.13,-0.98,3.05,3.66,1.95
37.7730,0.09,0.13,-0.98,3.05,3.97,2.14
37.7880,0.09,0.12,-0.98,2.81,3.60,2.08
37.8050,0.09,0.13,-0.98,3.11,3.60,2.01
37.8200,0.09,0.13,-0.98,2.93,3.72,2.01
37.8360,0.09,0.12,-0.98,2.99,3.78,1.95
37.8520,0.09,0.13,-0.98,2.99,3.42,2.01
37.8670,0.09,0.13,-0.98,2.69,3.54,1.89
37.8840,0.09,0.13,-0.98,2.75,3.60,1.95
37.9000,0.09,0.12,-0.98,3.11,3.48,1.77
37.9140,0.09,0.13,-0.98,3.05,3.66,2.01
37.9300,0.09,0.13,-0.98,2.99,3.42,1.77
37.9470,0.08,0.13,-0.98,2.93,3.66,1.95
37.9630,0.09,0.13,-0.98,2.99,3.48,2.01
37.9780,0.09,0.13,-0.98,2.87,3.60,1.89
37.9950,0.09,0.12,-0.98,2.75,3.36,2.01
38.0080,0.09,0.12,-0.98,2.99,3.36,2.01
38.0250,0.09,0.13,-0.98,3.11,3.66,2.01
38.0380,0.08,0.12,-0.98,2.56,3.72,2.44
38.0540,0.08,0.13,-0.98,2.99,3.72,2.62
38.0720,0.09,0.13,-0.98,2.69,3.72,2.26
38.0890,0.09,0.13,-0.98,2.93,3.78,2.62
38.1050,0.09,0.13,-0.98,3.11,3.78,1.95
38.1200,0.09,0.11,-0.99,2.32,4.03,0.18
38.1360,0.08,0.11,-0.98,3.05,4.15,-0.92
38.1510,0.08,0.12,-0.99,3.60,4.21,-1.22
38.1680,0.08,0.14,-0.98,3.30,3.60,1.10
38.1810,0.09,0.15,-0.98,2.87,3.72,1.77
38.1980,0.09,0.13,-0.98,2.26,3.42,1.83
38.2120,0.09,0.13,-0.98,2.62,3.85,1.95
38.2270,0.09,0.12,-0.98,2.81,4.03,2.01
38.2420,0.09,0.13,-0.98,3.17,3.60,2.01
38.2580,0.09,0.13,-0.98,2.81,3.72,2.08
38.2740,0.09,0.13,-0.98,2.75,3.72,1.89
38.2900,0.09,0.13,-0.98,2.62,3.30,1.71
38.3030,0.09,0.13,-0.98,2.99,3.48,1.89
38.3210,0.09,0.13,-0.98,2.87,3.60,1.89
38.3380,0.09,0.12,-0.98,2.75,3.54,1.95
38.3540,0.09,0.13,-0.98,2.93,3.72,1.89
38.3690,0.09,0.13,-0.98,3.05,3.78,1.83
38.3840,0.09,0.13,-0.98,3.11,3.42,1.89
38.4010,0.09,0.13,-0.98,2.81,3.60,2.01
38.4140,0.09,0.12,-0.98,2.81,3.60,2.01
38.4290,0.09,0.12,-0.99,2.75,3.60,2.69
38.4450,0.08,0.13,-0.98,2.81,3.42,2.62
38.4610,0.08,0.12,-0.98,2.87,3.72,2.14
38.4760,0.09,0.13,-0.98,3.17,3.72,2.20
38.4920,0.09,0.13,-0.98,3.17,3.66,1.95
38.5080,0.08,0.06,-0.99,2.44,4.21,-2.56
38.5250,0.09,0.09,-0.99,3.30,4.70,-4.03
38.5400,0.08,0.10,-0.99,3.48,4.76,-4.46
38.5560,0.09,0.14,-0.98,3.60,4.94,-4.76
38.5720,0.09,0.17,-0.98,3.60,4.58,-2.87
38.5870,0.09,0.18,-0.98,3.05,3.85,0.67
38.6020,0.09,0.13,-0.98,1.89,3.48,1.71
38.6160,0.09,0.12,-0.98,2.62,3.36,1.89
38.6310,0.08,0.13,-0.98,3.42,3.66,1.95
38.6450,0.09,0.13,-0.98,2.99,3.72,1.89
38.6600,0.09,0.13,-0.98,3.11,3.72,1.95
38.6760,0.09,0.13,-0.98,3.17,3.97,1.95
38.6920,0.09,0.13,-0.98,3.11,3.66,1.95
38.7110,0.09,0.13,-0.98,3.17,3.48,2.01
38.7250,0.09,0.13,-0.98,3.11,3.42,2.14
38.7420,0.09,0.13,-0.98,2.81,3.30,2.08
38.7570,0.09,0.13,-0.98,2.99,3.60,1.95
38.7720,0.09,0.13,-0.98,3.17,3.54,2.14
38.7860,0.09,0.12,-0.98,2.20,3.42,1.83
38.8000,0.09,0.13,-0.98,2.75,3.66,1.83
38.8160,0.09,0.13,-0.98,2.93,3.36,1.77
38.8320,0.09,0.13,-0.98,2.99,3.48,1.89
38.8480,0.09,0.13,-0.98,2.81,3.36,1.95
38.8650,0.09,0.13,-0.98,2.93,3.66,1.77
38.8810,0.09,0.12,-0.99,2.62,3.54,1.83
38.8960,0.08,0.13,-0.98,2.75,3.85,0.43
38.9120,0.09,0.13,-0.98,3.23,3.42,1.46
38.9270,0.09,0.13,-0.98,2.50,3.54,1.16
38.9440,0.09,0.12,-0.98,2.69,3.42,1.46
38.9590,0.09,0.12,-0.98,2.75,3.85,0.61
38.9740,0.08,0.10,-0.99,3.48,4.03,-0.85
38.9910,0.08,0.12,-0.98,3.30,3.97,-1.71
39.0070,0.08,0.14,-0.98,3.05,3.78,-0.67
39.0210,0.09,0.15,-0.98,3.05,3.85,0.12
39.0380,0.09,0.14,-0.98,2.87,3.78,1.22
39.0530,0.09,0.13,-0.98,2.81,3.78,1.77
39.0670,0.08,0.12,-0.98,2.87,3.72,2.01
39.0820,0.09,0.13,-0.98,3.05,3.60,1.95
39.0970,0.09,0.13,-0.98,2.62,3.66,1.83
39.1130,0.09,0.13,-0.98,2.99,3.85,1.83
39.1290,0.09,0.12,-0.98,2.99,3.60,1.83
39.1450,0.09,0.12,-0.98,2.99,4.09,0.73
39.1610,0.08,0.13,-0.98,3.36,3.42,1.22
39.1770,0.09,0.13,-0.98,2.38,3.66,1.28
39.1920,0.09,0.13,-0.98,2.87,3.48,1.34
39.2040,0.09,0.13,-0.98,2.69,3.72,1.22
39.2220,0.09,0.12,-0.98,2.93,3.54,1.04
39.2340,0.08,0.12,-0.99,2.87,3.97,0.43
39.2510,0.08,0.11,-0.98,2.75,3.78,-1.04
39.2660,0.09,0.12,-0.98,3.36,3.85,-1.10
39.2840,0.09,0.13,-0.98,3.05,4.15,-0.73
39.2990,0.09,0.13,-0.98,3.05,4.21,-0.55
39.3140,0.09,0.14,-0.98,3.05,3.85,0.31
39.3300,0.09,0.14,-0.98,2.93,3.60,1.89
39.3470,0.09,0.13,-0.98,2.50,3.42,2.08
39.3630,0.09,0.13,-0.98,2.99,3.54,1.95
39.3790,0.09,0.13,-0.98,2.99,3.60,2.20
39.3940,0.09,0.13,-0.98,2.93,3.72,1.95
39.4100,0.09,0.13,-0.98,2.81,3.60,1.95
39.4260,0.09,0.13,-0.98,2.87,3.78,1.89
39.4410,0.09,0.12,-0.98,2.99,3.72,1.77
39.4560,0.08,0.13,-0.98,2.87,3.85,1.95
39.4730,0.09,0.13,-0.98,2.93,3.72,1.77
39.4870,0.09,0.13,-0.98,2.93,3.23,1.95
39.5030,0.09,0.13,-0.98,2.93,3.78,1.95
39.5180,0.09,0.12,-0.98,2.81,3.42,1.83
39.5330,0.09,0.12,-0.99,2.62,3.60,1.22
39.5510,0.09,0.12,-0.98,3.17,3.42,0.98
39.5650,0.07,0.09,-0.99,3.36,3.72,0.79
39.5790,0.09,0.12,-0.99,2.75,3.78,-1.04
39.5960,0.09,0.14,-0.98,2.87,3.78,-0.61
39.6100,0.09,0.15,-0.98,2.99,3.72,0.43
39.6250,0.09,0.13,-0.98,3.05,3.60,1.77
39.6420,0.09,0.13,-0.98,2.50,3.60,2.01
39.6560,0.08,0.12,-0.98,2.75,3.78,1.89
39.6740,0.09,0.12,-0.98,3.11,3.54,2.01
39.6890,0.09,0.13,-0.98,2.93,3.60,1.89
39.7040,0.08,0.13,-0.98,3.05,3.30,1.95
39.7200,0.08,0.13,-0.98,2.93,3.72,1.89
39.7360,0.09,0.12,-0.99,2.44,3.54,1.53
39.7510,0.09,0.12,-0.99,2.87,3.60,0.61
39.7670,0.09,0.12,-0.98,3.05,3.78,0.12
39.7820,0.08,0.11,-0.98,2.81,4.09,-1.04
39.7970,0.08,0.11,-0.98,3.66,4.27,-2.20
39.8150,0.09,0.13,-0.98,3.23,4.21,-2.44
39.8300,0.09,0.15,-0.98,3.23,4.27,-1.53
39.8470,0.09,0.16,-0.98,2.99,3.78,0.73
39.8620,0.09,0.13,-0.98,2.69,3.30,1.83
39.8770,0.09,0.12,-0.98,2.62,3.60,1.83
39.8920,0.09,0.13,-0.98,3.23,3.60,1.95
39.9090,0.09,0.13,-0.98,2.93,3.48,2.01
39.9240,0.09,0.13,-0.98,2.81,3.60,1.83
39.9400,0.09,0.13,-0.98,3.17,3.78,1.83
39.9570,0.09,0.12,-0.98,2.81,3.66,1.89
39.9730,0.09,0.13,-0.98,3.05,3.36,1.89
39.9890,0.09,0.13,-0.98,3.17,3.78,1.83
40.0040,0.09,0.13,-0.98,2.99,3.91,2.14
40.0200,0.09,0.13,-0.98,3.05,3.72,2.01
40.0350,0.09,0.13,-0.98,3.11,3.36,1.95
40.0490,0.09,0.13,-0.98,3.05,3.78,2.01
40.0650,0.09,0.12,-0.98,2.87,3.72,1.83
40.0800,0.09,0.12,-0.98,2.50,3.66,-0.61
40.0960,0.09,0.12,-0.99,3.23,3.91,-0.49
40.1140,0.08,0.10,-0.99,3.36,3.91,-0.85
40.1290,0.08,0.11,-0.99,3.36,3.85,-0.85
40.1440,0.09,0.14,-0.98,2.93,4.33,-1.10
40.1580,0.09,0.14,-0.99,3.30,3.97,-0.37
40.1750,0.09,0.15,-0.98,2.56,3.85,0.79
40.1900,0.09,0.13,-0.98,2.69,3.72,2.14
40.2050,0.09,0.12,-0.98,3.11,3.60,2.01
40.2220,0.09,0.12,-0.98,2.99,3.66,2.14
40.2340,0.09,0.12,-0.98,3.23,3.36,2.62
40.2500,0.09,0.13,-0.98,3.23,3.42,2.32
40.2660,0.08,0.13,-0.99,2.62,3.30,1.89
40.2800,0.09,0.13,-0.99,2.75,3.66,1.95
40.2980,0.09,0.13,-0.98,2.81,3.48,1.95
40.3110,0.08,0.12,-0.98,2.81,3.60,1.46
40.3300,0.09,0.12,-0.98,2.87,3.91,0.00
40.3460,0.08,0.09,-0.99,3.05,4.03,-0.73
40.3590,0.08,0.09,-0.99,3.48,4.27,-2.81
40.3780,0.09,0.12,-0.98,3.30,4.33,-3.48
40.3940,0.09,0.13,-0.98,3.36,4.46,-2.81
40.4080,0.09,0.16,-0.97,3.30,4.52,-1.71
40.4240,0.09,0.16,-0.98,3.23,4.09,-0.79
40.4390,0.09,0.14,-0.98,2.93,3.42,1.04
40.4540,0.08,0.13,-0.98,2.69,3.48,2.01
40.4730,0.09,0.12,-0.98,2.62,3.42,1.83
40.4890,0.09,0.12,-0.98,2.69,3.78,1.89
40.5030,0.09,0.12,-0.98,2.87,3.72,2.01
40.5170,0.09,0.12,-0.98,3.48,3.72,1.65
40.5320,0.09,0.12,-0.98,3.17,3.48,1.16
40.5460,0.09,0.13,-0.98,3.36,3.72,0.73
40.5650,0.09,0.12,-0.98,2.99,3.66,0.18
40.5790,0.08,0.11,-0.99,3.72,4.27,1.10
40.5960,0.09,0.13,-0.99,3.30,4.09,0.06
40.6110,0.08,0.11,-0.98,3.48,4.21,-1.34
40.6270,0.08,0.12,-0.98,3.17,4.15,-2.20
40.6430,0.08,0.11,-0.98,3.23,4.21,-2.69
40.6580,0.09,0.13,-0.98,3.36,4.70,-3.05
40.6740,0.09,0.13,-0.98,2.93,4.39,-2.87
40.6900,0.09,0.14,-0.98,3.05,4.33,-2.26
40.7060,0.09,0.14,-0.98,4.09,4.15,0.18
40.7210,0.09,0.14,-0.98,2.93,3.85,1.46
40.7370,0.09,0.14,-0.98,2.62,3.66,1.71
40.7490,0.09,0.13,-0.98,2.81,3.42,2.01
40.7660,0.09,0.13,-0.99,2.93,3.60,1.89
40.7820,0.08,0.13,-0.98,2.75,3.78,1.89
40.7980,0.09,0.13,-0.98,2.99,3.78,1.83
40.8140,0.09,0.12,-0.98,3.11,3.42,2.08
40.8290,0.08,0.13,-0.98,3.17,3.60,1.83
40.8460,0.09,0.13,-0.98,3.05,3.48,1.89
40.8620,0.09,0.13,-0.99,2.75,3.23,1.95
40.8780,0.08,0.13,-0.98,2.99,3.42,2.01
40.8940,0.09,0.12,-0.98,3.11,3.66,1.89
40.9100,0.08,0.11,-0.98,3.11,3.66,1.04
40.9260,0.08,0.12,-0.98,3.36,3.85,0.73
40.9420,0.08,0.12,-0.99,2.69,3.60,0.43
40.9560,0.08,0.11,-0.99,3.30,4.03,-0.55
40.9720,0.09,0.12,-0.98,3.05,4.58,-1.77
40.9860,0.09,0.13,-0.98,3.05,4.33,-1.65
41.0000,0.10,0.16,-0.98,2.87,4.21,-1.65
41.0180,0.09,0.14,-0.98,3.30,3.54,1.77
41.0340,0.09,0.12,-0.98,2.26,3.66,2.01
41.0470,0.09,0.12,-0.98,3.05,3.54,2.08
41.0640,0.08,0.12,-0.98,3.17,3.72,2.14
41.0790,0.09,0.13,-0.98,3.23,3.42,2.01
41.0950,0.09,0.13,-0.98,2.99,3.85,1.89
41.1100,0.09,0.13,-0.98,2.81,3.66,1.89
41.1250,0.09,0.12,-0.98,2.69,3.30,1.83
41.1400,0.09,0.12,-0.98,2.93,3.72,1.89
41.1570,0.09,0.12,-0.98,3.11,3.91,1.89
41.1730,0.09,0.12,-0.99,3.05,3.72,1.71
41.1890,0.08,0.12,-0.98,2.99,3.60,0.49
41.2030,0.07,0.08,-0.99,3.17,3.72,0.00
41.2180,0.08,0.11,-0.98,2.81,3.78,-1.46
41.2320,0.09,0.13,-0.98,3.11,3.97,-1.22
41.2480,0.09,0.14,-0.98,3.23,3.85,-0.67
41.2640,0.09,0.15,-0.98,2.75,4.09,0.43
41.2800,0.09,0.13,-0.98,2.69,3.42,1.77
41.2970,0.09,0.12,-0.98,2.38,3.23,1.89
41.3130,0.08,0.12,-0.98,3.17,3.66,2.14
41.3280,0.09,0.13,-0.98,2.75,3.66,2.01
41.3430,0.09,0.13,-0.98,2.81,3.66,2.08
41.3590,0.09,0.13,-0.98,2.81,3.48,2.14
41.3710,0.09,0.12,-0.98,2.62,3.54,2.01
41.3880,0.09,0.13,-0.98,2.93,3.54,2.14
41.4040,0.09,0.13,-0.98,2.87,3.72,2.08
41.4190,0.09,0.13,-0.98,2.99,3.72,1.83
41.4320,0.09,0.13,-0.98,2.87,3.42,1.95
41.4470,0.08,0.12,-0.98,3.05,3.48,2.01
41.4610,0.09,0.13,-0.98,2.32,3.42,1.95
41.4780,0.09,0.12,-0.98,2.62,3.11,1.83
41.4950,0.09,0.12,-0.98,3.11,3.54,1.95
41.5100,0.09,0.12,-0.98,2.87,3.48,2.01
41.5260,0.09,0.12,-0.98,2.75,3.54,2.01
41.5420,0.09,0.12,-0.98,2.69,3.36,1.95
41.5570,0.09,0.13,-0.98,2.87,3.66,1.95
41.5720,0.09,0.12,-0.98,2.62,3.48,1.89
41.5870,0.09,0.12,-0.98,2.81,3.48,1.95
41.6020,0.09,0.12,-0.98,2.87,3.72,1.95
41.6180,0.09,0.12,-0.98,2.93,3.72,1.95
41.6320,0.09,0.13,-0.98,2.93,3.60,1.83
41.6480,0.09,0.12,-0.98,2.87,3.48,1.83
41.6650,0.09,0.12,-0.98,3.05,3.60,1.95
41.6810,0.09,0.13,-0.98,3.36,4.03,1.95
41.6960,0.09,0.13,-0.98,3.17,3.78,2.01
41.7100,0.09,0.13,-0.98,3.30,3.72,2.14
41.7240,0.09,0.13,-0.98,3.05,3.60,2.14
41.7420,0.09,0.13,-0.98,3.11,3.60,2.01
41.7570,0.09,0.12,-0.98,3.11,3.54,2.08
41.7730,0.09,0.13,-0.98,2.93,3.36,2.20
41.7900,0.09,0.13,-0.98,2.81,3.54,2.08
41.8070,0.09,0.13,-0.98,2.75,3.72,2.01
41.8220,0.09,0.12,-0.98,2.44,3.54,1.83
41.8380,0.09,0.13,-0.98,2.81,3.48,1.83
41.8540,0.09,0.12,-0.98,3.11,3.66,1.89
41.8690,0.09,0.13,-0.98,3.11,3.66,2.01
41.8840,0.09,0.12,-0.98,2.87,3.48,2.01
41.8990,0.09,0.13,-0.98,2.99,3.60,2.01
41.9120,0.09,0.13,-0.98,2.50,3.85,2.14
41.9280,0.09,0.13,-0.98,2.62,3.48,1.95
41.9430,0.08,0.13,-0.98,2.32,3.72,1.89
41.9590,0.09,0.12,-0.98,2.50,3.66,2.01
41.9740,0.09,0.13,-0.98,2.56,3.48,1.71
41.9900,0.09,0.13,-0.98,2.93,3.66,0.92
42.0060,0.09,0.12,-0.99,2.87,3.60,0.85
42.0220,0.09,0.12,-0.98,3.05,3.72,1.46
42.0360,0.09,0.13,-0.98,3.05,3.72,1.77
42.0520,0.08,0.13,-0.98,2.87,3.54,1.59
42.0680,0.09,0.12,-0.98,2.87,3.48,1.34
42.0830,0.09,0.12,-0.98,2.93,4.03,1.34
42.0970,0.09,0.12,-0.98,2.81,3.60,1.22
42.1120,0.09,0.13,-0.98,2.93,3.60,1.22
42.1260,0.09,0.12,-0.98,2.75,4.03,1.34
42.1400,0.09,0.12,-0.98,2.93,3.66,1.65
42.1570,0.09,0.12,-0.98,2.93,3.72,1.89
42.1720,0.09,0.13,-0.98,2.81,3.72,1.89
42.1900,0.09,0.12,-0.98,2.93,3.54,2.01
42.2070,0.09,0.12,-0.98,2.87,3.54,2.01
42.2220,0.09,0.12,-0.98,2.50,3.78,1.89
42.2390,0.09,0.12,-0.98,2.93,3.54,1.89
42.2540,0.08,0.13,-0.98,2.93,3.48,1.83
42.2680,0.09,0.12,-0.98,2.75,3.54,1.59
42.2830,0.09,0.12,-0.98,3.05,3.78,1.65
42.2980,0.09,0.13,-0.99,2.93,3.72,1.77
42.3130,0.09,0.12,-0.98,2.62,3.54,1.71
42.3270,0.09,0.12,-0.98,2.93,3.54,1.95
42.3450,0.09,0.12,-0.98,2.99,3.54,1.95
42.3560,0.09,0.12,-0.98,2.93,3.66,1.89
42.3730,0.09,0.12,-0.98,2.81,3.78,1.95
42.3890,0.09,0.13,-0.98,3.05,3.66,1.89
42.4060,0.08,0.13,-0.98,2.87,3.72,1.77
42.4220,0.09,0.12,-0.98,2.93,3.48,1.04
42.4390,0.09,0.12,-0.98,3.17,3.66,1.16
42.4530,0.09,0.12,-0.98,2.99,3.54,1.53
42.4680,0.09,0.12,-0.98,2.99,3.78,1.71
42.4820,0.09,0.12,-0.98,3.11,3.66,1.65
42.4970,0.09,0.12,-0.98,3.05,3.60,1.53
42.5140,0.09,0.12,-0.98,3.05,3.60,1.34
42.5300,0.09,0.12,-0.98,2.99,3.48,1.59
42.5450,0.09,0.12,-0.98,3.11,3.36,1.89
42.5610,0.09,0.12,-0.98,3.05,3.48,1.83
42.5770,0.09,0.12,-0.98,2.81,3.54,1.77
42.5920,0.09,0.12,-0.98,2.81,3.60,1.83
42.6070,0.09,0.12,-0.98,2.93,3.72,1.89
42.6230,0.09,0.13,-0.98,2.93,3.60,1.83
42.6370,0.09,0.13,-0.98,2.87,3.97,1.89
42.6530,0.08,0.12,-0.98,2.99,3.66,1.95
42.6690,0.09,0.12,-0.98,2.99,3.66,2.01
42.6840,0.09,0.13,-0.98,2.87,3.72,1.95
42.7000,0.09,0.12,-0.98,2.81,3.42,1.65
42.7150,0.09,0.12,-0.98,2.87,3.66,1.77
42.7300,0.09,0.12,-0.98,3.05,3.72,1.95
42.7460,0.09,0.12,-0.98,3.05,3.54,1.95
42.7590,0.09,0.13,-0.98,2.99,3.48,1.89
42.7760,0.09,0.12,-0.98,2.99,3.85,2.01
42.7920,0.09,0.12,-0.98,3.17,3.66,2.01
42.8080,0.09,0.13,-0.98,2.99,3.30,1.89
42.8250,0.09,0.12,-0.98,2.99,3.54,2.01
42.8410,0.09,0.13,-0.98,2.81,3.54,3.05
42.8570,0.09,0.13,-0.98,2.93,3.78,2.08
42.8730,0.09,0.13,-0.98,3.11,3.54,2.01
42.8890,0.09,0.12,-0.98,2.81,3.66,1.77
42.9050,0.09,0.12,-0.98,2.99,3.78,1.65
42.9190,0.09,0.12,-0.99,3.17,3.78,1.77
42.9350,0.09,0.13,-0.98,3.05,3.91,1.16
42.9510,0.08,0.13,-0.98,2.93,3.60,1.83
42.9650,0.09,0.13,-0.98,2.32,3.91,1.89
42.9790,0.08,0.11,-0.98,2.81,3.66,1.95
42.9960,0.08,0.10,-0.98,2.87,3.78,0.31
43.0120,0.08,0.09,-0.99,3.36,4.09,-0.43
43.0270,0.09,0.14,-0.98,2.93,4.15,-1.53
43.0430,0.09,0.14,-0.98,3.30,3.97,-0.98
43.0600,0.09,0.14,-0.98,3.05,3.54,0.43
43.0760,0.09,0.14,-0.98,2.81,3.60,1.22
43.0910,0.09,0.13,-0.98,2.69,3.85,1.71
43.1060,0.09,0.12,-0.98,2.93,3.72,2.01
43.1230,0.09,0.12,-0.98,3.11,3.78,1.95
43.1380,0.09,0.13,-0.98,3.30,3.85,1.77
43.1530,0.09,0.13,-0.98,2.99,3.85,1.65
43.1700,0.09,0.13,-0.98,2.62,3.66,1.16
43.1820,0.09,0.12,-0.98,2.99,3.60,1.22
43.2000,0.08,0.12,-0.99,2.99,3.66,1.40
43.2160,0.09,0.11,-0.98,2.99,3.85,0.49
43.2300,0.08,0.12,-0.98,3.72,4.09,0.00
43.2450,0.08,0.13,-0.98,3.36,3.78,-0.37
43.2600,0.08,0.12,-0.98,2.93,3.78,-0.92
43.2750,0.09,0.13,-0.98,2.87,4.15,-1.46
43.2890,0.09,0.13,-0.98,3.60,4.21,-0.98
43.3050,0.09,0.13,-0.98,3.60,3.54,0.31
43.3200,0.09,0.13,-0.98,3.11,3.97,1.28
43.3370,0.09,0.14,-0.98,3.23,3.48,1.95
43.3530,0.09,0.13,-0.98,2.93,3.54,2.38
43.3670,0.09,0.12,-0.98,2.99,3.72,2.08
43.3830,0.09,0.12,-0.98,3.60,3.78,2.32
43.3990,0.09,0.12,-0.99,3.85,3.72,1.71
43.4130,0.09,0.11,-0.99,3.17,3.72,1.40
43.4280,0.08,0.13,-0.98,3.17,3.66,0.92
43.4440,0.09,0.13,-0.98,3.05,3.54,1.10
43.4580,0.09,0.13,-0.98,2.87,3.85,0.73
43.4740,0.09,0.13,-0.98,3.17,3.91,0.98
43.4910,0.08,0.11,-0.99,3.17,3.97,0.79
43.5060,0.09,0.12,-0.98,2.93,4.33,-1.53
43.5230,0.08,0.13,-0.98,3.30,4.15,-1.53
43.5390,0.09,0.15,-0.98,3.05,3.97,0.67
43.5550,0.09,0.13,-0.98,3.11,3.85,0.98
43.5710,0.09,0.14,-0.98,2.93,4.03,1.10
43.5860,0.09,0.13,-0.98,3.23,3.66,1.46
43.6010,0.09,0.12,-0.98,3.05,3.66,1.71
43.6180,0.08,0.12,-0.99,2.99,3.72,1.89
43.6330,0.08,0.10,-0.99,3.17,3.72,1.16
43.6490,0.09,0.12,-0.98,3.05,4.27,-1.22
43.6640,0.09,0.13,-0.98,3.23,4.33,-0.12
43.6800,0.09,0.14,-0.98,2.93,3.85,0.37
43.6960,0.09,0.15,-0.98,2.81,3.78,1.04
43.7120,0.09,0.14,-0.98,2.93,3.66,1.40
43.7260,0.08,0.12,-0.98,2.81,3.54,1.95
43.7410,0.08,0.12,-0.98,2.99,3.54,1.40
43.7550,0.09,0.12,-0.98,3.17,4.03,0.55
43.7690,0.08,0.11,-0.99,3.54,4.15,-0.18
43.7860,0.08,0.12,-0.98,3.60,3.78,0.24
43.8020,0.09,0.13,-0.98,3.17,3.66,0.12
43.8190,0.09,0.14,-0.98,2.93,3.66,1.34
43.8330,0.09,0.13,-0.98,2.87,3.66,1.53
43.8470,0.09,0.12,-0.98,2.87,3.78,1.22
43.8620,0.09,0.12,-0.98,2.87,3.72,0.98
43.8770,0.09,0.13,-0.98,3.23,3.72,0.79
43.8950,0.09,0.13,-0.98,2.75,3.85,1.53
43.9080,0.08,0.11,-0.99,3.05,3.72,1.28
43.9230,0.08,0.12,-0.99,2.81,3.91,-0.37
43.9400,0.08,0.11,-0.99,3.42,4.09,-1.04
43.9570,0.09,0.12,-0.98,3.05,4.27,-2.26
43.9720,0.09,0.11,-0.98,3.48,4.27,-2.75
43.9890,0.08,0.11,-0.99,3.66,4.70,-3.23
44.0050,0.09,0.14,-0.98,3.66,4.46,-4.21
44.0210,0.09,0.17,-0.98,3.36,4.15,-1.83
44.0360,0.09,0.15,-0.98,2.81,3.60,1.40
44.0520,0.09,0.12,-0.98,2.56,3.54,2.08
44.0670,0.09,0.12,-0.98,3.23,3.72,2.08
44.0820,0.09,0.13,-0.98,3.30,3.60,2.14
44.0970,0.09,0.13,-0.98,2.93,3.72,2.01
44.1120,0.09,0.13,-0.98,3.05,3.60,1.89
44.1280,0.09,0.13,-0.98,3.42,3.48,1.95
44.1450,0.09,0.13,-0.98,2.81,3.60,1.46
44.1590,0.09,0.13,-0.98,2.99,3.42,1.89
44.1740,0.09,0.13,-0.98,3.36,3.60,2.20
44.1930,0.09,0.12,-0.98,3.36,3.42,2.44
44.2080,0.08,0.13,-0.98,2.56,3.66,2.50
44.2250,0.09,0.13,-0.98,2.50,3.66,2.14
44.2410,0.09,0.13,-0.98,2.20,3.72,1.83
44.2540,0.09,0.13,-0.98,2.81,3.66,1.83
44.2690,0.09,0.13,-0.98,3.11,3.85,1.71
44.2870,0.09,0.13,-0.98,3.11,3.72,1.71
44.3000,0.09,0.13,-0.98,2.81,3.60,1.77
44.3170,0.09,0.12,-0.98,2.81,3.42,2.08
44.3330,0.09,0.13,-0.98,2.87,3.85,2.20
44.3490,0.09,0.13,-0.98,3.05,3.66,1.77
44.3630,0.08,0.10,-0.99,3.23,3.60,1.22
44.3780,0.09,0.11,-0.99,2.81,3.91,-0.43
44.3940,0.09,0.14,-0.98,3.05,3.78,0.73
44.4080,0.09,0.14,-0.98,3.36,3.78,2.14
44.4270,0.09,0.14,-0.98,2.56,3.42,1.77
44.4410,0.09,0.13,-0.98,2.87,3.36,1.89
44.4580,0.08,0.13,-0.98,2.56,3.85,1.77
44.4750,0.09,0.13,-0.98,3.17,3.60,2.01
44.4900,0.09,0.13,-0.98,2.69,4.03,1.46
44.5060,0.09,0.12,-0.98,2.93,3.72,1.10
44.5230,0.09,0.13,-0.98,3.05,3.54,1.89
44.5390,0.09,0.12,-0.99,2.62,3.60,1.95
44.5550,0.09,0.13,-0.98,3.11,3.85,1.77
44.5700,0.09,0.12,-0.98,2.87,3.66,0.49
44.5850,0.09,0.13,-0.98,3.11,3.78,-0.31
44.5990,0.09,0.13,-0.98,2.87,3.97,-0.06
44.6160,0.09,0.13,-0.98,2.93,3.78,0.92
44.6320,0.09,0.12,-0.98,2.93,3.72,-0.12
44.6470,0.08,0.13,-0.98,2.50,3.78,0.18
44.6630,0.08,0.13,-0.98,2.81,3.36,0.61
44.6780,0.08,0.13,-0.98,2.75,3.72,0.79
44.6930,0.09,0.12,-0.98,3.05,3.60,1.40
44.7060,0.09,0.12,-0.99,3.11,3.54,1.16
44.7230,0.08,0.12,-0.98,2.93,3.36,1.40
44.7390,0.08,0.13,-0.98,2.87,3.66,1.22
44.7560,0.09,0.13,-0.98,2.93,3.60,1.22
44.7720,0.09,0.11,-0.98,2.93,3.85,0.49
44.7880,0.08,0.11,-0.99,3.11,4.03,-0.18
44.8020,0.08,0.13,-0.98,2.81,4.09,-1.71
44.8200,0.09,0.13,-0.98,3.36,4.21,-0.85
44.8350,0.09,0.15,-0.98,2.99,4.09,0.00
44.8520,0.09,0.13,-0.98,3.48,3.42,1.65
44.8670,0.09,0.13,-0.98,2.87,3.36,1.95
44.8820,0.09,0.13,-0.98,2.75,3.30,1.89
44.8970,0.09,0.13,-0.98,3.11,3.42,1.89
44.9130,0.09,0.12,-0.99,2.93,3.60,1.59
44.9280,0.09,0.11,-0.98,2.93,3.48,0.98
44.9450,0.09,0.12,-0.98,2.38,3.78,-0.37
44.9610,0.09,0.14,-0.98,2.93,4.03,-0.43
44.9770,0.08,0.15,-0.98,3.05,3.85,0.61
44.9920,0.09,0.14,-0.98,2.93,3.66,0.85
45.0070,0.09,0.13,-0.98,2.81,3.48,1.34
45.0240,0.09,0.13,-0.98,3.11,3.54,1.89
45.0400,0.09,0.13,-0.98,2.81,3.78,1.95
45.0560,0.09,0.12,-0.98,3.11,3.72,1.59
45.0700,0.09,0.12,-0.99,3.17,4.09,1.16
45.0850,0.09,0.09,-0.99,3.36,3.97,0.43
45.1000,0.09,0.10,-0.99,2.93,3.97,0.12
45.1160,0.08,0.10,-0.99,3.30,3.97,-1.10
45.1340,0.09,0.13,-0.98,3.36,3.97,-1.65
45.1480,0.09,0.12,-0.99,3.42,4.21,-2.20
45.1630,0.08,0.12,-0.99,3.72,4.58,-3.17
45.1800,0.09,0.14,-0.98,3.05,4.27,-2.93
45.1940,0.09,0.16,-0.98,3.23,4.15,-1.65
45.2090,0.09,0.15,-0.98,3.30,3.97,-0.55
45.2250,0.09,0.13,-0.98,3.11,3.91,1.04
45.2380,0.09,0.12,-0.98,2.81,3.54,1.16
45.2550,0.08,0.11,-0.99,2.99,3.91,0.67
45.2700,0.09,0.12,-0.98,3.17,3.66,0.18
45.2860,0.09,0.10,-0.99,3.36,4.03,-0.55
45.3010,0.09,0.15,-0.98,3.30,3.78,-0.61
45.3180,0.09,0.16,-0.98,2.87,3.72,1.34
45.3320,0.09,0.13,-0.98,2.56,3.60,2.08
45.3490,0.09,0.12,-0.98,3.36,3.91,2.01
45.3640,0.08,0.12,-0.98,3.17,3.78,1.59
45.3810,0.09,0.12,-0.99,2.69,3.91,0.85
45.3970,0.08,0.11,-0.99,3.05,4.09,-0.06
45.4120,0.08,0.11,-0.99,3.42,4.09,-0.31
45.4280,0.09,0.11,-0.98,3.17,3.97,-1.16
45.4410,0.08,0.11,-0.98,3.17,4.21,-2.08
45.4570,0.09,0.15,-0.98,3.05,4.21,-2.01
45.4750,0.09,0.15,-0.98,3.17,3.66,1.10
45.4900,0.09,0.13,-0.98,2.50,3.60,2.01
45.5070,0.09,0.12,-0.98,3.05,3.48,2.20
45.5230,0.09,0.13,-0.98,3.17,3.60,2.38
45.5390,0.09,0.13,-0.98,2.75,3.72,2.26
45.5540,0.09,0.13,-0.98,2.62,3.60,1.65
45.5680,0.09,0.12,-0.98,2.87,3.60,1.40
45.5830,0.08,0.12,-0.99,2.81,3.91,1.04
45.5990,0.09,0.11,-0.99,3.05,3.72,0.98
45.6150,0.09,0.12,-0.98,2.62,3.72,1.10
45.6310,0.08,0.10,-0.99,3.30,3.85,0.85
45.6460,0.09,0.11,-0.98,2.81,3.91,-1.65
45.6630,0.09,0.12,-0.98,3.36,4.09,-2.44
45.6770,0.09,0.17,-0.98,3.30,3.85,-0.85
45.6950,0.09,0.14,-0.98,3.11,3.72,1.89
45.7110,0.09,0.12,-0.98,2.75,3.72,2.01
45.7250,0.09,0.12,-0.98,3.23,3.72,1.53
45.7400,0.09,0.13,-0.98,2.81,3.66,1.04
45.7560,0.09,0.13,-0.98,2.99,3.78,1.16
45.7720,0.09,0.12,-0.98,2.69,3.54,1.83
45.7870,0.09,0.12,-0.98,3.11,3.54,1.95
45.8020,0.09,0.12,-0.98,2.93,3.60,1.04
45.8150,0.08,0.11,-0.98,3.30,3.48,1.22
45.8320,0.09,0.13,-0.98,2.99,3.66,1.22
45.8480,0.09,0.12,-0.98,3.05,3.85,1.10
45.8640,0.09,0.13,-0.98,3.11,4.03,0.37
45.8800,0.09,0.10,-0.99,3.05,4.03,0.31
45.8970,0.08,0.11,-0.99,3.05,4.27,-2.26
45.9130,0.08,0.11,-0.99,3.30,4.39,-2.69
45.9300,0.09,0.15,-0.98,3.36,4.27,-2.14
45.9460,0.09,0.17,-0.98,3.23,3.66,1.04
45.9610,0.09,0.13,-0.98,2.08,3.23,2.01
45.9760,0.09,0.12,-0.98,2.26,3.54,2.01
45.9900,0.09,0.12,-0.98,2.93,3.42,1.89
46.0070,0.09,0.13,-0.98,3.17,3.48,1.95
46.0200,0.09,0.13,-0.98,2.87,3.66,2.01
46.0380,0.09,0.13,-0.98,2.99,3.36,1.83
46.0550,0.09,0.13,-0.98,2.87,3.66,2.01
46.0700,0.09,0.12,-0.98,3.05,3.78,2.08
46.0850,0.09,0.13,-0.98,3.30,3.85,2.01
46.1010,0.09,0.13,-0.98,3.05,3.60,2.01
46.1170,0.09,0.12,-0.98,2.99,3.66,1.89
46.1330,0.09,0.12,-0.98,3.17,3.91,1.46
46.1480,0.09,0.13,-0.98,3.17,3.54,1.46
46.1640,0.09,0.13,-0.98,2.93,3.85,1.28
46.1810,0.09,0.12,-0.98,2.93,4.03,1.46
46.1960,0.08,0.10,-0.98,2.38,3.60,-0.73
46.2110,0.09,0.11,-0.99,3.17,4.15,0.00
46.2280,0.08,0.14,-0.98,2.93,3.85,-0.06
46.2440,0.09,0.13,-0.98,2.99,4.03,0.55
46.2590,0.09,0.12,-0.98,3.11,4.03,0.06
46.2750,0.09,0.14,-0.98,3.11,3.78,0.37
46.2910,0.09,0.13,-0.98,2.93,3.60,1.53
46.3040,0.09,0.13,-0.98,2.81,3.85,1.77
46.3190,0.09,0.12,-0.98,2.93,4.03,1.95
46.3370,0.09,0.11,-0.98,3.05,3.60,1.22
46.3520,0.09,0.11,-0.98,2.69,4.03,-0.37
46.3670,0.09,0.13,-0.98,3.60,4.15,-0.37
46.3830,0.09,0.15,-0.98,3.11,3.91,0.43
46.3960,0.09,0.14,-0.98,2.93,3.54,1.46
46.4120,0.09,0.13,-0.98,2.81,3.85,1.95
46.4310,0.09,0.12,-0.99,2.99,3.72,1.77
46.4440,0.09,0.09,-0.99,2.69,4.03,-0.37
46.4590,0.08,0.11,-0.99,2.87,4.03,-1.04
46.4760,0.08,0.13,-0.98,3.23,4.46,-2.01
46.4910,0.09,0.16,-0.98,3.23,4.33,-1.22
46.5060,0.09,0.16,-0.98,2.50,3.66,0.85
46.5210,0.09,0.12,-0.98,2.44,3.66,1.71
46.5390,0.09,0.12,-0.98,3.60,3.78,1.59
46.5520,0.09,0.11,-0.99,3.48,3.85,1.16
46.5690,0.09,0.12,-0.98,2.81,3.78,0.43
46.5830,0.09,0.12,-0.98,3.23,3.85,-0.79
46.6000,0.09,0.13,-0.98,3.11,3.97,-1.04
46.6120,0.09,0.12,-0.98,3.23,3.97,-1.53
46.6290,0.09,0.13,-0.98,2.99,4.03,-1.16
46.6440,0.09,0.13,-0.98,3.17,3.91,0.31
46.6600,0.09,0.15,-0.98,3.17,3.72,1.59
46.6740,0.09,0.13,-0.98,3.05,3.48,2.44
46.6930,0.09,0.13,-0.98,2.75,3.66,2.38
46.7080,0.09,0.12,-0.98,3.11,3.36,2.38
46.7220,0.09,0.13,-0.98,3.11,3.78,2.50
46.7380,0.09,0.12,-0.98,3.17,3.23,2.26
46.7530,0.09,0.13,-0.98,2.81,3.91,1.89
46.7680,0.09,0.13,-0.99,2.87,3.66,2.01
46.7830,0.09,0.11,-0.99,2.93,3.85,1.46
46.7980,0.09,0.12,-0.98,2.93,3.91,0.12
46.8120,0.09,0.12,-0.99,3.05,4.27,-1.04
46.8290,0.09,0.13,-0.98,2.69,4.15,-0.98
46.8460,0.08,0.11,-0.99,2.56,3.97,-0.79
46.8620,0.09,0.13,-0.98,2.87,4.09,-1.10
46.8760,0.09,0.13,-0.98,3.05,4.09,-1.40
46.8930,0.09,0.14,-0.98,3.05,4.27,-1.10
46.9080,0.09,0.13,-0.98,3.05,4.09,0.61
46.9220,0.09,0.13,-0.98,2.75,3.85,0.37
46.9400,0.09,0.13,-0.99,3.05,3.66,1.22
46.9550,0.09,0.13,-0.98,2.93,3.60,1.40
46.9710,0.09,0.11,-0.99,2.99,3.78,1.46
46.9860,0.09,0.11,-0.99,2.93,3.72,0.85
47.0010,0.09,0.11,-0.99,3.05,4.03,0.18
47.0160,0.09,0.13,-0.98,3.23,4.09,-0.61
47.0320,0.09,0.15,-0.98,3.36,4.03,0.67
47.0470,0.09,0.13,-0.98,2.99,3.66,1.22
47.0640,0.09,0.12,-0.98,2.93,3.78,1.04
47.0800,0.08,0.11,-0.99,2.87,3.72,-0.18
47.0960,0.09,0.12,-0.98,2.93,3.85,-0.43
47.1120,0.09,0.13,-0.98,3.23,3.78,0.12
47.1280,0.09,0.14,-0.98,3.05,3.78,0.49
47.1420,0.09,0.13,-0.98,3.17,3.85,0.98
47.1570,0.09,0.12,-0.98,2.81,3.78,0.55
47.1730,0.08,0.12,-0.99,2.93,3.78,0.49
47.1860,0.08,0.12,-0.99,2.87,3.85,-0.24
47.2030,0.09,0.13,-0.98,3.11,4.03,0.24
47.2180,0.09,0.13,-0.98,2.87,3.60,0.73
47.2330,0.09,0.12,-0.98,2.93,3.66,1.04
47.2480,0.09,0.12,-0.98,3.17,4.03,1.16
47.2630,0.09,0.12,-0.98,2.75,3.91,1.04
47.2780,0.09,0.12,-0.98,2.87,3.66,1.53
47.2920,0.09,0.13,-0.98,2.93,3.72,1.22
47.3060,0.09,0.11,-0.99,3.11,3.66,0.06
47.3240,0.09,0.11,-0.99,3.30,4.03,-0.92
47.3400,0.08,0.13,-0.98,3.23,3.60,-0.31
47.3550,0.08,0.14,-0.98,2.87,3.91,0.49
47.3700,0.08,0.13,-0.98,2.93,3.97,1.10
47.3820,0.09,0.12,-0.98,2.81,3.60,1.34
47.4000,0.09,0.12,-0.98,2.99,3.78,0.49
47.4140,0.08,0.11,-0.99,3.11,3.66,0.06
47.4310,0.09,0.13,-0.98,2.87,4.03,-0.37
47.4450,0.09,0.14,-0.98,3.05,3.85,0.73
47.4600,0.09,0.13,-0.98,2.99,3.78,1.28
47.4770,0.09,0.12,-0.98,2.99,3.54,1.53
47.4920,0.09,0.12,-0.98,2.99,3.91,1.40
47.5050,0.09,0.11,-0.99,3.11,3.91,0.92
47.5230,0.09,0.12,-0.99,3.23,3.78,0.06
47.5360,0.08,0.12,-0.98,3.05,4.09,-0.67
47.5520,0.09,0.12,-0.98,3.17,3.97,-1.22
47.5660,0.08,0.12,-0.98,3.17,4.15,-1.40
47.5820,0.09,0.12,-0.98,3.36,4.15,-1.53
47.5990,0.09,0.15,-0.98,3.11,3.91,-0.98
47.6140,0.09,0.14,-0.98,2.87,3.85,1.22
47.6290,0.09,0.13,-0.98,2.81,3.66,1.77
47.6440,0.09,0.12,-0.98,3.05,3.72,2.08
47.6580,0.09,0.12,-0.98,3.05,3.54,1.40
47.6770,0.09,0.12,-0.98,3.05,3.78,1.16
47.6920,0.08,0.11,-0.99,2.93,3.85,0.85
47.7080,0.09,0.12,-0.98,3.11,3.85,0.49
47.7210,0.09,0.14,-0.98,2.93,3.91,0.18
47.7380,0.09,0.12,-0.99,3.05,3.36,0.73
47.7550,0.09,0.13,-0.98,3.23,4.15,-0.67
47.7700,0.09,0.13,-0.98,3.11,3.72,0.55
47.7860,0.09,0.14,-0.98,3.11,3.72,1.71
47.8010,0.09,0.13,-0.98,2.99,3.72,1.83
47.8160,0.09,0.12,-0.98,2.87,3.60,1.77
47.8310,0.09,0.12,-0.98,2.87,3.60,1.28
47.8450,0.09,0.12,-0.98,2.99,3.66,1.34
47.8600,0.09,0.12,-0.98,3.11,3.60,1.16
47.8760,0.08,0.11,-0.99,3.17,3.60,0.73
47.8910,0.08,0.11,-0.99,3.30,4.21,0.24
