Timestamp, AccX, AccY, AccZ, GyroX, GyroY, GyroZ
0.0110,0.08,0.13,-0.98,2.50,4.03,2.01
0.0260,0.08,0.13,-0.98,2.62,3.54,2.08
0.0350,0.08,0.13,-0.98,2.75,3.78,1.95
0.0510,0.08,0.13,-0.98,2.87,3.60,1.83
0.0670,0.08,0.13,-0.98,2.56,3.60,2.20
0.0850,0.08,0.13,-0.98,2.81,3.30,2.01
0.1000,0.08,0.13,-0.98,3.17,3.05,2.01
0.1160,0.08,0.13,-0.98,3.17,3.23,2.20
0.1180,0.08,0.13,-0.98,3.36,2.75,1.89
0.1340,0.08,0.13,-0.98,2.99,2.81,1.95
0.1510,0.08,0.12,-0.98,3.05,3.11,2.01
0.1670,0.08,0.13,-0.98,2.99,3.78,2.20
0.1840,0.08,0.13,-0.98,3.54,3.17,1.95
0.2010,0.08,0.13,-0.98,3.36,2.69,1.89
0.2170,0.08,0.13,-0.98,3.30,2.87,1.95
0.2340,0.08,0.13,-0.98,2.87,3.05,1.95
0.2510,0.08,0.13,-0.98,3.11,3.05,1.89
0.2650,0.08,0.13,-0.98,3.30,2.87,2.01
0.2810,0.08,0.13,-0.98,3.48,2.87,1.89
0.2950,0.08,0.13,-0.98,3.42,2.75,2.08
0.3100,0.08,0.13,-0.98,3.11,3.23,2.01
0.3180,0.08,0.13,-0.98,2.99,2.93,2.01
0.3340,0.08,0.12,-0.98,3.30,3.05,1.83
0.3510,0.08,0.13,-0.98,3.42,3.05,1.95
0.3680,0.08,0.13,-0.98,3.36,2.81,1.89
0.3850,0.08,0.13,-0.98,3.42,2.93,1.83
0.4010,0.08,0.13,-0.98,3.30,2.62,1.89
0.4160,0.08,0.13,-0.98,3.17,2.87,1.83
0.4330,0.08,0.13,-0.98,3.11,2.87,1.95
0.4340,0.08,0.13,-0.98,3.23,2.62,2.01
0.4650,0.08,0.13,-0.98,2.99,3.36,2.01
0.4810,0.08,0.12,-0.98,3.17,2.87,2.01
0.4970,0.08,0.13,-0.98,3.23,2.81,1.95
0.5130,0.08,0.13,-0.98,3.23,3.05,2.01
0.5180,0.08,0.13,-0.98,3.17,2.93,1.95
0.5440,0.08,0.13,-0.98,3.05,3.17,1.95
0.5590,0.08,0.13,-0.98,3.30,2.99,2.01
0.5730,0.08,0.12,-0.98,3.36,3.05,1.89
0.5840,0.08,0.13,-0.98,3.11,2.99,1.95
0.6010,0.08,0.13,-0.98,2.87,3.05,1.89
0.6190,0.08,0.13,-0.98,2.99,2.99,1.89
0.6340,0.08,0.13,-0.98,3.23,3.11,1.89
0.6340,0.08,0.13,-0.98,3.30,2.93,2.08
0.6640,0.08,0.13,-0.98,3.30,3.11,2.01
0.6800,0.08,0.13,-0.98,3.30,2.75,2.01
0.6950,0.08,0.13,-0.98,2.99,3.30,2.08
0.7100,0.08,0.13,-0.98,3.23,2.69,2.01
0.7170,0.08,0.12,-0.98,3.30,2.69,1.95
0.7330,0.08,0.13,-0.98,3.30,2.62,2.20
0.7540,0.08,0.13,-0.98,3.36,3.23,2.08
0.7710,0.08,0.13,-0.98,3.05,3.30,2.08
0.7860,0.08,0.13,-0.98,3.11,2.75,1.89
0.8020,0.08,0.13,-0.98,3.30,2.50,1.89
0.8170,0.08,0.13,-0.98,3.30,2.75,2.01
0.8330,0.08,0.13,-0.98,3.17,2.93,1.83
0.8490,0.08,0.13,-0.98,3.05,3.30,1.95
0.8660,0.08,0.13,-0.98,3.17,2.93,2.01
0.8820,0.08,0.13,-0.98,3.54,2.75,2.01
0.8980,0.08,0.13,-0.98,3.30,3.11,2.08
0.9130,0.08,0.13,-0.98,3.23,3.11,2.01
0.9280,0.08,0.13,-0.98,3.11,3.05,1.89
0.9430,0.08,0.13,-0.98,3.23,2.99,2.08
0.9550,0.08,0.12,-0.98,3.42,2.62,1.89
0.9700,0.08,0.13,-0.98,3.36,2.99,1.89
0.9870,0.08,0.13,-0.98,3.42,3.48,1.95
1.0030,0.08,0.13,-0.98,3.36,3.36,2.01
1.0170,0.08,0.13,-0.98,3.30,2.99,1.83
1.0320,0.08,0.13,-0.98,3.30,2.99,1.95
1.0480,0.08,0.13,-0.98,3.48,3.11,2.14
1.0630,0.08,0.13,-0.98,3.48,2.93,2.14
1.0710,0.08,0.13,-0.98,3.54,2.81,1.95
1.0870,0.08,0.13,-0.98,3.54,2.75,1.83
1.1050,0.08,0.13,-0.98,3.17,3.05,1.89
1.1220,0.08,0.13,-0.98,3.48,2.93,1.83
1.1390,0.08,0.13,-0.98,3.54,3.05,2.01
1.1540,0.08,0.13,-0.98,3.54,2.75,1.95
1.1710,0.08,0.13,-0.98,3.60,2.87,1.95
1.1770,0.08,0.13,-0.98,3.11,2.69,2.08
1.2010,0.08,0.13,-0.98,2.99,2.93,2.14
1.2100,0.08,0.13,-0.98,3.30,2.32,2.14
1.2260,0.08,0.13,-0.98,3.60,2.93,2.01
1.2460,0.08,0.13,-0.98,3.36,2.93,2.01
1.2630,0.08,0.13,-0.98,3.30,3.23,2.01
1.2800,0.07,0.12,-0.97,3.30,3.05,1.89
1.2810,0.08,0.13,-0.98,3.66,2.81,1.83
1.3000,0.08,0.13,-0.98,3.66,2.26,2.01
1.3140,0.08,0.13,-0.98,3.36,2.81,2.01
1.3300,0.08,0.13,-0.98,3.36,2.87,1.95
1.3460,0.08,0.13,-0.98,3.30,2.62,1.89
1.3730,0.08,0.13,-0.98,3.05,2.87,1.89
1.3840,0.08,0.13,-0.98,3.17,3.23,2.01
1.4010,0.08,0.13,-0.98,3.36,2.93,1.95
1.4180,0.08,0.13,-0.98,3.23,3.11,2.08
1.4340,0.08,0.13,-0.98,3.11,3.11,2.14
1.4510,0.08,0.13,-0.98,3.05,3.11,1.95
1.4670,0.08,0.13,-0.98,2.99,3.05,2.14
1.4840,0.08,0.13,-0.98,3.11,2.93,2.08
1.4990,0.08,0.13,-0.98,3.17,3.42,1.95
1.5140,0.08,0.13,-0.98,3.05,2.87,1.95
1.5170,0.08,0.14,-0.98,2.75,2.62,2.32
1.5350,0.08,0.12,-0.98,2.69,2.81,3.66
1.5530,0.08,0.12,-0.98,2.93,2.87,3.54
1.5740,0.08,0.13,-0.98,3.23,3.42,2.01
1.5840,0.08,0.13,-0.98,3.42,3.17,2.01
1.6000,0.08,0.13,-0.98,2.93,3.05,2.08
1.6200,0.08,0.13,-0.98,2.99,2.99,2.26
1.6260,0.08,0.13,-0.98,3.17,3.05,3.36
1.6500,0.08,0.12,-0.98,3.11,3.05,3.11
1.6650,0.08,0.13,-0.98,3.54,3.23,2.01
1.6760,0.08,0.13,-0.98,3.36,3.30,1.83
1.6930,0.08,0.13,-0.98,3.05,2.81,2.08
1.7090,0.08,0.13,-0.98,3.17,2.99,2.01
1.7260,0.08,0.13,-0.98,2.87,2.93,1.95
1.7430,0.08,0.13,-0.98,3.23,2.81,2.01
1.7590,0.08,0.13,-0.98,3.30,2.93,1.95
1.7750,0.08,0.13,-0.98,3.36,2.75,1.89
1.7920,0.08,0.13,-0.98,3.05,3.11,2.01
1.8070,0.08,0.13,-0.98,3.23,2.75,2.01
1.8230,0.08,0.13,-0.98,3.36,3.36,2.14
1.8390,0.08,0.13,-0.98,2.99,3.11,2.01
1.8550,0.08,0.13,-0.99,3.23,2.75,1.89
1.8700,0.08,0.13,-0.98,3.42,2.56,1.95
1.8850,0.08,0.13,-0.98,3.48,2.87,1.89
1.9010,0.08,0.13,-0.98,3.60,2.75,1.83
1.9100,0.08,0.13,-0.98,3.42,2.62,2.01
1.9250,0.08,0.13,-0.98,3.30,3.11,2.08
1.9470,0.08,0.13,-0.98,3.36,2.99,2.01
1.9630,0.08,0.13,-0.98,3.23,3.05,1.89
1.9790,0.08,0.13,-0.98,3.42,2.87,2.01
1.9950,0.08,0.13,-0.98,3.36,3.11,1.83
2.0110,0.08,0.13,-0.98,3.05,2.69,1.89
2.0260,0.08,0.13,-0.98,3.30,2.69,2.01
2.0410,0.08,0.13,-0.98,3.30,3.11,2.08
2.0560,0.08,0.13,-0.98,3.42,2.69,1.83
2.0710,0.08,0.13,-0.98,3.17,3.23,2.01
2.0810,0.08,0.13,-0.98,3.17,3.48,1.83
2.1000,0.08,0.13,-0.98,3.11,2.99,1.89
2.1140,0.08,0.13,-0.98,3.36,2.69,1.95
2.1310,0.08,0.13,-0.98,3.42,2.56,2.01
2.1470,0.08,0.13,-0.98,3.54,2.62,2.08
2.1630,0.08,0.13,-0.98,3.23,3.42,2.08
2.1790,0.08,0.13,-0.98,3.11,3.17,2.01
2.1940,0.08,0.13,-0.98,3.11,3.36,1.95
2.2100,0.08,0.13,-0.98,3.23,3.60,1.95
2.2270,0.08,0.13,-0.98,3.48,3.36,2.08
2.2420,0.07,0.13,-0.98,2.87,3.97,2.01
2.2570,0.10,0.15,-0.99,2.32,3.91,1.95
2.2720,0.07,0.13,-0.99,1.53,4.15,2.26
2.2810,0.08,0.14,-0.98,2.14,3.91,3.72
2.3000,0.09,0.11,-0.98,2.26,3.23,4.70
2.3140,0.08,0.12,-0.98,2.81,3.23,2.01
2.3310,0.08,0.12,-0.98,2.75,3.42,1.89
2.3470,0.08,0.13,-0.99,2.75,3.54,2.01
2.3640,0.06,0.12,-0.98,3.05,4.70,1.83
2.3800,0.08,0.12,-0.99,3.30,3.48,1.89
2.3960,0.08,0.13,-0.98,3.42,2.75,1.95
2.4130,0.08,0.13,-0.98,2.99,3.11,2.01
2.4290,0.08,0.13,-0.99,3.36,3.05,1.89
2.4450,0.08,0.13,-0.98,3.17,2.81,1.95
2.4470,0.08,0.12,-0.98,3.30,3.17,2.14
2.4630,0.08,0.13,-0.99,3.36,3.05,1.95
2.4910,0.08,0.13,-0.98,3.11,2.93,1.89
2.5020,0.08,0.13,-0.98,2.69,3.11,1.95
2.5190,0.08,0.13,-0.98,3.05,3.11,1.95
2.5350,0.08,0.12,-0.98,3.23,3.17,2.20
2.5520,0.08,0.13,-0.99,3.48,3.05,2.08
2.5680,0.08,0.13,-0.98,3.48,2.81,2.01
2.5840,0.08,0.13,-0.98,3.42,2.75,2.01
2.6010,0.08,0.13,-0.98,3.48,3.11,2.14
2.6170,0.08,0.13,-0.98,3.23,3.05,2.01
2.6330,0.08,0.13,-0.99,3.48,2.93,2.01
2.6500,0.08,0.13,-0.98,3.42,3.11,2.01
2.6660,0.08,0.13,-0.99,3.54,3.05,2.20
2.6810,0.08,0.13,-0.98,3.36,3.23,2.08
2.6980,0.08,0.12,-0.98,3.05,3.30,2.20
2.7020,0.08,0.13,-0.98,3.60,2.62,2.69
2.7180,0.08,0.13,-0.98,3.23,3.30,3.11
2.7410,0.08,0.13,-0.98,3.11,3.17,3.05
2.7570,0.08,0.12,-0.98,3.30,3.30,2.87
2.7740,0.08,0.13,-0.99,3.54,3.17,2.26
2.7910,0.08,0.13,-0.98,2.93,3.11,2.14
2.8070,0.08,0.14,-0.98,3.30,2.93,3.54
2.8230,0.08,0.12,-0.98,3.11,2.38,5.37
2.8380,0.08,0.12,-0.98,3.42,2.50,5.00
2.8530,0.08,0.12,-0.98,2.99,2.75,2.75
2.8690,0.08,0.14,-0.98,2.87,3.30,2.32
2.8840,0.08,0.13,-0.98,3.66,2.99,2.99
2.8990,0.08,0.13,-0.98,3.11,2.75,3.30
2.9150,0.08,0.12,-0.99,3.54,3.11,2.93
2.9300,0.08,0.12,-0.98,3.60,2.62,3.23
2.9400,0.08,0.12,-0.98,3.23,3.11,2.75
2.9580,0.08,0.13,-0.98,2.87,3.42,2.50
2.9740,0.08,0.13,-0.98,3.23,3.11,2.75
2.9900,0.08,0.13,-0.98,3.30,2.87,2.75
3.0070,0.08,0.13,-0.98,3.60,2.69,2.50
3.0240,0.08,0.13,-0.98,3.72,2.56,2.38
3.0390,0.08,0.12,-0.99,3.42,2.81,2.32
3.0550,0.08,0.13,-0.98,3.11,2.81,2.50
3.0570,0.08,0.12,-0.98,3.78,3.11,2.20
3.0860,0.08,0.13,-0.98,3.48,3.11,1.95
3.1010,0.08,0.13,-0.98,3.60,2.99,1.83
3.1160,0.08,0.13,-0.98,3.48,3.05,2.44
3.1280,0.08,0.13,-0.98,3.11,2.93,2.26
3.1450,0.08,0.13,-0.98,3.05,2.93,2.62
3.1610,0.08,0.13,-0.98,3.36,2.81,2.87
3.1780,0.08,0.13,-0.98,3.42,2.62,3.36
3.1930,0.08,0.13,-0.98,3.11,2.56,3.78
3.2080,0.08,0.13,-0.98,3.17,2.62,3.85
3.2110,0.08,0.12,-0.98,3.17,3.17,3.48
3.2270,0.07,0.12,-0.98,3.11,3.30,2.81
3.2500,0.08,0.13,-0.98,3.05,2.87,2.87
3.2670,0.08,0.13,-0.98,3.05,2.75,3.30
3.2840,0.08,0.13,-0.98,3.11,2.38,4.09
3.3000,0.08,0.12,-0.99,3.42,2.75,3.42
3.3170,0.08,0.13,-0.98,3.17,3.11,2.93
3.3170,0.08,0.13,-0.98,3.11,3.11,3.17
3.3350,0.08,0.13,-0.98,3.23,2.75,3.91
3.3630,0.08,0.13,-0.98,2.99,2.38,4.39
3.3680,0.08,0.14,-0.98,2.75,2.99,5.37
3.3830,0.09,0.14,-0.98,2.75,2.87,5.74
3.4060,0.08,0.12,-0.99,3.11,2.81,5.19
3.4220,0.07,0.12,-0.98,3.11,3.17,4.15
3.4380,0.07,0.12,-0.98,3.23,2.99,3.78
3.4540,0.08,0.12,-0.98,3.05,2.69,3.05
3.4700,0.08,0.12,-0.99,2.99,2.56,2.20
3.4850,0.08,0.13,-0.99,2.99,3.11,2.32
3.5000,0.09,0.14,-0.98,3.23,2.87,2.99
3.5040,0.08,0.13,-0.98,3.42,2.93,4.58
3.5320,0.08,0.12,-0.98,2.93,3.05,3.60
3.5430,0.08,0.13,-0.98,2.69,3.23,3.30
3.5590,0.08,0.13,-0.98,3.36,2.62,3.54
3.5760,0.08,0.12,-0.98,3.60,2.93,3.23
3.5930,0.08,0.13,-0.98,3.05,2.99,2.50
3.6090,0.08,0.14,-0.98,3.11,2.87,2.93
3.6250,0.08,0.14,-0.98,2.81,3.23,4.64
3.6410,0.08,0.13,-0.98,2.75,2.99,5.80
3.6560,0.08,0.12,-0.98,2.75,2.93,5.00
3.6600,0.08,0.11,-0.98,2.75,3.05,3.72
3.6750,0.08,0.12,-0.98,3.48,2.81,3.11
3.7000,0.08,0.13,-0.98,3.60,3.17,2.26
3.7140,0.08,0.13,-0.98,3.05,2.93,2.26
3.7310,0.08,0.14,-0.98,2.87,3.05,3.42
3.7470,0.08,0.13,-0.98,2.69,3.23,4.64
3.7640,0.08,0.12,-0.98,2.93,2.99,3.85
3.7800,0.08,0.12,-0.98,3.48,2.69,2.56
3.7970,0.08,0.13,-0.98,3.42,2.81,2.26
3.8130,0.08,0.14,-0.98,3.05,2.93,4.03
3.8290,0.08,0.12,-0.98,2.81,2.93,6.10
3.8440,0.08,0.12,-0.98,2.56,2.93,4.76
3.8600,0.07,0.12,-0.99,2.93,2.75,3.66
3.8750,0.08,0.13,-0.98,3.11,2.62,2.75
3.8920,0.08,0.13,-0.98,3.42,2.44,3.17
3.9010,0.08,0.12,-0.98,3.23,2.99,3.11
3.9130,0.08,0.12,-0.98,3.23,3.17,2.50
3.9360,0.08,0.13,-0.98,3.30,3.30,2.20
3.9530,0.08,0.14,-0.98,3.17,2.75,3.23
3.9680,0.08,0.13,-0.98,3.30,2.50,5.13
3.9830,0.08,0.13,-0.98,2.81,2.56,4.88
4.0000,0.08,0.13,-0.98,3.11,2.87,4.21
4.0160,0.07,0.12,-0.98,3.11,2.99,3.72
4.0310,0.08,0.12,-0.99,3.23,2.81,3.66
4.0470,0.08,0.13,-0.98,3.05,2.20,3.30
4.0630,0.08,0.13,-0.98,3.05,2.75,3.30
4.0790,0.08,0.12,-0.98,2.93,3.05,3.23
4.0850,0.08,0.13,-0.98,3.30,2.87,2.93
4.1000,0.08,0.14,-0.98,3.11,2.81,4.21
4.1230,0.08,0.13,-0.98,2.99,2.50,4.88
4.1390,0.08,0.12,-0.99,2.99,2.56,4.94
4.1550,0.07,0.12,-0.98,2.87,2.69,3.72
4.1700,0.08,0.13,-0.98,2.99,2.62,3.30
4.1740,0.08,0.13,-0.98,3.17,3.05,3.97
4.2010,0.08,0.12,-0.98,3.23,2.87,4.15
4.2120,0.08,0.12,-0.99,2.62,3.23,3.23
4.2300,0.08,0.13,-0.98,2.50,3.23,2.50
4.2450,0.08,0.13,-0.98,2.87,2.93,2.99
4.2460,0.08,0.14,-0.98,2.93,2.75,3.60
4.2640,0.08,0.14,-0.98,2.99,3.23,4.94
4.2800,0.08,0.12,-0.98,2.81,3.30,4.70
4.3010,0.08,0.13,-0.98,2.69,2.87,4.03
4.3130,0.08,0.13,-0.98,3.17,3.11,3.97
4.3390,0.08,0.12,-0.98,3.05,2.99,4.39
4.3540,0.08,0.12,-0.98,3.17,2.93,4.39
4.3630,0.08,0.12,-0.99,3.05,2.93,4.21
4.3800,0.08,0.13,-0.98,2.87,2.93,3.85
4.3960,0.08,0.12,-0.98,2.99,2.69,4.52
4.4120,0.08,0.12,-0.98,2.99,2.75,3.91
4.4310,0.08,0.14,-0.98,2.99,2.93,4.09
4.4460,0.08,0.14,-0.98,2.69,3.17,5.98
4.4610,0.08,0.12,-0.98,2.26,2.99,6.47
4.4660,0.08,0.11,-0.98,2.56,3.36,5.80
4.4820,0.08,0.11,-0.98,2.87,2.81,3.30
4.5050,0.08,0.13,-0.98,3.85,2.99,1.95
4.5220,0.08,0.13,-0.99,3.66,2.62,2.08
4.5370,0.08,0.13,-0.99,2.99,3.05,1.89
4.5520,0.08,0.13,-0.98,2.81,3.23,2.08
4.5560,0.08,0.14,-0.98,3.05,2.99,3.66
4.5720,0.08,0.11,-0.98,3.17,3.05,4.70
4.5930,0.08,0.12,-0.98,3.23,2.75,2.44
4.6090,0.08,0.12,-0.98,3.48,2.69,2.08
4.6270,0.08,0.13,-0.98,3.17,2.93,2.20
4.6440,0.08,0.15,-0.98,3.05,2.87,3.66
4.6600,0.08,0.13,-0.98,2.50,2.87,6.29
4.6750,0.08,0.12,-0.98,2.26,3.05,6.41
4.6910,0.08,0.11,-0.99,2.81,2.99,4.94
4.7070,0.08,0.11,-0.99,3.17,2.32,2.50
4.7240,0.08,0.13,-0.99,3.91,3.05,2.01
4.7410,0.08,0.13,-0.98,3.05,2.93,1.95
4.7560,0.08,0.12,-0.98,3.11,3.42,2.87
4.7720,0.08,0.12,-0.98,3.36,3.30,2.50
4.7870,0.08,0.12,-0.98,3.23,3.05,2.08
4.8020,0.08,0.13,-0.98,3.91,2.87,2.08
4.8090,0.08,0.13,-0.98,3.54,2.99,1.83
4.8290,0.08,0.13,-0.98,3.30,3.23,2.08
4.8460,0.08,0.13,-0.99,2.81,3.23,2.01
4.8620,0.07,0.15,-0.98,3.05,3.23,3.17
4.8790,0.08,0.13,-0.98,3.23,2.87,5.74
4.8950,0.08,0.12,-0.99,2.93,2.62,4.88
4.9110,0.08,0.12,-0.98,2.93,2.69,3.85
4.9130,0.08,0.14,-0.98,3.11,2.93,3.91
4.9420,0.08,0.13,-0.98,2.87,2.81,5.74
4.9580,0.08,0.12,-0.98,2.62,2.93,6.04
4.9730,0.08,0.12,-0.98,2.75,2.81,4.76
4.9900,0.07,0.13,-0.98,2.93,2.75,3.72
5.0020,0.08,0.13,-0.98,3.23,2.44,4.03
5.0120,0.08,0.13,-0.98,2.99,2.87,4.33
5.0280,0.08,0.11,-0.99,3.42,2.69,3.48
5.0500,0.08,0.11,-0.98,3.17,3.30,2.44
5.0650,0.08,0.13,-0.98,3.23,3.48,2.01
5.0810,0.07,0.14,-0.98,2.56,3.11,2.38
5.0970,0.08,0.14,-0.98,3.60,2.50,5.68
5.1120,0.08,0.11,-0.99,2.93,2.81,6.04
5.1270,0.08,0.11,-0.99,2.38,3.05,3.60
5.1420,0.07,0.12,-0.98,2.44,3.30,2.81
5.1560,0.08,0.12,-0.98,3.23,2.75,2.56
5.1720,0.08,0.13,-0.98,3.05,3.05,2.50
5.1830,0.08,0.13,-0.98,3.05,2.75,3.60
5.2020,0.08,0.12,-0.98,3.17,2.75,3.97
5.2170,0.08,0.13,-0.98,2.87,3.11,3.30
5.2330,0.08,0.12,-0.98,3.36,2.50,3.54
5.2490,0.08,0.11,-0.99,3.05,2.81,2.93
5.2650,0.08,0.13,-0.99,2.87,3.36,2.01
5.2810,0.08,0.14,-0.98,2.93,2.56,2.69
5.2980,0.08,0.13,-0.99,2.99,2.50,4.70
5.3130,0.08,0.12,-0.98,2.87,2.50,4.82
5.3160,0.08,0.12,-0.99,2.99,2.62,4.46
5.3320,0.08,0.11,-0.99,3.11,2.87,2.93
5.3590,0.08,0.13,-0.98,2.93,2.93,2.01
5.3700,0.08,0.13,-0.98,2.87,3.05,2.44
5.3860,0.08,0.14,-0.98,3.48,3.17,3.72
5.4020,0.08,0.13,-0.98,2.99,2.93,4.82
5.4210,0.07,0.12,-0.98,2.87,2.93,4.39
5.4360,0.08,0.12,-0.98,2.93,2.50,4.64
5.4410,0.08,0.13,-0.98,3.23,2.69,4.52
5.4570,0.08,0.14,-0.98,3.05,2.93,4.64
5.4790,0.08,0.12,-0.98,2.87,3.05,5.74
5.4970,0.08,0.11,-0.99,2.69,3.30,4.64
5.5130,0.08,0.12,-0.98,2.81,3.17,3.78
5.5290,0.08,0.11,-0.98,3.11,2.93,2.93
5.5450,0.08,0.13,-0.99,3.48,2.99,1.89
5.5470,0.08,0.13,-0.98,3.05,2.87,2.20
5.5620,0.08,0.12,-0.98,3.05,3.05,2.20
5.5800,0.08,0.12,-0.99,3.05,3.23,2.08
5.6020,0.08,0.13,-0.98,3.17,3.11,2.08
5.6130,0.08,0.13,-0.98,3.48,3.11,2.44
5.6290,0.08,0.13,-0.98,3.42,2.75,3.05
5.6460,0.08,0.13,-0.98,3.05,3.05,3.60
5.6630,0.08,0.15,-0.98,3.23,3.11,4.46
5.6880,0.08,0.12,-0.97,3.48,2.99,5.13
5.7020,0.07,0.12,-0.98,2.93,3.30,4.76
5.7130,0.08,0.12,-0.98,3.23,2.93,5.25
5.7300,0.07,0.11,-1.00,3.11,2.93,4.70
5.7480,0.07,0.11,-0.98,3.36,2.75,3.78
5.7630,0.07,0.12,-0.98,2.99,2.81,2.20
5.7790,0.08,0.11,-0.97,2.99,3.30,1.89
5.7800,0.07,0.14,-0.98,3.17,3.17,1.95
5.8020,0.08,0.14,-0.99,3.30,3.36,3.66
5.8130,0.08,0.13,-0.99,2.93,3.48,4.46
5.8300,0.08,0.12,-0.99,3.17,2.93,4.33
5.8460,0.08,0.11,-0.98,3.11,3.17,3.91
5.8630,0.07,0.12,-0.99,2.93,2.93,3.30
5.8890,0.07,0.13,-0.98,2.93,3.05,4.15
5.9020,0.07,0.13,-0.98,2.99,2.38,5.49
5.9130,0.07,0.14,-0.98,3.05,3.48,5.19
5.9350,0.07,0.12,-0.99,2.99,3.05,6.04
5.9370,0.06,0.10,-0.99,3.42,2.87,5.31
5.9650,0.06,0.09,-0.99,2.62,2.62,4.39
5.9810,0.08,0.11,-1.01,3.30,2.26,2.75
5.9970,0.07,0.13,-1.00,3.11,3.05,2.44
6.0040,0.08,0.13,-0.99,3.36,2.99,2.32
6.0200,0.08,0.14,-0.99,3.48,3.23,2.44
6.0420,0.09,0.14,-0.98,2.99,3.05,2.26
6.0590,0.08,0.14,-0.98,2.44,2.99,2.69
6.0750,0.10,0.15,-0.98,2.69,2.50,4.46
6.0910,0.10,0.14,-0.98,2.62,2.32,7.14
6.1080,0.08,0.14,-0.98,2.32,2.93,7.14
6.1240,0.07,0.12,-0.98,2.99,3.30,5.68
6.1390,0.07,0.12,-0.99,3.11,2.81,6.29
6.1540,0.07,0.13,-0.98,2.81,1.95,6.96
6.1700,0.07,0.12,-0.98,2.87,2.56,6.65
6.1850,0.08,0.10,-0.98,2.26,2.44,5.92
6.1990,0.07,0.11,-0.98,2.56,2.75,3.72
6.2140,0.07,0.13,-0.98,3.23,2.38,3.66
6.2290,0.08,0.13,-0.98,3.17,2.81,4.94
6.2420,0.08,0.13,-0.98,3.11,2.81,5.62
6.2590,0.08,0.12,-0.99,2.87,2.87,6.04
6.2750,0.08,0.13,-0.98,2.62,2.38,5.43
6.2910,0.07,0.11,-0.99,2.44,3.11,5.49
6.3060,0.07,0.12,-0.98,2.75,3.11,4.21
6.3220,0.07,0.12,-0.98,2.62,3.36,3.72
6.3370,0.08,0.12,-0.98,2.81,2.93,3.54
6.3520,0.08,0.15,-0.98,2.50,2.99,4.64
6.3680,0.08,0.13,-0.98,2.81,2.75,6.77
6.3830,0.08,0.12,-0.98,2.69,2.62,6.90
6.3990,0.07,0.10,-0.99,2.69,2.93,4.82
6.4140,0.07,0.10,-0.99,2.62,3.48,3.48
6.4260,0.07,0.13,-0.98,2.81,3.23,3.23
6.4420,0.07,0.14,-0.98,3.17,2.93,4.27
6.4600,0.08,0.13,-0.98,2.75,2.69,6.16
6.4750,0.08,0.12,-0.98,2.56,2.75,6.10
6.4910,0.07,0.11,-0.99,2.99,2.99,4.82
6.5080,0.07,0.11,-0.98,2.93,2.87,4.70
6.5240,0.07,0.12,-0.99,3.17,3.11,4.88
6.5390,0.08,0.13,-0.99,3.05,3.42,5.19
6.5540,0.08,0.12,-0.99,2.87,3.11,5.00
6.5690,0.07,0.12,-0.99,2.44,3.42,4.09
6.5850,0.07,0.12,-0.98,2.81,3.17,2.99
6.5990,0.07,0.12,-0.98,2.75,3.05,2.62
6.6150,0.07,0.13,-0.98,3.05,2.93,2.50
6.6260,0.07,0.12,-0.99,3.42,2.69,2.93
6.6420,0.08,0.12,-0.98,3.23,2.87,2.38
6.6590,0.08,0.13,-0.98,3.23,2.87,1.83
6.6760,0.08,0.14,-0.98,2.99,3.30,2.87
6.6920,0.08,0.14,-0.98,2.99,3.17,5.43
6.7090,0.08,0.13,-0.98,3.11,2.99,5.98
6.7240,0.08,0.13,-0.97,3.30,2.62,5.98
6.7400,0.07,0.10,-0.98,2.99,2.99,5.80
6.7550,0.07,0.12,-0.98,2.81,2.81,3.05
6.7700,0.07,0.12,-0.98,3.11,2.81,3.23
6.7760,0.07,0.12,-0.99,3.05,2.69,3.23
6.7920,0.08,0.13,-0.98,3.30,2.56,3.17
6.8140,0.07,0.11,-0.99,3.17,2.69,3.30
6.8310,0.08,0.13,-0.99,3.05,2.93,2.56
6.8470,0.08,0.14,-0.98,3.11,3.30,3.23
6.8620,0.07,0.13,-0.99,3.54,2.87,4.64
6.8770,0.07,0.12,-0.98,2.99,2.93,4.64
6.8920,0.07,0.11,-0.99,2.75,3.11,4.03
6.9040,0.07,0.12,-0.98,2.93,2.93,2.93
6.9140,0.07,0.13,-0.98,3.11,2.99,3.60
6.9300,0.08,0.14,-0.98,3.17,2.75,4.64
6.9510,0.08,0.12,-0.98,3.11,2.81,5.07
6.9670,0.08,0.12,-0.99,3.30,2.69,4.27
6.9830,0.07,0.12,-0.98,3.48,2.81,4.15
7.0000,0.08,0.14,-0.98,3.36,2.62,4.46
7.0170,0.08,0.12,-0.98,3.48,2.75,5.86
7.0330,0.07,0.12,-0.98,2.81,2.87,5.31
7.0340,0.08,0.12,-0.98,2.44,2.69,5.25
7.0640,0.07,0.12,-0.98,3.17,2.69,5.31
7.0800,0.08,0.14,-0.98,2.93,2.56,5.49
7.0830,0.08,0.13,-0.98,3.11,2.87,6.29
7.1130,0.08,0.13,-0.98,2.87,2.69,6.65
7.1270,0.07,0.12,-0.98,3.05,2.75,6.77
7.1380,0.07,0.12,-0.99,2.69,2.62,7.45
7.1540,0.07,0.14,-0.98,2.62,1.95,8.42
7.1710,0.08,0.12,-0.98,2.81,1.77,10.31
7.1870,0.07,0.11,-0.98,2.81,2.62,8.42
7.2020,0.07,0.10,-0.98,1.59,3.05,7.45
7.2180,0.06,0.10,-0.99,1.95,3.54,5.62
7.2320,0.07,0.11,-0.99,2.99,2.62,4.58
7.2480,0.07,0.13,-0.99,3.36,2.44,3.97
7.2630,0.08,0.13,-0.98,3.42,2.38,4.33
7.2770,0.08,0.13,-0.98,2.99,3.11,4.82
7.2930,0.08,0.13,-0.98,2.62,2.93,5.31
7.3090,0.07,0.11,-0.98,3.05,2.87,5.68
7.3210,0.07,0.11,-0.99,2.87,2.99,4.52
7.3370,0.07,0.12,-0.98,2.99,2.87,4.09
7.3540,0.08,0.12,-0.98,3.48,2.93,3.78
7.3600,0.08,0.13,-0.98,3.42,2.99,3.23
7.3830,0.08,0.15,-0.98,2.87,3.17,3.48
7.3990,0.08,0.15,-0.98,3.17,2.87,6.53
7.4100,0.08,0.14,-0.98,3.05,2.56,8.12
7.4270,0.07,0.11,-0.99,3.23,1.77,7.93
7.4430,0.06,0.10,-0.99,3.05,2.38,4.82
7.4590,0.07,0.12,-0.98,2.62,3.30,3.30
7.4740,0.07,0.13,-0.99,2.75,2.69,3.91
7.4900,0.08,0.14,-0.98,3.23,2.38,5.07
7.5050,0.07,0.13,-0.99,3.17,2.56,6.35
7.5190,0.07,0.12,-0.98,2.93,2.38,6.65
7.5340,0.07,0.10,-0.99,2.50,2.99,5.86
7.5490,0.07,0.11,-0.99,2.44,3.17,3.78
7.5600,0.07,0.13,-0.98,2.26,2.81,3.78
7.5760,0.08,0.14,-0.98,2.81,2.56,5.74
7.5930,0.08,0.13,-0.98,2.93,2.38,7.69
7.6090,0.07,0.12,-0.98,2.50,2.81,8.18
7.6240,0.07,0.12,-0.99,2.62,2.62,7.63
7.6400,0.07,0.12,-0.98,2.50,2.44,6.35
7.6540,0.07,0.12,-0.99,2.99,2.69,6.23
7.6700,0.07,0.11,-0.99,3.05,2.99,5.43
7.6850,0.07,0.11,-0.98,3.05,2.93,4.39
7.7010,0.06,0.14,-0.98,3.17,2.99,6.35
7.7160,0.08,0.14,-0.98,2.81,2.56,8.30
7.7270,0.08,0.12,-0.98,2.50,2.38,9.28
7.7430,0.07,0.11,-0.99,2.56,2.75,8.00
7.7600,0.07,0.11,-0.98,2.20,2.87,6.04
7.7770,0.07,0.13,-0.99,3.05,2.38,4.94
7.7930,0.07,0.14,-0.98,3.05,2.38,6.23
7.8080,0.08,0.13,-0.98,2.87,2.32,7.32
7.8240,0.08,0.13,-0.98,2.62,2.44,7.45
7.8390,0.07,0.11,-0.99,2.99,2.50,7.02
7.8430,0.07,0.12,-0.98,2.56,2.62,6.77
7.8590,0.07,0.13,-0.98,2.93,2.69,7.39
7.8860,0.07,0.11,-0.99,2.87,2.69,6.47
7.8970,0.07,0.11,-0.99,3.23,2.01,5.80
7.9130,0.07,0.11,-0.99,3.17,2.81,3.97
7.9300,0.07,0.13,-0.98,2.75,3.36,2.69
7.9460,0.08,0.14,-0.98,3.48,3.11,4.33
7.9620,0.08,0.13,-0.98,3.05,2.69,6.16
7.9780,0.07,0.12,-0.99,2.93,2.69,6.16
7.9800,0.07,0.10,-0.99,2.93,2.56,5.07
8.0080,0.07,0.12,-0.98,2.87,2.75,3.85
8.0140,0.07,0.14,-0.98,3.05,2.93,4.39
8.0300,0.08,0.14,-0.98,3.11,2.50,6.47
8.0470,0.07,0.12,-0.98,2.99,2.69,6.71
8.0630,0.07,0.11,-0.99,2.62,2.87,5.68
8.0810,0.07,0.12,-0.98,2.93,2.32,4.46
8.0960,0.07,0.13,-0.98,3.05,2.32,5.00
8.1120,0.07,0.13,-0.98,3.36,2.38,5.68
8.1140,0.07,0.13,-0.98,2.99,2.44,6.77
8.1430,0.07,0.13,-0.98,2.56,2.62,7.08
8.1590,0.07,0.13,-0.98,2.69,2.20,7.93
8.1750,0.07,0.11,-0.99,2.93,2.14,8.97
8.1910,0.07,0.11,-0.99,2.56,2.32,6.90
8.2070,0.07,0.12,-0.98,2.69,2.26,5.92
8.2240,0.07,0.13,-0.98,2.69,2.44,6.41
8.2390,0.07,0.14,-0.98,2.56,2.38,7.32
8.2500,0.07,0.12,-0.98,2.32,1.95,9.77
8.2690,0.07,0.11,-0.98,2.81,2.26,8.73
8.2800,0.07,0.11,-0.99,2.99,2.26,7.08
8.2960,0.07,0.11,-0.99,3.54,1.71,5.55
8.3150,0.08,0.12,-0.99,3.72,2.20,3.54
8.3300,0.07,0.13,-0.98,2.87,2.81,3.97
8.3460,0.07,0.12,-0.98,2.69,2.81,5.92
8.3620,0.08,0.11,-0.99,3.11,2.87,5.13
8.3780,0.08,0.11,-0.98,3.48,2.87,3.17
8.3930,0.07,0.12,-0.98,3.54,3.11,1.83
8.4070,0.07,0.13,-0.99,3.05,2.69,2.08
8.4230,0.06,0.14,-0.98,2.99,3.05,3.17
8.4330,0.07,0.12,-0.98,2.87,2.44,5.98
8.4490,0.07,0.12,-0.98,2.93,2.50,4.88
8.4670,0.07,0.11,-0.98,3.30,2.44,4.58
8.4840,0.08,0.12,-0.99,3.48,2.20,3.60
8.4990,0.06,0.14,-0.98,3.30,2.56,4.15
8.5150,0.07,0.13,-0.98,2.87,2.93,8.18
8.5310,0.08,0.11,-0.99,2.75,2.56,8.42
8.5460,0.08,0.10,-0.98,3.11,2.26,4.88
8.5600,0.08,0.12,-0.99,4.09,1.89,2.38
8.5760,0.07,0.13,-0.99,3.97,2.50,1.95
8.5910,0.07,0.13,-0.98,3.30,2.75,2.81
8.6060,0.08,0.11,-0.98,3.11,2.81,3.05
8.6190,0.07,0.12,-0.98,3.54,2.87,1.71
8.6360,0.07,0.12,-0.98,3.23,3.17,1.89
8.6520,0.07,0.12,-0.98,3.36,2.81,1.83
8.6670,0.07,0.12,-0.98,3.17,2.99,1.89
8.6830,0.07,0.13,-0.98,3.23,2.87,1.89
8.6990,0.07,0.12,-0.98,2.99,2.81,1.77
8.7160,0.07,0.13,-0.98,2.99,2.87,1.89
8.7320,0.07,0.14,-0.98,3.05,2.50,3.66
8.7480,0.08,0.11,-0.98,2.99,2.56,5.31
8.7630,0.07,0.11,-0.99,3.36,2.56,3.23
8.7700,0.07,0.12,-0.98,3.66,2.75,1.89
8.7920,0.07,0.13,-0.98,3.30,2.75,1.83
8.8070,0.07,0.12,-0.98,3.05,2.93,1.83
8.8180,0.07,0.12,-0.98,3.23,2.62,1.83
8.8330,0.07,0.12,-0.98,3.05,2.69,1.77
8.8530,0.07,0.12,-0.98,2.87,2.69,1.89
8.8690,0.07,0.14,-0.98,3.60,2.81,3.30
8.8860,0.08,0.13,-0.98,3.66,2.93,3.97
8.9020,0.07,0.11,-0.99,2.87,3.17,3.11
8.9180,0.07,0.12,-0.99,2.75,2.93,1.89
8.9200,0.07,0.12,-0.98,3.23,2.69,1.77
8.9490,0.08,0.13,-0.99,3.05,2.99,2.14
8.9530,0.08,0.14,-0.98,3.60,3.05,2.75
8.9680,0.07,0.12,-0.98,3.36,3.05,3.72
8.9960,0.07,0.12,-0.99,3.17,2.81,3.48
9.0070,0.07,0.11,-0.99,3.36,2.87,2.56
9.0240,0.07,0.12,-0.98,3.23,2.93,2.20
9.0400,0.07,0.14,-0.98,3.23,2.38,2.44
9.0570,0.07,0.14,-0.98,3.85,2.32,3.66
9.0720,0.08,0.13,-0.98,3.17,2.44,4.88
9.0890,0.07,0.14,-0.98,3.17,2.44,5.31
9.1040,0.07,0.11,-0.99,3.11,2.26,5.98
9.1190,0.07,0.09,-0.99,2.99,2.32,4.03
9.1240,0.07,0.12,-0.99,3.23,2.62,2.01
9.1400,0.07,0.13,-0.98,3.48,2.62,1.83
9.1620,0.07,0.12,-0.98,3.36,2.87,2.01
9.1800,0.08,0.13,-0.98,3.05,2.56,2.08
9.1950,0.07,0.13,-0.98,3.66,2.81,3.11
9.2110,0.07,0.13,-0.98,3.11,2.69,3.66
9.2260,0.07,0.11,-0.99,3.42,2.69,3.42
9.2290,0.07,0.12,-0.98,3.36,2.75,2.93
9.2570,0.07,0.12,-0.98,3.30,2.69,2.87
9.2720,0.08,0.13,-0.98,3.11,2.69,2.87
9.2870,0.08,0.13,-0.98,2.75,2.87,3.78
9.2960,0.07,0.12,-0.98,3.11,2.99,4.33
9.3130,0.07,0.12,-0.99,3.11,2.56,3.85
9.3290,0.07,0.11,-0.99,3.36,2.44,3.23
9.3470,0.07,0.12,-0.99,2.81,2.81,2.01
9.3470,0.08,0.14,-0.98,3.11,2.75,2.62
9.3770,0.08,0.14,-0.98,3.78,2.87,4.46
9.3910,0.08,0.13,-0.99,3.85,2.69,5.00
9.3950,0.08,0.12,-0.98,2.93,2.99,4.82
9.4220,0.07,0.11,-0.99,3.11,2.87,4.58
9.4290,0.07,0.12,-0.98,2.99,2.56,3.72
9.4470,0.07,0.12,-0.99,3.42,2.50,3.60
9.4630,0.07,0.13,-0.98,3.11,2.62,3.54
9.4800,0.07,0.13,-0.98,2.87,2.50,3.54
9.4950,0.08,0.14,-0.98,2.93,2.56,4.33
9.5130,0.07,0.13,-0.98,3.05,2.62,5.86
9.5290,0.07,0.11,-0.99,2.87,2.62,5.80
9.5290,0.07,0.11,-0.99,2.99,2.69,4.09
9.5460,0.07,0.11,-0.99,3.23,3.05,3.17
9.5640,0.07,0.12,-0.98,3.11,3.36,1.95
9.5790,0.08,0.14,-0.98,3.05,3.05,2.01
9.5950,0.08,0.14,-0.98,3.42,2.69,3.54
9.6170,0.08,0.13,-0.99,3.17,2.93,3.91
9.6330,0.07,0.12,-0.99,2.87,2.81,3.72
9.6500,0.07,0.12,-0.98,2.75,2.87,3.23
9.6650,0.07,0.12,-0.99,3.48,2.50,3.54
9.6810,0.07,0.12,-0.98,3.23,2.62,3.91
9.6960,0.07,0.11,-0.99,3.23,2.99,3.36
9.7120,0.07,0.11,-0.99,3.11,2.81,1.83
9.7160,0.07,0.12,-0.98,2.87,2.62,1.71
9.7430,0.07,0.13,-0.99,3.11,3.36,2.26
9.7580,0.08,0.14,-0.98,3.72,2.87,3.11
9.7670,0.07,0.12,-0.98,2.93,3.11,4.21
9.7850,0.07,0.11,-0.99,2.75,2.62,3.17
9.8000,0.07,0.12,-0.98,2.93,2.81,2.75
9.8160,0.07,0.13,-0.98,3.42,2.62,2.87
9.8340,0.07,0.13,-0.98,3.23,2.81,4.09
9.8490,0.08,0.14,-0.98,2.93,2.50,4.82
9.8640,0.08,0.13,-0.98,2.69,2.87,5.19
9.8810,0.07,0.12,-0.98,2.93,2.62,5.13
9.8960,0.07,0.12,-0.98,2.81,2.75,5.31
9.9090,0.07,0.12,-0.98,2.99,2.44,5.92
9.9160,0.07,0.11,-0.99,2.87,2.44,4.94
9.9420,0.07,0.12,-0.98,2.81,2.81,3.78
9.9540,0.07,0.13,-0.99,3.23,2.44,4.03
9.9700,0.07,0.13,-0.99,3.05,2.56,4.03
9.9860,0.07,0.13,-0.98,3.05,2.20,4.03
10.0020,0.07,0.12,-0.99,3.11,2.81,4.09
10.0180,0.07,0.11,-0.99,2.56,2.56,3.05
10.0340,0.07,0.12,-0.98,2.81,2.75,2.44
10.0500,0.07,0.13,-0.98,3.11,2.81,1.95
10.0650,0.07,0.12,-0.98,2.93,2.75,2.14
10.0810,0.07,0.12,-0.98,3.17,2.87,1.95
10.0970,0.07,0.12,-0.98,3.17,2.87,2.20
10.1120,0.07,0.14,-0.98,3.42,2.50,3.17
10.1270,0.07,0.12,-0.98,3.23,2.32,4.27
10.1420,0.07,0.12,-0.99,3.17,2.81,3.54
10.1530,0.07,0.13,-0.98,2.93,2.62,3.36
10.1700,0.07,0.12,-0.98,3.30,2.56,4.09
10.1860,0.07,0.13,-0.98,2.93,2.87,4.03
10.2030,0.07,0.13,-0.98,3.11,3.11,4.82
10.2190,0.07,0.12,-0.98,2.69,2.50,6.04
10.2350,0.07,0.12,-0.98,2.62,2.62,5.74
10.2400,0.07,0.11,-0.99,2.69,2.69,4.52
10.2650,0.07,0.11,-0.99,2.81,2.81,3.42
10.2800,0.07,0.13,-0.98,3.11,3.11,2.62
10.2950,0.08,0.13,-0.98,3.42,3.17,3.23
10.3090,0.07,0.13,-0.99,3.42,2.99,3.60
10.3240,0.07,0.12,-0.98,3.05,3.36,3.97
10.3400,0.07,0.11,-0.98,2.99,2.93,3.78
10.3570,0.07,0.12,-0.99,2.99,3.23,2.50
10.3730,0.07,0.13,-0.98,3.23,2.93,2.81
10.3890,0.08,0.14,-0.98,3.30,2.44,3.60
10.4040,0.07,0.14,-0.98,3.05,2.75,5.00
10.4190,0.08,0.13,-0.98,2.99,2.62,5.86
10.4340,0.07,0.10,-0.99,3.11,2.38,5.68
10.4500,0.07,0.11,-0.98,2.93,2.14,3.66
10.4650,0.07,0.12,-0.98,3.05,2.75,3.30
10.4800,0.07,0.13,-0.98,3.17,2.62,3.42
10.4960,0.07,0.13,-0.98,3.30,2.75,4.58
10.5090,0.08,0.13,-0.98,2.93,3.11,5.07
10.5230,0.07,0.11,-0.99,2.69,2.87,4.76
10.5400,0.07,0.12,-0.98,2.81,2.87,3.48
10.5560,0.07,0.12,-0.98,3.23,2.75,3.36
10.5720,0.07,0.12,-0.99,3.17,2.93,3.66
10.5860,0.07,0.11,-0.98,3.05,3.11,2.32
10.5950,0.07,0.13,-0.99,2.75,3.23,1.95
10.6120,0.07,0.14,-0.98,2.75,3.11,2.56
10.6290,0.08,0.14,-0.98,3.60,2.69,4.09
10.6450,0.07,0.13,-0.98,3.30,2.81,4.94
10.6630,0.07,0.13,-0.98,2.93,2.99,5.07
10.6790,0.07,0.11,-0.99,2.99,2.93,4.76
10.6790,0.07,0.11,-0.99,2.69,2.69,3.11
10.6950,0.07,0.13,-0.98,3.11,2.44,2.38
10.7120,0.07,0.15,-0.98,3.42,2.69,4.52
10.7400,0.08,0.14,-0.98,2.81,2.87,6.96
10.7450,0.07,0.13,-0.98,2.75,2.81,7.69
10.7630,0.07,0.11,-0.98,2.69,2.32,7.02
10.7790,0.07,0.11,-0.99,2.93,2.62,6.10
10.7960,0.07,0.13,-0.98,2.99,2.81,5.92
10.8120,0.07,0.13,-0.98,3.17,2.50,7.45
10.8290,0.07,0.12,-0.98,3.05,2.14,8.00
10.8460,0.07,0.11,-0.98,2.99,2.44,7.69
10.8610,0.07,0.11,-0.99,2.87,2.87,5.86
10.8620,0.07,0.13,-0.98,3.23,2.69,5.19
10.8790,0.07,0.12,-0.99,3.17,2.93,5.74
10.9060,0.07,0.12,-0.99,2.93,2.93,5.68
10.9120,0.07,0.13,-0.98,2.93,2.87,5.19
10.9300,0.07,0.11,-0.99,2.81,3.05,4.70
10.9460,0.07,0.11,-0.99,2.75,2.44,2.87
10.9630,0.07,0.12,-0.98,2.93,2.87,2.08
10.9790,0.07,0.13,-0.98,3.05,2.56,2.75
10.9950,0.07,0.14,-0.98,2.81,2.99,3.66
11.0120,0.07,0.13,-0.99,2.93,2.56,5.43
11.0270,0.07,0.11,-0.99,2.50,2.87,5.13
11.0440,0.07,0.12,-0.98,2.44,2.50,4.46
11.0450,0.07,0.13,-0.98,3.23,2.38,5.00
11.0620,0.07,0.13,-0.98,3.48,2.38,5.62
11.0790,0.08,0.13,-0.98,3.11,2.26,6.41
11.0950,0.07,0.11,-0.99,2.56,2.26,6.41
11.1130,0.07,0.11,-0.99,2.44,2.75,4.64
11.1290,0.07,0.11,-0.99,3.11,2.14,3.42
11.1460,0.07,0.12,-0.99,3.54,2.87,2.44
11.1630,0.07,0.13,-0.98,3.54,2.81,2.50
11.1780,0.07,0.13,-0.98,3.42,3.05,3.72
11.1950,0.07,0.13,-0.98,2.56,3.23,4.58
11.2120,0.07,0.12,-0.98,2.56,2.93,4.64
11.2130,0.07,0.12,-0.99,2.87,2.69,4.39
11.2290,0.07,0.12,-0.99,3.30,2.50,3.78
11.2470,0.07,0.13,-0.98,3.30,2.56,3.78
11.2620,0.07,0.14,-0.98,3.23,2.50,5.31
11.2850,0.07,0.12,-0.99,2.56,2.93,5.74
11.3020,0.07,0.11,-0.99,2.62,2.75,4.70
11.3190,0.07,0.12,-0.99,3.05,2.69,3.66
11.3340,0.07,0.12,-0.98,3.17,2.38,3.17
11.3510,0.07,0.13,-0.98,3.60,2.75,3.36
11.3670,0.07,0.14,-0.98,2.81,2.81,4.46
11.3830,0.07,0.12,-0.99,2.75,2.69,5.74
11.3990,0.07,0.11,-0.98,2.38,2.93,4.52
11.4150,0.07,0.12,-0.98,3.11,2.44,3.30
11.4310,0.07,0.13,-0.98,3.36,2.81,3.97
11.4460,0.07,0.12,-0.98,3.11,2.93,4.09
11.4520,0.07,0.12,-0.98,3.05,2.62,3.72
11.4680,0.07,0.13,-0.98,2.93,3.05,3.60
11.4880,0.07,0.13,-0.98,3.23,2.69,4.76
11.5040,0.07,0.13,-0.98,3.30,2.44,6.23
11.5210,0.07,0.12,-0.98,3.05,2.50,7.51
11.5370,0.07,0.10,-0.99,2.69,2.50,5.43
11.5530,0.07,0.10,-0.99,2.62,2.75,3.97
11.5680,0.07,0.12,-0.98,3.42,2.44,2.44
11.5840,0.07,0.13,-0.98,3.30,2.87,2.38
11.5880,0.08,0.15,-0.98,3.36,2.69,4.64
11.6110,0.07,0.12,-0.99,3.17,2.38,6.35
11.6310,0.07,0.11,-0.99,2.69,3.11,4.33
11.6420,0.07,0.12,-0.98,2.93,2.99,3.85
11.6580,0.07,0.12,-0.99,3.11,2.38,3.36
11.6750,0.07,0.12,-0.98,3.05,2.69,2.69
11.6910,0.07,0.14,-0.98,3.48,2.50,3.42
11.7080,0.07,0.12,-0.98,3.23,2.99,4.52
11.7240,0.07,0.11,-0.99,2.93,2.75,2.99
11.7400,0.07,0.11,-0.98,3.36,2.38,2.14
11.7560,0.07,0.12,-0.98,3.48,2.08,2.08
11.7720,0.07,0.12,-0.98,3.66,2.20,2.26
11.7870,0.07,0.12,-0.98,3.54,2.26,2.20
11.8020,0.07,0.13,-0.99,3.60,2.56,1.83
11.8110,0.07,0.13,-0.98,3.23,2.20,1.77
11.8240,0.07,0.13,-0.98,3.36,1.71,1.59
11.8470,0.07,0.12,-0.98,3.36,1.65,1.59
11.8630,0.07,0.12,-0.98,3.30,1.95,1.83
11.8790,0.07,0.13,-0.98,3.54,2.32,1.83
11.8950,0.07,0.13,-0.99,3.42,2.38,1.89
11.9100,0.07,0.12,-0.98,3.30,2.81,1.89
11.9260,0.08,0.12,-0.99,3.72,2.69,1.95
11.9310,0.06,0.12,-0.99,4.03,2.38,2.01
11.9470,0.08,0.12,-0.99,3.48,2.62,1.89
11.9700,0.07,0.13,-0.99,3.30,2.81,1.59
11.9860,0.07,0.12,-0.98,2.99,3.05,1.95
12.0020,0.07,0.12,-0.98,3.05,3.05,1.89
12.0180,0.07,0.13,-0.98,3.23,3.17,1.95
12.0210,0.07,0.12,-0.98,3.17,3.17,1.83
12.0370,0.07,0.12,-0.98,2.99,3.36,1.89
12.0590,0.07,0.13,-0.98,3.30,3.17,1.83
12.0770,0.06,0.12,-0.97,3.23,2.87,1.83
12.0940,0.08,0.12,-0.98,2.81,3.23,1.95
12.1100,0.08,0.12,-0.99,3.05,3.42,2.01
12.1260,0.07,0.12,-0.98,3.11,3.48,1.89
12.1410,0.07,0.13,-0.98,3.30,3.42,1.89
12.1580,0.07,0.12,-0.98,2.87,3.91,1.89
12.1730,0.07,0.12,-0.98,2.87,3.60,1.89
12.1760,0.07,0.13,-0.98,2.99,3.30,1.83
12.1920,0.07,0.12,-0.98,2.99,3.23,1.89
12.2210,0.07,0.13,-0.98,3.23,3.60,1.89
12.2320,0.07,0.12,-0.98,3.17,3.36,1.83
12.2490,0.07,0.13,-0.98,3.23,3.30,1.83
12.2660,0.07,0.12,-0.98,3.05,3.48,1.89
12.2820,0.07,0.13,-0.98,3.11,3.23,2.01
12.2980,0.07,0.12,-0.98,2.99,3.54,2.01
12.3120,0.07,0.12,-0.98,3.30,3.05,1.89
12.3290,0.07,0.12,-0.98,3.36,2.69,1.89
12.3450,0.07,0.12,-0.98,3.17,2.99,1.83
12.3610,0.07,0.12,-0.98,3.11,2.93,1.89
12.3770,0.07,0.12,-0.98,3.42,2.99,1.77
12.3930,0.07,0.12,-0.98,3.54,2.81,1.83
12.4080,0.07,0.12,-0.98,3.66,2.81,1.77
12.4230,0.07,0.13,-0.98,3.42,3.11,1.77
12.4390,0.07,0.12,-0.98,2.87,2.99,1.89
12.4490,0.07,0.12,-0.98,2.99,2.81,1.89
12.4670,0.07,0.13,-0.99,3.17,3.05,1.95
12.4830,0.07,0.13,-0.98,3.05,2.93,1.95
12.4980,0.07,0.12,-0.98,3.23,2.75,1.83
12.5130,0.07,0.13,-0.98,2.81,2.99,2.01
12.5280,0.07,0.12,-0.98,2.93,2.87,1.89
12.5440,0.07,0.13,-0.98,3.23,2.93,1.95
12.5500,0.07,0.12,-0.98,3.05,3.48,1.83
12.5750,0.07,0.13,-0.98,3.36,2.69,1.83
12.5830,0.07,0.12,-0.98,2.93,3.36,1.95
12.5990,0.07,0.12,-0.98,2.87,3.36,1.83
12.6150,0.07,0.12,-0.99,3.23,3.11,1.71
12.6380,0.07,0.12,-0.98,3.23,2.75,1.95
12.6530,0.07,0.12,-0.98,3.42,3.17,2.01
12.6680,0.07,0.13,-0.99,3.17,2.93,1.89
12.6840,0.07,0.12,-0.98,3.36,2.81,1.89
12.7000,0.07,0.12,-0.98,3.17,2.56,1.77
12.7150,0.07,0.12,-0.98,3.42,2.69,1.77
12.7220,0.07,0.12,-0.99,3.60,2.62,1.83
12.7380,0.08,0.12,-0.98,3.72,2.69,1.83
12.7600,0.11,0.14,-0.98,4.21,2.08,1.53
12.7750,0.09,0.13,-0.98,3.91,2.26,1.16
12.7900,0.09,0.13,-0.98,3.85,2.14,2.08
12.8060,0.07,0.13,-0.99,3.72,1.95,1.59
12.8210,0.07,0.12,-0.99,3.60,2.69,0.92
12.8350,0.06,0.12,-0.98,3.78,2.87,1.16
12.8420,0.07,0.12,-0.98,3.72,2.75,1.71
12.8650,0.07,0.13,-0.98,3.78,2.75,1.95
12.8810,0.08,0.13,-0.98,3.72,3.05,1.83
12.8920,0.07,0.13,-0.98,3.72,2.93,1.10
12.9080,0.07,0.13,-0.98,3.05,3.05,1.46
12.9250,0.07,0.13,-0.98,3.11,2.81,1.71
12.9420,0.07,0.13,-0.98,3.36,2.81,1.83
12.9590,0.07,0.13,-0.98,3.23,2.62,1.77
12.9600,0.08,0.13,-0.98,3.30,2.93,1.77
12.9900,0.08,0.13,-0.98,3.17,2.99,1.22
13.0050,0.07,0.13,-0.98,3.23,2.99,1.53
13.0200,0.07,0.12,-0.98,3.60,2.99,1.89
13.0350,0.08,0.12,-0.98,3.72,2.87,1.71
13.0510,0.07,0.13,-0.98,3.60,2.87,1.59
13.0660,0.08,0.13,-0.98,2.99,2.99,1.34
13.0810,0.08,0.13,-0.98,3.11,3.05,1.34
13.0920,0.08,0.12,-0.98,3.60,2.93,1.28
13.1090,0.08,0.13,-0.99,3.54,3.11,0.98
13.1250,0.08,0.13,-0.98,3.54,3.11,0.92
13.1420,0.07,0.13,-0.98,2.93,3.05,0.92
13.1580,0.07,0.12,-0.98,3.36,3.48,1.34
13.1740,0.08,0.13,-0.98,3.54,2.93,1.53
13.1910,0.08,0.13,-0.98,3.11,3.05,1.53
13.2070,0.08,0.13,-0.98,3.42,3.05,1.22
13.2220,0.07,0.13,-0.99,3.48,3.05,1.04
13.2370,0.08,0.13,-0.98,3.11,3.11,0.73
13.2520,0.07,0.12,-0.98,3.23,3.05,0.73
13.2660,0.07,0.13,-0.98,3.60,2.99,0.67
13.2820,0.07,0.13,-0.98,3.42,3.17,1.22
13.2920,0.08,0.13,-0.98,2.87,2.87,1.65
13.3090,0.08,0.13,-0.98,3.11,3.17,1.28
13.3250,0.08,0.13,-0.98,3.23,3.42,0.85
13.3420,0.08,0.13,-0.98,3.23,3.11,0.92
13.3570,0.07,0.13,-0.98,3.36,3.42,0.73
13.3730,0.08,0.13,-0.99,3.05,3.54,1.28
13.3870,0.08,0.13,-0.98,2.99,3.11,1.40
13.4020,0.07,0.13,-0.99,3.36,3.05,1.34
13.4130,0.08,0.13,-0.98,3.23,3.30,1.04
13.4250,0.08,0.12,-0.98,3.11,2.69,0.73
13.4470,0.07,0.13,-0.98,3.23,2.93,0.98
13.4620,0.06,0.13,-0.99,3.30,2.81,0.92
13.4780,0.08,0.13,-0.98,3.11,2.99,1.04
13.4940,0.08,0.13,-0.96,3.91,3.05,0.98
13.4960,0.07,0.13,-0.98,3.42,3.23,0.67
13.5130,0.07,0.13,-0.99,3.30,3.11,0.85
13.5360,0.08,0.12,-0.99,3.30,3.23,1.22
13.5520,0.07,0.12,-1.00,2.69,3.17,0.98
13.5680,0.08,0.12,-0.99,3.11,3.42,0.79
13.5840,0.07,0.13,-0.97,3.42,3.11,0.49
13.6010,0.07,0.13,-0.98,3.48,3.17,1.04
13.6180,0.09,0.13,-0.98,3.23,3.11,1.28
13.6340,0.07,0.12,-0.98,2.99,3.11,1.04
13.6500,0.07,0.13,-0.98,2.93,3.54,1.10
13.6650,0.08,0.13,-0.98,2.87,3.36,1.22
13.6810,0.08,0.13,-0.98,3.48,3.23,1.34
13.6860,0.07,0.13,-0.98,3.36,3.11,1.59
13.7110,0.08,0.13,-0.98,3.42,3.05,1.22
13.7270,0.08,0.12,-0.98,3.48,3.48,0.55
13.7430,0.07,0.13,-0.98,3.48,3.36,-0.24
13.7580,0.07,0.13,-0.98,3.48,3.05,-0.24
13.7680,0.07,0.13,-0.98,3.11,3.23,0.73
13.7840,0.07,0.13,-0.98,3.36,2.99,0.98
13.8010,0.07,0.13,-0.98,3.30,3.05,1.28
13.8170,0.07,0.13,-0.98,2.75,3.36,1.40
13.8320,0.08,0.13,-0.98,2.69,3.05,1.53
13.8480,0.08,0.12,-0.98,3.36,3.17,1.53
13.8650,0.08,0.13,-0.98,3.54,2.99,0.85
13.8820,0.08,0.13,-0.98,3.17,3.23,0.67
13.8970,0.08,0.13,-0.98,2.81,3.23,0.85
13.9120,0.07,0.13,-0.98,3.54,2.93,0.73
13.9180,0.07,0.13,-0.98,3.72,2.87,0.92
13.9340,0.07,0.13,-0.98,3.54,2.69,0.85
13.9560,0.07,0.13,-0.98,3.17,2.87,1.22
13.9710,0.08,0.13,-0.98,3.36,2.87,1.46
13.9860,0.08,0.12,-0.98,3.60,3.05,1.28
14.0020,0.08,0.13,-0.98,3.97,3.30,0.85
14.0170,0.08,0.13,-0.98,3.78,3.17,0.06
14.0330,0.07,0.13,-0.98,3.30,2.81,0.06
14.0480,0.08,0.12,-0.98,2.99,3.42,1.16
14.0620,0.08,0.12,-0.98,3.42,2.56,1.04
14.0730,0.08,0.13,-0.98,3.91,2.81,0.92
14.0890,0.07,0.13,-0.99,3.60,2.99,0.49
14.1050,0.08,0.13,-0.98,2.75,3.17,0.92
14.1220,0.08,0.13,-0.99,3.11,3.17,1.16
14.1390,0.09,0.13,-0.98,3.36,2.81,1.10
14.1550,0.07,0.13,-0.98,3.36,3.30,0.85
14.1710,0.08,0.13,-0.98,3.30,2.87,0.55
14.1850,0.08,0.13,-0.98,3.17,2.75,0.43
14.2000,0.08,0.13,-0.98,3.54,2.81,0.31
14.2160,0.08,0.13,-0.98,3.78,2.93,0.37
14.2300,0.08,0.13,-0.98,3.42,2.69,-0.31
14.2450,0.08,0.13,-0.98,3.54,2.87,-0.55
14.2560,0.07,0.13,-0.98,2.75,2.87,-0.24
14.2720,0.07,0.13,-0.98,3.05,2.99,0.49
14.2900,0.08,0.13,-0.98,3.54,3.05,0.55
14.3060,0.06,0.13,-0.99,3.66,2.99,0.73
14.3210,0.08,0.13,-0.98,3.30,2.99,0.98
14.3370,0.07,0.13,-0.98,3.23,3.30,1.16
14.3520,0.08,0.13,-0.98,3.36,3.11,1.16
14.3670,0.08,0.13,-0.98,3.36,3.48,0.85
14.3720,0.08,0.13,-0.98,3.36,3.48,0.37
14.3880,0.07,0.13,-0.98,3.23,3.30,0.61
14.4110,0.08,0.13,-0.98,3.11,3.23,0.85
14.4290,0.08,0.13,-0.98,3.42,3.23,1.22
14.4440,0.07,0.13,-0.98,3.54,3.36,1.16
14.4450,0.08,0.13,-0.98,3.30,3.05,0.73
14.4620,0.08,0.13,-0.98,3.11,2.81,0.79
14.4920,0.07,0.13,-0.98,3.23,3.30,1.04
14.5070,0.07,0.13,-0.99,3.17,3.30,1.28
14.5150,0.08,0.13,-0.99,3.54,3.48,1.16
14.5280,0.09,0.13,-0.98,3.48,3.11,0.92
14.5460,0.08,0.13,-0.98,3.48,3.48,0.55
14.5610,0.08,0.13,-0.99,3.54,3.30,0.31
14.5870,0.08,0.13,-0.98,3.30,3.23,0.43
14.5990,0.08,0.13,-0.98,3.42,3.23,0.85
14.6160,0.07,0.13,-0.98,3.17,3.11,0.98
14.6330,0.08,0.13,-0.98,3.54,3.23,0.98
14.6500,0.08,0.13,-0.98,3.60,2.99,0.79
14.6660,0.07,0.13,-0.98,3.48,3.30,0.92
14.6810,0.08,0.13,-0.98,3.42,3.23,1.28
14.6980,0.08,0.13,-0.98,3.42,3.23,1.53
14.7140,0.08,0.13,-0.98,3.42,3.17,1.10
14.7300,0.08,0.13,-0.98,3.23,3.05,0.61
14.7450,0.08,0.13,-0.98,3.48,3.11,0.37
14.7600,0.08,0.13,-0.98,3.36,2.99,0.79
14.7760,0.08,0.13,-0.98,3.30,2.99,1.16
14.7820,0.07,0.13,-0.98,3.60,2.75,1.40
14.7980,0.08,0.13,-0.98,3.23,2.99,0.92
14.8190,0.08,0.13,-0.98,2.93,3.48,0.98
14.8360,0.07,0.13,-0.98,3.05,3.11,0.61
14.8510,0.07,0.13,-0.98,3.60,3.05,0.79
14.8670,0.08,0.13,-0.98,3.54,3.11,1.10
14.8820,0.08,0.13,-0.98,3.42,3.42,1.04
14.8980,0.08,0.13,-0.98,3.17,2.81,1.53
14.9120,0.08,0.13,-0.98,2.87,2.81,2.14
14.9270,0.08,0.13,-0.98,2.99,2.50,2.08
14.9420,0.07,0.13,-0.99,3.30,2.75,2.01
14.9530,0.08,0.13,-0.98,3.23,3.23,1.46
14.9690,0.07,0.13,-0.99,3.42,3.05,1.16
14.9870,0.07,0.13,-0.98,3.42,3.05,1.46
15.0020,0.08,0.13,-0.98,3.42,2.99,1.71
15.0200,0.08,0.13,-0.98,3.42,2.75,1.53
15.0350,0.09,0.13,-0.99,3.72,2.75,1.46
15.0500,0.09,0.13,-0.99,3.60,3.17,0.92
15.0650,0.08,0.13,-0.98,3.30,2.87,0.61
15.0740,0.07,0.13,-0.98,3.72,2.99,0.85
15.0900,0.07,0.13,-0.98,3.66,3.05,1.22
15.1120,0.07,0.13,-0.99,3.54,2.93,1.34
15.1160,0.07,0.13,-0.98,3.48,3.17,1.46
15.1290,0.08,0.13,-0.99,3.11,3.17,1.34
15.1460,0.09,0.13,-0.99,3.05,3.30,1.59
15.1630,0.07,0.13,-0.99,3.48,3.36,1.34
15.1790,0.08,0.13,-0.98,4.21,2.93,1.16
15.1950,0.08,0.13,-0.99,4.15,2.75,0.79
15.2160,0.08,0.13,-0.98,3.17,3.23,1.04
15.2280,0.08,0.13,-0.98,3.23,3.05,1.40
15.2480,0.07,0.13,-0.98,3.54,3.23,1.77
15.2650,0.08,0.13,-0.98,3.85,2.99,1.71
15.2800,0.08,0.13,-0.98,3.30,2.87,1.59
15.2820,0.08,0.13,-0.98,2.99,3.36,1.53
15.3120,0.08,0.13,-0.98,3.30,2.81,1.53
15.3160,0.08,0.13,-0.99,3.42,2.81,1.65
15.3310,0.07,0.13,-0.98,3.60,3.05,1.10
15.3560,0.07,0.13,-0.98,3.17,3.11,1.22
15.3720,0.08,0.13,-0.98,2.93,2.87,1.28
15.3880,0.08,0.13,-0.98,2.81,3.36,1.28
15.4040,0.08,0.13,-0.98,2.99,2.87,1.46
15.4200,0.08,0.13,-0.99,3.66,2.93,1.59
15.4350,0.09,0.13,-0.99,3.48,2.62,1.53
15.4400,0.10,0.13,-0.98,3.66,3.11,0.85
15.4550,0.07,0.13,-0.98,3.78,3.11,0.79
15.4790,0.08,0.13,-0.98,2.87,3.54,1.04
15.4950,0.08,0.13,-0.98,2.93,3.30,1.46
15.5110,0.09,0.13,-0.98,3.60,2.69,1.59
15.5270,0.08,0.13,-0.98,3.72,2.93,1.28
15.5300,0.07,0.14,-0.98,2.62,3.48,1.16
15.5570,0.09,0.13,-0.98,3.23,3.17,1.28
15.5720,0.09,0.13,-0.99,3.36,2.75,1.65
15.5870,0.08,0.13,-0.98,3.85,3.30,1.46
15.6030,0.08,0.13,-0.98,3.54,3.54,0.37
15.6160,0.08,0.13,-0.99,3.48,3.42,-0.06
15.6300,0.07,0.14,-0.98,3.42,3.42,0.18
15.6460,0.07,0.13,-0.98,2.93,3.23,1.10
15.6630,0.08,0.13,-0.99,3.42,3.42,1.10
15.6790,0.07,0.13,-0.98,3.54,3.60,1.16
15.6960,0.08,0.13,-0.98,3.05,3.17,1.34
15.7120,0.09,0.13,-0.98,2.69,3.30,1.46
15.7280,0.08,0.13,-0.98,3.30,3.05,1.40
15.7440,0.08,0.13,-0.98,3.78,3.30,1.22
15.7600,0.08,0.13,-0.99,3.54,3.05,1.04
15.7760,0.08,0.13,-0.98,2.81,2.93,1.28
15.7790,0.08,0.13,-0.98,2.99,3.30,1.34
15.7950,0.08,0.13,-0.98,3.30,3.42,0.73
15.8220,0.08,0.13,-0.98,3.05,3.05,0.85
15.8360,0.08,0.13,-0.98,2.69,3.54,1.53
15.8520,0.08,0.13,-0.98,2.87,3.36,1.71
15.8560,0.08,0.13,-0.98,3.30,3.23,1.59
15.8720,0.08,0.14,-0.98,3.60,3.42,0.79
15.8950,0.08,0.13,-0.98,2.69,3.11,1.10
15.9110,0.08,0.13,-0.98,2.87,3.23,1.59
15.9270,0.07,0.12,-0.98,3.42,2.75,1.89
15.9430,0.08,0.13,-0.98,3.78,3.17,1.34
15.9440,0.08,0.13,-0.98,3.30,2.99,0.79
15.9740,0.07,0.13,-0.98,2.81,3.23,1.10
15.9910,0.08,0.13,-0.98,2.93,3.17,1.40
15.9930,0.09,0.13,-0.98,3.42,2.99,0.92
16.0160,0.08,0.13,-0.98,3.23,3.42,0.55
16.0310,0.08,0.13,-0.98,3.54,3.30,0.55
16.0480,0.08,0.13,-0.98,3.42,3.42,1.04
16.0650,0.07,0.13,-0.98,3.78,3.30,1.53
16.0820,0.07,0.13,-0.98,3.91,3.72,1.71
16.0980,0.08,0.13,-0.99,3.78,3.42,1.34
16.1140,0.09,0.13,-0.98,3.42,3.30,1.16
16.1160,0.07,0.13,-0.98,2.81,3.36,1.16
16.1450,0.08,0.13,-0.98,2.62,3.23,1.89
16.1610,0.08,0.13,-0.98,3.42,3.05,1.77
16.1650,0.09,0.13,-0.98,3.66,3.42,1.10
16.1800,0.09,0.14,-0.98,3.48,3.23,0.98
16.2080,0.08,0.13,-0.98,2.44,3.17,1.28
16.2200,0.07,0.13,-0.98,2.44,3.48,1.65
16.2370,0.07,0.12,-0.98,2.93,3.23,1.65
16.2530,0.08,0.13,-0.98,3.42,3.42,1.34
16.2690,0.08,0.13,-0.98,3.54,3.36,1.22
16.2850,0.07,0.14,-0.99,3.36,3.23,1.34
16.3000,0.09,0.13,-0.98,2.93,3.48,1.53
16.3140,0.08,0.13,-0.98,3.42,3.42,1.53
16.3310,0.09,0.11,-0.97,4.03,3.36,1.46
16.3370,0.07,0.13,-0.98,3.66,2.93,1.59
16.3530,0.08,0.14,-0.98,3.17,3.23,1.40
16.3750,0.09,0.13,-0.98,2.50,3.23,1.53
16.3920,0.07,0.13,-0.98,2.44,2.87,2.26
16.4090,0.07,0.13,-0.98,2.81,2.75,2.08
16.4250,0.07,0.12,-0.98,2.99,3.11,1.65
16.4400,0.08,0.13,-0.98,4.09,3.17,1.28
16.4570,0.08,0.13,-0.98,4.21,3.42,1.16
16.4730,0.09,0.13,-0.98,3.85,3.05,1.34
16.4890,0.07,0.13,-0.99,3.30,3.30,1.34
16.5040,0.08,0.13,-0.98,2.69,3.11,2.01
16.5200,0.08,0.13,-0.98,2.93,3.36,2.26
16.5350,0.09,0.13,-0.98,2.93,3.05,2.56
16.5500,0.06,0.12,-0.99,3.78,3.11,2.38
16.5640,0.07,0.13,-0.98,4.39,3.60,1.10
16.5760,0.08,0.14,-0.99,4.21,3.42,0.31
16.5920,0.08,0.13,-0.99,2.75,3.42,1.22
16.6080,0.08,0.13,-0.99,2.81,2.99,1.95
16.6280,0.09,0.12,-0.98,2.62,3.17,2.08
16.6310,0.09,0.12,-0.98,3.48,3.36,1.89
16.6480,0.08,0.13,-0.98,4.15,3.48,0.98
16.6760,0.08,0.13,-0.98,2.93,3.60,0.67
16.6810,0.08,0.13,-0.98,2.50,2.93,0.92
16.6960,0.07,0.13,-0.98,3.11,3.36,1.22
16.7230,0.07,0.13,-0.98,3.66,3.42,1.16
16.7340,0.09,0.14,-0.98,3.42,3.54,1.10
16.7510,0.09,0.14,-0.98,2.99,3.42,0.98
16.7670,0.09,0.13,-0.98,2.99,3.05,1.71
16.7840,0.07,0.13,-0.98,3.78,3.30,2.50
16.8000,0.07,0.13,-0.98,4.21,3.05,2.01
16.8160,0.08,0.13,-0.98,3.60,3.42,1.65
16.8310,0.08,0.14,-0.98,3.42,2.75,1.59
16.8470,0.09,0.14,-0.98,2.62,2.87,1.28
16.8630,0.09,0.13,-0.98,2.81,3.48,0.79
16.8690,0.07,0.13,-0.98,3.42,3.78,0.61
16.8950,0.06,0.13,-0.98,4.09,3.66,0.06
16.9100,0.08,0.13,-0.98,3.66,3.36,0.85
16.9240,0.08,0.13,-0.98,3.60,2.87,2.08
16.9350,0.07,0.12,-0.98,3.78,3.11,2.69
16.9510,0.07,0.13,-0.99,4.46,2.99,2.14
16.9680,0.09,0.13,-0.98,3.91,3.42,1.46
16.9840,0.08,0.13,-0.98,3.42,2.87,0.92
17.0000,0.07,0.13,-0.98,4.15,3.05,1.46
17.0020,0.08,0.14,-0.98,3.91,3.42,1.77
17.0310,0.10,0.14,-0.98,2.87,3.23,2.01
17.0350,0.09,0.14,-0.98,2.56,3.05,3.17
17.0510,0.07,0.13,-0.98,2.75,3.42,3.30
17.0780,0.07,0.13,-0.98,3.23,3.30,2.62
17.0890,0.07,0.13,-0.98,4.46,3.17,2.01
17.1060,0.07,0.14,-0.99,4.52,3.11,1.46
17.1230,0.10,0.14,-0.98,3.54,2.81,1.22
17.1400,0.10,0.15,-0.98,2.08,3.23,1.65
17.1570,0.08,0.14,-0.98,2.81,2.69,1.83
17.1720,0.06,0.13,-0.99,3.05,3.17,1.46
17.1880,0.06,0.13,-0.99,3.42,3.36,1.16
17.2050,0.08,0.13,-0.98,3.36,3.05,1.71
17.2190,0.08,0.13,-0.98,3.42,3.05,1.89
17.2350,0.08,0.13,-0.98,3.91,3.17,2.08
17.2500,0.08,0.13,-0.98,3.78,3.17,1.83
17.2560,0.10,0.14,-0.98,3.85,2.93,1.83
17.2720,0.08,0.13,-0.98,3.72,3.11,1.77
17.2930,0.07,0.13,-0.98,4.82,3.30,1.22
17.3090,0.08,0.14,-0.98,4.39,3.78,0.12
17.3260,0.10,0.14,-0.98,2.69,3.23,0.98
17.3440,0.09,0.12,-0.98,2.50,2.93,1.95
17.3600,0.08,0.13,-0.98,4.15,2.99,1.28
17.3760,0.07,0.13,-0.98,3.78,3.48,-15.08
17.3920,0.06,0.14,-0.98,3.91,3.66,-0.98
17.4080,0.09,0.13,-0.98,4.21,3.78,0.06
17.4240,0.09,0.14,-0.98,4.33,3.05,1.83
17.4400,0.07,0.14,-0.98,3.48,3.23,2.56
17.4560,0.06,0.14,-0.98,3.78,3.78,1.16
17.4720,0.08,0.14,-0.98,3.48,3.54,0.37
17.4880,0.07,0.13,-0.98,3.30,3.23,0.12
17.5020,0.06,0.14,-0.98,3.72,3.30,0.85
17.5170,0.08,0.14,-0.98,3.48,2.99,1.34
17.5260,0.10,0.12,-0.98,4.15,3.17,0.98
17.5420,0.08,0.14,-0.98,4.27,3.42,-1.59
17.5640,0.06,0.16,-0.98,3.23,3.66,-0.73
17.5810,0.07,0.13,-0.98,1.53,3.17,2.32
17.5980,0.08,0.13,-0.99,2.93,3.30,2.01
17.6140,0.08,0.14,-0.98,3.85,3.11,1.53
17.6300,0.08,0.14,-0.98,2.99,3.17,0.98
17.6460,0.08,0.14,-0.98,2.62,3.30,1.40
17.6610,0.08,0.13,-0.98,3.30,3.17,1.34
17.6770,0.08,0.14,-0.98,4.39,3.17,1.10
17.6930,0.08,0.14,-0.98,2.56,2.87,1.95
17.7080,0.08,0.13,-0.98,2.69,2.75,2.20
17.7240,0.08,0.13,-0.98,3.36,3.05,1.71
17.7380,0.08,0.14,-0.98,3.48,2.99,1.53
17.7540,0.08,0.14,-0.98,2.99,3.17,1.28
17.7650,0.08,0.13,-0.98,2.38,3.11,1.71
17.7810,0.07,0.14,-0.98,3.23,3.36,2.01
17.7980,0.07,0.14,-0.98,3.17,3.23,2.08
17.8140,0.08,0.14,-0.98,2.99,3.91,1.59
17.8290,0.08,0.13,-0.98,2.99,4.03,1.53
17.8460,0.07,0.14,-0.98,3.30,3.30,1.77
17.8620,0.08,0.13,-0.98,2.99,3.17,2.32
17.8640,0.07,0.14,-0.98,2.50,2.99,2.62
17.8800,0.07,0.13,-0.98,3.48,3.05,2.14
17.9030,0.08,0.14,-0.98,3.36,3.17,1.95
17.9200,0.08,0.14,-0.98,2.44,2.99,2.01
17.9360,0.09,0.13,-0.98,1.71,3.05,2.14
17.9520,0.08,0.13,-0.98,2.62,3.11,2.01
17.9680,0.08,0.14,-0.98,4.09,3.42,1.59
17.9710,0.06,0.14,-0.98,3.05,2.81,1.46
17.9860,0.08,0.13,-0.98,2.87,2.81,1.83
18.0020,0.08,0.13,-0.98,2.93,2.69,1.83
18.0240,0.08,0.14,-0.98,3.42,2.87,1.83
18.0410,0.08,0.14,-0.98,2.14,2.93,1.89
18.0580,0.08,0.13,-0.98,2.20,2.56,2.01
18.0740,0.08,0.13,-0.98,3.17,1.89,2.08
18.0910,0.10,0.14,-0.98,4.09,1.53,2.26
18.1070,0.07,0.13,-0.99,4.03,0.85,2.08
18.1240,0.08,0.14,-0.98,4.09,2.69,2.14
18.1400,0.08,0.13,-0.98,3.11,2.50,1.95
18.1560,0.08,0.13,-0.98,3.05,2.50,1.89
18.1720,0.08,0.13,-0.98,3.05,3.11,2.01
18.1880,0.08,0.13,-0.98,3.23,3.05,2.08
18.1910,0.08,0.13,-0.98,3.54,3.60,1.95
18.2170,0.08,0.14,-0.98,3.30,3.23,1.83
18.2290,0.08,0.13,-0.98,2.93,3.42,1.83
18.2470,0.08,0.13,-0.98,2.62,3.36,2.08
18.2620,0.08,0.13,-0.98,2.81,3.42,1.95
18.2790,0.08,0.13,-0.98,2.56,4.03,1.95
18.2950,0.08,0.14,-0.98,2.14,3.54,1.95
18.2970,0.08,0.13,-0.98,1.89,3.91,1.95
18.3260,0.08,0.14,-0.99,1.28,4.94,2.01
18.3440,0.09,0.14,-0.98,0.06,4.88,2.08
18.3600,0.08,0.13,-0.98,0.49,3.42,3.48
18.3750,0.07,0.12,-0.99,2.01,2.87,4.21
18.3890,0.06,0.12,-0.98,3.30,2.93,2.32
18.3950,0.08,0.13,-0.98,4.15,3.48,2.08
18.4170,0.08,0.13,-0.98,4.15,2.99,1.77
18.4350,0.09,0.13,-0.98,3.91,3.05,1.46
18.4510,0.08,0.14,-0.98,3.60,3.23,1.28
18.4670,0.08,0.13,-0.98,3.11,2.99,1.65
18.4830,0.08,0.13,-0.98,3.23,2.93,1.83
18.4990,0.08,0.13,-0.98,3.72,3.30,1.89
18.5140,0.08,0.13,-0.98,3.72,3.48,1.34
18.5310,0.07,0.14,-0.98,3.54,3.36,1.83
18.5470,0.08,0.13,-0.98,2.81,2.93,1.83
18.5640,0.08,0.13,-0.98,2.93,2.69,1.89
18.5790,0.08,0.13,-0.98,3.23,2.69,1.89
18.5950,0.08,0.13,-0.98,2.99,2.87,1.83
18.6110,0.08,0.13,-0.98,3.30,3.17,1.95
18.6260,0.08,0.13,-0.98,3.23,3.11,1.95
18.6410,0.08,0.13,-0.98,3.05,3.23,2.01
18.6510,0.08,0.13,-0.98,2.44,3.30,2.01
18.6680,0.08,0.13,-0.98,2.56,3.05,2.14
18.6850,0.08,0.13,-0.98,2.01,2.99,2.08
18.7000,0.08,0.13,-0.98,2.87,2.56,2.14
18.7160,0.08,0.13,-0.98,3.05,2.93,1.89
18.7330,0.08,0.13,-0.98,3.85,3.30,2.08
18.7490,0.08,0.13,-0.98,2.87,2.81,1.95
18.7640,0.08,0.13,-0.98,2.81,2.93,2.20
18.7810,0.08,0.13,-0.98,2.93,2.81,2.08
18.7970,0.08,0.13,-0.98,3.17,2.93,1.95
18.8130,0.08,0.13,-0.98,3.42,3.23,1.95
18.8290,0.08,0.13,-0.98,3.66,3.48,2.01
18.8450,0.08,0.13,-0.98,3.17,3.17,2.01
18.8600,0.08,0.13,-0.98,3.17,3.23,2.01
18.8750,0.08,0.13,-0.98,3.11,2.62,2.01
18.8900,0.08,0.13,-0.98,3.11,3.17,2.08
18.9010,0.08,0.13,-0.98,3.11,3.05,1.89
18.9180,0.08,0.13,-0.98,3.11,2.87,2.08
18.9340,0.08,0.13,-0.98,3.05,3.23,2.08
18.9500,0.08,0.13,-0.98,2.75,2.69,2.08
18.9670,0.08,0.13,-0.98,2.81,2.62,2.08
18.9830,0.08,0.13,-0.98,3.17,2.75,2.14
18.9990,0.08,0.13,-0.98,2.93,3.30,2.01
19.0140,0.08,0.13,-0.98,3.11,3.36,2.01
19.0310,0.08,0.13,-0.98,2.99,3.17,1.95
19.0480,0.08,0.13,-0.98,3.42,2.62,1.89
19.0640,0.08,0.13,-0.98,3.42,2.69,2.14
19.0820,0.08,0.13,-0.98,3.54,2.62,2.01
19.0980,0.08,0.13,-0.98,3.30,3.23,1.95
19.1140,0.08,0.13,-0.98,3.30,2.93,2.01
19.1190,0.08,0.12,-0.98,3.85,2.08,1.95
19.1450,0.05,0.13,-0.97,5.49,2.08,1.95
19.1630,0.08,0.13,-0.99,4.21,1.34,1.83
19.1790,0.08,0.13,-0.98,2.50,2.20,1.83
19.1850,0.08,0.13,-0.98,2.32,2.62,1.95
19.2010,0.08,0.13,-0.99,2.56,2.08,2.01
19.2240,0.08,0.13,-0.98,3.23,2.81,2.08
19.2400,0.08,0.13,-0.98,3.17,3.54,2.01
19.2560,0.08,0.13,-0.98,3.17,3.48,1.95
19.2710,0.08,0.13,-0.98,2.99,3.85,2.14
19.2870,0.08,0.13,-0.98,2.93,4.03,2.32
19.2920,0.08,0.13,-0.98,3.23,3.72,2.20
19.3180,0.08,0.13,-0.98,3.05,3.42,2.08
19.3300,0.08,0.13,-0.99,2.99,4.09,1.89
19.3470,0.08,0.13,-0.98,2.20,4.33,2.01
19.3650,0.07,0.13,-0.98,2.81,4.27,2.08
19.3810,0.08,0.13,-0.98,3.23,3.72,2.26
19.3960,0.08,0.13,-0.98,2.69,3.48,1.89
19.3980,0.08,0.13,-0.98,2.56,3.54,2.14
19.4290,0.08,0.13,-0.98,2.99,3.05,2.26
19.4310,0.08,0.13,-0.98,3.36,3.17,2.08
19.4610,0.08,0.13,-0.98,3.23,3.23,2.08
19.4760,0.08,0.13,-0.98,2.50,3.30,1.95
19.4930,0.08,0.12,-0.98,2.62,3.30,2.50
19.4970,0.08,0.13,-0.98,3.97,3.23,2.01
19.5180,0.08,0.13,-0.98,3.36,3.36,2.01
19.5350,0.08,0.13,-0.98,2.81,3.17,1.95
19.5510,0.08,0.13,-0.98,2.69,3.36,2.01
19.5680,0.08,0.13,-0.98,3.54,3.23,2.01
19.5850,0.08,0.13,-0.98,3.23,3.05,2.01
19.6010,0.08,0.13,-0.98,2.93,3.17,1.95
19.6160,0.08,0.13,-0.98,3.23,3.23,2.01
19.6330,0.08,0.13,-0.98,3.30,3.54,2.08
19.6490,0.08,0.13,-0.98,3.30,2.99,2.01
19.6640,0.08,0.13,-0.98,3.11,3.30,1.89
19.6810,0.08,0.13,-0.98,2.99,3.17,1.89
19.6950,0.08,0.13,-0.98,3.05,3.54,2.01
19.7110,0.08,0.13,-0.98,3.05,3.17,1.89
19.7270,0.08,0.13,-0.98,3.54,3.17,1.95
19.7420,0.08,0.13,-0.98,3.36,2.93,2.08
19.7570,0.08,0.13,-0.98,3.48,3.30,1.83
19.7680,0.08,0.13,-0.98,3.85,3.30,1.71
19.7840,0.08,0.13,-0.98,3.66,3.30,1.71
19.8000,0.08,0.13,-0.98,3.78,3.60,0.92
19.8200,0.07,0.13,-0.98,4.15,3.11,1.10
19.8350,0.08,0.13,-0.98,3.72,2.62,2.08
19.8510,0.08,0.13,-0.99,3.36,2.93,2.01
19.8670,0.08,0.13,-0.98,3.78,3.05,1.89
19.8830,0.09,0.12,-0.99,4.33,3.23,1.59
19.9000,0.08,0.13,-0.98,4.15,3.66,-1.28
19.9070,0.08,0.14,-0.98,4.27,3.23,-0.73
19.9220,0.08,0.13,-0.98,3.78,3.36,0.00
19.9460,0.08,0.13,-0.98,3.66,3.42,-0.24
19.9620,0.08,0.13,-0.98,3.72,3.23,-0.43
19.9790,0.08,0.13,-0.98,4.27,3.30,0.31
19.9940,0.08,0.13,-0.98,4.39,3.36,0.61
19.9960,0.08,0.14,-0.98,3.85,2.75,1.28
20.0270,0.08,0.13,-0.98,3.42,2.99,1.28
20.0430,0.08,0.13,-0.98,3.11,3.11,0.06
20.0590,0.08,0.13,-0.98,2.87,3.54,-0.18
20.0750,0.08,0.13,-0.98,4.03,3.11,0.12
20.0790,0.08,0.13,-0.98,4.82,3.36,0.43
20.0940,0.08,0.13,-0.98,4.46,3.42,0.98
20.1180,0.08,0.14,-0.98,3.42,3.66,1.10
20.1330,0.08,0.13,-0.98,2.87,3.23,1.83
20.1500,0.08,0.13,-0.98,3.17,3.60,1.83
20.1670,0.07,0.12,-0.98,2.81,3.36,0.92
20.1830,0.07,0.12,-0.98,3.66,3.66,-0.92
20.1980,0.08,0.13,-0.98,4.33,3.78,-1.46
20.2140,0.08,0.14,-0.98,4.33,3.42,-0.55
20.2190,0.08,0.13,-0.98,3.42,3.36,0.00
20.2470,0.08,0.13,-0.98,3.30,3.42,-0.49
20.2630,0.07,0.13,-0.98,4.15,3.42,-1.10
20.2790,0.07,0.13,-0.98,4.64,3.66,-2.50
20.2950,0.08,0.14,-0.98,4.94,3.66,-2.50
20.3110,0.08,0.14,-0.98,4.39,3.97,-2.38
20.3270,0.07,0.14,-0.98,3.23,4.03,-2.75
20.3430,0.08,0.14,-0.98,2.81,3.91,-2.87
20.3580,0.08,0.13,-0.98,4.03,4.03,-2.08
20.3730,0.08,0.13,-0.98,4.09,4.27,-2.26
20.3830,0.08,0.14,-0.98,4.03,3.66,-2.08
20.4000,0.07,0.14,-0.98,3.91,3.72,-1.71
20.4180,0.08,0.13,-0.98,3.54,3.85,-0.79
20.4320,0.07,0.13,-0.98,3.91,3.91,-1.34
20.4410,0.07,0.13,-0.98,3.72,4.03,-2.93
20.4640,0.08,0.15,-0.98,3.36,3.54,-1.89
20.4750,0.08,0.15,-0.98,3.36,3.11,-0.61
20.4920,0.07,0.12,-0.98,3.60,2.93,0.18
20.5080,0.08,0.13,-0.98,2.99,4.03,-2.75
20.5250,0.08,0.14,-0.98,3.36,3.85,-2.93
20.5410,0.08,0.13,-0.99,4.09,3.78,-2.44
20.5580,0.08,0.13,-0.98,3.97,4.52,-3.85
20.5740,0.08,0.14,-0.98,4.39,3.60,-3.05
20.5900,0.08,0.14,-0.98,4.39,3.42,-0.18
20.6060,0.08,0.13,-0.98,5.19,3.17,0.67
20.6220,0.07,0.14,-0.98,3.48,3.48,-0.55
20.6240,0.08,0.15,-0.98,2.44,2.99,-0.73
20.6400,0.08,0.14,-0.98,3.54,3.78,1.16
20.6640,0.07,0.13,-0.98,4.09,3.36,1.77
20.6820,0.07,0.12,-0.98,2.81,3.66,-0.24
20.6970,0.07,0.12,-0.99,2.50,4.03,-1.34
20.7140,0.07,0.12,-0.99,3.72,3.78,-2.93
20.7290,0.08,0.14,-0.98,3.60,3.66,-3.30
20.7460,0.09,0.16,-0.98,3.17,3.30,-0.79
20.7620,0.08,0.15,-0.98,3.91,3.30,-0.24
20.7660,0.08,0.14,-0.98,3.97,3.78,-1.65
20.7820,0.08,0.14,-0.98,3.54,3.42,-0.92
20.8060,0.08,0.13,-0.98,3.97,3.23,-0.43
20.8220,0.07,0.11,-0.99,4.76,3.97,-2.69
20.8390,0.08,0.13,-0.98,3.85,4.58,-5.43
20.8550,0.08,0.13,-0.98,4.33,4.64,-5.13
20.8570,0.08,0.15,-0.98,4.33,4.09,-2.99
20.8880,0.08,0.17,-0.98,3.30,3.42,-0.43
20.9040,0.08,0.14,-0.98,3.23,3.78,-1.16
20.9180,0.07,0.13,-0.99,2.38,3.72,-2.20
20.9330,0.07,0.13,-0.98,2.62,3.97,-2.44
20.9480,0.07,0.12,-0.98,3.97,3.60,-2.81
20.9550,0.08,0.13,-0.98,4.58,4.46,-4.09
20.9780,0.08,0.15,-0.98,4.27,4.33,-3.78
20.9890,0.08,0.15,-0.98,4.27,4.27,-2.26
21.0060,0.08,0.14,-0.98,4.15,4.33,-2.08
21.0210,0.08,0.15,-0.98,3.66,3.60,-1.22
21.0400,0.07,0.13,-0.98,4.70,3.60,-0.18
21.0560,0.07,0.14,-0.98,4.03,3.42,-1.65
21.0600,0.08,0.15,-0.98,3.66,3.60,0.18
21.0750,0.08,0.13,-0.98,3.11,3.42,0.31
21.1000,0.08,0.13,-0.99,2.87,3.66,-15.50
21.1160,0.08,0.14,-0.99,2.87,3.17,-1.46
21.1320,0.08,0.13,-0.98,4.33,3.97,-0.98
21.1470,0.08,0.12,-0.98,4.52,4.21,-2.50
21.1640,0.07,0.12,-0.99,3.60,4.27,-5.43
21.1800,0.08,0.15,-0.98,2.38,4.64,-5.92
21.1960,0.08,0.16,-0.98,2.93,3.91,-3.23
21.2120,0.08,0.17,-0.98,2.81,3.36,-1.04
21.2280,0.07,0.14,-0.98,3.17,3.36,2.50
21.2440,0.08,0.14,-0.98,3.11,3.11,1.95
21.2580,0.08,0.14,-0.98,2.93,2.99,1.89
21.2730,0.08,0.14,-0.98,3.97,3.30,1.95
21.2880,0.08,0.14,-0.98,3.78,3.42,1.89
21.3000,0.08,0.13,-0.98,3.60,2.99,1.34
21.3200,0.08,0.13,-0.98,3.78,3.78,0.00
21.3360,0.07,0.13,-0.99,5.19,3.91,-0.49
21.3510,0.08,0.14,-0.99,3.30,3.54,-2.14
21.3660,0.08,0.14,-0.98,2.50,3.91,-1.40
21.3820,0.08,0.15,-0.98,2.44,4.03,-0.79
21.3970,0.08,0.14,-0.98,3.91,3.66,0.06
21.4120,0.08,0.13,-0.98,4.52,4.15,-0.43
21.4230,0.07,0.12,-0.99,3.78,4.94,-4.88
21.4400,0.07,0.12,-0.99,3.72,4.58,-6.41
21.4560,0.08,0.15,-0.98,2.99,4.33,-4.70
21.4730,0.08,0.18,-0.97,3.23,3.85,-1.95
21.4900,0.08,0.17,-0.98,2.56,4.15,0.37
21.5060,0.07,0.14,-0.98,2.44,4.15,1.95
21.5230,0.07,0.13,-0.98,1.65,2.87,1.77
21.5400,0.08,0.13,-0.98,3.48,3.05,1.83
21.5550,0.07,0.12,-0.98,4.03,3.36,0.00
21.5710,0.07,0.13,-0.98,2.93,4.58,-4.88
21.5880,0.08,0.15,-0.98,4.33,3.60,-3.48
21.6020,0.08,0.15,-0.98,5.55,3.66,-0.12
21.6060,0.08,0.13,-0.98,3.78,3.66,-0.06
21.6220,0.08,0.12,-0.98,2.26,4.27,-3.66
21.6460,0.08,0.12,-0.98,2.08,4.39,-4.82
21.6640,0.08,0.13,-0.98,3.91,3.91,-4.46
21.6790,0.07,0.13,-0.98,4.88,4.03,-3.42
21.6960,0.08,0.16,-0.97,3.11,3.60,-2.38
21.6970,0.08,0.15,-0.97,3.17,2.99,0.55
21.7270,0.08,0.14,-0.98,3.85,3.36,0.31
21.7440,0.08,0.13,-0.98,3.42,3.54,-0.49
21.7600,0.08,0.12,-0.98,2.75,3.85,-3.48
21.7630,0.07,0.14,-0.98,2.81,4.09,-4.52
21.7790,0.08,0.13,-0.98,3.66,4.15,-3.30
21.8030,0.07,0.14,-0.98,4.15,4.21,-3.72
21.8200,0.08,0.16,-0.98,3.91,4.15,-1.10
21.8360,0.08,0.15,-0.98,4.09,3.23,2.44
21.8520,0.08,0.13,-0.98,3.66,3.54,2.69
21.8680,0.09,0.12,-0.98,3.91,3.36,-0.61
21.8840,0.07,0.14,-0.98,2.56,3.54,-3.05
21.9000,0.07,0.14,-0.99,2.50,3.85,-3.78
21.9160,0.07,0.14,-0.98,3.78,3.78,-2.20
21.9210,0.07,0.15,-0.98,4.03,3.66,-1.77
21.9470,0.08,0.16,-0.98,3.30,3.05,1.28
21.9530,0.08,0.13,-0.98,3.66,3.30,1.65
21.9690,0.08,0.13,-0.98,2.62,3.66,-1.40
21.9900,0.08,0.13,-0.98,2.81,3.85,-2.81
22.0070,0.07,0.14,-0.98,3.97,3.72,-2.44
22.0220,0.08,0.16,-0.98,3.60,3.30,0.12
22.0400,0.08,0.14,-0.98,1.83,3.30,2.38
22.0450,0.08,0.13,-0.98,2.01,3.48,2.20
22.0610,0.07,0.13,-0.99,3.30,3.42,1.40
22.0830,0.07,0.11,-0.99,3.54,3.66,-0.67
22.1000,0.07,0.12,-0.98,2.56,3.78,-4.88
22.1160,0.08,0.14,-0.98,3.48,3.54,-2.87
22.1320,0.09,0.14,-0.98,4.46,3.54,-0.31
22.1470,0.08,0.15,-0.98,3.66,4.46,-1.65
22.1640,0.08,0.15,-0.97,2.56,3.78,-1.53
22.1800,0.09,0.16,-0.98,2.87,3.30,1.59
22.1960,0.08,0.13,-0.98,2.87,3.30,2.08
22.2120,0.08,0.13,-0.99,4.15,3.23,1.89
22.2270,0.05,0.10,-1.00,3.91,3.60,-2.44
22.2420,0.07,0.12,-0.99,3.30,4.76,-6.77
22.2570,0.10,0.16,-0.98,3.05,3.17,-3.91
22.2720,0.09,0.16,-0.98,4.21,2.93,0.18
22.2830,0.09,0.16,-0.97,4.58,3.23,1.16
22.3000,0.08,0.15,-0.98,4.46,3.42,1.40
22.3160,0.08,0.14,-0.98,3.66,3.54,1.77
22.3330,0.08,0.14,-0.98,3.23,3.23,1.89
22.3350,0.08,0.13,-0.98,2.56,3.30,-0.12
22.3650,0.06,0.11,-0.99,2.38,3.78,-2.50
22.3800,0.06,0.11,-0.98,3.05,3.85,-4.88
22.3950,0.08,0.13,-0.98,3.23,3.54,-5.31
22.4120,0.08,0.14,-0.98,4.27,3.23,-2.14
22.4210,0.10,0.16,-0.98,4.21,2.81,0.06
22.4330,0.09,0.15,-0.98,3.78,3.36,0.18
22.4550,0.08,0.14,-0.98,3.78,4.27,-1.04
22.4710,0.08,0.13,-0.98,3.30,3.91,-1.89
22.4880,0.07,0.12,-0.99,3.60,3.91,-4.94
22.5040,0.07,0.12,-0.98,2.81,4.33,-6.10
22.5210,0.09,0.15,-0.98,3.54,3.72,-4.82
22.5370,0.09,0.16,-0.98,4.27,3.91,-2.81
22.5530,0.09,0.17,-0.98,3.42,3.97,-0.85
22.5680,0.08,0.15,-0.98,3.54,3.78,1.28
22.5840,0.08,0.13,-0.98,3.23,3.60,0.79
22.5870,0.08,0.12,-0.99,2.81,3.42,-0.31
22.6030,0.07,0.11,-0.99,3.66,3.85,-3.91
22.6300,0.07,0.11,-0.98,4.09,4.27,-6.65
22.6410,0.08,0.14,-0.98,3.23,4.33,-5.68
22.6580,0.09,0.17,-0.98,3.72,4.15,-2.14
22.6750,0.09,0.17,-0.97,3.60,3.72,-1.22
22.6910,0.09,0.14,-0.98,3.66,4.09,-1.22
22.7080,0.08,0.13,-0.98,2.01,4.21,-3.60
22.7240,0.07,0.12,-0.98,3.36,4.03,-3.72
22.7400,0.06,0.10,-0.99,4.46,4.27,-7.39
22.7420,0.08,0.13,-0.98,2.99,5.00,-10.25
22.7580,0.09,0.17,-0.98,3.17,4.39,-5.62
22.7810,0.09,0.18,-0.97,3.91,3.60,-0.12
22.7970,0.08,0.16,-0.99,2.69,4.27,1.71
22.8140,0.07,0.14,-0.98,2.44,3.91,0.43
22.8310,0.08,0.13,-0.98,2.87,3.54,0.55
22.8470,0.07,0.11,-0.99,4.27,3.54,-2.56
22.8630,0.06,0.12,-0.99,3.91,4.33,-6.41
22.8810,0.08,0.15,-0.98,3.60,4.27,-4.58
22.8960,0.09,0.17,-0.98,3.72,3.97,-1.34
22.8970,0.09,0.17,-0.97,3.85,3.54,1.65
22.9270,0.09,0.12,-0.99,3.66,4.03,1.46
22.9430,0.07,0.13,-0.98,2.81,4.03,-3.48
22.9600,0.08,0.15,-0.98,3.78,3.72,-1.10
22.9760,0.08,0.12,-0.98,4.03,3.78,0.43
22.9910,0.07,0.11,-0.98,2.87,4.39,-3.72
22.9980,0.07,0.13,-0.98,3.60,4.64,-4.82
23.0140,0.08,0.15,-0.98,3.85,4.09,-3.30
23.0320,0.09,0.14,-0.98,3.60,3.78,-2.26
23.0470,0.08,0.15,-0.98,2.93,4.03,-2.32
23.0630,0.08,0.15,-0.98,3.17,3.42,0.85
23.0810,0.08,0.13,-0.99,3.42,3.54,2.01
23.0960,0.08,0.10,-0.99,4.27,3.30,1.28
23.1130,0.07,0.12,-0.99,3.60,3.60,-2.38
23.1280,0.07,0.12,-0.99,3.85,4.39,-3.54
23.1440,0.07,0.12,-0.98,3.48,4.21,-3.85
23.1470,0.09,0.13,-0.97,3.60,4.15,-3.85
23.1760,0.07,0.14,-0.99,4.52,4.39,-6.04
23.1920,0.08,0.16,-0.98,2.99,4.33,-5.13
23.1970,0.09,0.17,-0.97,2.50,3.85,-1.22
23.2240,0.08,0.16,-0.98,2.99,3.05,2.32
23.2310,0.08,0.14,-0.98,3.11,3.60,1.95
23.2540,0.08,0.13,-0.98,2.99,3.66,1.83
23.2650,0.08,0.13,-0.99,3.30,3.42,-0.43
23.2810,0.07,0.13,-0.98,2.99,3.66,-2.56
23.2980,0.07,0.15,-0.98,3.30,3.36,-1.22
23.3130,0.08,0.15,-0.98,3.72,3.17,-0.43
23.3290,0.08,0.13,-0.98,3.85,3.72,0.06
23.3460,0.08,0.14,-0.98,3.42,3.78,-0.98
23.3610,0.08,0.13,-0.98,3.91,3.54,0.49
23.3770,0.07,0.12,-0.98,4.52,3.66,0.06
23.3930,0.07,0.12,-0.99,3.11,4.15,-2.56
23.4090,0.07,0.13,-0.99,2.87,4.15,-3.42
23.4230,0.08,0.14,-0.98,3.05,3.91,-2.93
23.4400,0.08,0.14,-0.98,3.85,3.60,-2.20
23.4550,0.08,0.14,-0.98,3.54,3.85,-1.40
23.4650,0.07,0.12,-0.99,4.03,4.27,-1.04
23.4800,0.07,0.13,-0.99,3.36,3.97,-4.03
23.4970,0.07,0.15,-0.98,3.05,3.97,-4.46
23.5150,0.08,0.16,-0.97,2.50,3.91,-2.56
23.5300,0.09,0.16,-0.98,3.05,3.85,-1.83
23.5470,0.08,0.14,-0.98,3.42,3.36,0.85
23.5630,0.07,0.13,-0.99,3.30,3.54,0.12
23.5800,0.07,0.12,-0.98,3.85,3.72,-2.26
23.5810,0.07,0.12,-0.98,4.76,4.03,-3.54
23.5970,0.07,0.11,-0.99,4.09,4.27,-5.37
23.6270,0.07,0.12,-0.98,3.23,4.82,-7.26
23.6440,0.08,0.14,-0.98,3.48,4.70,-5.98
23.6600,0.09,0.17,-0.98,3.54,4.03,-4.27
23.6760,0.09,0.17,-0.97,3.11,3.60,0.79
23.6920,0.08,0.13,-0.99,3.54,3.48,1.46
23.6980,0.08,0.12,-0.98,2.62,3.54,0.43
23.7130,0.07,0.10,-0.99,3.36,4.03,-3.60
23.7310,0.05,0.10,-0.88,2.87,4.82,-6.96
23.7530,0.12,0.18,-1.06,8.18,5.55,-5.92
23.7640,0.09,0.14,-0.97,3.85,5.37,-6.41
23.7810,0.08,0.13,-0.99,3.60,4.70,-5.25
23.7960,0.07,0.15,-0.98,2.62,5.00,-6.41
23.8140,0.08,0.18,-0.97,2.01,3.91,-2.87
23.8300,0.08,0.13,-0.98,3.97,3.17,1.46
23.8470,0.11,0.11,-1.02,7.39,3.66,-1.40
23.8630,0.08,0.08,-0.99,6.04,5.68,-12.51
23.8790,0.06,0.12,-0.99,4.58,6.10,-14.71
23.8810,0.08,0.17,-0.97,1.89,5.43,-10.38
23.9100,0.08,0.18,-1.00,6.53,4.21,-4.70
23.9270,0.08,0.17,-0.98,3.97,2.99,2.20
23.9310,0.08,0.13,-0.99,1.28,3.72,2.08
23.9470,0.08,0.13,-0.99,3.17,3.85,1.83
23.9690,0.07,0.10,-0.97,3.11,3.66,-3.78
23.9860,0.08,0.12,-0.99,5.68,4.27,-7.69
24.0020,0.06,0.14,-0.97,3.48,4.88,-8.12
24.0190,0.09,0.17,-0.98,3.91,3.11,-2.50
24.0350,0.08,0.15,-0.99,4.46,2.99,1.10
24.0510,0.08,0.13,-0.98,3.23,3.66,1.10
24.0670,0.07,0.14,-0.98,2.87,3.91,1.34
24.0690,0.08,0.13,-0.99,3.17,3.11,0.00
24.0850,0.08,0.12,-0.99,2.44,3.72,-1.34
24.1080,0.07,0.12,-0.99,2.75,3.91,-4.09
24.1250,0.08,0.14,-0.99,3.97,3.85,-4.21
24.1410,0.08,0.13,-0.99,3.97,4.03,-2.20
24.1570,0.09,0.15,-0.98,2.26,3.78,-3.66
24.1740,0.08,0.15,-0.97,3.17,4.64,-2.20
24.1910,0.07,0.14,-0.98,3.42,3.97,-0.92
24.2070,0.08,0.14,-0.98,2.99,3.91,-0.55
24.2230,0.08,0.13,-0.99,3.36,3.72,-1.10
24.2400,0.08,0.13,-0.98,2.69,4.15,-2.44
24.2560,0.07,0.12,-0.99,3.30,4.15,-3.48
24.2720,0.07,0.14,-0.98,2.81,4.70,-4.15
24.2750,0.09,0.14,-0.98,2.26,4.03,-2.38
24.2900,0.08,0.13,-0.99,3.05,4.39,-3.36
24.3190,0.08,0.13,-0.97,3.11,4.27,-4.39
24.3300,0.08,0.14,-1.00,5.62,3.78,-1.83
24.3460,0.08,0.11,-0.97,4.33,3.60,-1.16
24.3640,0.07,0.14,-0.99,3.66,3.97,-3.48
24.3800,0.08,0.15,-0.98,2.38,4.64,-2.62
24.3960,0.08,0.13,-0.98,3.05,3.85,-2.26
24.3970,0.09,0.14,-0.97,1.89,3.85,-1.95
24.4280,0.08,0.13,-0.99,3.23,3.66,-0.43
24.4300,0.08,0.11,-0.95,3.42,3.72,-1.89
24.4610,0.09,0.13,-1.02,7.08,3.72,-5.31
24.4630,0.06,0.11,-0.98,3.17,5.00,-8.42
24.4920,0.08,0.14,-0.97,3.05,4.46,-7.20
24.5080,0.08,0.18,-0.97,3.36,3.60,-3.66
24.5240,0.07,0.14,-0.98,3.85,3.36,2.56
24.5300,0.08,0.14,-0.99,3.11,3.72,2.20
24.5540,0.08,0.13,-0.99,3.66,3.66,1.59
24.5630,0.08,0.11,-0.99,2.69,3.54,-2.99
24.5790,0.05,0.12,-0.99,2.44,3.85,-4.46
24.6010,0.08,0.13,-0.98,2.38,3.78,-4.46
24.6030,0.10,0.13,-0.95,4.64,4.09,-3.91
24.6320,0.06,0.14,-0.97,4.70,4.76,-3.72
24.6470,0.08,0.17,-0.99,4.03,3.48,1.22
24.6630,0.08,0.13,-0.99,2.75,3.42,2.20
24.6790,0.08,0.13,-0.98,3.23,3.17,1.95
24.6950,0.08,0.13,-0.98,3.72,3.05,1.89
24.7100,0.07,0.09,-0.99,3.72,3.11,-1.59
24.7240,0.05,0.11,-0.98,2.32,4.76,-7.08
24.7350,0.08,0.14,-0.97,2.50,4.76,-6.59
24.7510,0.10,0.18,-0.97,3.36,3.85,-2.62
24.7690,0.10,0.18,-0.98,3.42,3.66,-0.67
24.7850,0.08,0.13,-0.98,2.56,4.09,1.83
24.8020,0.07,0.10,-0.99,1.59,3.97,-0.31
24.8180,0.06,0.11,-0.99,3.30,3.91,-3.60
24.8330,0.05,0.09,-0.99,2.93,4.39,-5.74
24.8480,0.08,0.14,-0.99,2.56,4.52,-7.75
24.8620,0.09,0.15,-0.97,2.14,4.33,-4.64
24.8770,0.10,0.18,-0.97,2.87,4.33,-2.01
24.8890,0.08,0.14,-0.99,3.60,3.72,0.43
24.9050,0.07,0.12,-0.98,1.77,4.21,-1.10
24.9210,0.08,0.12,-0.98,2.69,3.60,-0.06
24.9380,0.08,0.11,-0.98,2.99,3.05,-0.85
24.9550,0.07,0.11,-0.99,2.93,2.99,-1.40
24.9710,0.08,0.11,-0.98,2.93,4.03,-3.23
24.9860,0.08,0.14,-1.03,7.87,4.27,-5.68
25.0010,0.07,0.14,-0.98,2.38,4.64,-3.97
25.0160,0.08,0.15,-1.00,4.52,4.09,-4.33
25.0310,0.07,0.13,-0.98,4.21,4.46,-4.15
25.0470,0.07,0.16,-0.98,4.09,4.09,-3.48
25.0620,0.07,0.15,-0.99,3.66,3.85,-0.55
25.0770,0.08,0.10,-0.99,2.81,3.60,-0.92
25.0890,0.05,0.09,-0.99,1.04,5.07,-6.65
25.1050,0.06,0.11,-0.97,0.43,5.00,-8.30
25.1210,0.07,0.12,-0.98,2.62,4.82,-7.26
25.1390,0.08,0.13,-0.99,3.72,3.97,-6.53
25.1550,0.08,0.12,-0.97,2.87,3.91,-5.19
25.1710,0.07,0.12,-1.00,5.98,4.33,-6.35
25.1870,0.08,0.14,-0.98,2.38,4.88,-6.77
25.2030,0.08,0.17,-0.97,2.56,4.64,-3.91
25.2180,0.08,0.11,-0.99,3.60,4.27,-2.01
25.2330,0.08,0.10,-0.99,3.17,3.91,-5.86
25.2490,0.08,0.12,-1.02,7.32,3.97,-8.00
25.2640,0.06,0.11,-0.97,2.56,4.82,-9.70
25.2790,0.07,0.15,-0.98,4.46,4.03,-7.81
25.2940,0.09,0.20,-0.97,4.15,3.48,-3.11
25.3050,0.09,0.15,-0.98,3.85,3.17,2.32
25.3220,0.08,0.13,-0.99,3.42,3.66,2.32
25.3380,0.07,0.12,-0.98,3.30,3.91,2.01
25.3540,0.08,0.09,-0.98,3.17,3.30,-0.12
25.3710,0.07,0.15,-0.97,2.08,3.54,-2.44
25.3870,0.07,0.13,-0.98,3.17,3.30,2.20
25.4040,0.08,0.13,-0.99,3.60,3.48,1.95
25.4190,0.08,0.12,-0.98,2.87,3.11,1.10
25.4340,0.08,0.13,-0.98,2.99,3.11,2.01
25.4500,0.08,0.11,-0.99,4.39,3.23,1.71
25.4660,0.06,0.11,-0.99,2.44,3.85,-2.01
25.4810,0.08,0.15,-0.97,2.62,3.30,-0.49
25.4960,0.08,0.13,-0.98,3.66,2.87,2.50
25.5110,0.08,0.13,-0.99,3.36,3.17,2.75
25.5220,0.08,0.12,-0.99,3.23,3.60,2.56
25.5380,0.07,0.11,-1.00,2.75,4.03,-1.16
25.5550,0.06,0.11,-0.99,1.59,4.58,-4.52
25.5720,0.07,0.14,-0.97,1.40,4.09,-4.33
25.5870,0.09,0.16,-0.97,3.66,2.50,0.06
25.6030,0.08,0.13,-0.99,4.27,2.69,1.59
25.6180,0.08,0.13,-0.98,2.26,4.09,1.04
25.6340,0.08,0.12,-0.99,2.50,4.33,0.61
25.6490,0.07,0.08,-0.98,2.08,4.46,-1.53
25.6670,0.06,0.11,-0.99,2.75,4.39,-6.35
25.6820,0.09,0.17,-0.96,2.32,3.91,-3.48
25.6970,0.08,0.12,-0.98,4.03,2.20,2.20
25.7120,0.09,0.13,-0.99,3.66,3.11,1.89
25.7270,0.07,0.08,-0.99,1.83,4.33,-0.12
25.7390,0.07,0.13,-0.98,1.65,4.58,-3.48
25.7550,0.08,0.14,-0.98,3.72,3.17,2.14
25.7710,0.08,0.13,-0.99,3.91,2.56,3.48
25.7890,0.08,0.13,-0.99,2.87,3.85,2.14
25.8050,0.07,0.12,-0.98,2.20,3.91,2.08
25.8200,0.07,0.12,-0.99,3.17,3.30,2.08
25.8350,0.07,0.12,-0.98,3.23,2.93,2.01
25.8500,0.07,0.12,-0.99,3.60,2.14,2.01
25.8650,0.07,0.12,-0.99,3.36,3.05,1.83
25.8800,0.08,0.12,-0.98,2.99,3.42,2.01
25.8900,0.07,0.12,-0.98,3.36,3.23,1.83
25.9060,0.07,0.13,-0.99,3.72,2.87,1.71
25.9290,0.08,0.12,-0.99,2.87,2.38,2.01
25.9440,0.07,0.11,-0.99,2.62,2.38,2.01
25.9550,0.07,0.12,-0.98,3.60,2.44,2.08
25.9710,0.08,0.12,-0.99,4.58,2.56,2.14
25.9910,0.08,0.13,-0.99,3.97,2.26,1.89
26.0080,0.08,0.13,-0.99,3.48,2.62,1.89
26.0230,0.05,0.10,-0.97,2.56,3.54,2.14
26.0390,0.08,0.12,-0.98,3.72,2.44,2.26
26.0540,0.08,0.12,-0.99,5.00,1.28,2.26
26.0610,0.08,0.12,-0.98,4.21,2.44,2.01
26.0770,0.08,0.12,-0.98,3.66,2.93,2.08
26.1000,0.08,0.12,-0.98,2.93,3.05,2.01
26.1160,0.08,0.12,-0.98,3.23,2.81,2.08
26.1320,0.08,0.12,-0.98,4.09,2.44,2.01
26.1490,0.08,0.13,-0.99,4.46,2.69,2.01
26.1650,0.08,0.13,-0.98,3.66,3.36,2.32
26.1810,0.08,0.13,-0.98,3.11,3.60,2.44
26.1970,0.08,0.12,-0.99,3.05,3.23,2.26
26.2130,0.08,0.12,-0.98,3.23,3.54,2.01
26.2290,0.08,0.13,-0.98,4.03,3.30,2.14
26.2460,0.08,0.12,-0.98,3.36,3.42,2.20
26.2620,0.08,0.13,-0.99,3.11,3.66,2.08
26.2770,0.08,0.13,-0.99,2.69,4.39,2.01
26.2930,0.07,0.12,-0.98,2.93,4.52,1.95
26.3080,0.10,0.13,-1.00,3.48,3.30,1.95
26.3220,0.08,0.12,-0.98,2.69,3.23,2.38
26.3330,0.08,0.12,-0.99,2.93,2.93,2.20
26.3500,0.08,0.12,-0.98,2.50,3.23,2.32
26.3680,0.08,0.12,-0.98,2.32,3.60,2.32
26.3830,0.08,0.13,-0.99,3.17,3.78,2.01
26.3990,0.08,0.13,-0.99,2.08,4.58,1.95
26.4010,0.07,0.12,-0.98,0.61,4.39,2.08
26.4310,0.07,0.12,-0.98,1.28,3.23,2.08
26.4470,0.08,0.12,-0.98,3.17,2.62,4.03
26.4510,0.08,0.13,-0.99,3.97,2.69,2.01
26.4780,0.08,0.12,-0.99,3.72,2.87,1.65
26.4930,0.08,0.12,-0.98,2.87,3.54,1.40
26.5080,0.07,0.12,-0.99,3.11,3.42,2.14
26.5220,0.08,0.12,-0.98,2.93,3.11,2.32
26.5330,0.07,0.16,-0.99,3.36,3.60,3.17
26.5500,0.08,0.12,-0.99,3.05,3.85,3.54
26.5660,0.07,0.12,-0.99,2.62,3.85,1.83
26.5830,0.07,0.12,-0.99,3.17,3.42,1.83
26.5990,0.07,0.12,-0.98,3.42,2.93,2.01
26.6150,0.08,0.12,-0.98,3.23,2.20,2.08
26.6300,0.08,0.12,-0.98,2.99,3.05,2.32
26.6340,0.08,0.12,-0.99,3.42,3.42,2.14
26.6490,0.07,0.12,-0.98,3.11,3.42,1.95
26.6730,0.07,0.12,-0.99,2.99,3.30,2.08
26.6890,0.07,0.12,-0.98,2.93,3.05,2.14
26.7050,0.08,0.13,-0.99,3.30,2.56,2.99
26.7220,0.08,0.11,-0.98,3.54,2.69,2.62
26.7380,0.08,0.12,-0.99,3.42,2.87,1.95
26.7530,0.07,0.13,-0.98,3.42,2.93,1.95
26.7700,0.08,0.12,-0.99,4.03,2.93,1.34
26.7850,0.07,0.13,-0.99,3.30,3.23,1.65
26.7890,0.07,0.13,-0.98,2.56,3.30,3.05
26.8050,0.08,0.12,-0.98,2.50,3.05,4.52
26.8300,0.08,0.11,-0.99,3.66,2.81,4.03
26.8470,0.07,0.12,-0.98,3.60,2.50,1.89
26.8620,0.07,0.12,-0.98,4.39,2.62,1.40
26.8790,0.08,0.12,-0.99,4.27,2.75,1.71
26.8800,0.08,0.13,-0.98,2.99,3.36,4.21
26.9100,0.08,0.12,-0.98,2.87,3.42,5.07
26.9250,0.08,0.11,-0.98,3.11,2.56,4.15
26.9420,0.08,0.12,-0.99,3.42,2.20,3.30
26.9470,0.08,0.11,-0.98,3.30,2.87,2.69
26.9630,0.08,0.12,-0.99,3.54,2.75,1.65
26.9800,0.08,0.13,-0.99,3.30,2.87,1.71
26.9980,0.07,0.12,-0.98,2.56,3.48,2.14
27.0140,0.07,0.12,-0.98,3.11,3.05,2.32
27.0330,0.07,0.12,-0.98,3.23,3.36,2.56
27.0490,0.07,0.13,-0.98,3.91,2.99,3.42
27.0650,0.07,0.12,-0.98,4.46,2.38,4.21
27.0710,0.08,0.12,-0.99,4.09,2.56,4.21
27.0860,0.08,0.12,-0.99,3.48,3.11,2.62
27.1080,0.07,0.12,-0.99,2.69,2.99,2.08
27.1240,0.07,0.12,-0.98,2.62,2.93,2.75
27.1400,0.07,0.12,-0.98,3.60,2.75,2.87
27.1580,0.06,0.13,-0.98,4.46,2.44,2.44
27.1740,0.08,0.13,-0.99,4.03,3.30,3.48
27.1890,0.08,0.13,-0.99,3.05,2.50,5.80
27.2050,0.09,0.11,-0.98,3.11,2.75,5.49
27.2070,0.08,0.12,-0.99,3.54,2.93,2.20
27.2280,0.07,0.12,-0.98,3.72,3.05,1.89
27.2460,0.07,0.13,-0.99,4.52,2.75,1.77
27.2620,0.07,0.13,-0.99,4.21,2.56,1.89
27.2800,0.07,0.13,-0.98,3.66,3.42,2.14
27.2960,0.08,0.13,-0.98,3.23,3.17,3.30
27.3120,0.08,0.12,-0.98,4.27,2.93,3.36
27.3290,0.07,0.12,-0.98,4.88,2.44,1.53
27.3300,0.07,0.13,-0.98,4.70,2.75,1.46
27.3590,0.08,0.13,-0.98,4.27,3.05,2.01
27.3750,0.09,0.13,-0.99,3.72,3.23,2.50
27.3910,0.08,0.13,-0.98,3.05,3.48,2.50
27.3960,0.07,0.12,-0.98,2.93,2.93,2.62
27.4110,0.05,0.12,-0.98,3.66,3.36,2.75
27.4360,0.06,0.13,-0.98,3.97,3.23,2.75
27.4530,0.08,0.13,-0.98,3.97,2.81,3.11
27.4700,0.09,0.13,-0.98,3.17,2.69,3.30
27.4860,0.07,0.13,-0.98,3.05,3.11,2.56
27.5020,0.07,0.12,-0.98,3.60,3.48,2.75
27.5170,0.07,0.13,-0.98,4.52,2.44,2.14
27.5320,0.08,0.13,-0.98,3.54,3.05,2.01
27.5360,0.08,0.13,-0.99,3.42,2.50,2.08
27.5520,0.07,0.12,-0.98,3.17,2.69,2.20
27.5760,0.07,0.12,-0.99,3.30,2.93,2.62
27.5930,0.07,0.13,-0.99,4.70,2.87,2.26
27.6090,0.08,0.13,-0.98,3.30,2.93,2.50
27.6110,0.08,0.13,-0.99,3.42,2.75,3.11
27.6290,0.08,0.12,-0.98,3.60,2.62,2.75
27.6570,0.07,0.12,-0.98,3.30,2.87,2.38
27.6600,0.07,0.13,-0.98,3.36,3.11,2.32
27.6880,0.08,0.14,-0.98,2.56,2.32,2.69
27.6940,0.08,0.13,-0.98,2.50,2.69,3.36
27.7100,0.06,0.12,-0.99,2.93,2.87,2.56
27.7340,0.07,0.13,-0.98,2.69,2.93,2.62
27.7490,0.08,0.13,-0.98,2.87,2.75,3.54
27.7650,0.08,0.13,-0.98,3.23,2.32,3.85
27.7670,0.08,0.13,-0.98,3.17,2.87,3.85
27.7830,0.07,0.13,-0.98,2.50,2.87,3.54
27.8080,0.07,0.12,-0.99,2.99,2.99,3.60
27.8240,0.05,0.12,-0.98,3.42,2.81,2.93
27.8410,0.06,0.12,-0.98,3.48,3.17,2.08
27.8590,0.10,0.14,-0.98,3.05,2.50,2.93
27.8750,0.08,0.13,-0.99,2.81,2.38,3.23
27.8900,0.07,0.13,-0.99,2.44,2.69,4.03
27.9050,0.07,0.13,-0.98,2.44,2.56,5.13
27.9080,0.07,0.13,-0.98,2.75,2.62,6.41
27.9290,0.07,0.13,-0.99,2.99,2.14,7.02
27.9470,0.09,0.13,-0.98,3.05,2.26,6.65
27.9640,0.08,0.13,-0.98,2.99,2.44,4.76
27.9820,0.07,0.12,-0.98,2.87,2.81,3.23
27.9980,0.04,0.12,-0.99,2.69,3.48,3.85
27.9990,0.05,0.12,-0.99,2.26,2.50,5.49
28.0290,0.07,0.13,-0.98,2.75,2.14,5.62
28.0440,0.07,0.14,-0.98,1.95,1.59,7.51
28.0480,0.10,0.13,-0.98,2.08,1.65,7.81
28.0770,0.08,0.13,-0.99,2.87,2.26,6.71
28.0810,0.07,0.12,-0.98,2.01,2.32,6.53
28.0990,0.07,0.12,-0.98,2.62,2.56,6.29
28.1150,0.09,0.13,-0.98,2.26,2.50,6.77
28.1380,0.10,0.13,-0.98,1.83,2.26,7.81
28.1480,0.10,0.12,-0.98,1.83,2.38,6.23
28.1640,0.07,0.12,-0.98,2.26,2.20,4.33
28.1810,0.07,0.12,-0.98,2.81,2.38,4.27
28.1980,0.07,0.13,-0.98,3.05,2.44,4.94
28.2150,0.08,0.12,-0.98,2.50,2.38,6.16
28.2310,0.08,0.12,-0.98,3.11,2.20,4.76
28.2320,0.08,0.12,-0.98,2.87,2.87,3.54
28.2620,0.08,0.12,-0.98,3.36,2.32,2.38
28.2790,0.06,0.12,-0.99,3.48,2.44,2.62
28.2940,0.06,0.13,-0.99,3.36,2.99,2.50
28.3100,0.07,0.12,-0.99,3.72,2.75,2.56
28.3150,0.05,0.12,-0.99,3.72,3.05,2.32
28.3390,0.08,0.12,-0.98,3.60,3.23,1.46
28.3470,0.08,0.13,-0.99,3.42,2.99,1.59
28.3700,0.07,0.12,-0.98,2.99,3.05,1.59
28.3820,0.09,0.14,-0.98,3.23,3.30,1.71
28.3980,0.11,0.12,-0.98,2.87,2.38,4.21
28.4150,0.08,0.13,-0.99,3.36,2.93,2.99
28.4300,0.08,0.12,-0.98,3.05,3.11,2.75
28.4450,0.08,0.13,-0.99,3.78,2.75,2.81
28.4600,0.07,0.12,-0.98,3.42,2.75,3.30
28.4710,0.07,0.13,-0.99,3.78,2.81,3.17
28.4880,0.07,0.13,-0.99,2.99,2.50,3.54
28.5030,0.08,0.12,-0.98,2.69,2.62,3.66
28.5210,0.08,0.12,-0.98,2.93,2.50,3.42
28.5360,0.07,0.12,-0.98,3.85,2.75,2.56
28.5510,0.07,0.13,-0.98,4.15,2.87,1.71
28.5660,0.08,0.12,-0.98,3.54,2.56,2.20
28.5830,0.08,0.12,-0.98,3.42,3.11,2.62
28.5990,0.07,0.12,-0.98,3.36,3.05,2.38
28.6130,0.07,0.13,-0.99,4.15,3.05,1.83
28.6290,0.09,0.12,-0.98,3.48,3.11,1.89
28.6360,0.08,0.12,-0.99,4.27,2.20,2.26
28.6600,0.08,0.13,-0.99,4.09,3.05,1.59
28.6770,0.07,0.12,-0.99,3.23,3.11,1.34
28.6930,0.07,0.12,-0.99,2.99,3.23,1.65
28.7090,0.08,0.13,-0.98,3.66,3.11,1.83
28.7100,0.08,0.13,-0.98,3.72,2.93,1.77
28.7290,0.08,0.13,-0.98,3.54,2.50,1.95
28.7560,0.08,0.12,-0.98,2.75,2.81,2.14
28.7600,0.07,0.12,-0.98,3.36,2.93,2.20
28.7770,0.08,0.13,-0.98,4.03,3.11,2.20
28.7930,0.08,0.13,-0.98,3.11,2.75,2.50
28.8170,0.09,0.13,-0.98,2.87,2.69,2.50
28.8300,0.08,0.13,-0.99,3.23,2.69,2.26
28.8430,0.06,0.12,-0.99,3.30,3.05,1.83
28.8650,0.08,0.13,-0.99,3.48,2.81,1.65
28.8810,0.08,0.13,-0.99,3.30,2.44,2.32
28.8960,0.08,0.12,-0.98,2.99,2.75,2.75
28.9130,0.07,0.13,-0.98,3.85,2.81,2.32
28.9290,0.07,0.13,-0.98,2.99,3.11,2.01
28.9440,0.07,0.13,-0.98,3.05,3.30,2.32
28.9490,0.08,0.13,-0.98,2.87,2.75,2.81
28.9750,0.08,0.12,-0.98,3.85,2.56,3.97
28.9900,0.09,0.12,-0.98,4.21,2.69,2.93
28.9980,0.07,0.13,-0.98,3.91,2.62,2.14
29.0160,0.06,0.13,-0.99,2.93,3.11,2.01
29.0320,0.08,0.12,-0.98,2.81,3.05,2.26
29.0480,0.08,0.12,-0.98,3.91,2.20,2.38
29.0640,0.09,0.12,-0.98,4.15,2.69,2.20
29.0810,0.07,0.13,-0.98,4.58,2.44,1.89
29.0830,0.08,0.13,-0.98,3.85,3.17,1.40
29.1120,0.09,0.13,-0.98,3.30,2.81,1.83
29.1280,0.08,0.12,-0.98,3.36,2.38,2.14
29.1440,0.08,0.12,-0.98,4.33,2.75,1.89
29.1490,0.08,0.13,-0.98,3.91,2.93,1.95
29.1650,0.06,0.13,-0.99,3.85,2.87,1.77
29.1810,0.06,0.13,-0.99,3.05,3.17,1.95
29.2040,0.08,0.13,-0.99,2.93,3.42,2.08
29.2200,0.08,0.13,-0.98,3.42,3.11,2.01
29.2350,0.09,0.13,-0.98,3.42,3.11,1.59
29.2500,0.07,0.13,-0.98,3.23,3.23,1.95
29.2640,0.07,0.13,-0.98,3.30,3.60,1.77
29.2720,0.07,0.13,-0.99,3.30,3.30,1.46
29.2950,0.10,0.14,-0.98,3.05,3.23,1.83
29.3100,0.09,0.12,-0.98,2.87,2.75,2.56
29.3210,0.07,0.13,-0.98,3.54,2.75,2.20
29.3380,0.07,0.13,-0.98,3.30,2.99,2.38
29.3540,0.07,0.13,-0.99,3.36,2.56,3.05
29.3710,0.08,0.13,-0.98,3.23,2.38,3.42
29.3880,0.09,0.13,-0.98,3.97,2.08,3.48
29.4030,0.08,0.13,-0.98,3.42,2.44,2.50
29.4180,0.09,0.13,-0.99,2.81,2.99,2.26
29.4330,0.08,0.12,-0.98,2.87,3.78,2.26
29.4490,0.08,0.12,-0.98,3.36,3.42,2.01
29.4630,0.08,0.13,-0.98,4.33,2.93,2.14
29.4790,0.08,0.13,-0.98,3.42,2.81,2.14
29.4930,0.08,0.13,-0.98,2.93,3.11,2.20
29.5040,0.08,0.13,-0.99,2.75,3.23,3.48
29.5210,0.09,0.13,-0.98,2.87,3.23,2.81
29.5390,0.08,0.13,-0.98,3.48,3.23,2.14
29.5550,0.07,0.13,-0.98,3.05,2.69,2.08
29.5700,0.06,0.13,-0.98,2.44,2.99,3.48
29.5860,0.05,0.13,-0.99,2.75,2.69,4.21
29.6010,0.09,0.12,-0.98,2.69,2.99,4.64
29.6160,0.09,0.13,-0.98,3.36,2.81,3.48
29.6310,0.09,0.13,-0.98,3.11,2.93,2.38
29.6460,0.07,0.13,-0.98,2.38,3.11,2.62
29.6610,0.07,0.12,-0.98,2.38,3.17,3.36
29.6710,0.07,0.13,-0.98,3.17,2.81,3.23
29.6880,0.07,0.13,-0.99,3.30,2.62,3.17
29.7050,0.08,0.12,-0.98,2.81,3.17,3.72
29.7220,0.08,0.12,-0.98,3.23,3.30,3.48
29.7370,0.10,0.12,-0.98,3.30,2.56,2.20
29.7530,0.08,0.12,-0.99,3.23,2.50,2.20
29.7690,0.09,0.13,-0.99,3.17,3.11,2.26
29.7840,0.08,0.12,-0.98,2.81,2.75,2.32
29.7990,0.07,0.13,-0.98,2.99,3.23,2.75
29.8150,0.08,0.12,-0.98,3.66,2.81,3.11
29.8310,0.08,0.13,-0.98,3.97,2.38,2.32
29.8460,0.07,0.13,-0.99,3.60,2.62,2.26
29.8620,0.07,0.13,-0.99,2.93,2.69,2.50
29.8770,0.07,0.13,-0.98,2.87,2.87,2.87
29.8880,0.07,0.13,-0.99,3.17,2.75,3.91
29.9040,0.08,0.12,-0.98,2.87,3.30,3.66
29.9210,0.06,0.14,-0.99,3.48,2.81,2.93
29.9370,0.07,0.12,-0.99,3.66,3.05,1.95
29.9530,0.07,0.13,-0.98,4.03,2.81,1.65
29.9680,0.08,0.13,-0.98,4.03,2.99,1.77
29.9830,0.09,0.12,-0.98,2.87,3.48,2.26
29.9990,0.09,0.12,-0.98,2.99,3.05,2.50
30.0160,0.09,0.12,-0.98,3.48,2.87,2.01
30.0310,0.08,0.12,-0.98,3.23,2.87,2.01
30.0380,0.08,0.12,-0.98,3.30,3.05,2.14
30.0530,0.08,0.13,-0.99,3.66,3.05,2.14
30.0760,0.07,0.13,-0.99,3.23,2.99,2.14
30.0920,0.08,0.13,-0.98,3.11,3.23,2.44
30.0940,0.08,0.13,-0.99,3.17,3.42,2.50
30.1100,0.07,0.13,-0.98,3.54,3.17,2.38
30.1300,0.08,0.13,-0.98,3.85,3.11,2.08
30.1440,0.07,0.13,-0.98,4.03,2.81,2.01
30.1590,0.08,0.13,-0.98,3.23,3.60,1.95
30.1870,0.08,0.13,-0.98,3.36,3.36,1.77
30.1970,0.07,0.13,-0.98,3.66,3.54,1.46
30.2140,0.07,0.12,-0.98,3.78,3.91,0.06
30.2310,0.08,0.13,-0.98,4.46,4.15,-1.71
30.2460,0.09,0.13,-0.98,4.52,3.66,-1.22
30.2620,0.08,0.13,-0.98,4.21,2.99,0.12
30.2640,0.08,0.13,-0.98,3.54,3.23,0.24
30.2800,0.08,0.13,-0.98,3.23,3.17,0.37
30.3090,0.09,0.13,-0.98,3.30,2.81,1.53
30.3130,0.08,0.13,-0.98,3.36,2.56,2.01
30.3300,0.08,0.13,-0.99,3.54,3.17,1.71
30.3520,0.08,0.13,-0.98,3.72,3.23,1.65
30.3690,0.08,0.13,-0.98,3.72,2.93,1.40
30.3850,0.08,0.13,-0.98,2.81,2.87,1.71
30.4000,0.07,0.12,-0.98,3.60,2.69,1.77
30.4020,0.07,0.13,-0.98,4.27,2.75,1.53
30.4180,0.07,0.13,-0.98,3.97,3.36,0.31
30.4410,0.08,0.13,-0.98,4.15,3.60,-0.24
30.4570,0.09,0.13,-0.98,3.78,3.17,0.43
30.4730,0.09,0.13,-0.98,3.11,2.75,1.53
30.4910,0.08,0.13,-0.98,3.72,3.11,1.95
30.5070,0.07,0.13,-0.99,3.85,2.99,1.40
30.5230,0.07,0.13,-0.98,3.91,3.78,0.43
30.5390,0.07,0.13,-0.98,3.60,3.78,-0.24
30.5540,0.10,0.13,-0.98,3.23,3.60,0.85
30.5690,0.08,0.13,-0.98,3.66,2.75,1.59
30.5840,0.07,0.13,-0.98,3.72,3.11,1.04
30.5990,0.07,0.13,-0.99,3.60,3.48,0.79
30.6140,0.07,0.13,-0.98,3.42,3.60,0.43
30.6240,0.09,0.14,-0.98,3.48,2.75,1.16
30.6390,0.08,0.13,-0.98,3.36,2.87,1.89
30.6590,0.08,0.13,-0.98,3.11,3.11,1.95
30.6640,0.09,0.13,-0.98,3.11,3.17,1.95
30.6810,0.08,0.13,-0.98,3.17,2.87,2.01
30.6970,0.08,0.13,-0.98,3.11,3.11,2.01
30.7200,0.08,0.13,-0.98,3.36,3.30,2.08
30.7320,0.08,0.13,-0.98,3.42,2.81,2.08
30.7470,0.07,0.13,-0.98,3.54,2.99,2.08
30.7650,0.08,0.13,-0.98,3.23,3.54,2.08
30.7800,0.08,0.13,-0.98,3.17,2.93,2.20
30.7980,0.09,0.13,-0.98,3.91,2.81,2.08
30.7980,0.07,0.13,-0.99,3.72,3.36,1.65
30.8140,0.07,0.13,-0.98,3.66,3.72,0.98
30.8450,0.07,0.14,-0.99,3.48,3.54,0.98
30.8600,0.09,0.13,-0.98,2.62,3.17,1.59
30.8640,0.08,0.13,-0.98,2.56,2.87,2.08
30.8790,0.08,0.13,-0.98,3.11,2.93,2.20
30.9040,0.07,0.13,-0.98,3.42,3.30,2.20
30.9200,0.08,0.13,-0.98,3.42,3.05,2.20
30.9360,0.08,0.13,-0.98,3.36,2.44,2.20
30.9520,0.08,0.13,-0.98,2.99,3.05,2.38
30.9680,0.07,0.12,-0.98,3.42,3.05,2.20
30.9830,0.08,0.12,-0.98,4.39,2.87,2.20
30.9990,0.07,0.12,-0.99,5.68,3.42,1.46
31.0050,0.08,0.14,-0.98,5.07,3.72,0.00
31.0290,0.09,0.15,-0.98,4.15,3.54,0.31
31.0440,0.09,0.13,-0.98,3.48,2.87,1.53
31.0540,0.08,0.14,-0.98,3.23,3.36,1.34
31.0710,0.08,0.13,-0.98,2.81,3.30,2.01
31.0870,0.08,0.13,-0.98,3.11,3.05,2.14
31.1040,0.08,0.13,-0.98,2.81,3.05,1.95
31.1210,0.08,0.13,-0.98,2.93,3.11,2.01
31.1370,0.08,0.13,-0.98,2.75,3.11,2.14
31.1520,0.07,0.13,-0.98,2.50,3.66,2.26
31.1670,0.08,0.13,-0.98,3.05,2.81,2.38
31.1820,0.07,0.13,-0.98,2.75,3.66,2.81
31.1960,0.08,0.13,-0.98,2.44,3.42,3.11
31.2120,0.08,0.13,-0.98,2.14,3.85,3.11
31.2210,0.08,0.13,-0.98,2.62,3.48,2.50
31.2370,0.08,0.13,-0.98,3.42,2.81,2.26
31.2570,0.07,0.13,-0.99,3.42,3.11,2.69
31.2720,0.07,0.13,-0.98,2.26,3.17,2.99
31.2780,0.08,0.13,-0.99,2.50,3.23,3.72
31.2940,0.08,0.13,-0.98,2.87,2.87,3.11
31.3110,0.08,0.13,-0.98,3.36,3.17,2.81
31.3300,0.07,0.13,-0.98,3.23,2.75,2.69
31.3490,0.07,0.13,-0.99,3.11,2.69,2.93
31.3650,0.08,0.13,-0.98,2.56,3.11,3.85
31.3810,0.07,0.13,-0.98,2.44,2.38,4.52
31.3980,0.08,0.13,-0.98,2.81,2.56,4.46
31.4140,0.07,0.13,-0.99,3.05,3.30,3.78
31.4170,0.08,0.13,-0.98,2.69,3.30,3.78
31.4450,0.08,0.13,-0.98,3.30,3.05,2.93
31.4610,0.08,0.13,-0.98,3.54,3.30,2.44
31.4770,0.07,0.13,-0.98,3.17,3.05,2.08
31.4930,0.08,0.13,-0.98,2.62,2.87,2.62
31.5090,0.07,0.13,-0.98,2.62,3.11,3.23
31.5170,0.07,0.13,-0.99,3.36,2.69,2.87
31.5330,0.08,0.13,-0.98,3.11,2.99,2.56
31.5560,0.07,0.13,-0.98,2.93,2.26,2.32
31.5710,0.07,0.13,-0.98,2.87,3.05,2.81
31.5870,0.07,0.13,-0.98,3.36,3.05,2.93
31.5890,0.08,0.13,-0.98,3.72,2.99,2.69
31.6050,0.08,0.13,-0.98,3.72,3.17,1.89
31.6350,0.09,0.13,-0.98,3.23,3.23,1.77
31.6450,0.08,0.13,-0.98,2.69,3.05,2.44
31.6620,0.08,0.13,-0.98,3.42,2.93,2.99
31.6790,0.08,0.13,-0.99,3.48,3.30,2.75
31.6950,0.09,0.13,-0.98,3.11,2.81,2.56
31.7120,0.09,0.13,-0.98,3.05,2.87,2.50
31.7270,0.08,0.13,-0.98,3.66,2.87,2.26
31.7440,0.08,0.13,-0.98,3.42,2.81,1.95
31.7590,0.08,0.13,-0.98,2.99,2.99,2.01
31.7620,0.07,0.13,-0.98,2.75,3.42,2.20
31.7770,0.08,0.13,-0.98,3.05,3.48,2.26
31.8010,0.07,0.12,-0.98,3.42,3.11,2.50
31.8180,0.07,0.13,-0.98,3.78,2.93,2.38
31.8340,0.08,0.13,-0.98,3.42,3.05,2.01
31.8500,0.08,0.13,-0.98,3.66,3.23,1.77
31.8520,0.07,0.13,-0.98,2.69,3.36,2.38
31.8820,0.08,0.12,-0.98,2.75,2.99,2.81
31.8960,0.07,0.13,-0.98,3.17,2.99,2.56
31.9120,0.07,0.13,-0.99,3.30,2.93,2.44
31.9270,0.08,0.13,-0.98,2.99,3.17,2.56
31.9430,0.07,0.13,-0.98,2.81,3.36,2.99
31.9580,0.08,0.13,-0.98,3.11,2.81,3.91
31.9680,0.08,0.13,-0.98,3.60,2.56,3.11
31.9850,0.08,0.13,-0.99,3.91,2.81,2.75
32.0010,0.08,0.13,-0.98,3.30,2.99,2.32
32.0180,0.08,0.13,-0.98,2.75,2.93,2.50
32.0330,0.07,0.13,-0.99,2.99,3.11,2.62
32.0490,0.07,0.12,-0.98,2.81,3.30,2.87
32.0650,0.07,0.12,-0.98,3.85,2.93,2.56
32.0810,0.07,0.12,-0.98,4.21,3.42,2.32
32.0850,0.08,0.13,-0.98,4.09,3.48,1.95
32.1130,0.08,0.13,-0.98,3.72,3.48,1.59
32.1180,0.07,0.13,-0.98,3.42,3.23,1.83
32.1430,0.08,0.13,-0.98,3.05,3.97,1.89
32.1510,0.08,0.13,-0.99,3.23,3.11,2.20
32.1670,0.08,0.13,-0.98,3.23,3.36,2.62
32.1880,0.08,0.13,-0.98,3.36,2.87,2.87
32.2040,0.08,0.13,-0.98,3.36,3.17,2.75
32.2200,0.08,0.13,-0.98,2.93,3.17,2.62
32.2370,0.07,0.13,-0.99,2.69,3.48,2.26
32.2540,0.08,0.13,-0.98,2.56,3.60,2.62
32.2690,0.07,0.12,-0.98,3.11,2.87,2.93
32.2840,0.08,0.13,-0.98,3.60,2.69,2.69
32.2880,0.07,0.13,-0.98,3.78,2.99,2.50
32.3030,0.08,0.13,-0.99,3.30,3.78,2.26
32.3270,0.07,0.13,-0.98,3.17,3.42,2.26
32.3450,0.07,0.13,-0.98,3.17,3.11,2.44
32.3600,0.07,0.13,-0.96,3.72,3.11,2.32
32.3760,0.07,0.14,-1.00,3.85,3.11,2.50
32.3920,0.08,0.13,-0.99,3.30,3.36,2.62
32.4070,0.08,0.13,-0.99,2.75,3.48,2.56
32.4110,0.08,0.13,-0.99,3.23,2.99,2.50
32.4300,0.07,0.13,-0.98,2.75,3.17,2.87
32.4520,0.07,0.13,-0.98,3.05,2.93,3.42
32.4680,0.08,0.13,-0.98,3.60,2.50,2.75
32.4840,0.07,0.13,-0.98,3.11,3.05,2.50
32.5010,0.08,0.13,-0.99,2.69,3.05,2.38
32.5160,0.08,0.12,-0.98,2.14,3.11,3.42
32.5310,0.07,0.12,-0.98,3.05,2.69,3.48
32.5350,0.07,0.12,-0.98,3.66,2.62,3.11
32.5500,0.08,0.13,-0.99,3.97,2.87,2.69
32.5760,0.07,0.13,-0.98,3.72,2.87,2.50
32.5920,0.08,0.14,-0.98,2.75,3.60,2.69
32.5930,0.05,0.13,-0.99,2.26,3.48,3.66
32.6110,0.08,0.13,-0.98,2.81,2.62,4.70
32.6300,0.06,0.12,-0.98,3.11,2.87,3.66
32.6420,0.07,0.13,-0.99,3.42,2.87,3.54
32.6590,0.07,0.13,-0.98,2.62,3.11,3.54
32.6760,0.07,0.13,-0.99,2.62,2.99,4.03
32.6930,0.08,0.13,-0.98,2.93,2.62,4.64
32.7100,0.07,0.12,-0.98,3.17,2.56,4.33
32.7300,0.08,0.13,-0.99,3.72,3.05,3.60
32.7430,0.08,0.13,-0.98,3.11,2.87,3.17
32.7600,0.09,0.13,-0.98,2.20,3.05,4.27
32.7770,0.07,0.13,-0.98,2.26,2.81,5.07
32.7940,0.08,0.12,-0.98,2.75,2.56,4.88
32.8090,0.06,0.13,-0.99,2.38,2.81,4.33
32.8260,0.07,0.13,-0.99,2.08,2.87,6.04
32.8310,0.08,0.12,-0.99,2.75,2.26,6.53
32.8580,0.07,0.13,-0.98,3.11,2.32,5.37
32.8600,0.08,0.12,-0.98,3.36,2.44,4.76
32.8770,0.08,0.13,-0.98,3.42,2.75,3.54
32.9050,0.09,0.13,-0.98,3.54,2.56,2.93
32.9110,0.08,0.12,-0.98,3.78,2.50,2.01
32.9310,0.07,0.13,-0.98,4.46,2.44,1.71
32.9480,0.07,0.13,-0.99,4.46,2.01,1.83
32.9650,0.07,0.13,-0.98,4.09,1.65,1.71
32.9810,0.08,0.13,-0.98,3.97,2.08,1.89
32.9980,0.08,0.13,-0.98,3.72,2.20,1.83
33.0140,0.08,0.13,-0.98,4.09,2.14,1.83
33.0290,0.08,0.13,-0.98,4.27,2.20,1.83
33.0460,0.08,0.13,-0.98,3.97,2.38,1.77
33.0620,0.08,0.13,-0.98,3.60,2.56,1.71
33.0780,0.08,0.13,-0.98,3.23,2.62,1.83
33.0820,0.08,0.13,-0.98,3.78,2.56,1.77
33.0980,0.10,0.14,-1.00,3.23,2.93,1.95
33.1140,0.08,0.13,-1.00,3.17,3.11,1.89
33.1390,0.08,0.13,-0.98,3.23,2.01,1.77
33.1550,0.08,0.13,-0.97,3.66,2.08,2.01
33.1710,0.08,0.13,-0.98,4.82,1.83,1.77
33.1870,0.08,0.13,-0.99,4.88,1.22,1.71
33.2040,0.08,0.13,-0.99,3.66,2.08,1.71
33.2200,0.08,0.13,-0.98,2.87,2.81,1.77
33.2350,0.08,0.13,-0.98,2.87,3.54,2.01
33.2500,0.08,0.13,-0.98,2.81,4.03,2.08
33.2550,0.08,0.13,-0.98,3.05,3.97,2.01
33.2700,0.08,0.13,-0.98,2.75,4.03,1.95
33.2950,0.08,0.13,-0.98,2.08,4.03,2.08
33.2960,0.08,0.13,-0.98,2.20,3.30,2.08
33.3120,0.08,0.13,-0.98,2.69,3.23,2.01
33.3420,0.09,0.13,-0.97,2.93,3.11,2.01
33.3450,0.08,0.13,-0.98,3.60,3.42,2.14
33.3610,0.08,0.13,-0.98,3.17,3.48,2.01
33.3830,0.08,0.13,-0.98,2.93,3.30,1.77
33.4000,0.08,0.13,-0.99,2.44,3.42,1.95
33.4170,0.08,0.13,-0.98,2.44,3.23,2.08
33.4320,0.08,0.12,-0.98,2.87,2.87,1.83
33.4470,0.08,0.13,-0.98,3.54,2.87,1.95
33.4620,0.08,0.13,-0.99,3.54,3.23,2.08
33.4780,0.08,0.13,-0.98,3.36,3.23,1.89
33.4930,0.08,0.13,-0.98,3.30,2.75,1.95
33.5000,0.08,0.13,-0.98,2.87,2.44,2.08
33.5180,0.08,0.13,-0.99,2.99,3.30,2.26
33.5340,0.08,0.13,-0.98,3.48,2.87,2.20
33.5500,0.08,0.13,-0.98,3.91,3.11,2.14
33.5670,0.08,0.13,-0.98,2.87,3.42,2.14
33.5820,0.08,0.14,-0.99,2.38,2.87,1.83
33.5980,0.08,0.13,-0.99,1.40,3.05,1.89
33.6120,0.08,0.13,-0.98,1.10,3.36,1.89
33.6270,0.08,0.12,-0.98,1.04,3.54,2.01
33.6430,0.08,0.14,-0.99,4.03,3.11,2.01
33.6500,0.08,0.12,-0.98,1.83,2.56,1.77
33.6730,0.08,0.13,-0.98,3.05,2.56,1.83
33.6830,0.08,0.13,-0.99,3.11,2.38,1.95
33.6990,0.08,0.12,-0.99,3.48,2.69,1.95
33.7170,0.08,0.13,-0.98,3.30,2.81,1.71
33.7330,0.08,0.13,-0.98,3.36,2.87,1.71
33.7480,0.08,0.13,-0.99,2.26,2.69,1.16
33.7500,0.09,0.15,-1.01,0.92,2.81,-0.43
33.7660,0.07,0.09,-0.93,-8.85,3.97,-1.16
33.7900,0.07,0.12,-1.00,0.85,2.87,0.85
33.8060,0.09,0.13,-0.99,3.48,2.69,1.04
33.8230,0.08,0.10,-0.98,3.11,3.05,1.95
33.8400,0.07,0.09,-0.98,9.70,2.69,2.75
33.8560,0.07,0.18,-0.99,7.20,2.08,2.14
33.8730,0.07,0.09,-0.96,0.49,3.48,1.89
33.8880,0.08,0.14,-0.99,4.58,3.11,2.38
33.8900,0.07,0.13,-0.99,4.46,3.30,2.20
33.9190,0.08,0.12,-0.98,3.42,3.05,2.14
33.9320,0.08,0.13,-0.99,4.21,2.81,2.08
33.9410,0.08,0.12,-0.98,3.78,2.69,2.14
33.9640,0.08,0.13,-0.98,4.03,2.99,2.26
33.9670,0.08,0.13,-0.98,3.54,2.62,2.01
33.9940,0.08,0.13,-0.98,2.99,2.75,1.95
34.0090,0.08,0.10,-0.98,3.11,3.36,2.01
34.0170,0.08,0.13,-0.98,3.42,3.05,1.95
34.0320,0.08,0.12,-0.98,3.17,2.99,1.89
34.0540,0.08,0.13,-0.98,3.48,2.81,2.01
34.0690,0.09,0.13,-0.98,3.30,3.17,2.14
34.0840,0.09,0.13,-0.98,3.48,3.54,1.46
34.0990,0.09,0.14,-0.99,2.75,3.78,0.55
34.1050,0.06,0.10,-0.97,-1.95,5.74,0.12
34.1300,0.08,0.12,-0.98,6.16,2.81,2.87
34.1460,0.08,0.12,-0.98,3.60,2.26,1.40
34.1610,0.09,0.15,-1.00,5.31,2.75,2.08
34.1710,0.09,0.14,-1.00,3.36,3.23,2.08
34.1880,0.07,0.10,-0.96,1.10,4.03,1.40
34.2040,0.08,0.13,-0.99,5.49,2.81,2.32
34.2210,0.08,0.13,-0.98,4.15,2.81,2.14
34.2370,0.08,0.13,-0.98,3.91,3.42,2.50
34.2520,0.08,0.13,-0.98,3.66,2.87,2.01
34.2680,0.08,0.13,-0.99,3.66,2.99,1.95
34.2840,0.08,0.12,-0.98,2.62,3.54,1.71
34.2990,0.08,0.12,-0.98,3.23,3.30,1.89
34.3130,0.08,0.12,-0.98,3.66,3.17,2.01
34.3290,0.07,0.13,-0.98,3.60,3.48,2.14
34.3440,0.08,0.13,-0.98,3.48,3.36,2.14
34.3540,0.08,0.13,-0.98,3.42,2.87,2.01
34.3710,0.08,0.13,-0.98,3.48,2.99,2.20
34.3870,0.08,0.12,-0.98,3.85,2.87,2.08
34.4030,0.08,0.12,-0.98,4.58,3.11,2.20
34.4200,0.08,0.13,-0.98,5.00,2.69,2.08
34.4360,0.08,0.13,-0.98,2.81,3.05,1.83
34.4510,0.08,0.13,-0.98,2.56,3.11,1.89
34.4540,0.08,0.13,-0.99,2.08,3.17,1.89
34.4700,0.08,0.13,-0.98,2.50,3.36,1.95
34.4950,0.08,0.13,-0.98,2.20,3.60,1.89
34.5110,0.08,0.12,-0.98,2.44,3.42,1.89
34.5250,0.08,0.13,-0.99,2.75,2.62,2.01
34.5400,0.08,0.13,-0.98,3.30,2.62,2.75
34.5550,0.07,0.13,-0.98,3.42,2.56,4.52
34.5610,0.08,0.14,-0.99,3.30,2.38,5.49
34.5860,0.10,0.11,-0.98,2.81,2.32,6.77
34.5940,0.08,0.12,-0.98,1.71,3.36,3.60
34.6110,0.07,0.12,-0.98,2.56,3.05,2.08
34.6290,0.07,0.12,-0.99,4.64,2.01,1.95
34.6440,0.08,0.13,-0.99,4.21,2.14,1.95
34.6610,0.08,0.13,-0.99,3.23,2.99,2.01
34.6780,0.09,0.15,-0.98,2.08,3.60,2.75
34.6930,0.07,0.12,-0.98,1.71,2.69,4.82
34.7080,0.07,0.09,-0.99,2.62,2.69,4.15
34.7240,0.07,0.11,-0.99,3.05,2.99,1.89
34.7390,0.09,0.13,-0.98,2.99,3.11,1.83
34.7450,0.10,0.15,-0.97,4.03,2.99,0.49
34.7610,0.08,0.12,-0.99,4.94,3.05,-0.12
34.7850,0.05,0.10,-0.99,4.21,3.60,-0.06
34.7880,0.09,0.12,-0.99,3.36,3.23,1.28
34.8160,0.08,0.12,-0.98,3.36,2.50,1.77
34.8310,0.08,0.13,-0.99,3.72,2.50,1.95
34.8470,0.08,0.12,-0.98,3.11,3.11,2.14
34.8620,0.08,0.12,-0.98,4.03,3.11,2.01
34.8780,0.08,0.13,-0.98,4.94,3.11,2.08
34.8880,0.08,0.13,-0.98,4.46,3.11,1.95
34.9040,0.08,0.13,-0.99,3.72,3.23,2.14
34.9210,0.10,0.13,-0.98,3.97,3.17,1.53
34.9370,0.09,0.12,-0.98,4.76,3.30,1.04
34.9530,0.08,0.13,-0.99,5.25,3.48,-0.18
34.9700,0.08,0.13,-0.98,3.36,3.23,0.24
34.9720,0.10,0.13,-0.98,2.99,3.23,0.61
35.0000,0.07,0.13,-0.99,2.93,2.87,1.34
35.0050,0.06,0.12,-0.98,3.66,2.99,2.32
35.0310,0.09,0.13,-0.99,4.76,3.17,1.65
35.0380,0.07,0.13,-0.98,3.85,3.30,1.04
35.0530,0.07,0.13,-0.98,1.95,3.42,1.71
35.0770,0.08,0.13,-0.99,1.83,3.23,2.32
35.0920,0.08,0.13,-0.98,1.59,2.81,3.11
35.1080,0.08,0.13,-0.98,2.08,2.26,4.21
35.1250,0.07,0.11,-0.99,2.99,2.50,4.82
35.1330,0.07,0.12,-0.98,3.91,3.17,2.32
35.1580,0.08,0.13,-0.99,3.54,3.11,2.08
35.1720,0.09,0.14,-0.98,2.08,3.36,2.26
35.1760,0.09,0.14,-0.98,2.32,2.87,4.94
35.1920,0.08,0.13,-0.98,2.44,3.05,4.52
35.2170,0.08,0.13,-0.98,2.32,3.05,4.33
35.2350,0.07,0.12,-0.99,3.60,2.75,4.64
35.2500,0.07,0.11,-0.99,3.05,3.17,3.72
35.2650,0.08,0.14,-0.98,2.38,3.11,4.21
35.2810,0.08,0.12,-0.99,2.93,2.69,5.80
35.2850,0.07,0.11,-0.99,2.81,2.81,3.17
35.3120,0.08,0.12,-0.98,2.99,3.23,2.20
35.3180,0.08,0.13,-0.98,3.54,2.75,2.01
35.3340,0.08,0.13,-0.98,3.05,3.11,2.01
35.3500,0.08,0.12,-0.98,3.17,2.93,1.53
35.3720,0.08,0.13,-0.98,3.54,2.81,1.83
35.3870,0.08,0.13,-0.99,3.17,2.56,1.59
35.4030,0.08,0.13,-0.98,2.87,2.87,1.83
35.4080,0.08,0.12,-0.98,4.15,2.62,1.65
35.4340,0.07,0.12,-0.99,4.52,2.81,0.98
35.4400,0.08,0.13,-0.98,3.23,3.30,1.22
35.4650,0.08,0.14,-0.98,2.26,3.17,1.95
35.4810,0.09,0.14,-0.98,3.05,2.56,3.72
35.4970,0.08,0.12,-0.98,3.23,2.69,4.33
35.5120,0.07,0.12,-0.99,3.91,2.56,3.60
35.5280,0.07,0.11,-0.99,3.72,2.75,2.87
35.5430,0.08,0.13,-0.98,3.78,2.93,1.89
35.5590,0.08,0.13,-0.98,3.66,2.99,2.01
35.5750,0.08,0.13,-0.98,3.30,3.17,1.95
35.5900,0.08,0.13,-0.98,2.93,3.05,2.01
35.5990,0.08,0.14,-0.99,3.54,2.56,2.75
35.6160,0.07,0.11,-0.99,3.42,2.99,3.30
35.6340,0.07,0.12,-0.99,3.72,3.30,2.26
35.6490,0.08,0.13,-0.98,3.30,3.11,2.01
35.6640,0.08,0.13,-0.98,3.11,2.87,2.14
35.6660,0.08,0.13,-0.98,3.05,2.69,2.56
35.6950,0.08,0.12,-0.98,3.30,2.62,3.11
35.7110,0.08,0.13,-0.98,3.36,3.05,2.75
35.7270,0.08,0.12,-0.98,3.05,2.50,3.91
35.7420,0.07,0.12,-0.99,3.23,3.23,2.99
35.7580,0.07,0.12,-0.98,3.60,3.05,2.01
35.7740,0.08,0.13,-0.99,3.72,3.30,1.95
35.7890,0.08,0.13,-0.98,3.05,2.87,2.14
35.8000,0.09,0.14,-0.98,2.93,2.99,2.69
35.8160,0.07,0.11,-0.98,2.99,2.62,4.15
35.8320,0.06,0.11,-0.99,3.42,3.17,2.50
35.8490,0.07,0.13,-0.99,3.42,3.42,2.08
35.8640,0.08,0.13,-0.99,3.30,2.69,2.08
35.8790,0.09,0.15,-0.98,2.93,2.69,3.05
35.8940,0.10,0.15,-0.98,2.38,2.20,6.41
35.9100,0.09,0.13,-0.98,2.93,2.14,6.35
35.9250,0.07,0.11,-0.99,2.93,2.62,4.64
35.9350,0.07,0.11,-0.99,2.75,2.87,3.17
35.9490,0.07,0.12,-0.98,3.54,2.38,2.93
35.9710,0.08,0.12,-0.98,3.11,2.81,3.05
35.9820,0.08,0.13,-0.98,3.05,2.56,2.99
35.9980,0.08,0.13,-0.98,3.48,2.50,3.97
36.0150,0.08,0.13,-0.98,3.48,2.69,4.09
36.0320,0.08,0.13,-0.99,3.36,2.62,4.76
36.0470,0.08,0.12,-0.98,3.30,2.44,4.21
36.0620,0.08,0.12,-0.98,3.72,3.05,2.50
36.0780,0.07,0.12,-0.99,3.60,3.05,1.89
36.0930,0.08,0.13,-0.98,3.11,2.87,2.01
36.1090,0.08,0.14,-0.98,3.23,2.50,2.69
36.1240,0.08,0.12,-0.98,2.99,2.69,3.30
36.1390,0.08,0.12,-0.98,3.11,2.99,3.11
36.1480,0.07,0.12,-0.99,3.60,2.81,2.14
36.1650,0.08,0.13,-0.98,3.54,2.99,1.95
36.1830,0.08,0.13,-0.99,3.30,3.05,2.08
36.1990,0.08,0.14,-0.98,2.81,3.23,2.01
36.2140,0.08,0.13,-0.98,2.87,3.23,2.69
36.2300,0.08,0.12,-0.98,3.11,3.17,2.26
36.2350,0.08,0.13,-0.98,3.72,3.11,2.14
36.2620,0.08,0.13,-0.98,3.72,2.75,2.20
36.2780,0.08,0.12,-0.99,3.54,2.75,2.38
36.2940,0.08,0.13,-0.98,3.05,2.93,2.01
36.2990,0.08,0.13,-0.98,2.93,3.11,2.01
36.3150,0.08,0.13,-0.98,3.54,3.05,2.38
36.3390,0.09,0.14,-0.98,3.42,3.11,2.44
36.3400,0.09,0.14,-0.98,3.48,2.69,3.30
36.3710,0.08,0.14,-0.98,3.30,2.56,3.91
36.3870,0.07,0.12,-0.98,3.36,2.62,4.58
36.4030,0.06,0.11,-0.99,3.42,2.62,3.30
36.4180,0.08,0.12,-0.98,3.23,2.81,2.32
36.4330,0.08,0.13,-0.98,3.23,2.75,2.26
36.4480,0.08,0.13,-0.98,3.30,2.56,2.38
36.4560,0.08,0.13,-0.98,3.30,2.38,2.38
36.4720,0.09,0.14,-0.98,2.99,2.62,2.56
36.4940,0.08,0.13,-0.98,3.11,2.56,3.66
36.5090,0.07,0.12,-0.99,3.05,2.38,4.03
36.5240,0.07,0.12,-0.98,3.11,2.44,3.60
36.5360,0.08,0.13,-0.98,3.23,2.62,3.72
36.5480,0.08,0.14,-0.98,3.17,2.75,4.21
36.5690,0.09,0.13,-0.98,3.23,2.32,5.37
36.5860,0.08,0.11,-0.98,2.87,2.75,3.60
36.6010,0.07,0.11,-0.99,3.17,3.23,2.32
36.6170,0.07,0.12,-0.99,3.36,3.05,1.89
36.6320,0.08,0.13,-0.98,3.30,2.81,2.08
36.6480,0.08,0.13,-0.98,2.99,3.05,1.95
36.6640,0.10,0.15,-0.97,2.75,3.17,2.75
36.6790,0.09,0.13,-0.98,3.48,2.75,4.46
36.6860,0.06,0.11,-0.99,3.48,3.11,2.62
36.7100,0.07,0.12,-0.98,2.99,3.05,2.01
36.7250,0.08,0.13,-0.99,3.30,3.23,2.08
36.7360,0.08,0.13,-0.98,3.42,2.81,1.95
36.7510,0.08,0.13,-0.98,2.69,3.11,1.95
36.7670,0.09,0.14,-0.98,2.56,3.48,2.14
36.7770,0.09,0.14,-0.98,3.30,2.87,2.87
36.7950,0.08,0.12,-0.99,3.60,2.62,2.75
36.8100,0.08,0.13,-0.98,3.23,3.11,2.08
36.8300,0.08,0.13,-0.98,3.11,2.99,2.20
36.8450,0.08,0.14,-0.98,3.17,2.50,2.69
36.8610,0.08,0.13,-0.98,3.23,2.62,3.17
36.8750,0.09,0.13,-0.98,3.30,2.75,3.42
36.8840,0.08,0.13,-0.98,3.36,2.87,3.97
36.9000,0.08,0.13,-0.98,3.23,2.75,4.64
36.9150,0.07,0.11,-0.99,3.36,2.81,4.58
36.9370,0.07,0.12,-0.98,3.48,2.81,2.38
36.9540,0.08,0.13,-0.98,3.48,2.93,2.01
36.9690,0.09,0.14,-0.98,3.23,3.05,2.14
36.9840,0.09,0.14,-0.98,2.87,2.75,3.05
36.9980,0.08,0.13,-0.98,3.23,2.81,3.85
37.0140,0.07,0.12,-0.98,3.60,2.62,3.23
37.0290,0.07,0.12,-0.99,4.09,2.99,2.56
37.0370,0.08,0.13,-0.98,3.48,2.81,2.62
37.0530,0.08,0.13,-0.98,2.99,2.69,3.05
37.0740,0.08,0.13,-0.98,2.50,2.87,3.11
37.0900,0.07,0.12,-0.98,3.23,2.50,2.99
37.0930,0.08,0.13,-0.99,3.30,2.87,2.93
37.1220,0.08,0.13,-0.98,3.05,2.75,3.23
37.1360,0.08,0.13,-0.98,3.23,2.75,3.36
37.1430,0.09,0.14,-0.98,2.81,3.30,3.36
37.1680,0.08,0.14,-0.98,2.81,2.87,3.78
37.1830,0.08,0.13,-0.98,2.75,3.05,4.64
37.1870,0.07,0.12,-0.98,2.75,2.08,5.07
37.2140,0.07,0.11,-0.99,3.11,2.93,3.54
37.2290,0.08,0.12,-0.98,3.42,2.93,2.32
37.2370,0.08,0.13,-0.98,3.42,3.11,2.14
37.2530,0.08,0.13,-0.98,2.99,2.99,2.08
37.2750,0.09,0.15,-0.98,3.11,2.87,2.44
37.2770,0.09,0.14,-0.98,3.42,2.75,4.21
37.3050,0.07,0.12,-0.99,3.30,3.23,4.03
37.3110,0.08,0.13,-0.98,3.17,3.42,1.95
37.3260,0.09,0.14,-0.98,2.81,3.17,2.08
37.3430,0.09,0.15,-0.98,2.87,2.93,3.05
37.3650,0.08,0.13,-0.98,2.93,2.75,5.62
37.3810,0.07,0.11,-0.99,3.05,2.32,5.62
37.3960,0.07,0.11,-0.99,3.05,3.17,3.17
37.4120,0.08,0.13,-0.98,3.42,2.87,2.08
37.4280,0.08,0.13,-0.98,3.11,2.62,2.20
37.4370,0.09,0.15,-0.98,2.87,2.93,3.17
37.4590,0.08,0.13,-0.98,3.30,2.87,4.03
37.4670,0.08,0.12,-0.98,3.30,2.87,2.99
37.4900,0.08,0.13,-0.98,3.05,3.11,2.81
37.5000,0.08,0.13,-0.98,3.17,2.62,3.05
37.5170,0.09,0.13,-0.98,3.36,3.17,3.54
37.5330,0.08,0.12,-0.98,3.23,3.30,3.23
37.5500,0.07,0.12,-0.98,2.99,3.48,2.26
37.5650,0.08,0.12,-0.98,3.42,3.17,2.08
37.5820,0.08,0.13,-0.98,3.60,2.69,2.01
37.5970,0.08,0.13,-0.98,2.81,2.75,1.83
37.6140,0.09,0.15,-0.98,2.75,2.75,2.26
37.6160,0.09,0.14,-0.98,2.93,2.50,4.33
37.6370,0.07,0.11,-0.99,3.23,2.75,4.64
37.6600,0.06,0.11,-0.99,3.17,3.42,2.81
37.6700,0.08,0.13,-0.99,3.72,3.48,2.14
37.6870,0.08,0.13,-0.98,3.48,2.81,2.01
37.7030,0.08,0.13,-0.98,2.75,3.30,2.01
37.7200,0.08,0.13,-0.98,2.50,3.17,2.01
37.7360,0.08,0.13,-0.98,3.30,2.93,2.69
37.7520,0.08,0.13,-0.99,3.60,2.93,3.05
37.7680,0.08,0.13,-0.98,3.54,2.87,3.11
37.7710,0.09,0.15,-0.98,3.05,3.11,3.36
37.7980,0.09,0.14,-0.98,3.05,2.50,5.37
37.8050,0.07,0.11,-0.99,3.48,2.87,5.07
37.8210,0.06,0.11,-0.99,3.17,3.36,2.32
37.8440,0.08,0.13,-0.98,3.17,3.72,2.08
37.8590,0.08,0.13,-0.98,3.54,2.75,1.95
37.8700,0.08,0.13,-0.98,3.05,3.11,2.14
37.8860,0.08,0.13,-0.98,3.23,2.93,2.01
37.9020,0.08,0.13,-0.98,3.11,3.30,1.83
37.9140,0.10,0.15,-0.98,3.36,3.23,1.95
37.9290,0.09,0.14,-0.98,3.11,2.75,2.81
37.9470,0.08,0.13,-0.98,2.87,2.69,4.15
37.9650,0.08,0.13,-0.98,2.93,2.81,4.46
37.9800,0.08,0.14,-0.98,2.56,2.44,5.13
37.9960,0.08,0.13,-0.98,2.93,2.38,5.86
37.9970,0.08,0.13,-0.98,3.05,2.32,5.62
38.0260,0.07,0.11,-0.99,2.99,3.05,4.70
38.0410,0.07,0.12,-0.99,3.23,2.87,3.36
38.0470,0.07,0.12,-0.99,3.17,3.17,3.36
38.0620,0.08,0.12,-0.98,3.42,2.99,2.81
38.0870,0.09,0.14,-0.98,3.42,2.93,2.69
38.1020,0.09,0.15,-0.98,3.11,2.69,3.72
38.1050,0.09,0.13,-0.98,3.05,2.75,4.39
38.1210,0.08,0.13,-0.99,3.05,2.69,3.78
38.1420,0.07,0.12,-0.98,3.23,2.32,3.60
38.1610,0.06,0.12,-0.99,3.42,2.56,3.05
38.1760,0.08,0.13,-0.98,2.99,2.56,2.38
38.1930,0.09,0.14,-0.98,3.23,2.75,2.38
38.2090,0.09,0.15,-0.98,2.87,2.81,3.97
38.2230,0.09,0.15,-0.98,2.99,2.69,5.92
38.2390,0.08,0.12,-0.98,3.11,2.44,5.98
38.2430,0.07,0.11,-0.99,2.99,3.48,3.54
38.2700,0.08,0.13,-0.98,2.99,3.17,2.75
38.2770,0.09,0.14,-0.98,3.05,3.11,3.54
38.2930,0.09,0.14,-0.98,2.69,2.44,5.25
38.3100,0.08,0.14,-0.98,2.69,2.44,5.98
38.3270,0.08,0.12,-0.99,2.62,2.62,6.41
38.3430,0.07,0.11,-0.99,2.87,2.93,4.39
38.3590,0.07,0.12,-0.98,3.05,3.05,2.44
38.3740,0.08,0.13,-0.98,3.78,2.56,2.14
38.3890,0.08,0.13,-0.98,3.60,2.69,2.08
38.4010,0.09,0.14,-0.98,2.93,2.93,2.20
38.4160,0.09,0.14,-0.98,2.87,2.75,4.64
38.4360,0.08,0.13,-0.98,3.05,2.62,4.82
38.4390,0.07,0.12,-0.98,2.62,2.87,4.09
38.4670,0.07,0.13,-0.98,2.99,2.56,4.03
38.4820,0.08,0.13,-0.98,2.56,2.69,3.91
38.4880,0.08,0.14,-0.98,2.81,2.87,4.76
38.5040,0.08,0.12,-0.98,2.75,2.93,4.58
38.5260,0.07,0.12,-0.99,3.17,2.56,3.66
38.5430,0.07,0.12,-0.98,3.11,3.23,2.87
38.5590,0.08,0.12,-0.98,3.36,2.81,2.26
38.5750,0.08,0.13,-0.98,3.23,3.60,2.20
38.5770,0.09,0.14,-0.98,2.87,3.05,2.75
38.5920,0.08,0.12,-0.98,3.42,3.17,3.23
38.6220,0.07,0.12,-0.98,3.54,3.30,2.08
38.6370,0.08,0.13,-0.98,3.23,3.23,2.01
38.6430,0.08,0.13,-0.98,2.99,3.05,2.01
38.6690,0.08,0.13,-0.98,2.87,3.17,2.08
38.6850,0.09,0.14,-0.98,2.56,3.60,2.26
38.6930,0.09,0.14,-0.98,3.05,2.81,3.48
38.7090,0.08,0.12,-0.98,3.17,2.99,3.66
38.7260,0.08,0.13,-0.99,3.30,3.11,3.48
38.7430,0.08,0.12,-0.99,3.23,3.11,2.44
38.7590,0.08,0.13,-0.98,3.23,3.23,2.01
38.7750,0.08,0.13,-0.98,2.99,3.48,2.08
38.7910,0.09,0.14,-0.98,2.75,3.30,1.95
38.7930,0.09,0.15,-0.98,3.05,2.75,3.72
38.8090,0.08,0.13,-0.98,2.87,2.44,5.19
38.8350,0.07,0.12,-0.98,2.62,2.69,4.94
38.8520,0.07,0.11,-0.99,3.23,3.17,3.66
38.8670,0.08,0.13,-0.98,4.15,3.05,2.14
38.8830,0.08,0.13,-0.98,3.60,3.23,1.95
38.8980,0.08,0.13,-0.98,2.93,3.54,2.08
38.9020,0.09,0.14,-0.98,3.05,2.93,2.20
38.9170,0.09,0.13,-0.98,3.05,3.30,2.75
38.9410,0.07,0.12,-0.98,3.05,3.05,2.93
38.9580,0.07,0.12,-0.99,3.17,2.75,2.44
38.9740,0.08,0.13,-0.98,3.72,2.69,1.95
38.9900,0.08,0.13,-0.98,3.42,3.23,2.01
39.0060,0.08,0.13,-0.98,2.75,3.42,1.83
39.0220,0.08,0.13,-0.98,2.50,3.17,1.77
39.0380,0.08,0.13,-0.98,3.05,2.87,2.08
39.0540,0.08,0.13,-0.98,3.36,3.11,2.08
39.0700,0.08,0.13,-0.98,3.05,3.17,2.08
39.0860,0.08,0.14,-0.98,2.99,3.17,2.20
39.1010,0.09,0.14,-0.98,2.93,2.75,3.17
39.1150,0.08,0.14,-0.98,2.87,2.75,4.58
39.1240,0.08,0.12,-0.98,2.62,3.11,4.82
39.1420,0.06,0.11,-0.99,2.87,3.30,3.36
39.1570,0.08,0.13,-0.99,3.78,3.17,2.01
39.1800,0.08,0.13,-0.98,3.48,2.81,1.89
39.1960,0.08,0.13,-0.98,2.75,3.30,1.95
39.2120,0.08,0.13,-0.98,2.62,3.42,2.01
39.2270,0.09,0.14,-0.98,3.23,3.30,2.50
39.2430,0.08,0.13,-0.98,3.48,3.17,3.17
39.2590,0.08,0.12,-0.99,3.36,2.87,3.11
39.2750,0.08,0.12,-0.98,3.23,2.99,2.87
39.2890,0.08,0.13,-0.98,3.23,2.93,3.05
39.2990,0.09,0.14,-0.98,3.17,3.48,3.60
39.3150,0.08,0.13,-0.98,3.17,3.05,3.72
39.3320,0.08,0.13,-0.98,3.05,3.23,3.48
39.3490,0.07,0.12,-0.98,3.23,3.30,3.48
39.3640,0.07,0.12,-0.99,3.54,2.99,2.99
39.3800,0.08,0.13,-0.98,3.23,3.30,2.01
39.3830,0.08,0.13,-0.98,2.93,3.11,2.08
39.4110,0.09,0.15,-0.98,2.81,3.17,2.26
39.4280,0.08,0.13,-0.98,3.11,2.38,3.42
39.4380,0.08,0.11,-0.99,3.30,2.87,3.23
39.4610,0.07,0.11,-0.98,3.60,2.87,1.95
39.4660,0.08,0.13,-0.98,3.85,3.17,2.08
39.4920,0.08,0.13,-0.98,3.17,2.69,2.08
39.4980,0.08,0.14,-0.98,2.26,3.36,2.20
39.5220,0.09,0.14,-0.98,3.23,2.81,3.36
39.5330,0.07,0.12,-0.98,3.36,2.93,4.03
39.5480,0.07,0.12,-0.99,3.23,3.17,3.54
39.5670,0.08,0.12,-0.98,3.30,2.62,2.87
39.5820,0.08,0.13,-0.98,3.36,2.62,2.81
39.5860,0.09,0.15,-0.98,2.87,3.30,3.42
39.6010,0.10,0.14,-0.98,3.11,2.93,4.70
39.6230,0.08,0.12,-0.98,3.23,3.05,4.03
39.6390,0.07,0.12,-0.99,3.23,3.97,2.44
39.6560,0.08,0.13,-0.99,3.36,3.36,2.26
39.6730,0.09,0.14,-0.98,3.60,2.81,2.32
39.6900,0.08,0.14,-0.98,3.48,2.87,2.87
39.7050,0.07,0.12,-0.98,3.36,3.05,2.99
39.7210,0.07,0.12,-0.99,3.48,3.54,2.62
39.7370,0.07,0.12,-0.98,3.48,3.11,2.50
39.7520,0.08,0.13,-0.98,2.99,3.05,2.50
39.7570,0.09,0.14,-0.98,3.05,2.87,3.05
39.7730,0.09,0.13,-0.98,3.30,2.69,4.09
39.7880,0.07,0.12,-0.99,3.05,3.23,3.42
39.8110,0.07,0.11,-0.98,3.30,3.30,2.32
39.8290,0.08,0.13,-0.98,3.60,3.05,2.01
39.8450,0.08,0.13,-0.98,3.60,3.11,2.14
39.8620,0.08,0.13,-0.98,2.81,3.11,2.01
39.8780,0.09,0.14,-0.98,3.17,3.11,2.75
39.8940,0.08,0.13,-0.98,3.11,3.11,3.42
39.8950,0.08,0.13,-0.98,2.81,3.36,2.99
39.9120,0.08,0.13,-0.98,3.17,3.11,2.87
39.9420,0.09,0.14,-0.98,3.36,2.87,3.23
39.9450,0.09,0.14,-0.98,3.17,3.23,3.91
39.9740,0.08,0.14,-0.98,3.05,3.36,4.15
39.9900,0.09,0.14,-0.98,3.30,2.44,5.49
39.9950,0.08,0.14,-0.98,3.48,2.08,6.47
40.0200,0.08,0.13,-0.98,3.54,2.44,6.71
40.0290,0.07,0.12,-0.98,3.11,2.87,5.31
40.0450,0.06,0.11,-0.99,3.17,3.36,3.17
40.0610,0.07,0.13,-0.98,3.23,3.30,2.08
40.0790,0.08,0.13,-0.98,3.17,3.11,2.08
40.0940,0.09,0.14,-0.98,2.99,3.23,2.44
40.1110,0.10,0.14,-0.98,3.54,3.23,2.75
40.1280,0.07,0.13,-0.98,3.36,3.42,2.20
40.1430,0.07,0.13,-0.98,3.42,3.11,2.08
40.1590,0.08,0.13,-0.98,2.75,3.48,2.69
40.1620,0.08,0.13,-0.98,2.81,3.11,3.23
40.1900,0.09,0.14,-0.98,2.69,3.11,3.72
40.1950,0.08,0.14,-0.98,2.50,2.81,4.76
40.2100,0.08,0.13,-0.98,2.26,2.99,5.25
40.2350,0.07,0.12,-0.99,2.99,2.75,4.70
40.2510,0.07,0.12,-0.99,3.05,2.62,4.39
40.2670,0.07,0.12,-0.99,2.99,2.56,4.15
40.2690,0.08,0.13,-0.98,2.99,2.81,3.85
40.2850,0.08,0.13,-0.98,2.99,2.81,4.09
40.3080,0.09,0.14,-0.98,3.11,2.81,4.15
40.3260,0.08,0.13,-0.98,3.42,2.87,3.66
40.3420,0.08,0.13,-0.98,3.42,2.75,3.23
40.3580,0.08,0.14,-0.98,2.93,2.87,2.99
40.3740,0.09,0.14,-0.98,2.87,2.44,4.88
40.3760,0.08,0.12,-0.99,2.87,2.93,5.86
40.4050,0.08,0.12,-0.99,2.69,3.30,3.72
40.4080,0.09,0.14,-0.98,3.17,2.81,3.36
40.4350,0.09,0.15,-0.98,3.66,2.69,5.00
40.4410,0.09,0.15,-0.98,3.30,2.14,6.29
40.4590,0.08,0.13,-0.98,3.54,1.89,8.06
40.4750,0.06,0.11,-0.99,3.66,2.69,5.49
40.4910,0.06,0.10,-0.99,2.93,3.42,3.36
40.5090,0.07,0.11,-0.99,2.62,3.42,2.32
40.5250,0.08,0.13,-0.98,3.42,3.23,2.20
40.5410,0.08,0.14,-0.98,3.60,2.99,2.20
40.5580,0.09,0.14,-0.98,3.17,2.69,3.48
40.5590,0.09,0.14,-0.98,2.75,3.23,4.21
40.5900,0.08,0.12,-0.98,2.69,3.36,3.78
40.5910,0.07,0.12,-0.99,3.17,3.23,3.05
40.6080,0.07,0.13,-0.98,3.23,3.05,2.62
40.6240,0.08,0.14,-0.98,3.23,3.30,2.56
40.6480,0.09,0.14,-0.98,3.30,2.44,3.97
40.6650,0.08,0.13,-0.98,3.85,2.87,4.70
40.6650,0.07,0.12,-0.98,3.42,2.81,2.93
40.6960,0.07,0.13,-0.98,3.30,3.11,2.50
40.7110,0.08,0.14,-0.98,2.69,3.17,2.01
40.7280,0.09,0.15,-0.98,2.62,2.81,2.99
40.7440,0.08,0.13,-0.98,2.81,3.23,4.09
40.7590,0.06,0.12,-0.99,3.05,3.36,2.81
40.7650,0.08,0.13,-0.98,2.87,3.54,2.08
40.7810,0.08,0.13,-0.98,2.93,3.17,2.01
40.8040,0.08,0.13,-0.98,2.93,3.05,2.20
40.8190,0.09,0.14,-0.98,3.05,3.17,2.38
40.8360,0.08,0.13,-0.98,3.36,3.11,2.93
40.8520,0.08,0.14,-0.98,3.54,3.05,3.17
40.8680,0.08,0.13,-0.98,3.11,2.99,3.72
40.8830,0.08,0.13,-0.98,2.93,3.05,3.48
40.8860,0.07,0.13,-0.98,2.99,3.11,3.17
40.9010,0.08,0.13,-0.98,2.81,2.99,2.26
40.9260,0.09,0.14,-0.98,3.42,2.99,2.20
40.9420,0.08,0.14,-0.98,3.30,3.05,3.05
40.9600,0.08,0.14,-0.98,2.93,2.62,3.91
40.9750,0.08,0.13,-0.98,3.05,3.17,3.72
40.9920,0.07,0.13,-0.98,3.05,3.36,3.17
41.0070,0.07,0.13,-0.98,3.48,2.81,3.30
41.0080,0.08,0.13,-0.98,2.99,2.99,3.05
41.0250,0.09,0.14,-0.98,2.50,3.17,3.60
41.0540,0.08,0.13,-0.98,3.05,2.69,4.21
41.0590,0.07,0.12,-0.98,3.11,3.11,2.87
41.0840,0.07,0.13,-0.98,3.36,2.99,2.32
41.0920,0.07,0.13,-0.98,3.48,2.99,2.56
41.1080,0.08,0.14,-0.98,3.23,3.11,2.44
41.1250,0.09,0.14,-0.98,2.81,3.05,2.87
41.1420,0.08,0.12,-0.98,2.56,3.11,3.72
41.1600,0.07,0.13,-0.98,2.99,3.17,2.32
41.1750,0.08,0.13,-0.98,3.17,3.30,2.50
41.1920,0.08,0.14,-0.98,3.54,2.81,2.87
41.2080,0.08,0.14,-0.98,3.17,3.17,3.78
41.2240,0.08,0.13,-0.98,3.11,2.93,4.46
41.2250,0.08,0.13,-0.98,2.75,3.05,3.48
41.2430,0.07,0.13,-0.98,3.05,3.11,2.93
41.2590,0.07,0.13,-0.99,3.42,3.11,2.87
41.2760,0.08,0.13,-0.98,3.42,3.30,2.62
41.2920,0.08,0.14,-0.98,3.30,3.36,2.81
41.3090,0.09,0.14,-0.98,2.69,2.75,4.09
41.3330,0.08,0.12,-0.98,2.93,2.75,4.76
41.3420,0.07,0.12,-0.98,3.42,2.99,3.42
41.3580,0.07,0.13,-0.98,3.48,3.05,2.56
41.3740,0.08,0.14,-0.98,3.36,3.48,2.32
41.3940,0.09,0.14,-0.98,3.23,3.30,2.69
41.3970,0.09,0.14,-0.98,2.87,3.36,4.03
41.4240,0.08,0.13,-0.98,2.87,2.93,4.76
41.4290,0.08,0.13,-0.98,2.56,2.81,5.43
41.4460,0.08,0.13,-0.98,2.62,2.69,6.10
41.4630,0.07,0.12,-0.99,3.05,2.62,5.92
41.4810,0.07,0.12,-0.98,3.23,3.30,3.66
41.4960,0.08,0.13,-0.98,2.81,3.48,2.75
41.5120,0.08,0.14,-0.98,2.81,2.99,2.99
41.5330,0.09,0.14,-0.98,2.56,2.87,4.27
41.5480,0.08,0.14,-0.98,2.75,2.75,5.86
41.5640,0.08,0.10,-0.99,2.69,2.93,6.10
41.5680,0.07,0.12,-0.98,2.75,2.87,4.64
41.5840,0.08,0.13,-0.98,2.87,2.99,4.15
41.6080,0.08,0.13,-0.98,2.99,2.81,4.27
41.6250,0.08,0.13,-0.98,2.93,2.99,4.58
41.6260,0.08,0.13,-0.98,3.30,2.75,5.00
41.6420,0.08,0.12,-0.98,2.87,2.93,4.09
41.6720,0.08,0.13,-0.99,2.99,2.75,3.60
41.6750,0.08,0.12,-0.99,3.23,2.87,3.11
41.6920,0.08,0.14,-0.98,2.87,3.17,2.44
41.7070,0.09,0.14,-0.98,3.05,2.75,3.48
41.7310,0.08,0.14,-0.98,3.17,2.93,4.52
41.7480,0.08,0.13,-0.98,3.36,2.38,5.43
41.7640,0.08,0.12,-0.98,3.11,2.62,5.37
41.7800,0.07,0.12,-0.98,2.93,2.87,4.27
41.7960,0.08,0.14,-0.98,3.11,2.81,3.66
41.8110,0.09,0.14,-0.98,3.36,2.62,4.70
41.8280,0.08,0.14,-0.98,2.93,2.69,5.49
41.8440,0.08,0.13,-0.98,2.75,2.50,5.55
41.8600,0.07,0.11,-0.98,3.11,3.17,4.76
41.8650,0.08,0.13,-0.98,2.99,2.56,3.30
41.8810,0.08,0.13,-0.98,3.30,2.69,3.17
41.8960,0.08,0.14,-0.98,3.11,3.05,3.23
41.9190,0.09,0.14,-0.98,2.87,3.30,3.97
41.9350,0.09,0.14,-0.98,2.62,3.05,5.07
41.9540,0.08,0.12,-0.99,3.17,2.81,4.52
41.9690,0.07,0.12,-0.99,3.36,2.62,3.66
41.9850,0.07,0.12,-0.99,3.66,3.17,2.99
42.0020,0.08,0.14,-0.98,3.42,3.11,3.05
42.0160,0.09,0.14,-0.98,3.11,2.81,3.72
42.0310,0.09,0.14,-0.98,2.99,2.87,5.31
42.0460,0.08,0.14,-0.98,3.36,2.93,4.94
42.0610,0.08,0.13,-0.98,3.48,2.62,4.88
42.0770,0.08,0.12,-0.98,3.48,2.99,4.46
42.0870,0.07,0.12,-0.99,3.36,3.11,3.36
42.1030,0.07,0.12,-0.99,2.93,3.60,2.62
42.1200,0.08,0.13,-0.98,3.11,3.23,2.01
42.1360,0.08,0.13,-0.98,3.66,3.17,1.89
42.1520,0.08,0.13,-0.98,3.05,3.17,1.89
42.1680,0.08,0.13,-0.98,2.99,2.81,1.95
42.1820,0.08,0.14,-0.98,2.75,2.81,1.83
42.1970,0.09,0.14,-0.98,2.99,2.75,2.62
42.2030,0.08,0.13,-0.98,3.36,2.99,3.97
42.2190,0.07,0.12,-0.99,3.72,2.99,3.05
42.2430,0.07,0.13,-0.98,3.66,3.23,2.20
42.2450,0.08,0.13,-0.99,3.42,3.36,1.95
42.2760,0.09,0.14,-0.98,3.11,3.05,2.62
42.2900,0.08,0.13,-0.98,2.75,3.05,3.85
42.2960,0.08,0.13,-0.98,2.56,3.48,3.60
42.3120,0.08,0.13,-0.98,2.69,2.99,3.05
42.3340,0.08,0.14,-0.98,2.69,2.87,3.42
42.3500,0.08,0.13,-0.98,3.17,2.32,4.39
42.3650,0.08,0.13,-0.98,3.23,2.87,4.76
42.3810,0.08,0.14,-0.98,3.36,2.93,4.33
42.3860,0.08,0.14,-0.98,3.17,2.87,5.31
42.4010,0.07,0.12,-0.98,2.93,2.81,5.25
42.4170,0.07,0.12,-0.98,2.44,2.99,3.97
42.4400,0.08,0.13,-0.98,3.11,3.23,3.11
42.4570,0.08,0.13,-0.98,2.99,2.81,3.48
42.4730,0.08,0.13,-0.98,2.75,2.93,3.97
42.4890,0.08,0.13,-0.98,2.38,2.93,3.85
42.5050,0.08,0.12,-0.98,2.62,2.99,3.48
42.5070,0.07,0.12,-0.98,3.23,2.87,3.36
42.5240,0.08,0.13,-0.98,3.78,2.56,2.99
42.5430,0.08,0.13,-0.98,3.97,2.62,2.75
42.5690,0.08,0.14,-0.98,3.23,2.62,2.50
42.5830,0.09,0.15,-0.98,2.62,2.87,3.66
42.5990,0.09,0.14,-0.98,2.32,2.75,5.80
42.6070,0.08,0.13,-0.98,2.44,2.81,6.23
42.6240,0.06,0.10,-0.99,3.36,2.62,4.03
42.6430,0.07,0.12,-0.98,3.78,3.30,1.89
42.6580,0.08,0.13,-0.98,4.33,2.99,2.08
42.6740,0.08,0.14,-0.98,3.66,2.62,2.08
42.6910,0.08,0.14,-0.98,2.62,3.54,2.01
42.7060,0.09,0.14,-0.98,2.69,3.48,2.20
42.7070,0.08,0.13,-0.98,3.30,2.99,2.81
42.7380,0.07,0.13,-0.98,2.75,3.30,2.38
42.7430,0.08,0.13,-0.98,3.23,2.87,2.50
42.7700,0.08,0.13,-0.98,3.05,3.05,2.38
42.7740,0.08,0.13,-0.98,3.30,3.54,1.89
42.7910,0.08,0.14,-0.99,3.78,3.30,1.77
42.8160,0.08,0.13,-0.98,3.48,3.11,1.89
42.8240,0.08,0.14,-0.98,3.30,2.87,2.20
42.8430,0.08,0.13,-0.98,3.66,2.56,3.05
42.8610,0.07,0.13,-0.98,3.85,2.93,2.87
42.8770,0.08,0.14,-0.98,3.60,3.11,2.44
42.8940,0.09,0.14,-0.98,3.30,3.17,2.50
42.9100,0.09,0.14,-0.98,3.11,2.87,3.23
42.9250,0.08,0.13,-0.98,2.87,3.11,3.78
42.9280,0.08,0.13,-0.98,2.87,3.17,3.85
42.9450,0.08,0.13,-0.99,3.54,2.99,3.72
42.9620,0.07,0.13,-0.98,3.23,3.23,3.66
42.9780,0.07,0.12,-0.99,2.81,2.93,2.99
42.9950,0.08,0.14,-0.98,2.75,3.60,2.38
43.0180,0.09,0.14,-0.98,2.93,2.69,2.81
43.0280,0.09,0.14,-0.98,2.99,2.44,3.36
43.0440,0.08,0.14,-0.98,2.75,3.05,4.09
43.0590,0.07,0.12,-0.98,2.62,2.75,3.85
43.0780,0.07,0.13,-0.98,2.56,3.72,3.17
43.0930,0.08,0.13,-0.98,2.62,3.11,3.17
43.1080,0.08,0.14,-0.98,3.42,2.50,3.23
43.1190,0.08,0.14,-0.98,3.48,2.69,4.21
43.1350,0.08,0.13,-0.98,2.69,2.93,4.64
43.1520,0.07,0.12,-0.99,2.32,3.42,3.97
43.1690,0.08,0.13,-0.98,2.38,3.36,3.30
43.1840,0.08,0.13,-0.98,2.75,3.36,2.99
43.2000,0.08,0.13,-0.98,3.05,2.81,3.23
43.2140,0.09,0.14,-0.98,3.17,2.81,4.33
43.2190,0.09,0.14,-0.98,3.11,2.50,5.74
43.2440,0.08,0.13,-0.98,2.75,2.87,5.80
43.2590,0.07,0.12,-0.98,2.44,2.93,4.82
43.2740,0.07,0.12,-0.99,2.87,2.99,3.60
43.2850,0.07,0.12,-0.98,3.48,3.05,2.93
43.3020,0.08,0.13,-0.98,3.60,3.05,2.81
43.3180,0.08,0.13,-0.98,3.54,3.17,2.81
43.3360,0.08,0.14,-0.98,3.17,2.99,3.11
43.3520,0.09,0.14,-0.98,2.50,2.99,4.39
43.3670,0.08,0.13,-0.98,2.50,2.75,5.92
43.3830,0.07,0.11,-0.99,2.75,3.30,4.39
43.3980,0.06,0.11,-0.98,3.11,3.48,2.50
43.4020,0.07,0.12,-0.98,3.05,3.48,2.08
43.4180,0.08,0.13,-0.98,3.17,2.93,2.20
43.4440,0.08,0.13,-0.98,3.23,3.05,2.08
43.4600,0.09,0.15,-0.98,2.75,3.05,2.69
43.4780,0.08,0.13,-0.98,3.17,2.75,3.85
43.4930,0.08,0.13,-0.98,2.81,3.17,3.78
43.5090,0.08,0.13,-0.98,2.93,2.99,3.60
43.5240,0.07,0.12,-0.98,3.11,3.11,3.11
43.5400,0.08,0.12,-0.98,3.17,3.30,2.75
43.5440,0.08,0.13,-0.98,3.42,2.75,2.44
43.5590,0.08,0.13,-0.98,3.66,2.87,2.69
43.5800,0.08,0.14,-0.98,3.54,2.81,3.05
43.5980,0.08,0.14,-0.98,2.93,3.42,3.36
43.6150,0.08,0.13,-0.98,2.69,2.81,3.48
43.6310,0.08,0.13,-0.98,2.81,2.62,3.72
43.6470,0.08,0.13,-0.98,3.05,2.62,4.58
43.6480,0.08,0.12,-0.99,2.87,2.62,4.52
43.6780,0.07,0.12,-0.98,3.11,3.23,3.54
43.6950,0.08,0.13,-0.98,3.30,3.54,2.32
43.7090,0.09,0.14,-0.98,3.42,3.05,2.50
43.7260,0.09,0.15,-0.98,3.17,2.75,3.72
43.7420,0.09,0.14,-0.98,2.69,2.81,4.94
43.7480,0.08,0.12,-0.98,2.38,3.05,4.76
43.7640,0.07,0.12,-0.98,2.69,3.48,3.54
43.7860,0.08,0.13,-0.98,3.42,2.62,2.99
43.8020,0.08,0.13,-0.98,3.60,3.05,2.93
43.8200,0.08,0.13,-0.98,3.48,3.11,3.30
43.8350,0.09,0.14,-0.98,2.75,3.30,3.11
43.8520,0.10,0.15,-0.98,2.62,3.23,4.52
43.8670,0.08,0.13,-0.98,2.62,2.75,5.25
43.8810,0.07,0.12,-0.99,2.62,2.93,4.64
43.8860,0.07,0.11,-0.99,2.32,3.30,3.05
43.9020,0.08,0.13,-0.98,2.81,3.05,2.75
43.9250,0.08,0.13,-0.98,3.60,2.62,3.11
43.9410,0.08,0.13,-0.98,3.54,3.11,3.36
43.9590,0.08,0.14,-0.98,3.48,2.81,2.99
43.9740,0.09,0.14,-0.98,2.87,2.93,3.97
43.9910,0.08,0.13,-0.99,2.99,3.05,4.88
44.0070,0.07,0.12,-0.98,2.75,3.17,4.82
44.0080,0.07,0.12,-0.99,2.87,3.23,3.36
44.0390,0.08,0.13,-0.98,2.99,3.05,2.87
44.0450,0.08,0.14,-0.98,3.11,2.75,3.66
44.0590,0.09,0.14,-0.98,3.05,2.50,4.88
44.0750,0.08,0.13,-0.98,2.75,2.81,5.00
44.0920,0.07,0.12,-0.98,2.75,2.87,4.21
44.1080,0.07,0.12,-0.98,2.75,2.81,3.60
44.1300,0.08,0.13,-0.98,3.05,2.93,3.54
44.1470,0.09,0.14,-0.98,2.87,3.17,3.91
44.1620,0.09,0.14,-0.98,2.93,2.69,5.19
44.1770,0.07,0.12,-0.98,2.81,3.11,4.70
44.1810,0.07,0.12,-0.98,2.93,3.17,3.05
44.2090,0.08,0.13,-0.98,3.05,2.87,2.81
44.2140,0.08,0.14,-0.98,3.05,2.99,3.54
44.2300,0.09,0.14,-0.98,3.42,2.56,4.76
44.2540,0.08,0.13,-0.98,3.17,2.56,4.94
44.2700,0.08,0.13,-0.98,2.56,3.48,4.15
44.2730,0.08,0.13,-0.98,2.81,3.17,4.27
44.2890,0.08,0.14,-0.98,3.30,2.44,5.13
44.3130,0.08,0.13,-0.98,2.75,2.32,6.16
44.3300,0.08,0.13,-0.98,2.56,2.75,6.35
44.3460,0.08,0.13,-0.98,2.75,3.17,6.16
44.3620,0.08,0.12,-0.98,2.99,3.17,5.80
44.3780,0.07,0.11,-0.99,2.56,2.93,3.97
44.3940,0.07,0.12,-0.98,2.75,2.99,2.50
44.3960,0.08,0.13,-0.98,3.48,2.75,2.56
44.4130,0.09,0.14,-0.98,3.30,3.17,3.11
44.4290,0.09,0.14,-0.98,2.62,2.81,4.70
44.4470,0.09,0.14,-0.98,2.69,2.50,6.10
44.4630,0.08,0.13,-0.98,2.62,2.69,6.16
44.4900,0.07,0.11,-0.99,2.69,2.75,5.49
44.5060,0.07,0.11,-0.99,2.75,2.81,3.36
44.5200,0.08,0.13,-0.98,2.69,3.23,2.20
44.5290,0.09,0.14,-0.98,3.36,2.87,3.05
44.5460,0.08,0.14,-0.98,3.36,3.36,4.27
44.5640,0.08,0.13,-0.98,3.05,2.99,4.15
44.5790,0.08,0.14,-0.98,2.87,2.87,3.78
44.5960,0.08,0.14,-0.98,3.17,2.26,5.00
44.6120,0.08,0.14,-0.98,2.81,2.69,6.41
44.6290,0.08,0.12,-0.98,2.44,2.50,7.14
44.6450,0.07,0.11,-0.98,2.38,3.30,5.19
44.6460,0.07,0.13,-0.98,2.93,2.87,3.54
44.6630,0.08,0.13,-0.98,3.05,2.75,3.91
44.6790,0.08,0.13,-0.98,3.05,2.99,3.97
44.6960,0.07,0.13,-0.98,2.62,3.72,2.69
44.7130,0.08,0.13,-0.98,3.17,3.17,2.69
44.7290,0.08,0.13,-0.98,3.60,2.99,3.17
44.7470,0.08,0.13,-0.98,3.17,2.93,3.60
44.7620,0.08,0.13,-0.98,3.11,2.99,3.85
44.7780,0.08,0.12,-0.98,3.23,3.05,3.60
44.7990,0.07,0.12,-0.98,3.17,3.36,2.93
44.8150,0.08,0.14,-0.98,3.11,3.36,2.81
44.8320,0.09,0.14,-0.98,3.30,2.81,3.91
44.8490,0.08,0.13,-0.99,3.42,2.62,4.88
44.8640,0.08,0.13,-0.98,2.50,3.17,4.21
44.8800,0.09,0.14,-0.98,2.93,2.99,5.07
44.8950,0.09,0.13,-0.98,3.42,2.69,6.16
44.9100,0.08,0.13,-0.98,3.48,2.38,6.29
44.9200,0.07,0.12,-0.99,3.23,2.93,5.31
44.9360,0.07,0.12,-0.98,3.30,2.62,4.09
44.9550,0.08,0.13,-0.98,3.48,2.81,3.60
44.9700,0.09,0.14,-0.98,2.87,3.05,4.46
44.9850,0.09,0.14,-0.98,2.99,2.69,5.49
44.9950,0.08,0.13,-0.98,2.93,2.56,5.49
45.0120,0.06,0.12,-0.99,2.44,3.23,4.27
45.0290,0.07,0.12,-0.98,2.62,3.54,3.05
45.0450,0.07,0.12,-0.98,2.87,3.23,2.62
45.0610,0.08,0.13,-0.98,3.60,2.87,2.75
45.0770,0.09,0.14,-0.98,3.36,2.75,2.99
45.0780,0.09,0.14,-0.98,3.17,2.99,3.72
45.1090,0.09,0.14,-0.98,2.87,2.56,5.19
45.1110,0.08,0.13,-0.98,2.93,2.93,6.16
45.1420,0.07,0.12,-0.98,2.69,2.75,5.25
45.1450,0.09,0.14,-0.98,2.87,2.44,5.55
45.1740,0.08,0.12,-0.98,3.42,2.26,6.71
45.1890,0.07,0.11,-0.99,3.05,2.87,4.33
45.1960,0.08,0.13,-0.98,2.75,2.99,3.54
45.2120,0.08,0.14,-0.98,2.99,2.93,4.21
45.2350,0.08,0.13,-0.98,2.44,2.99,4.27
45.2450,0.07,0.12,-0.98,1.95,3.05,3.30
45.2610,0.08,0.12,-0.98,2.38,3.11,2.62
45.2760,0.07,0.12,-0.99,3.11,2.87,2.38
45.2880,0.08,0.13,-0.98,3.91,3.17,1.83
45.3050,0.08,0.14,-0.98,3.05,3.30,2.08
45.3210,0.08,0.13,-0.98,2.20,3.23,2.01
45.3380,0.08,0.13,-0.98,2.75,3.05,2.08
45.3550,0.08,0.13,-0.98,3.05,2.99,2.01
45.3710,0.08,0.13,-0.98,3.05,2.99,2.20
45.3860,0.08,0.12,-0.98,3.11,2.99,2.44
45.4030,0.08,0.13,-0.98,3.30,3.72,1.89
45.4190,0.08,0.13,-0.98,3.11,3.30,1.83
45.4350,0.08,0.13,-0.98,2.50,3.54,1.95
45.4500,0.08,0.13,-0.98,2.44,3.54,2.87
45.4660,0.09,0.13,-0.98,3.72,2.81,4.03
45.4800,0.08,0.13,-0.99,3.30,2.93,4.15
45.4940,0.08,0.12,-0.98,2.87,2.93,3.11
45.5050,0.08,0.12,-0.98,3.30,3.30,2.38
45.5210,0.08,0.13,-0.98,3.42,3.30,2.08
45.5430,0.08,0.13,-0.98,3.11,3.30,2.08
45.5590,0.08,0.13,-0.98,2.69,3.30,1.95
45.5750,0.08,0.13,-0.98,3.30,2.99,3.78
45.5910,0.06,0.11,-0.99,3.17,3.11,3.72
45.6060,0.08,0.13,-0.99,3.17,3.11,1.83
45.6220,0.08,0.14,-0.99,3.85,2.20,1.95
45.6370,0.08,0.13,-0.98,3.42,2.75,2.08
45.6450,0.08,0.13,-0.98,3.36,2.81,2.20
45.6570,0.08,0.13,-0.98,3.23,3.11,1.95
45.6820,0.08,0.13,-0.98,3.17,2.93,1.95
45.6980,0.08,0.13,-0.98,3.54,2.75,2.01
45.7130,0.08,0.13,-0.98,3.42,2.93,1.89
45.7160,0.08,0.13,-0.98,3.17,2.81,1.89
45.7320,0.08,0.13,-0.98,3.48,2.75,2.01
45.7580,0.08,0.13,-0.98,3.48,2.99,2.01
45.7740,0.08,0.13,-0.98,3.30,3.60,1.95
45.7750,0.08,0.13,-0.98,2.93,3.48,1.89
45.8060,0.08,0.13,-0.98,3.11,3.60,2.14
45.8090,0.08,0.13,-0.98,3.11,3.54,2.08
45.8250,0.08,0.13,-0.98,2.99,3.54,2.26
45.8490,0.08,0.13,-0.98,2.44,3.97,2.14
45.8660,0.10,0.14,-1.00,2.75,3.78,2.20
45.8820,0.08,0.13,-0.98,3.23,4.27,2.50
45.8980,0.08,0.13,-0.98,3.17,3.48,2.62
45.9140,0.08,0.13,-0.98,2.81,3.48,2.01
45.9150,0.08,0.13,-0.98,3.23,3.05,1.95
45.9440,0.08,0.13,-0.98,2.99,3.11,1.89
45.9590,0.08,0.13,-0.98,3.23,3.42,2.01
45.9650,0.08,0.13,-0.98,3.72,3.78,2.14
45.9830,0.08,0.13,-0.98,4.15,3.60,2.08
46.0000,0.08,0.13,-0.98,4.64,3.91,1.89
46.0160,0.08,0.13,-0.98,4.39,3.91,1.46
46.0360,0.08,0.13,-0.98,2.50,3.42,1.89
46.0510,0.08,0.14,-0.99,2.62,3.48,2.14
46.0670,0.08,0.13,-0.98,2.50,3.05,1.89
46.0830,0.07,0.13,-0.98,3.48,2.69,1.77
46.0990,0.08,0.13,-0.98,3.91,2.56,1.95
46.1140,0.08,0.13,-0.98,3.54,2.50,1.83
46.1300,0.08,0.13,-0.98,2.93,3.05,2.08
46.1460,0.08,0.13,-0.98,2.81,3.36,2.08
46.1530,0.08,0.13,-0.98,3.30,3.36,2.01
46.1690,0.08,0.13,-0.98,3.60,2.81,1.95
46.1860,0.08,0.13,-0.98,2.99,2.87,2.08
46.2020,0.08,0.13,-0.98,3.30,2.56,2.14
46.2190,0.08,0.13,-0.98,3.17,2.99,2.14
46.2360,0.08,0.13,-0.98,3.11,3.48,2.01
46.2510,0.08,0.13,-0.98,3.17,3.60,2.14
46.2670,0.08,0.13,-0.98,3.17,3.85,2.01
46.2830,0.08,0.13,-0.98,3.36,3.23,2.08
46.2860,0.08,0.13,-0.98,3.23,3.36,2.14
46.3140,0.08,0.13,-0.98,2.93,3.30,1.95
46.3290,0.08,0.13,-0.98,3.05,3.05,2.14
46.3450,0.08,0.13,-0.98,3.11,2.93,1.77
46.3510,0.08,0.13,-0.98,3.11,2.75,2.01
46.3760,0.08,0.13,-0.98,3.17,3.05,1.77
46.3920,0.08,0.14,-0.98,3.17,2.75,1.77
46.3930,0.08,0.13,-0.98,2.20,3.05,2.01
46.4240,0.08,0.13,-0.98,2.56,3.36,1.89
46.4270,0.08,0.13,-0.98,2.99,3.30,1.77
46.4560,0.08,0.13,-0.98,3.11,2.69,2.01
46.4600,0.08,0.13,-0.98,2.81,3.23,2.26
46.4770,0.08,0.13,-0.98,2.81,3.17,2.01
46.4930,0.08,0.13,-0.98,3.17,2.81,1.95
46.5100,0.08,0.13,-0.98,3.48,2.99,1.83
46.5260,0.08,0.13,-0.98,3.78,3.11,1.95
46.5470,0.08,0.13,-0.98,3.54,3.23,1.89
46.5490,0.08,0.13,-0.98,3.36,3.11,2.01
46.5770,0.08,0.13,-0.98,3.48,3.36,2.01
46.5920,0.08,0.13,-0.99,3.72,3.05,2.01
46.5980,0.08,0.13,-0.98,3.54,3.30,1.83
46.6150,0.08,0.13,-0.98,3.42,3.30,1.95
46.6310,0.08,0.13,-0.98,3.85,3.11,1.95
46.6480,0.08,0.13,-0.98,4.15,3.30,2.01
46.6650,0.08,0.13,-0.98,3.97,3.42,2.01
46.6820,0.08,0.13,-0.98,2.93,3.48,2.01
46.6980,0.08,0.13,-0.98,2.01,2.81,1.83
46.7140,0.08,0.13,-0.98,1.16,3.17,1.77
46.7290,0.08,0.13,-0.98,2.32,2.93,1.71
46.7450,0.09,0.12,-0.98,3.23,2.81,2.14
46.7490,0.08,0.13,-0.98,3.85,3.05,2.38
46.7650,0.08,0.13,-0.98,4.52,3.23,2.32
46.7890,0.08,0.14,-0.98,5.00,3.05,2.08
46.8060,0.08,0.13,-0.98,3.97,3.72,1.95
46.8220,0.08,0.13,-0.99,3.85,3.30,2.08
46.8390,0.08,0.13,-0.98,4.39,2.87,2.62
46.8560,0.08,0.14,-0.98,4.33,2.81,2.62
46.8710,0.08,0.14,-0.98,3.85,2.93,2.32
46.8730,0.08,0.13,-0.98,3.54,3.42,2.38
46.9040,0.08,0.13,-0.98,3.72,3.60,2.14
46.9210,0.08,0.13,-0.98,3.23,3.48,2.26
46.9360,0.08,0.13,-0.98,3.48,3.66,1.83
46.9530,0.07,0.14,-0.98,3.05,3.60,2.26
46.9680,0.08,0.14,-0.98,3.42,3.36,2.32
46.9850,0.08,0.13,-0.98,2.87,3.11,2.62
47.0000,0.08,0.13,-0.98,2.56,3.36,3.23
47.0150,0.09,0.12,-0.98,2.93,3.30,2.93
47.0300,0.08,0.13,-0.98,3.23,3.36,1.28
47.0450,0.08,0.14,-0.98,3.11,4.52,-1.59
47.0560,0.07,0.15,-0.98,2.75,4.33,-0.61
47.0720,0.07,0.13,-0.98,2.20,3.72,1.59
47.0910,0.08,0.13,-0.98,2.56,3.11,2.01
47.0940,0.08,0.13,-0.98,2.50,2.93,1.95
47.1120,0.08,0.13,-0.98,3.23,3.11,1.83
47.1280,0.08,0.13,-0.98,3.66,2.99,1.95
47.1520,0.08,0.13,-0.98,3.72,2.99,2.01
47.1540,0.08,0.13,-0.98,3.11,3.42,2.14
47.1690,0.08,0.13,-0.98,2.99,2.75,2.01
47.1850,0.08,0.13,-0.98,3.11,2.56,2.01
47.2100,0.08,0.13,-0.98,3.36,2.87,1.89
47.2280,0.08,0.13,-0.98,3.36,2.81,2.01
47.2430,0.08,0.13,-0.98,3.85,2.75,2.08
47.2600,0.08,0.13,-0.98,3.97,3.11,2.01
47.2760,0.08,0.13,-0.98,4.03,2.87,1.95
47.2920,0.08,0.13,-0.98,3.48,2.87,2.01
47.3080,0.08,0.13,-0.98,3.30,2.56,1.95
47.3250,0.08,0.13,-0.98,3.48,2.93,1.95
47.3410,0.08,0.13,-0.98,3.78,2.93,2.14
47.3460,0.08,0.14,-0.98,4.39,3.11,2.20
47.3590,0.08,0.14,-0.98,4.52,3.48,1.89
47.3840,0.08,0.13,-0.98,3.42,3.36,1.65
47.4000,0.08,0.14,-0.98,2.99,3.23,1.77
47.4180,0.08,0.14,-0.98,3.11,3.42,2.08
47.4340,0.08,0.13,-0.98,3.48,3.30,2.14
47.4490,0.08,0.13,-0.98,3.66,2.99,2.14
47.4510,0.09,0.14,-0.98,3.36,3.30,2.14
47.4800,0.08,0.13,-0.98,3.30,3.66,2.08
47.4840,0.08,0.12,-0.98,3.30,3.72,1.89
47.4990,0.08,0.12,-0.98,3.17,3.48,1.65
47.5240,0.08,0.13,-0.98,3.60,3.30,1.46
47.5390,0.08,0.13,-0.98,3.42,3.30,0.92
47.5570,0.07,0.14,-0.98,2.81,3.36,0.24
47.5730,0.08,0.16,-0.98,3.23,3.30,0.43
47.5880,0.08,0.14,-0.97,3.17,3.23,1.71
47.6050,0.08,0.14,-0.98,2.62,3.36,1.83
47.6210,0.08,0.14,-0.98,2.69,3.30,2.08
47.6370,0.08,0.13,-0.98,2.87,2.99,2.14
47.6460,0.07,0.12,-0.98,3.11,3.36,2.01
47.6550,0.07,0.13,-0.98,3.23,3.85,0.67
47.6800,0.08,0.15,-0.98,2.87,4.21,-0.31
