Timestamp, AccX, AccY, AccZ, GyroX, GyroY, GyroZ
0.0110,0.07,0.13,-0.99,1.77,3.42,1.77
0.0260,0.07,0.13,-0.99,2.08,3.17,1.83
0.0410,0.07,0.13,-0.99,2.75,2.75,1.83
0.0560,0.07,0.13,-0.99,3.36,2.32,1.83
0.0670,0.07,0.13,-0.99,3.30,2.50,2.14
0.0830,0.07,0.13,-0.99,3.66,2.56,1.83
0.1010,0.07,0.13,-0.99,3.54,2.56,1.89
0.1170,0.07,0.13,-0.99,3.60,2.32,1.95
0.1310,0.08,0.13,-0.99,3.48,2.20,1.77
0.1470,0.07,0.13,-0.99,3.48,2.38,1.77
0.1510,0.08,0.13,-0.99,3.36,2.14,1.83
0.1660,0.07,0.13,-0.99,3.23,2.01,1.83
0.1910,0.07,0.13,-0.99,3.36,2.26,1.95
0.2060,0.07,0.13,-0.99,3.42,2.81,1.77
0.2170,0.07,0.13,-0.99,3.36,2.56,1.83
0.2330,0.07,0.13,-0.99,3.30,2.44,1.77
0.2500,0.07,0.13,-0.99,2.99,2.50,1.83
0.2660,0.07,0.13,-0.99,2.99,2.56,1.95
0.2810,0.07,0.13,-0.99,3.42,2.44,1.89
0.2960,0.07,0.13,-0.99,3.30,2.38,1.95
0.3110,0.07,0.13,-0.99,3.23,2.38,1.95
0.3260,0.07,0.13,-0.99,3.11,2.50,1.83
0.3410,0.07,0.13,-0.99,3.05,2.81,1.95
0.3560,0.07,0.13,-0.99,2.50,2.99,1.77
0.3670,0.07,0.13,-0.99,2.75,2.87,1.83
0.3830,0.07,0.13,-0.99,2.93,2.50,1.77
0.4020,0.07,0.13,-0.99,3.30,2.75,1.89
0.4170,0.07,0.13,-0.99,3.30,2.44,1.83
0.4320,0.07,0.13,-0.99,3.11,2.50,1.89
0.4470,0.07,0.13,-0.99,2.87,2.75,1.77
0.4640,0.07,0.13,-0.99,2.38,2.50,1.71
0.4780,0.07,0.13,-0.99,2.50,2.44,1.77
0.4940,0.07,0.13,-0.99,2.81,2.69,1.71
0.5030,0.07,0.12,-0.99,2.69,2.44,1.77
0.5200,0.07,0.12,-0.99,2.62,2.56,1.71
0.5370,0.07,0.13,-0.99,2.87,2.50,1.71
0.5540,0.07,0.13,-0.99,2.99,2.50,2.01
0.5700,0.07,0.13,-0.99,2.38,2.93,2.01
0.5870,0.08,0.13,-0.99,2.56,2.75,2.26
0.6020,0.08,0.13,-0.99,2.20,2.93,2.01
0.6190,0.07,0.12,-0.99,2.50,2.44,1.59
0.6350,0.07,0.12,-0.99,3.11,2.44,1.59
0.6490,0.07,0.13,-0.99,3.17,2.14,2.38
0.6650,0.08,0.12,-0.99,2.99,2.38,2.87
0.6810,0.07,0.13,-0.99,3.48,2.44,2.75
0.6870,0.07,0.13,-0.99,2.62,2.81,2.81
0.7030,0.07,0.12,-0.99,3.11,2.14,3.30
0.7190,0.07,0.11,-0.99,3.42,2.14,2.87
0.7420,0.07,0.12,-0.99,3.17,2.44,2.44
0.7590,0.07,0.13,-0.99,3.11,2.08,2.14
0.7750,0.07,0.13,-0.99,3.91,2.62,2.75
0.7910,0.07,0.13,-0.99,3.72,2.44,2.62
0.8070,0.07,0.12,-0.99,3.54,2.20,2.75
0.8240,0.07,0.12,-0.99,3.97,1.89,2.32
0.8260,0.07,0.12,-0.99,3.60,2.44,1.71
0.8420,0.07,0.13,-0.99,3.17,2.50,1.83
0.8670,0.07,0.12,-0.99,3.72,2.38,1.95
0.8850,0.07,0.12,-0.99,3.11,2.56,2.62
0.8950,0.07,0.12,-0.99,3.05,2.50,2.56
0.9100,0.07,0.12,-0.99,3.48,2.26,2.32
0.9290,0.07,0.13,-0.99,3.78,2.26,2.44
0.9470,0.07,0.12,-0.99,4.15,2.44,2.93
0.9630,0.07,0.12,-0.99,4.09,1.89,2.99
0.9810,0.07,0.12,-0.99,3.72,1.95,2.81
0.9960,0.07,0.12,-0.99,3.54,1.83,2.26
1.0130,0.07,0.12,-0.99,2.75,2.56,2.14
1.0290,0.07,0.12,-0.99,3.05,2.50,1.95
1.0440,0.07,0.12,-0.99,3.78,2.56,1.89
1.0470,0.07,0.13,-0.99,3.48,2.38,2.08
1.0780,0.07,0.13,-0.99,3.54,2.26,2.32
1.0940,0.07,0.12,-0.99,4.27,2.01,2.50
1.1080,0.07,0.13,-0.99,4.09,2.26,2.08
1.1130,0.07,0.12,-0.99,3.78,2.26,1.89
1.1290,0.07,0.13,-0.99,3.85,2.20,1.95
1.1500,0.07,0.13,-0.99,3.85,2.20,2.08
1.1680,0.07,0.12,-1.00,3.91,1.95,2.20
1.1830,0.07,0.12,-0.99,3.66,2.38,2.50
1.2000,0.07,0.12,-0.99,4.21,2.14,1.89
1.2140,0.07,0.13,-0.99,3.97,2.01,1.83
1.2310,0.07,0.13,-0.99,3.72,2.38,2.01
1.2480,0.07,0.13,-0.99,4.21,1.77,2.14
1.2630,0.07,0.13,-0.99,3.78,2.44,2.56
1.2680,0.07,0.12,-0.99,3.48,2.32,2.99
1.2820,0.07,0.12,-0.99,3.66,1.83,2.56
1.3090,0.07,0.12,-0.99,3.48,1.95,2.32
1.3190,0.07,0.12,-0.99,3.72,2.08,2.08
1.3360,0.07,0.13,-0.99,3.54,2.08,2.01
1.3510,0.07,0.13,-0.99,3.54,2.14,2.08
1.3690,0.07,0.13,-0.99,4.03,1.89,2.38
1.3840,0.07,0.13,-0.99,3.85,2.26,3.05
1.3990,0.07,0.13,-0.99,3.97,1.95,3.23
1.4150,0.07,0.12,-0.99,3.91,1.65,2.62
1.4310,0.07,0.13,-0.99,3.54,2.08,2.62
1.4480,0.07,0.12,-0.99,3.85,2.26,2.56
1.4630,0.07,0.12,-0.99,3.48,2.56,2.14
1.4690,0.07,0.13,-0.99,3.42,2.56,2.08
1.4850,0.07,0.13,-0.99,3.66,2.75,2.01
1.5060,0.07,0.13,-0.99,3.66,2.32,2.20
1.5230,0.07,0.13,-0.99,3.48,2.44,2.32
1.5390,0.07,0.13,-0.99,3.54,2.44,2.93
1.5550,0.07,0.15,-0.99,2.99,2.56,3.30
1.5700,0.07,0.12,-0.99,3.97,1.95,4.09
1.5860,0.08,0.12,-0.99,2.62,2.14,3.11
1.6020,0.07,0.13,-0.99,3.23,2.26,2.50
1.6180,0.07,0.11,-1.00,3.91,2.20,2.87
1.6330,0.07,0.11,-0.99,3.23,2.14,2.08
1.6470,0.07,0.12,-0.99,3.60,2.32,1.95
1.6640,0.07,0.13,-0.99,3.72,2.38,1.83
1.6790,0.07,0.13,-0.99,3.30,2.32,1.89
1.6950,0.07,0.13,-0.99,3.05,2.14,1.71
1.7060,0.07,0.13,-0.99,3.30,2.38,1.95
1.7230,0.07,0.13,-0.99,3.54,2.56,1.83
1.7390,0.07,0.13,-0.99,3.54,2.44,1.77
1.7560,0.07,0.13,-0.99,2.99,2.32,1.83
1.7730,0.07,0.13,-0.99,3.23,2.56,1.89
1.7880,0.07,0.13,-0.99,3.23,2.20,2.14
1.7890,0.07,0.13,-0.99,3.48,2.14,2.93
1.8190,0.07,0.13,-0.99,3.23,2.38,3.48
1.8340,0.07,0.13,-0.99,3.05,2.08,3.54
1.8500,0.08,0.12,-0.99,3.17,2.26,3.11
1.8650,0.07,0.12,-0.99,3.36,2.32,2.44
1.8800,0.07,0.13,-0.99,3.66,2.87,2.81
1.8950,0.07,0.13,-0.99,3.66,2.56,3.05
1.9060,0.07,0.14,-0.99,3.30,2.38,3.60
1.9230,0.07,0.13,-0.99,3.05,2.20,3.91
1.9390,0.07,0.12,-0.99,3.30,2.32,3.54
1.9560,0.07,0.12,-0.99,3.11,2.44,3.23
1.9730,0.07,0.12,-0.99,3.60,2.50,3.11
1.9890,0.07,0.12,-0.99,3.17,2.44,2.44
2.0050,0.07,0.13,-0.99,2.99,2.26,2.75
2.0220,0.07,0.13,-0.99,3.36,2.56,3.54
2.0380,0.07,0.12,-0.99,3.11,2.32,3.42
2.0540,0.07,0.12,-0.99,3.11,2.01,3.05
2.0680,0.08,0.13,-0.99,3.23,1.89,2.99
2.0840,0.07,0.13,-0.99,3.36,2.44,2.69
2.0890,0.07,0.13,-0.99,3.17,2.44,2.87
2.1040,0.07,0.12,-0.99,3.36,2.14,3.17
2.1280,0.07,0.12,-0.99,3.05,2.08,3.17
2.1290,0.07,0.13,-0.99,3.05,2.20,2.87
2.1580,0.08,0.13,-0.98,2.81,1.95,4.52
2.1740,0.07,0.12,-1.00,3.72,1.95,3.17
2.1810,0.07,0.13,-0.99,2.75,2.20,3.11
2.1960,0.07,0.13,-0.99,3.23,2.32,3.42
2.2130,0.07,0.13,-0.99,3.91,2.14,3.85
2.2280,0.08,0.13,-0.99,3.36,1.59,4.58
2.2460,0.07,0.13,-0.99,3.78,1.71,3.72
2.2620,0.07,0.13,-0.99,2.99,2.14,3.85
2.2790,0.07,0.13,-0.99,2.87,2.14,4.33
2.2940,0.07,0.11,-0.99,3.42,2.14,4.39
2.3090,0.07,0.11,-0.99,3.11,2.56,2.62
2.3260,0.07,0.12,-0.99,3.36,2.08,2.14
2.3420,0.07,0.12,-0.99,3.66,2.01,1.83
2.3580,0.07,0.13,-0.99,3.48,2.20,2.01
2.3740,0.07,0.13,-0.99,3.48,1.89,1.95
2.3890,0.07,0.13,-0.99,3.66,2.01,2.14
2.3950,0.07,0.13,-0.99,3.97,1.95,2.01
2.4110,0.08,0.13,-0.99,3.60,2.50,2.62
2.4350,0.07,0.13,-0.99,3.23,2.08,2.20
2.4500,0.07,0.13,-0.99,2.93,2.26,2.38
2.4650,0.07,0.13,-0.99,3.23,2.01,2.50
2.4800,0.07,0.13,-0.99,3.36,2.01,2.56
2.4840,0.07,0.13,-0.99,3.36,2.44,2.93
2.5110,0.07,0.13,-0.99,3.36,2.14,2.75
2.5260,0.07,0.12,-0.99,3.48,1.89,2.69
2.5410,0.07,0.13,-0.99,3.66,2.26,2.75
2.5510,0.07,0.14,-0.99,3.30,1.83,3.36
2.5690,0.07,0.12,-0.99,4.03,1.71,3.17
2.5860,0.07,0.13,-0.99,3.36,2.50,3.23
2.6030,0.07,0.13,-0.99,3.60,2.32,3.72
2.6190,0.07,0.12,-0.99,3.05,1.89,3.30
2.6190,0.07,0.12,-0.99,3.05,2.08,3.60
2.6490,0.07,0.12,-0.99,3.72,2.26,2.81
2.6640,0.07,0.12,-0.99,3.42,2.50,2.75
2.6810,0.07,0.12,-0.99,3.30,2.38,2.69
2.6970,0.07,0.13,-0.99,3.60,2.20,2.93
2.7140,0.07,0.13,-0.99,3.17,2.38,2.99
2.7300,0.07,0.12,-0.99,3.17,2.08,2.87
2.7460,0.07,0.12,-0.99,3.36,2.20,2.38
2.7600,0.07,0.13,-1.00,3.36,2.14,2.38
2.7700,0.08,0.13,-0.99,3.30,2.20,2.69
2.7850,0.07,0.13,-0.99,3.36,2.44,2.69
2.8020,0.07,0.13,-0.99,3.05,2.08,3.11
2.8180,0.07,0.12,-0.99,3.23,1.95,3.11
2.8350,0.07,0.12,-0.99,3.42,2.38,3.30
2.8520,0.08,0.13,-0.99,3.60,2.14,3.36
2.8670,0.07,0.13,-0.99,3.97,2.50,2.81
2.8830,0.07,0.13,-0.99,2.93,2.14,3.48
2.8990,0.07,0.13,-0.99,3.36,2.08,3.72
2.9150,0.07,0.13,-0.99,3.11,2.14,3.91
2.9310,0.08,0.12,-0.99,3.54,2.14,3.54
2.9470,0.07,0.12,-0.99,3.66,2.01,2.81
2.9630,0.07,0.13,-0.99,3.48,2.26,2.56
2.9780,0.07,0.13,-0.99,3.60,2.26,2.93
2.9940,0.07,0.13,-0.99,3.42,2.38,3.05
3.0090,0.07,0.13,-0.99,3.60,2.01,3.36
3.0180,0.07,0.12,-0.99,3.60,1.89,2.62
3.0340,0.07,0.12,-0.99,3.54,2.20,2.38
3.0550,0.07,0.13,-0.99,3.85,2.08,2.20
3.0710,0.07,0.13,-0.99,3.85,2.32,2.20
3.0870,0.07,0.13,-0.99,3.42,2.14,2.44
3.1030,0.07,0.13,-0.99,2.93,1.95,2.87
3.1190,0.07,0.13,-0.99,3.42,2.32,2.99
3.1350,0.07,0.13,-0.99,3.72,2.20,2.69
3.1490,0.07,0.12,-0.99,3.78,2.14,2.87
3.1640,0.07,0.13,-0.99,3.48,1.95,2.50
3.1810,0.07,0.13,-0.99,3.66,2.56,3.23
3.1970,0.07,0.13,-0.99,3.72,1.95,3.30
3.2120,0.07,0.13,-0.99,3.36,1.83,4.03
3.2210,0.07,0.12,-0.99,3.36,1.77,4.27
3.2370,0.07,0.13,-0.99,3.48,1.28,3.72
3.2550,0.07,0.12,-0.99,3.72,1.77,3.05
3.2710,0.07,0.12,-0.99,3.48,1.89,2.75
3.2890,0.07,0.13,-0.99,3.36,2.14,3.23
3.3040,0.07,0.13,-0.99,3.42,2.14,3.42
3.3200,0.07,0.13,-0.99,3.54,2.08,3.78
3.3360,0.08,0.13,-0.99,3.05,2.20,4.39
3.3530,0.07,0.13,-0.99,3.54,1.89,3.54
3.3690,0.07,0.13,-0.99,3.30,2.38,3.48
3.3720,0.07,0.13,-0.99,3.23,2.26,2.87
3.3870,0.07,0.13,-0.99,3.17,2.26,3.23
3.4090,0.07,0.12,-0.99,3.72,2.14,3.11
3.4270,0.07,0.13,-0.99,3.66,2.38,3.42
3.4420,0.07,0.13,-0.99,3.42,2.14,3.91
3.4600,0.07,0.13,-0.99,3.54,2.14,3.48
3.4750,0.07,0.12,-0.99,3.11,1.95,3.36
3.4920,0.08,0.13,-1.00,3.36,1.83,3.11
3.4930,0.07,0.13,-0.99,3.17,2.44,3.17
3.5090,0.07,0.12,-1.00,3.91,2.14,3.17
3.5400,0.07,0.13,-0.99,3.05,2.26,3.17
3.5430,0.07,0.12,-0.99,2.99,2.26,3.17
3.5700,0.07,0.12,-0.99,3.17,2.14,3.05
3.5860,0.07,0.13,-0.99,3.17,2.44,2.44
3.5930,0.07,0.13,-0.99,3.60,2.50,2.69
3.6100,0.07,0.13,-0.99,3.60,2.26,2.99
3.6260,0.07,0.13,-0.99,3.42,1.77,3.30
3.6430,0.07,0.13,-0.99,3.17,2.14,3.30
3.6590,0.07,0.12,-0.99,3.11,1.89,3.23
3.6790,0.07,0.13,-0.99,3.54,2.50,2.87
3.6950,0.07,0.13,-0.99,3.36,2.44,3.17
3.7120,0.07,0.13,-0.99,3.30,2.38,3.36
3.7280,0.07,0.14,-0.99,3.42,2.26,4.15
3.7440,0.07,0.13,-0.99,3.54,2.01,4.21
3.7590,0.07,0.13,-0.99,3.42,2.01,3.60
3.7720,0.07,0.13,-0.99,3.48,2.01,3.48
3.7810,0.07,0.13,-0.99,3.54,1.89,3.85
3.8020,0.07,0.13,-0.99,3.48,1.95,4.09
3.8190,0.07,0.13,-0.99,3.60,1.95,3.91
3.8360,0.07,0.13,-0.99,3.11,2.08,4.03
3.8520,0.07,0.13,-0.99,3.42,2.08,4.15
3.8670,0.07,0.13,-0.99,3.36,1.89,3.48
3.8820,0.07,0.13,-0.99,3.54,1.83,3.72
3.8980,0.07,0.13,-0.99,3.42,1.83,3.66
3.9120,0.07,0.13,-0.99,3.60,2.20,3.23
3.9270,0.07,0.12,-0.99,3.54,2.32,2.75
3.9430,0.07,0.12,-0.99,3.48,2.08,2.20
3.9580,0.07,0.13,-0.99,3.54,2.20,2.38
3.9720,0.07,0.13,-0.99,3.36,2.08,2.75
3.9860,0.07,0.13,-0.99,3.60,2.56,2.99
4.0030,0.07,0.13,-0.99,3.36,2.32,2.93
4.0190,0.07,0.13,-0.99,3.48,2.26,2.69
4.0360,0.07,0.13,-0.99,3.72,2.26,2.75
4.0510,0.08,0.13,-0.99,3.72,1.95,3.42
4.0670,0.07,0.13,-0.99,3.30,2.20,2.56
4.0810,0.08,0.13,-0.99,3.36,1.89,2.62
4.0960,0.07,0.13,-0.99,3.54,2.20,2.50
4.1020,0.08,0.13,-0.99,3.30,2.20,2.93
4.1270,0.07,0.13,-0.99,3.91,2.20,2.87
4.1420,0.07,0.13,-0.99,3.36,2.50,2.62
4.1530,0.07,0.13,-0.99,3.36,2.08,3.30
4.1720,0.08,0.13,-0.99,3.36,1.83,3.11
4.1860,0.07,0.13,-0.99,3.48,2.08,2.93
4.2040,0.07,0.13,-0.99,3.36,2.14,2.75
4.2200,0.08,0.13,-0.99,3.60,2.08,3.54
4.2350,0.07,0.13,-0.99,3.42,2.26,2.93
4.2400,0.07,0.13,-0.99,3.11,2.20,3.17
4.2560,0.07,0.13,-0.99,3.17,2.56,3.11
4.2720,0.08,0.13,-0.99,3.54,2.08,3.60
4.2950,0.07,0.12,-0.99,3.54,2.14,2.62
4.3110,0.07,0.13,-0.99,3.48,2.50,2.99
4.3260,0.07,0.13,-0.99,3.42,2.32,3.05
4.3420,0.07,0.13,-0.99,3.60,2.32,2.62
4.3580,0.07,0.13,-0.99,3.66,2.38,2.75
4.3720,0.07,0.13,-0.99,3.48,2.38,2.62
4.3760,0.08,0.14,-0.99,3.42,2.20,3.54
4.4000,0.07,0.13,-0.99,3.72,2.26,2.93
4.4160,0.07,0.12,-0.99,3.23,2.56,2.81
4.4330,0.07,0.12,-0.99,3.48,2.14,2.62
4.4500,0.07,0.13,-0.99,3.42,2.44,3.30
4.4660,0.07,0.13,-0.99,3.66,2.44,2.81
4.4820,0.07,0.13,-0.99,3.36,2.26,2.62
4.4830,0.07,0.13,-0.99,3.42,2.26,2.44
4.4990,0.08,0.13,-0.99,3.48,1.65,3.11
4.5230,0.07,0.13,-0.99,3.85,2.32,2.08
4.5390,0.07,0.13,-0.99,3.48,2.50,2.44
4.5560,0.07,0.13,-0.99,3.66,2.14,2.75
4.5730,0.08,0.13,-0.99,3.48,1.95,3.23
4.5890,0.08,0.13,-0.99,3.78,2.26,2.93
4.6060,0.07,0.13,-0.99,3.54,2.20,2.69
4.6240,0.08,0.13,-0.99,3.72,2.26,3.17
4.6400,0.07,0.13,-0.99,3.42,2.44,2.20
4.6400,0.07,0.12,-0.99,3.42,2.01,2.32
4.6690,0.07,0.13,-0.99,3.60,2.44,2.01
4.6840,0.07,0.13,-0.99,3.36,2.38,2.20
4.6990,0.07,0.13,-0.99,3.54,2.62,2.26
4.7140,0.07,0.14,-0.99,3.36,2.44,2.75
4.7230,0.08,0.14,-0.99,3.60,2.01,3.36
4.7390,0.07,0.13,-0.99,3.42,1.89,3.42
4.7550,0.08,0.13,-0.99,3.23,1.95,3.85
4.7740,0.07,0.12,-0.99,3.30,2.01,2.26
4.7880,0.07,0.13,-0.99,3.11,2.50,1.83
4.8050,0.07,0.13,-0.99,3.54,2.32,1.83
4.8220,0.07,0.13,-0.99,3.60,2.20,2.26
4.8380,0.08,0.14,-0.99,3.66,2.20,2.50
4.8540,0.08,0.13,-0.99,3.42,1.53,2.81
4.8700,0.07,0.13,-0.99,3.17,2.08,1.95
4.8730,0.07,0.13,-0.99,3.60,2.32,1.89
4.8880,0.07,0.13,-0.99,3.54,2.20,2.14
4.9110,0.07,0.13,-0.99,3.60,2.20,2.44
4.9290,0.08,0.13,-0.99,3.72,2.14,2.44
4.9440,0.08,0.14,-0.99,3.78,1.89,2.08
4.9600,0.07,0.14,-0.99,3.66,2.20,2.01
4.9760,0.07,0.13,-0.99,4.09,2.14,2.14
4.9780,0.07,0.13,-0.99,3.85,2.32,1.46
5.0070,0.07,0.13,-0.99,3.48,2.14,2.50
5.0220,0.07,0.13,-0.99,3.91,2.44,2.38
5.0290,0.07,0.13,-0.99,3.60,2.01,2.62
5.0440,0.07,0.13,-0.99,3.48,2.26,2.99
5.0620,0.07,0.13,-0.99,3.30,2.08,3.36
5.0780,0.07,0.13,-0.99,2.93,2.50,2.87
5.0940,0.07,0.12,-0.99,2.99,2.26,2.62
5.1150,0.07,0.13,-0.99,3.11,2.50,2.08
5.1310,0.07,0.13,-0.99,3.42,2.44,2.01
5.1350,0.07,0.13,-0.99,3.17,2.69,2.08
5.1520,0.07,0.14,-0.99,2.81,2.62,2.38
5.1730,0.08,0.13,-0.99,3.17,2.32,3.11
5.1890,0.07,0.13,-0.99,2.81,2.26,3.23
5.2050,0.07,0.14,-0.99,2.87,1.95,3.85
5.2220,0.07,0.13,-0.99,3.23,2.32,3.42
5.2390,0.07,0.14,-0.99,2.87,2.62,3.66
5.2560,0.07,0.14,-0.99,3.42,1.77,4.64
5.2720,0.08,0.13,-0.99,3.36,2.50,4.82
5.2870,0.07,0.12,-0.99,2.81,2.38,3.97
5.3030,0.07,0.13,-0.99,2.99,2.08,4.03
5.3190,0.07,0.13,-0.99,2.99,2.26,3.54
5.3370,0.07,0.13,-0.99,2.87,1.95,3.42
5.3520,0.07,0.13,-0.99,3.23,2.20,2.93
5.3700,0.07,0.14,-0.99,3.36,2.50,3.11
5.3850,0.07,0.14,-0.99,3.48,2.14,4.15
5.4010,0.08,0.14,-0.99,3.30,1.71,4.82
5.4160,0.07,0.13,-0.99,3.30,1.89,4.52
5.4220,0.08,0.13,-0.99,3.30,1.77,5.00
5.4390,0.07,0.12,-0.99,2.81,1.89,3.91
5.4550,0.07,0.14,-0.99,2.93,2.14,3.91
5.4730,0.07,0.14,-0.99,3.30,1.89,4.52
5.4890,0.07,0.14,-0.99,3.36,2.20,5.07
5.5050,0.07,0.13,-0.99,3.36,1.83,5.43
5.5220,0.07,0.13,-0.99,3.23,1.59,5.55
5.5390,0.07,0.12,-0.99,3.05,1.89,4.70
5.5550,0.07,0.12,-0.99,3.17,2.14,4.15
5.5700,0.07,0.13,-0.99,3.11,2.50,3.97
5.5730,0.07,0.13,-0.99,3.30,2.44,4.15
5.5890,0.07,0.13,-0.99,3.17,2.20,4.52
5.6180,0.07,0.13,-0.99,3.17,1.89,4.46
5.6350,0.07,0.12,-0.99,3.11,1.53,3.54
5.6510,0.07,0.12,-0.99,3.17,2.20,2.75
5.6650,0.07,0.13,-0.99,3.42,1.89,2.44
5.6810,0.07,0.13,-0.99,3.42,2.62,2.44
5.6890,0.07,0.13,-0.99,3.54,2.20,2.75
5.7060,0.07,0.14,-0.99,3.42,2.01,2.87
5.7220,0.07,0.13,-0.99,3.30,2.01,3.17
5.7390,0.07,0.14,-0.99,2.99,2.20,4.03
5.7550,0.07,0.13,-0.99,3.36,1.71,4.46
5.7730,0.07,0.13,-0.99,3.05,1.83,4.39
5.7890,0.07,0.13,-0.99,3.11,1.95,4.76
5.8030,0.07,0.13,-0.99,3.05,2.32,5.00
5.8200,0.07,0.13,-0.99,2.87,2.01,5.31
5.8350,0.08,0.12,-0.99,3.78,1.95,4.70
5.8500,0.07,0.12,-0.99,3.17,2.32,3.30
5.8550,0.07,0.13,-0.99,3.30,2.14,3.17
5.8730,0.07,0.13,-0.99,3.42,1.77,3.60
5.8940,0.07,0.13,-0.99,3.30,1.65,3.72
5.9110,0.07,0.13,-0.99,3.30,2.08,3.78
5.9290,0.07,0.13,-0.99,3.48,1.59,3.72
5.9440,0.07,0.13,-0.99,3.54,1.95,3.36
5.9600,0.07,0.13,-0.99,3.42,2.08,3.30
5.9740,0.07,0.13,-0.99,3.48,1.71,3.36
5.9770,0.07,0.14,-0.99,3.42,1.95,4.09
5.9950,0.07,0.14,-0.99,3.36,1.77,4.39
6.0110,0.07,0.13,-0.99,3.17,1.83,4.52
6.0260,0.07,0.13,-0.99,3.05,1.71,4.39
6.0480,0.07,0.13,-0.99,3.23,2.32,4.52
6.0650,0.07,0.13,-0.99,3.72,1.95,4.27
6.0810,0.07,0.14,-0.99,3.72,2.01,4.94
6.1010,0.07,0.13,-0.99,3.36,2.14,5.00
6.1180,0.07,0.13,-0.99,3.48,1.77,4.27
6.1200,0.07,0.13,-0.99,3.48,1.83,4.15
6.1470,0.07,0.13,-0.99,3.54,1.34,3.78
6.1620,0.07,0.12,-0.99,3.54,1.77,3.72
6.1770,0.07,0.13,-0.99,3.42,2.26,3.48
6.1920,0.07,0.13,-0.99,3.42,2.14,3.54
6.2030,0.07,0.13,-0.99,3.36,2.32,3.42
6.2200,0.07,0.14,-0.99,3.36,2.14,3.66
6.2360,0.07,0.13,-0.99,3.48,2.26,3.85
6.2540,0.07,0.13,-0.99,3.48,2.20,3.66
6.2690,0.08,0.13,-0.99,3.11,2.50,3.85
6.2850,0.07,0.13,-0.99,3.30,2.20,3.48
6.3000,0.07,0.13,-0.99,3.17,2.44,3.60
6.3040,0.07,0.13,-0.99,3.11,2.08,3.48
6.3200,0.07,0.13,-0.99,3.05,2.32,3.17
6.3350,0.07,0.13,-0.99,3.48,2.08,3.17
6.3590,0.07,0.13,-0.99,3.36,1.77,3.42
6.3760,0.07,0.13,-0.99,3.48,1.89,3.72
6.3920,0.07,0.13,-0.99,3.36,1.95,3.23
6.4080,0.07,0.13,-0.99,3.54,2.32,2.38
6.4080,0.07,0.13,-0.99,3.66,2.14,2.20
6.4400,0.07,0.13,-0.99,3.91,2.20,2.08
6.4420,0.07,0.14,-0.99,3.85,2.62,2.20
6.4580,0.07,0.14,-0.99,3.72,2.38,2.62
6.4810,0.07,0.13,-0.99,3.54,2.44,2.93
6.4970,0.08,0.13,-0.99,3.42,2.08,2.75
6.5140,0.07,0.14,-0.99,3.36,2.44,2.75
6.5290,0.08,0.14,-0.99,3.48,2.14,3.91
6.5470,0.07,0.14,-0.99,3.48,2.08,4.46
6.5530,0.07,0.13,-0.99,3.30,1.71,4.64
6.5750,0.07,0.13,-0.99,3.23,1.83,4.52
6.5850,0.08,0.13,-0.99,3.23,1.53,4.46
6.6070,0.07,0.13,-0.99,3.17,2.38,3.60
6.6230,0.07,0.13,-0.99,3.23,2.26,3.30
6.6390,0.07,0.13,-0.99,3.11,2.26,3.72
6.6400,0.07,0.13,-0.99,3.23,2.08,3.72
6.6700,0.07,0.13,-0.99,3.23,2.08,3.42
6.6760,0.07,0.14,-0.99,3.42,1.95,3.42
6.7010,0.07,0.13,-0.99,3.48,1.89,3.91
6.7160,0.07,0.13,-0.99,3.23,2.14,3.78
6.7250,0.07,0.13,-0.99,2.93,2.32,3.05
6.7410,0.07,0.13,-0.99,3.05,2.26,2.93
6.7620,0.07,0.13,-0.99,3.11,1.89,2.75
6.7770,0.07,0.13,-0.99,3.05,2.01,3.54
6.7920,0.07,0.13,-0.99,3.11,2.44,3.42
6.7960,0.07,0.13,-0.99,3.23,2.50,3.05
6.8120,0.07,0.13,-0.99,3.11,2.38,3.05
6.8270,0.08,0.13,-0.99,3.48,1.95,3.42
6.8500,0.07,0.14,-0.99,3.54,1.83,3.54
6.8660,0.07,0.14,-0.99,3.17,1.53,4.09
6.8850,0.07,0.13,-0.99,3.17,2.20,4.70
6.9000,0.07,0.13,-0.99,2.99,1.95,4.09
6.9170,0.07,0.13,-0.99,3.11,2.26,3.97
6.9320,0.07,0.13,-0.99,3.30,2.44,3.72
6.9470,0.07,0.13,-0.99,3.42,2.01,3.48
6.9620,0.07,0.13,-0.99,3.30,1.95,3.23
6.9780,0.07,0.13,-0.99,3.60,2.26,3.05
6.9940,0.08,0.14,-0.99,3.23,2.38,2.75
7.0090,0.07,0.13,-0.99,3.30,2.32,2.56
7.0240,0.07,0.13,-0.99,3.42,2.32,2.56
7.0340,0.07,0.13,-0.99,3.42,2.32,2.32
7.0500,0.08,0.14,-0.99,3.48,2.26,2.93
7.0710,0.07,0.14,-0.99,3.66,2.26,3.11
7.0860,0.07,0.14,-0.99,2.93,2.38,3.91
7.0880,0.07,0.13,-0.99,3.05,2.01,3.97
7.1170,0.07,0.13,-0.99,3.23,1.71,3.78
7.1320,0.08,0.13,-0.99,3.05,2.08,3.91
7.1480,0.07,0.12,-0.99,3.23,2.20,3.42
7.1560,0.07,0.12,-0.99,3.05,2.50,2.69
7.1760,0.07,0.13,-0.99,3.36,2.01,2.08
7.1910,0.07,0.13,-0.99,3.72,2.20,2.14
7.2080,0.07,0.14,-0.99,3.23,2.32,2.69
7.2260,0.07,0.13,-0.99,3.23,1.77,2.75
7.2410,0.07,0.14,-0.99,3.23,2.08,2.62
7.2560,0.07,0.13,-0.99,3.54,2.50,2.44
7.2590,0.07,0.13,-0.99,3.54,2.38,2.14
7.2880,0.07,0.13,-0.99,3.91,2.56,2.81
7.2920,0.07,0.13,-0.99,3.72,2.01,2.75
7.3080,0.08,0.13,-0.99,3.48,2.01,3.30
7.3310,0.07,0.13,-0.99,3.78,1.77,3.05
7.3480,0.08,0.14,-0.99,3.17,2.14,2.93
7.3650,0.08,0.13,-0.99,3.36,1.95,2.81
7.3800,0.08,0.13,-0.99,3.48,2.14,2.62
7.3970,0.07,0.13,-0.99,3.54,2.14,2.32
7.4130,0.07,0.13,-0.99,2.99,2.32,2.75
7.4290,0.07,0.13,-0.99,3.30,2.08,2.87
7.4440,0.07,0.13,-0.99,3.42,2.44,2.38
7.4600,0.07,0.13,-0.99,3.42,2.38,2.38
7.4750,0.07,0.13,-0.99,3.42,2.44,2.08
7.4910,0.07,0.13,-0.99,3.30,2.44,2.08
7.4980,0.07,0.13,-0.99,3.11,2.50,2.08
7.5140,0.07,0.13,-0.99,3.17,2.56,2.26
7.5290,0.08,0.14,-0.99,3.36,2.20,3.23
7.5490,0.08,0.14,-0.99,3.48,2.08,3.72
7.5660,0.08,0.13,-0.99,3.42,1.95,3.97
7.5830,0.07,0.13,-0.99,2.99,2.38,4.21
7.5980,0.08,0.14,-0.99,3.17,2.08,4.33
7.6130,0.07,0.14,-0.99,2.93,2.08,4.70
7.6280,0.07,0.13,-0.99,2.99,1.95,5.00
7.6430,0.07,0.13,-0.99,2.99,2.20,5.19
7.6580,0.07,0.13,-0.99,3.05,2.20,4.64
7.6730,0.07,0.13,-0.99,3.17,2.08,4.03
7.6830,0.07,0.13,-0.99,3.11,1.95,3.60
7.7000,0.07,0.13,-0.99,3.42,2.26,3.78
7.7180,0.07,0.14,-0.99,3.05,2.32,4.33
7.7330,0.08,0.14,-0.99,3.36,1.59,5.31
7.7490,0.07,0.13,-0.99,3.17,1.40,5.43
7.7640,0.08,0.13,-0.99,3.11,1.40,5.31
7.7800,0.07,0.13,-0.99,3.30,1.89,5.00
7.7970,0.07,0.14,-0.99,3.36,2.32,4.76
7.8120,0.07,0.14,-0.99,3.36,1.89,5.37
7.8280,0.07,0.13,-0.99,3.17,1.77,5.55
7.8330,0.07,0.12,-0.99,3.17,2.01,4.82
7.8490,0.07,0.13,-0.99,3.11,1.95,4.27
7.8720,0.07,0.13,-0.99,3.05,2.14,3.91
7.8880,0.07,0.13,-0.99,3.17,2.14,3.54
7.9040,0.08,0.13,-0.99,3.23,1.83,3.11
7.9220,0.07,0.13,-0.99,3.30,2.32,2.38
7.9370,0.07,0.13,-0.99,3.36,2.26,2.62
7.9530,0.07,0.13,-0.99,3.23,2.14,2.14
7.9690,0.07,0.13,-0.99,3.23,2.50,2.26
7.9850,0.07,0.14,-0.99,3.54,2.50,2.56
7.9880,0.08,0.14,-0.99,3.36,2.62,3.11
8.0040,0.07,0.14,-0.99,3.48,2.20,3.11
8.0290,0.07,0.13,-0.99,3.42,1.95,3.66
8.0430,0.07,0.13,-0.99,3.36,2.26,3.42
8.0610,0.07,0.13,-0.99,2.99,2.62,2.93
8.0780,0.07,0.13,-0.99,3.17,2.08,3.30
8.0930,0.08,0.14,-0.99,3.66,1.77,3.54
8.1090,0.08,0.13,-0.99,3.48,1.89,3.72
8.1100,0.07,0.13,-0.99,3.36,1.77,3.23
8.1400,0.07,0.13,-0.99,3.42,1.77,2.93
8.1560,0.07,0.13,-0.99,3.36,2.08,3.42
8.1620,0.08,0.13,-0.99,3.23,2.26,3.60
8.1770,0.07,0.13,-0.99,3.23,2.01,3.30
8.2030,0.07,0.13,-0.99,2.99,2.08,3.17
8.2180,0.08,0.14,-0.99,3.05,2.14,3.23
8.2270,0.07,0.14,-0.99,3.17,2.08,4.27
8.2430,0.07,0.13,-0.99,3.30,2.01,5.55
8.2610,0.07,0.13,-0.99,2.81,1.65,4.94
8.2770,0.07,0.13,-0.99,2.93,2.20,4.39
8.2930,0.08,0.13,-0.99,2.81,2.08,4.33
8.3090,0.07,0.13,-0.99,2.87,2.14,4.82
8.3100,0.07,0.14,-0.99,2.81,1.83,5.19
8.3270,0.08,0.13,-0.99,3.17,1.77,5.74
8.3530,0.08,0.13,-0.99,3.23,1.77,5.25
8.3610,0.07,0.12,-0.99,3.05,1.89,4.33
8.3840,0.08,0.11,-0.99,3.30,1.83,2.93
8.3940,0.08,0.13,-0.99,3.48,2.32,2.38
8.4110,0.07,0.13,-0.99,3.42,2.14,2.08
8.4270,0.07,0.13,-0.99,3.42,2.14,1.95
8.4440,0.07,0.13,-0.99,3.17,2.56,1.89
8.4450,0.07,0.13,-0.99,3.05,2.01,2.01
8.4600,0.07,0.13,-0.99,3.30,2.50,1.95
8.4900,0.07,0.13,-0.99,3.48,2.56,1.95
8.5060,0.07,0.13,-0.99,3.48,2.75,2.01
8.5100,0.07,0.13,-0.99,3.42,2.32,3.05
8.5260,0.07,0.13,-0.99,3.05,1.83,3.48
8.5450,0.08,0.13,-0.99,2.87,2.26,2.81
8.5630,0.07,0.13,-0.99,3.23,2.26,2.32
8.5780,0.08,0.13,-0.99,3.85,2.32,2.69
8.5970,0.07,0.13,-0.99,3.72,2.50,2.81
8.6130,0.07,0.14,-0.99,3.05,2.32,3.11
8.6150,0.07,0.13,-0.99,2.93,2.38,3.60
8.6430,0.07,0.13,-0.99,3.11,1.95,3.72
8.6580,0.08,0.13,-0.99,3.11,2.44,3.60
8.6730,0.08,0.13,-0.99,3.36,2.50,3.54
8.6840,0.07,0.13,-0.99,3.05,2.32,3.23
8.7020,0.07,0.12,-0.99,3.42,2.20,2.99
8.7180,0.08,0.14,-0.99,3.54,1.89,2.32
8.7350,0.07,0.13,-0.99,2.75,2.26,2.56
8.7510,0.07,0.14,-0.99,3.48,2.32,2.93
8.7670,0.07,0.14,-0.99,3.05,2.08,3.42
8.7820,0.08,0.13,-0.99,3.48,1.71,3.36
8.7970,0.08,0.13,-0.99,3.36,2.14,3.17
8.8140,0.08,0.13,-0.99,3.30,2.38,2.44
8.8300,0.07,0.14,-0.99,3.78,2.44,2.32
8.8340,0.07,0.14,-0.99,3.78,2.26,2.62
8.8610,0.07,0.15,-0.99,3.30,2.20,3.72
8.8710,0.07,0.14,-0.99,3.54,2.01,4.58
8.8880,0.07,0.12,-0.99,3.30,1.71,4.58
8.9040,0.08,0.13,-0.99,3.17,2.14,3.97
8.9230,0.07,0.13,-0.99,3.48,2.44,3.60
8.9380,0.07,0.13,-0.99,3.42,1.89,3.17
8.9410,0.07,0.13,-0.99,3.60,2.08,3.05
8.9570,0.07,0.14,-0.99,3.48,2.26,3.66
8.9780,0.07,0.13,-0.99,3.48,2.44,3.60
8.9940,0.07,0.12,-0.99,3.36,2.44,3.36
9.0110,0.07,0.12,-0.99,3.05,2.32,2.44
9.0270,0.07,0.13,-0.99,3.36,2.50,2.08
9.0440,0.07,0.13,-0.99,3.42,2.32,2.01
9.0600,0.07,0.14,-0.99,3.23,2.87,2.44
9.0780,0.07,0.14,-0.99,3.48,1.95,3.42
9.0930,0.07,0.13,-0.99,3.30,2.26,3.36
9.0940,0.08,0.13,-0.99,3.17,2.32,3.72
9.1260,0.07,0.13,-0.99,3.54,2.01,3.36
9.1420,0.08,0.14,-0.99,3.30,2.32,3.11
9.1580,0.07,0.13,-0.99,3.36,2.26,3.66
9.1740,0.07,0.13,-0.99,3.17,2.14,3.60
9.1780,0.07,0.13,-0.99,3.05,2.14,3.23
9.2040,0.07,0.13,-0.99,3.23,2.44,3.05
9.2110,0.08,0.13,-0.99,3.54,2.08,3.11
9.2260,0.07,0.13,-0.99,3.42,2.44,2.26
9.2470,0.08,0.14,-0.99,3.23,2.44,2.01
9.2630,0.08,0.13,-0.99,3.36,2.50,2.14
9.2800,0.08,0.14,-0.99,3.48,2.20,2.62
9.2960,0.07,0.13,-0.99,3.23,2.20,2.50
9.3120,0.08,0.14,-0.99,3.11,2.44,2.69
9.3270,0.08,0.14,-0.99,3.36,2.20,2.26
9.3420,0.08,0.14,-0.99,3.85,2.08,2.08
9.3580,0.08,0.13,-0.99,3.54,2.32,2.20
9.3740,0.07,0.14,-0.99,3.30,2.26,2.62
9.3890,0.07,0.13,-0.99,3.42,2.20,3.11
9.3980,0.07,0.13,-0.99,3.17,2.20,2.93
9.4200,0.07,0.12,-0.99,2.99,2.08,2.81
9.4310,0.07,0.12,-0.99,3.36,2.62,2.38
9.4480,0.07,0.13,-0.99,3.36,2.20,1.95
9.4640,0.07,0.13,-0.99,3.48,2.50,2.26
9.4820,0.07,0.13,-0.99,3.11,2.26,2.26
9.4970,0.07,0.14,-0.99,3.05,2.62,2.62
9.5130,0.07,0.13,-0.99,2.99,2.50,2.56
9.5280,0.08,0.13,-0.99,3.05,2.44,2.50
9.5430,0.08,0.14,-0.99,3.60,2.38,3.17
9.5600,0.08,0.14,-0.99,3.72,2.01,2.93
9.5750,0.07,0.13,-0.99,3.48,2.69,3.17
9.5900,0.07,0.14,-0.99,2.93,2.56,3.60
9.6000,0.07,0.13,-0.99,2.99,2.26,4.27
9.6170,0.07,0.12,-0.99,3.48,1.89,3.30
9.6340,0.07,0.12,-0.99,3.36,2.08,2.50
9.6500,0.07,0.13,-0.99,3.42,2.32,2.26
9.6660,0.07,0.14,-0.99,3.66,2.32,2.32
9.6810,0.07,0.14,-0.99,3.11,2.26,2.93
9.6860,0.07,0.14,-0.99,3.23,2.50,4.46
9.7010,0.07,0.13,-0.99,3.23,2.26,4.46
9.7200,0.07,0.12,-0.99,3.11,2.32,3.42
9.7370,0.07,0.12,-0.99,3.17,2.32,2.87
9.7530,0.07,0.13,-0.99,3.48,2.50,2.14
9.7700,0.07,0.13,-0.99,3.48,2.69,2.26
9.7860,0.08,0.14,-0.99,3.54,2.32,2.20
9.8030,0.07,0.13,-0.99,3.42,2.44,2.44
9.8190,0.07,0.14,-0.99,3.42,2.38,2.69
9.8340,0.07,0.14,-0.99,3.54,2.32,3.30
9.8490,0.08,0.14,-0.99,3.36,2.01,3.54
9.8650,0.08,0.14,-0.99,3.72,1.95,3.60
9.8790,0.07,0.13,-0.99,3.60,1.71,2.99
9.8960,0.07,0.13,-0.99,3.17,2.26,3.30
9.9110,0.07,0.13,-0.99,3.23,2.32,3.48
9.9200,0.07,0.12,-0.99,3.36,2.56,3.30
9.9380,0.07,0.13,-0.99,3.11,2.62,2.69
9.9540,0.07,0.13,-0.99,3.36,2.44,2.75
9.9740,0.07,0.13,-0.99,3.30,2.08,3.05
9.9790,0.07,0.13,-0.99,3.36,2.20,2.87
10.0050,0.07,0.13,-0.99,2.99,1.89,3.05
10.0080,0.07,0.13,-0.99,2.93,2.20,3.11
10.0250,0.07,0.13,-0.99,3.11,2.08,2.44
10.0400,0.07,0.13,-0.99,3.30,2.26,2.01
10.0690,0.07,0.13,-0.99,3.60,2.44,1.89
10.0840,0.07,0.13,-0.99,3.85,2.08,1.77
10.0930,0.07,0.13,-0.99,3.66,2.50,1.83
10.1090,0.07,0.13,-0.99,2.99,2.69,1.83
10.1260,0.07,0.13,-0.99,2.93,2.38,1.83
10.1440,0.07,0.13,-0.99,3.11,2.81,1.95
10.1590,0.07,0.13,-0.99,3.42,2.62,2.01
10.1760,0.07,0.13,-0.99,3.60,1.95,1.83
10.1930,0.07,0.13,-0.99,3.48,2.62,1.83
10.2090,0.07,0.13,-0.99,3.42,2.38,1.83
10.2100,0.08,0.13,-0.99,3.23,2.56,1.71
10.2410,0.07,0.13,-0.99,3.17,2.32,1.77
10.2570,0.07,0.13,-0.99,3.42,2.75,1.95
10.2730,0.07,0.13,-0.99,3.54,2.50,1.83
10.2790,0.07,0.13,-0.99,3.54,2.14,1.95
10.2910,0.07,0.13,-0.99,3.60,2.44,1.95
10.3200,0.07,0.13,-0.99,3.60,2.32,1.77
10.3350,0.07,0.13,-0.99,3.48,2.62,1.83
10.3460,0.07,0.13,-0.99,3.54,2.50,1.95
10.3630,0.07,0.13,-0.99,3.48,2.38,1.77
10.3800,0.07,0.13,-0.99,3.36,2.38,1.83
10.3950,0.07,0.13,-0.99,3.48,2.32,1.95
10.4110,0.07,0.13,-0.99,3.48,2.56,1.95
10.4270,0.07,0.13,-0.99,3.48,2.44,1.89
10.4430,0.07,0.14,-0.99,3.48,2.56,1.95
10.4590,0.07,0.13,-0.99,2.69,2.56,1.89
10.4740,0.07,0.13,-0.99,2.62,2.44,2.01
10.4880,0.07,0.13,-0.99,3.17,2.75,2.69
10.5040,0.08,0.14,-0.99,3.60,2.50,2.93
10.5190,0.07,0.13,-0.99,3.30,2.50,2.81
10.5300,0.07,0.14,-0.99,3.17,2.32,3.05
10.5470,0.07,0.14,-0.99,3.23,2.26,3.60
10.5630,0.08,0.14,-0.99,3.05,1.59,5.37
10.5780,0.07,0.13,-0.99,3.30,2.08,5.37
10.5810,0.07,0.13,-0.99,2.50,2.14,4.76
10.6090,0.08,0.13,-0.99,3.36,2.14,4.27
10.6240,0.07,0.13,-0.99,3.66,1.77,4.33
10.6390,0.07,0.13,-0.99,3.85,1.71,4.64
10.6540,0.07,0.12,-0.99,3.78,1.83,3.48
10.6690,0.07,0.13,-0.99,3.42,1.95,2.62
10.6810,0.07,0.13,-0.99,3.23,2.20,2.56
10.6960,0.07,0.13,-0.99,3.30,2.20,2.44
10.7130,0.07,0.13,-0.99,3.30,2.32,2.38
10.7300,0.07,0.13,-0.99,3.17,2.87,2.44
10.7450,0.07,0.14,-0.99,3.30,2.44,2.56
10.7620,0.07,0.14,-0.99,3.36,2.32,3.30
10.7780,0.07,0.14,-0.99,3.23,2.01,3.23
10.7930,0.07,0.13,-0.99,3.17,2.26,3.30
10.8090,0.07,0.13,-0.99,3.11,2.20,3.30
10.8260,0.08,0.13,-0.99,3.23,2.08,3.78
10.8410,0.08,0.14,-0.99,3.11,2.26,3.85
10.8480,0.08,0.14,-0.99,3.17,2.26,4.46
10.8640,0.07,0.13,-0.99,3.48,1.95,5.19
10.8870,0.07,0.13,-0.99,2.56,2.01,5.31
10.9020,0.07,0.13,-0.99,2.75,2.08,5.13
10.9190,0.08,0.13,-0.99,2.81,2.01,5.19
10.9350,0.07,0.12,-0.99,2.99,1.89,4.58
10.9520,0.07,0.13,-0.99,2.81,2.20,4.15
10.9680,0.08,0.13,-0.99,3.54,1.95,4.15
10.9840,0.07,0.13,-0.99,2.75,2.44,4.21
11.0000,0.08,0.13,-0.99,3.23,2.20,3.97
11.0150,0.08,0.13,-0.99,3.54,2.56,3.05
11.0310,0.08,0.14,-0.99,3.78,2.62,2.99
11.0480,0.08,0.13,-0.99,4.21,2.62,2.99
11.0630,0.07,0.14,-0.99,4.03,2.32,3.11
11.0790,0.07,0.13,-0.99,3.72,2.32,3.54
11.0940,0.07,0.12,-0.99,2.87,2.50,3.60
11.1020,0.07,0.12,-0.99,3.11,2.38,3.17
11.1190,0.07,0.13,-0.99,3.23,2.44,2.75
11.1340,0.08,0.13,-0.99,3.23,2.20,2.81
11.1540,0.07,0.13,-0.99,3.23,2.38,2.93
11.1570,0.07,0.13,-0.99,3.72,2.14,3.30
11.1850,0.07,0.13,-0.99,3.23,2.26,3.72
11.1900,0.07,0.13,-0.99,3.17,2.20,3.78
11.2070,0.07,0.13,-0.99,2.62,2.38,3.60
11.2240,0.08,0.14,-0.99,3.11,2.26,4.27
11.2400,0.08,0.14,-0.99,3.05,1.95,4.82
11.2580,0.07,0.13,-0.99,2.75,2.62,5.55
11.2730,0.07,0.13,-0.99,2.81,2.01,5.25
11.2900,0.08,0.13,-0.99,2.38,1.89,5.07
11.3070,0.08,0.13,-0.99,3.36,2.26,5.43
11.3260,0.07,0.12,-0.99,3.54,2.08,4.76
11.3400,0.07,0.13,-0.99,3.48,1.89,4.52
11.3560,0.07,0.12,-0.99,3.30,1.83,4.33
11.3730,0.07,0.12,-0.99,3.54,1.89,3.54
11.3810,0.08,0.13,-0.99,3.11,2.08,2.69
11.3900,0.07,0.13,-0.99,3.42,2.50,2.44
11.4070,0.07,0.14,-0.99,3.17,2.14,2.93
11.4240,0.07,0.14,-0.99,3.23,2.44,3.48
11.4480,0.07,0.13,-0.99,3.11,2.38,3.97
11.4620,0.08,0.14,-0.99,3.36,1.95,4.21
11.4810,0.08,0.13,-0.99,3.54,2.38,4.09
11.4940,0.07,0.13,-0.99,3.17,2.26,3.42
11.5120,0.07,0.13,-0.99,3.36,2.44,2.69
11.5120,0.07,0.13,-0.99,3.23,1.95,2.32
11.5420,0.07,0.13,-0.99,3.42,2.75,2.32
11.5590,0.07,0.13,-0.99,3.36,2.20,2.14
11.5740,0.07,0.14,-0.99,3.42,2.38,2.69
11.5820,0.07,0.13,-0.99,3.42,1.83,3.48
11.6060,0.07,0.12,-0.99,3.30,1.89,2.81
11.6220,0.07,0.13,-0.99,2.69,2.69,2.44
11.6290,0.07,0.13,-0.99,3.23,1.95,2.69
11.6460,0.07,0.13,-0.99,3.23,2.32,2.87
11.6630,0.07,0.12,-0.99,3.23,2.32,2.99
11.6810,0.07,0.13,-0.99,3.36,2.87,2.14
11.6940,0.07,0.13,-0.99,3.36,2.81,1.89
11.7130,0.07,0.13,-0.99,3.36,2.87,1.83
11.7190,0.07,0.13,-0.99,3.11,2.81,2.32
11.7430,0.07,0.13,-0.99,3.42,2.26,2.38
11.7580,0.07,0.13,-0.99,2.62,2.75,2.26
11.7690,0.07,0.13,-0.99,3.05,2.44,2.32
11.7850,0.07,0.13,-0.99,3.30,2.38,2.56
11.8030,0.07,0.13,-0.99,3.36,2.32,2.01
11.8190,0.08,0.14,-0.99,3.23,2.81,2.32
11.8350,0.08,0.15,-0.99,3.42,2.50,3.17
11.8510,0.08,0.15,-0.99,3.48,2.32,4.52
11.8680,0.07,0.13,-0.99,3.60,1.95,4.88
11.8840,0.07,0.12,-0.99,3.17,1.89,5.25
11.9000,0.07,0.12,-0.99,3.36,2.26,4.21
11.9150,0.07,0.13,-0.99,3.17,2.62,4.27
11.9300,0.07,0.13,-0.99,3.42,2.32,4.52
11.9360,0.07,0.12,-0.99,3.05,2.14,4.33
11.9620,0.07,0.12,-1.00,2.69,2.26,3.48
11.9690,0.07,0.13,-0.99,2.56,2.75,2.56
11.9840,0.07,0.14,-0.99,3.05,2.99,2.69
12.0060,0.07,0.13,-0.99,2.99,2.69,3.23
12.0240,0.08,0.13,-0.99,2.93,2.38,3.05
12.0400,0.07,0.12,-0.99,2.93,2.87,2.50
12.0570,0.07,0.13,-0.99,3.05,2.56,2.50
12.0580,0.07,0.13,-0.99,3.17,2.14,2.81
12.0890,0.08,0.13,-0.99,3.11,1.89,3.36
12.0900,0.07,0.12,-0.99,2.56,2.38,2.62
12.1070,0.07,0.13,-0.99,2.87,2.56,2.14
12.1230,0.07,0.13,-0.99,2.99,2.50,2.75
12.1520,0.07,0.13,-0.99,3.05,2.26,3.48
12.1610,0.07,0.14,-0.99,2.99,2.38,3.97
12.1820,0.07,0.13,-0.99,3.17,2.44,4.39
12.1940,0.08,0.13,-0.99,2.75,2.01,4.64
12.2120,0.08,0.11,-0.99,3.30,2.50,3.66
12.2280,0.07,0.13,-0.99,3.48,2.32,2.20
12.2440,0.07,0.14,-0.99,3.48,2.38,2.20
12.2600,0.07,0.13,-0.99,3.54,2.62,2.81
12.2760,0.08,0.14,-0.99,3.78,1.89,3.23
12.2930,0.07,0.13,-0.99,4.03,2.01,3.11
12.3080,0.07,0.12,-0.99,3.97,2.14,3.30
12.3110,0.07,0.13,-0.99,3.17,2.26,2.62
12.3400,0.07,0.13,-0.99,2.99,2.38,2.62
12.3570,0.08,0.13,-0.99,3.17,2.32,2.62
12.3620,0.07,0.12,-0.99,3.42,2.69,2.38
12.3820,0.07,0.13,-0.99,3.42,2.75,1.89
12.4020,0.07,0.13,-0.99,3.54,2.56,1.95
12.4170,0.07,0.13,-0.99,3.66,2.56,2.08
12.4330,0.07,0.13,-0.99,3.36,2.62,2.14
12.4480,0.07,0.13,-0.99,3.23,2.87,2.01
12.4630,0.07,0.13,-0.99,3.30,2.32,1.71
12.4680,0.08,0.14,-0.99,3.42,2.56,1.83
12.4840,0.08,0.14,-0.99,3.66,2.62,1.83
12.5070,0.07,0.13,-0.99,3.23,2.62,2.20
12.5240,0.07,0.12,-0.99,3.48,2.56,2.38
12.5390,0.07,0.13,-0.99,3.30,2.69,2.62
12.5560,0.08,0.13,-0.99,3.30,2.32,2.50
12.5720,0.07,0.13,-0.99,3.23,2.69,2.75
12.5880,0.07,0.12,-0.99,3.23,2.44,2.38
12.6040,0.07,0.12,-0.99,3.36,2.87,1.77
12.6200,0.07,0.13,-0.99,3.48,2.50,1.89
12.6240,0.07,0.13,-0.99,3.97,2.08,1.77
12.6420,0.07,0.13,-0.99,3.42,2.32,1.83
12.6670,0.07,0.13,-0.99,3.48,2.50,1.83
12.6820,0.07,0.13,-0.99,3.11,2.56,2.01
12.6990,0.07,0.13,-0.99,2.93,2.44,1.83
12.7070,0.07,0.13,-0.99,3.05,2.38,2.01
12.7230,0.07,0.13,-0.99,3.11,2.50,2.08
12.7430,0.07,0.13,-0.99,3.48,2.38,2.14
12.7590,0.07,0.13,-0.99,3.11,2.69,1.83
12.7750,0.07,0.13,-0.99,3.48,2.69,1.77
12.7910,0.07,0.13,-0.99,3.48,2.62,1.77
12.8070,0.07,0.13,-0.99,3.54,2.75,1.89
12.8220,0.07,0.13,-0.99,3.36,2.56,1.83
12.8320,0.07,0.13,-0.99,3.30,2.56,1.89
12.8490,0.07,0.13,-0.99,3.48,2.50,1.77
12.8660,0.07,0.13,-0.99,3.60,2.38,1.89
12.8820,0.07,0.13,-0.99,3.23,2.56,1.77
12.8990,0.07,0.13,-0.99,3.48,2.20,1.83
12.9150,0.07,0.13,-0.99,3.78,2.20,1.83
12.9310,0.07,0.13,-0.99,3.78,2.38,1.89
12.9470,0.07,0.13,-0.99,3.60,2.08,1.89
12.9620,0.07,0.13,-0.99,3.36,2.26,1.83
12.9770,0.07,0.13,-0.99,3.42,2.38,1.89
12.9910,0.07,0.13,-0.99,3.48,2.56,2.01
13.0080,0.07,0.13,-0.99,3.48,2.93,1.89
13.0230,0.07,0.13,-0.99,3.85,2.50,1.77
13.0390,0.07,0.13,-0.99,3.97,2.08,1.89
13.0490,0.07,0.13,-0.99,3.54,2.38,1.89
13.0660,0.07,0.13,-0.99,3.48,2.75,1.77
13.0820,0.07,0.13,-0.99,3.66,2.26,1.89
13.1000,0.07,0.13,-0.99,3.23,2.38,1.77
13.1150,0.07,0.13,-0.99,3.42,2.56,1.77
13.1300,0.07,0.13,-0.99,3.36,2.62,1.89
13.1470,0.07,0.13,-0.99,3.54,2.56,1.95
13.1630,0.08,0.13,-0.99,3.72,2.14,1.77
13.1650,0.07,0.13,-0.99,3.36,2.93,1.83
13.1820,0.07,0.13,-0.99,3.60,2.50,1.89
13.2090,0.07,0.13,-0.99,3.60,2.44,1.77
13.2190,0.07,0.13,-0.99,3.30,2.44,1.77
13.2350,0.07,0.13,-0.99,3.60,2.87,1.89
13.2530,0.07,0.13,-0.99,3.60,2.20,2.01
13.2690,0.08,0.13,-0.99,3.72,2.44,1.89
13.2870,0.07,0.13,-0.99,3.48,2.56,1.95
13.2870,0.07,0.13,-0.99,3.54,2.75,1.89
13.3180,0.07,0.13,-0.99,3.60,2.81,1.83
13.3330,0.07,0.13,-0.99,3.54,2.26,1.65
13.3480,0.08,0.13,-0.99,3.97,2.32,1.89
13.3650,0.07,0.13,-0.99,3.78,2.44,1.83
13.3800,0.08,0.13,-0.99,3.54,2.69,1.83
13.3960,0.08,0.13,-0.99,3.42,2.69,1.77
13.4120,0.08,0.13,-0.99,3.66,2.87,1.89
13.4270,0.07,0.13,-0.99,3.78,2.69,1.95
13.4370,0.07,0.13,-0.99,3.60,2.62,1.89
13.4520,0.07,0.13,-0.99,3.42,2.50,1.83
13.4700,0.08,0.13,-0.99,3.66,2.44,1.95
13.4860,0.08,0.13,-0.99,3.30,2.81,1.83
13.5020,0.07,0.13,-0.99,3.36,2.56,1.77
13.5190,0.08,0.13,-0.99,3.54,2.56,1.95
13.5360,0.08,0.13,-0.99,3.54,2.75,1.89
13.5520,0.07,0.13,-0.99,3.60,2.20,1.95
13.5670,0.07,0.13,-0.99,3.23,2.56,1.71
13.5840,0.08,0.13,-0.99,3.60,2.08,1.83
13.5990,0.08,0.13,-0.99,3.54,2.56,1.89
13.6140,0.08,0.13,-0.99,3.36,2.08,1.89
13.6300,0.07,0.13,-0.99,3.66,2.62,1.89
13.6460,0.08,0.13,-0.99,3.72,2.26,1.89
13.6620,0.08,0.13,-0.99,3.66,2.32,1.89
13.6770,0.07,0.13,-0.99,3.72,2.38,1.95
13.6860,0.08,0.13,-0.99,3.72,2.20,1.77
13.7010,0.08,0.13,-0.99,3.11,2.32,1.77
13.7250,0.08,0.13,-0.99,3.48,2.56,1.77
13.7410,0.07,0.13,-0.99,3.66,2.38,1.95
13.7570,0.08,0.14,-0.99,4.09,2.26,1.77
13.7730,0.08,0.14,-0.99,3.48,2.14,1.83
13.7900,0.08,0.13,-0.99,3.48,2.01,1.77
13.8060,0.07,0.13,-0.99,3.54,2.38,1.77
13.8220,0.08,0.13,-0.99,3.72,2.38,1.77
13.8370,0.07,0.14,-0.99,3.72,2.62,1.89
13.8420,0.08,0.13,-0.99,3.48,2.87,1.83
13.8580,0.08,0.13,-0.99,3.30,2.62,1.95
13.8820,0.08,0.13,-0.99,3.36,2.93,1.89
13.9000,0.07,0.13,-0.99,3.72,2.26,1.89
13.9090,0.09,0.15,-1.00,3.66,2.50,1.83
13.9260,0.07,0.14,-1.00,4.70,1.40,1.83
13.9410,0.08,0.14,-0.99,4.27,1.53,1.65
13.9630,0.08,0.14,-0.99,4.27,2.08,1.71
13.9780,0.08,0.13,-0.99,4.03,2.26,1.71
13.9950,0.08,0.14,-0.99,4.27,2.20,1.77
14.0090,0.08,0.14,-0.99,3.78,2.81,1.89
14.0250,0.08,0.14,-0.99,3.05,3.30,1.95
14.0430,0.08,0.14,-0.99,2.44,3.66,1.95
14.0580,0.07,0.12,-0.99,2.44,3.36,1.95
14.0740,0.08,0.13,-0.97,2.14,3.66,1.77
14.0900,0.08,0.14,-0.99,2.99,3.30,1.89
14.0960,0.08,0.13,-0.99,2.87,2.99,1.89
14.1120,0.07,0.14,-0.99,3.85,2.50,1.89
14.1350,0.07,0.14,-0.99,3.30,2.44,1.77
14.1510,0.08,0.14,-0.99,3.36,2.75,1.77
14.1680,0.08,0.14,-0.99,3.23,2.38,1.89
14.1830,0.08,0.14,-0.99,3.36,2.87,1.89
14.1990,0.07,0.13,-0.99,3.36,2.62,1.95
14.2160,0.07,0.13,-0.99,3.60,2.32,1.77
14.2320,0.08,0.13,-0.99,3.48,2.26,1.77
14.2480,0.08,0.14,-0.99,3.72,2.32,1.95
14.2640,0.08,0.14,-0.99,3.36,2.87,2.01
14.2790,0.08,0.13,-0.99,3.30,2.69,1.95
14.2950,0.08,0.13,-0.99,3.48,2.62,1.89
14.3090,0.08,0.14,-0.99,3.54,2.14,1.83
14.3180,0.08,0.13,-0.99,3.30,2.75,1.83
14.3350,0.08,0.13,-0.99,3.54,2.50,1.89
14.3510,0.08,0.14,-0.99,3.78,2.44,1.83
14.3720,0.07,0.14,-0.99,3.48,2.56,2.01
14.3880,0.08,0.13,-0.99,3.36,2.62,2.01
14.3890,0.07,0.13,-0.99,3.48,2.69,1.83
14.4190,0.08,0.14,-0.99,3.60,2.44,1.71
14.4220,0.08,0.14,-0.99,3.30,2.56,1.89
14.4390,0.08,0.14,-0.99,3.30,2.75,1.89
14.4550,0.07,0.13,-0.99,3.42,2.75,1.77
14.4770,0.08,0.14,-0.99,3.30,2.69,1.95
14.4940,0.08,0.14,-0.99,3.05,2.69,1.83
14.5100,0.08,0.14,-0.99,3.11,2.50,1.95
14.5250,0.08,0.13,-0.99,3.30,2.26,1.89
14.5430,0.08,0.14,-0.99,3.36,2.69,1.95
14.5580,0.07,0.14,-0.99,3.23,2.62,1.89
14.5680,0.07,0.13,-0.99,2.93,2.81,1.95
14.5840,0.08,0.14,-0.99,3.36,2.50,1.95
14.6010,0.07,0.13,-0.99,3.42,2.69,1.89
14.6180,0.08,0.14,-0.99,3.60,2.75,1.89
14.6350,0.08,0.14,-0.99,3.23,2.69,1.95
14.6510,0.08,0.14,-0.99,3.30,2.62,1.89
14.6670,0.08,0.14,-0.99,2.87,2.69,1.89
14.6830,0.07,0.13,-0.99,2.75,2.62,1.95
14.6990,0.07,0.13,-0.99,3.11,2.81,1.89
14.7140,0.08,0.14,-0.99,3.23,2.69,1.83
14.7300,0.08,0.14,-0.99,3.17,2.44,2.14
14.7350,0.07,0.13,-0.99,2.56,2.50,1.83
14.7620,0.07,0.13,-0.99,2.93,2.69,1.83
14.7770,0.07,0.14,-0.99,3.36,2.44,1.89
14.7850,0.07,0.14,-0.99,3.11,2.69,1.95
14.8010,0.07,0.13,-0.99,2.50,2.81,1.95
14.8230,0.08,0.13,-0.99,2.56,2.69,1.95
14.8400,0.07,0.13,-0.99,3.42,2.87,1.95
14.8550,0.07,0.13,-0.99,3.30,2.38,1.89
14.8570,0.07,0.13,-0.99,2.93,2.62,1.89
14.8840,0.07,0.13,-0.99,2.99,2.50,1.95
14.8890,0.07,0.13,-0.99,3.36,2.69,2.01
14.9180,0.07,0.13,-0.99,3.42,2.75,1.89
14.9330,0.07,0.13,-0.99,3.30,2.81,1.83
14.9410,0.07,0.13,-0.99,3.48,2.56,1.83
14.9580,0.07,0.13,-0.99,3.17,2.81,1.71
14.9750,0.07,0.13,-0.99,2.87,3.11,1.77
14.9920,0.07,0.13,-0.99,1.53,3.66,2.38
15.0100,0.07,0.14,-1.00,2.08,3.23,3.36
15.0260,0.07,0.13,-0.99,1.71,3.23,4.33
15.0420,0.07,0.12,-0.99,0.61,3.54,4.64
15.0570,0.07,0.12,-1.00,1.46,4.03,4.64
15.0730,0.08,0.12,-1.01,-1.34,4.82,5.00
15.0850,0.08,0.14,-1.02,-5.07,7.87,5.00
15.0920,0.08,0.13,-1.01,-9.22,11.66,6.71
15.1220,0.07,0.12,-1.00,-12.33,12.94,6.47
15.1370,0.04,0.13,-1.01,-15.32,11.84,4.21
15.1420,0.06,0.11,-0.99,-13.06,13.55,5.13
15.1590,0.05,0.12,-1.01,-10.01,13.79,6.16
15.1850,0.08,0.12,-1.00,-9.16,13.37,7.75
15.1960,0.05,0.09,-1.00,-2.56,13.43,8.48
15.2130,0.04,0.08,-1.00,1.04,12.70,8.12
15.2300,0.03,0.06,-1.01,0.55,14.04,4.88
15.2460,0.03,0.08,-1.00,-4.39,14.59,0.06
15.2620,0.04,0.11,-1.00,-3.48,16.78,0.00
15.2790,0.04,0.11,-1.02,12.15,19.23,2.32
15.2960,0.02,0.10,-1.04,18.07,20.81,4.15
15.3120,0.02,0.09,-1.04,21.61,24.29,4.33
15.3170,0.01,0.09,-1.00,15.44,26.73,3.60
15.3320,-0.00,0.10,-0.95,9.22,25.82,1.46
15.3590,-0.00,0.10,-0.92,3.48,18.74,0.37
15.3700,-0.02,0.12,-0.92,1.65,10.80,-0.49
15.3870,-0.02,0.12,-0.94,-0.24,6.10,1.16
15.4030,-0.01,0.12,-0.96,0.92,2.38,2.75
15.4200,-0.01,0.11,-1.02,0.61,1.95,2.99
15.4370,-0.02,0.10,-1.02,-1.22,2.62,2.14
15.4530,-0.01,0.09,-1.03,2.75,5.31,1.89
15.4690,-0.00,0.08,-1.04,3.66,8.42,2.62
15.4860,-0.01,0.07,-1.04,3.66,12.27,0.06
15.5020,-0.02,0.06,-1.02,4.46,15.99,-3.78
15.5180,-0.03,0.02,-1.00,6.71,19.10,-8.79
15.5340,-0.04,-0.01,-0.99,6.16,21.06,-18.37
15.5490,-0.03,0.01,-0.98,2.50,24.17,-28.56
15.5650,-0.03,0.02,-0.98,-1.65,23.62,-35.52
15.5810,-0.03,0.05,-0.97,-1.71,21.97,-37.48
15.5980,-0.04,0.06,-0.98,0.12,19.59,-40.83
15.6140,-0.04,0.05,-0.98,-0.24,15.81,-45.10
15.6300,-0.04,0.07,-0.97,-4.76,13.31,-49.26
15.6450,-0.03,0.11,-0.96,-6.10,9.34,-50.96
15.6600,-0.06,0.12,-0.98,1.22,9.77,-47.55
15.6700,-0.05,0.15,-1.00,8.79,7.02,-42.72
15.6850,-0.05,0.16,-1.00,9.77,9.28,-38.15
15.7080,-0.05,0.18,-1.00,6.84,6.59,-33.14
15.7250,-0.05,0.18,-0.98,2.32,3.91,-31.13
15.7430,-0.04,0.20,-0.94,-0.73,-3.85,-19.78
15.7580,-0.05,0.18,-0.97,0.98,-5.13,-13.31
15.7750,-0.04,0.16,-0.98,-0.67,-9.22,-11.17
15.7910,-0.04,0.15,-1.00,-3.30,-9.03,-6.53
15.8070,-0.03,0.13,-1.01,-0.98,-7.14,-4.27
15.8230,-0.04,0.12,-1.01,1.34,-7.39,-2.50
15.8400,-0.01,0.09,-0.98,2.20,-9.40,-0.12
15.8560,-0.01,0.09,-1.00,5.43,-9.09,-0.06
15.8720,-0.01,0.10,-1.08,7.14,-11.84,0.06
15.8880,-0.02,0.09,-1.04,6.29,-15.08,-0.43
15.9050,-0.00,0.10,-1.03,5.55,-6.96,1.59
15.9210,-0.00,0.11,-1.01,3.54,-1.65,1.53
15.9370,-0.00,0.11,-0.99,1.28,-0.67,3.23
15.9520,-0.00,0.11,-0.98,1.34,-3.60,4.82
15.9590,-0.00,0.10,-0.98,1.65,-5.74,4.88
15.9740,0.00,0.10,-1.00,2.32,-9.03,5.19
15.9980,0.00,0.10,-1.01,0.92,-10.86,5.68
16.0130,0.01,0.09,-1.04,-0.24,-8.73,5.68
16.0300,0.02,0.09,-1.02,-1.59,-3.60,4.15
16.0460,0.02,0.08,-0.99,-1.04,-0.49,3.60
16.0620,0.02,0.08,-0.99,-0.18,-0.61,3.30
16.0770,0.01,0.09,-0.99,1.34,-1.40,3.42
16.0940,0.02,0.09,-0.98,2.20,-3.48,3.78
16.1090,0.02,0.09,-1.00,3.72,-5.80,3.72
16.1160,0.02,0.08,-1.01,4.39,-5.98,2.56
16.1310,0.03,0.09,-1.00,4.46,-4.39,2.08
16.1550,0.04,0.09,-1.01,4.39,-2.75,2.62
16.1690,0.03,0.09,-1.00,3.72,-1.71,2.44
16.1860,0.03,0.09,-0.99,3.72,-1.40,2.75
16.2030,0.03,0.10,-0.99,5.00,-1.95,2.81
16.2190,0.03,0.10,-1.00,5.19,-3.17,3.36
16.2350,0.03,0.09,-1.00,4.82,-2.81,3.66
16.2510,0.04,0.09,-1.00,5.55,-2.75,3.36
16.2680,0.04,0.09,-1.00,7.20,-2.38,2.56
16.2840,0.04,0.09,-1.00,6.84,-2.08,1.89
16.2990,0.04,0.10,-1.00,7.08,-1.40,2.32
16.3140,0.04,0.11,-1.00,6.90,-1.22,2.93
16.3300,0.05,0.10,-0.99,7.02,-1.34,3.36
16.3450,0.05,0.10,-0.99,7.32,-1.59,3.54
16.3600,0.05,0.09,-1.00,8.18,-2.75,3.11
16.3760,0.05,0.10,-1.00,9.03,-2.20,2.93
16.3870,0.05,0.10,-0.99,9.46,-2.32,2.01
16.4020,0.06,0.11,-0.99,10.07,-2.14,1.28
16.4190,0.06,0.11,-1.00,10.38,-2.38,0.98
16.4360,0.06,0.12,-1.01,10.13,-1.65,0.79
16.4520,0.06,0.12,-1.00,7.26,-0.18,1.77
16.4690,0.06,0.11,-0.99,6.71,0.24,2.20
16.4860,0.06,0.11,-0.99,7.69,-1.16,1.53
16.5010,0.06,0.11,-1.00,7.63,-1.59,1.04
16.5180,0.07,0.12,-1.00,6.04,-0.18,0.98
16.5330,0.06,0.12,-1.00,4.70,1.46,1.46
16.5500,0.06,0.12,-0.99,4.03,1.89,1.71
16.5650,0.06,0.12,-0.99,4.03,1.83,1.59
16.5800,0.07,0.12,-0.99,5.68,0.12,1.34
16.5870,0.06,0.11,-1.00,5.98,0.49,1.34
16.6030,0.07,0.12,-0.99,6.41,0.37,0.85
16.6250,0.07,0.12,-0.99,7.14,-0.31,0.12
16.6360,0.07,0.13,-1.00,6.77,0.43,0.06
16.6520,0.07,0.13,-1.00,5.25,0.79,0.06
16.6720,0.07,0.13,-0.99,3.97,1.65,1.16
16.6870,0.06,0.12,-0.99,3.91,1.77,1.34
16.7040,0.07,0.12,-0.99,4.94,1.16,1.40
16.7070,0.07,0.12,-0.99,5.37,0.85,0.67
16.7350,0.08,0.13,-1.00,5.25,1.28,0.55
16.7400,0.07,0.13,-0.99,4.46,1.95,0.18
16.7570,0.07,0.13,-0.99,3.85,2.08,0.06
16.7750,0.06,0.12,-0.99,3.66,2.32,-0.24
16.7910,0.06,0.12,-0.99,4.21,2.20,-0.18
16.8110,0.07,0.13,-0.99,4.52,1.77,0.92
16.8280,0.07,0.13,-0.99,4.03,2.01,1.34
16.8460,0.07,0.13,-0.99,3.54,2.08,1.59
16.8620,0.07,0.12,-0.99,4.33,2.44,1.71
16.8780,0.07,0.13,-0.99,5.25,1.77,1.22
16.8860,0.07,0.13,-0.99,5.49,1.59,0.61
16.8950,0.07,0.13,-1.00,5.13,1.40,0.67
16.9260,0.08,0.13,-0.99,4.33,2.14,0.73
16.9420,0.07,0.13,-0.99,4.15,2.14,0.49
16.9580,0.06,0.13,-0.99,4.15,1.95,0.43
16.9730,0.07,0.13,-0.99,4.03,2.26,1.46
16.9900,0.07,0.13,-0.99,3.91,1.95,1.71
17.0050,0.07,0.13,-0.99,3.42,2.08,1.71
17.0200,0.07,0.13,-0.99,3.78,2.08,1.71
17.0280,0.07,0.13,-0.99,3.78,1.83,1.59
17.0450,0.07,0.13,-0.99,3.48,1.95,1.59
17.0620,0.07,0.13,-0.99,4.03,1.95,1.59
17.0780,0.07,0.14,-0.99,3.85,1.95,1.59
17.0970,0.07,0.13,-0.99,3.05,1.89,1.89
17.1130,0.07,0.13,-0.99,3.30,2.01,2.01
17.1280,0.07,0.13,-0.99,3.48,1.89,1.95
17.1430,0.07,0.13,-0.99,3.54,2.20,1.77
17.1590,0.07,0.13,-0.99,2.69,2.81,2.14
17.1740,0.07,0.12,-0.99,3.36,2.20,2.69
17.1900,0.07,0.13,-0.99,3.48,2.38,2.44
17.2050,0.07,0.13,-0.99,3.85,2.01,2.26
17.2160,0.08,0.13,-0.99,3.54,2.20,2.08
17.2400,0.07,0.13,-0.99,4.09,2.56,1.46
17.2490,0.07,0.13,-0.99,4.33,2.75,1.22
17.2660,0.07,0.13,-0.99,4.27,2.32,1.46
17.2870,0.07,0.13,-0.99,3.23,2.32,1.53
17.3020,0.07,0.13,-0.99,3.48,2.20,1.83
17.3190,0.07,0.13,-0.99,3.36,2.44,1.83
17.3340,0.07,0.13,-0.99,3.11,2.44,1.77
17.3480,0.07,0.13,-0.99,4.21,2.62,1.83
17.3630,0.07,0.13,-0.99,4.21,2.62,1.83
17.3810,0.07,0.13,-0.99,3.54,2.32,1.71
17.3960,0.07,0.13,-0.99,3.23,2.38,1.83
17.4120,0.07,0.13,-0.99,3.36,2.26,1.83
17.4300,0.08,0.13,-0.99,3.17,2.62,1.77
17.4460,0.07,0.13,-0.99,3.48,2.38,1.22
17.4610,0.07,0.13,-0.99,3.42,2.14,1.34
17.4690,0.07,0.13,-0.99,3.54,2.32,1.46
17.4920,0.07,0.13,-0.99,3.91,2.14,1.34
17.5080,0.08,0.13,-0.99,3.91,2.44,1.34
17.5190,0.08,0.13,-0.99,3.54,2.44,1.22
17.5350,0.07,0.13,-0.99,3.54,2.56,1.16
17.5530,0.07,0.13,-0.99,3.30,2.38,1.34
17.5690,0.07,0.13,-0.99,3.60,2.20,1.46
17.5860,0.07,0.13,-0.99,3.66,2.14,1.53
17.6010,0.08,0.13,-0.99,3.60,1.95,1.40
17.6170,0.08,0.13,-0.99,3.42,1.95,1.40
17.6320,0.07,0.13,-0.99,3.36,2.26,1.46
17.6360,0.07,0.13,-0.99,3.66,2.14,1.34
17.6520,0.07,0.13,-0.99,3.91,2.38,1.77
17.6750,0.07,0.13,-0.99,3.78,2.01,1.65
17.6920,0.08,0.13,-0.99,3.78,2.20,1.59
17.7100,0.07,0.13,-0.99,3.60,2.32,1.59
17.7250,0.07,0.13,-0.99,3.60,2.26,1.59
17.7410,0.08,0.13,-0.99,3.54,2.62,1.71
17.7570,0.07,0.13,-0.99,3.54,2.56,1.71
17.7590,0.08,0.13,-0.99,3.78,2.44,1.77
17.7890,0.08,0.13,-0.99,3.54,2.38,2.08
17.8050,0.07,0.13,-0.99,3.60,2.14,1.89
17.8090,0.08,0.13,-0.99,3.54,2.20,1.89
17.8380,0.07,0.13,-0.99,3.54,1.89,1.71
17.8420,0.07,0.13,-0.99,3.60,2.08,1.71
17.8580,0.08,0.13,-0.99,3.30,2.01,1.83
17.8810,0.08,0.13,-0.99,3.66,2.26,2.26
17.8990,0.07,0.13,-0.99,3.78,1.89,2.50
17.9150,0.07,0.13,-0.99,3.91,2.20,2.56
17.9290,0.07,0.13,-0.99,4.03,1.77,2.32
17.9320,0.07,0.13,-0.99,3.78,2.01,2.01
17.9480,0.07,0.13,-0.99,3.48,2.50,1.89
17.9630,0.08,0.13,-0.99,3.36,2.26,1.89
17.9870,0.07,0.13,-0.99,3.48,1.89,2.14
18.0030,0.07,0.13,-0.99,3.60,2.44,2.26
18.0190,0.07,0.13,-0.99,3.66,2.26,2.14
18.0360,0.07,0.13,-0.99,3.36,2.44,2.32
18.0530,0.07,0.13,-0.99,3.36,2.69,2.26
18.0680,0.08,0.13,-0.99,3.91,2.44,2.20
18.0840,0.07,0.13,-0.99,3.60,2.69,2.08
18.0870,0.07,0.13,-0.99,3.30,2.20,1.95
18.1150,0.08,0.13,-0.99,3.30,2.20,2.01
18.1240,0.08,0.13,-0.99,3.30,2.81,2.14
18.1410,0.08,0.13,-0.99,3.54,2.32,2.01
18.1570,0.08,0.14,-0.99,3.66,2.69,2.20
18.1740,0.07,0.13,-0.99,3.42,2.44,2.20
18.1910,0.07,0.14,-0.99,3.36,2.56,2.08
18.2070,0.07,0.13,-0.99,2.99,2.62,2.08
18.2230,0.07,0.13,-0.99,3.11,2.26,1.89
18.2240,0.08,0.13,-0.99,3.60,2.08,1.89
18.2410,0.07,0.13,-0.99,3.48,2.62,2.01
18.2710,0.07,0.13,-0.99,3.72,2.56,2.01
18.2880,0.08,0.13,-0.99,3.48,2.44,1.89
18.3030,0.08,0.13,-0.99,3.30,2.99,2.01
18.3200,0.07,0.13,-0.99,3.05,2.14,2.08
18.3360,0.07,0.13,-0.99,2.93,2.87,2.20
18.3400,0.07,0.13,-0.99,3.36,2.20,2.01
18.3560,0.07,0.13,-0.99,3.30,2.44,2.01
18.3800,0.07,0.13,-0.99,3.23,2.50,2.01
18.3960,0.08,0.13,-0.99,3.42,2.32,2.08
18.4120,0.07,0.13,-0.99,3.30,2.38,2.08
18.4280,0.07,0.13,-0.99,3.60,1.95,2.14
18.4440,0.08,0.13,-0.99,3.17,2.32,2.01
18.4610,0.07,0.13,-0.99,3.30,2.69,2.14
18.4770,0.07,0.13,-0.99,3.72,2.32,2.08
18.4920,0.07,0.13,-0.99,3.78,2.14,2.01
18.5070,0.07,0.14,-0.99,3.54,2.14,1.83
18.5130,0.07,0.13,-0.99,3.30,1.95,1.77
18.5400,0.08,0.13,-0.99,3.30,2.01,1.77
18.5550,0.08,0.13,-0.99,2.99,2.20,1.83
18.5700,0.08,0.13,-0.99,3.36,2.14,1.83
18.5800,0.07,0.13,-0.99,3.42,2.26,1.77
18.5970,0.07,0.13,-0.99,3.78,2.20,1.71
18.6130,0.08,0.13,-0.99,3.42,2.32,1.65
18.6300,0.08,0.13,-0.99,3.30,2.14,1.34
18.6460,0.07,0.13,-0.99,3.66,1.95,1.46
18.6620,0.07,0.13,-0.99,3.72,2.38,1.34
18.6640,0.07,0.13,-0.99,3.54,2.20,1.53
18.6950,0.07,0.13,-0.99,3.36,2.50,1.28
18.7120,0.08,0.13,-0.99,2.99,2.14,1.28
18.7280,0.07,0.13,-0.99,3.11,2.44,1.46
18.7450,0.08,0.13,-0.99,3.23,2.38,1.34
18.7600,0.07,0.13,-0.99,3.30,2.44,1.28
18.7630,0.08,0.14,-0.99,3.42,2.56,1.16
18.7890,0.07,0.13,-0.99,3.48,2.50,1.10
18.8030,0.08,0.13,-0.99,3.17,2.75,0.98
18.8180,0.07,0.13,-0.99,3.30,2.38,0.73
18.8360,0.07,0.13,-0.99,3.54,2.20,0.98
18.8520,0.07,0.13,-0.99,3.54,2.08,0.92
18.8690,0.07,0.13,-0.99,4.03,2.20,1.10
18.8850,0.08,0.13,-0.99,3.72,2.62,1.04
18.9020,0.08,0.13,-0.99,3.42,2.75,1.04
18.9170,0.07,0.13,-0.99,3.11,2.44,0.98
18.9340,0.07,0.13,-0.99,3.36,2.38,1.46
18.9490,0.06,0.13,-0.99,3.11,2.69,1.46
18.9640,0.07,0.13,-0.99,3.23,2.32,1.89
18.9790,0.07,0.13,-0.99,3.11,2.38,1.83
18.9890,0.07,0.13,-0.99,3.48,2.32,1.65
19.0010,0.08,0.13,-0.99,3.72,2.38,1.83
19.0240,0.08,0.13,-0.99,3.54,2.44,1.77
19.0390,0.07,0.13,-0.99,3.48,2.32,1.71
19.0550,0.07,0.13,-0.99,3.36,2.62,1.83
19.0710,0.08,0.13,-0.99,3.30,2.26,1.71
19.0870,0.08,0.13,-0.99,3.36,2.32,1.71
19.0920,0.07,0.13,-0.99,3.11,2.38,1.83
19.1190,0.07,0.13,-0.99,3.60,1.77,1.89
19.1250,0.08,0.13,-0.99,3.66,2.08,1.77
19.1410,0.08,0.13,-0.99,4.03,1.89,1.77
19.1620,0.07,0.13,-0.99,3.78,2.08,1.83
19.1790,0.08,0.13,-0.99,4.03,2.20,1.77
19.1960,0.08,0.13,-0.99,3.42,2.44,1.71
19.2120,0.08,0.13,-0.99,3.36,2.38,1.77
19.2280,0.07,0.13,-0.99,3.42,2.38,2.01
19.2450,0.08,0.13,-0.98,4.03,2.32,1.95
19.2610,0.11,0.13,-0.99,4.52,2.32,2.32
19.2760,0.08,0.13,-1.00,4.82,1.83,2.38
19.2920,0.07,0.14,-1.00,3.97,2.50,2.26
19.3080,0.06,0.15,-0.99,3.48,2.44,2.32
19.3230,0.05,0.14,-0.99,2.81,2.20,2.26
19.3290,0.08,0.13,-0.99,3.11,2.38,2.08
19.3440,0.09,0.13,-0.99,3.42,2.14,2.01
19.3680,0.08,0.13,-0.99,3.78,2.20,2.08
19.3840,0.07,0.14,-0.99,3.78,2.20,2.14
19.4000,0.07,0.14,-0.99,3.48,2.26,2.14
19.4160,0.07,0.13,-0.99,3.36,2.14,2.08
19.4320,0.08,0.13,-0.99,3.23,2.26,1.95
19.4470,0.07,0.13,-0.99,3.23,2.44,1.95
19.4620,0.08,0.13,-0.99,3.30,2.44,1.89
19.4670,0.08,0.13,-0.99,3.66,2.26,2.08
19.4910,0.08,0.13,-0.99,3.91,2.38,2.01
19.5060,0.08,0.13,-0.99,3.60,2.62,2.01
19.5240,0.07,0.13,-0.99,3.42,2.20,1.83
19.5390,0.08,0.13,-0.99,3.42,2.08,2.08
19.5570,0.08,0.13,-0.99,3.48,2.44,2.20
19.5720,0.08,0.14,-0.99,3.48,2.69,2.08
19.5880,0.07,0.14,-0.99,3.60,2.20,2.01
19.5910,0.08,0.13,-0.99,3.17,2.14,2.14
19.6210,0.08,0.13,-0.99,3.36,2.26,1.95
19.6240,0.07,0.13,-0.99,3.54,2.01,2.14
19.6400,0.08,0.14,-0.99,3.85,2.38,2.20
19.6550,0.08,0.13,-0.99,3.54,2.20,2.14
19.6840,0.08,0.13,-0.99,3.54,2.69,2.26
19.6940,0.07,0.14,-0.99,3.17,2.50,2.14
19.7110,0.07,0.13,-0.99,3.23,2.44,2.01
19.7270,0.07,0.13,-0.99,3.48,1.89,1.95
19.7450,0.07,0.13,-0.99,3.60,2.38,1.89
19.7600,0.07,0.13,-0.99,3.36,2.56,1.95
19.7750,0.08,0.14,-0.99,3.60,2.26,2.01
19.7910,0.08,0.13,-0.99,3.48,2.75,1.95
19.7940,0.08,0.13,-0.99,3.48,2.56,1.83
19.8110,0.08,0.13,-0.99,3.60,2.44,1.89
19.8270,0.07,0.14,-0.99,3.60,2.32,1.89
19.8490,0.08,0.13,-0.99,3.30,2.62,1.95
19.8660,0.08,0.13,-0.99,3.30,2.32,2.01
19.8820,0.08,0.13,-0.99,3.60,2.50,2.01
19.8970,0.07,0.13,-0.99,3.66,2.20,2.08
19.9120,0.08,0.13,-0.99,3.66,2.38,2.20
19.9290,0.08,0.14,-0.99,3.60,2.32,2.14
19.9460,0.08,0.13,-0.99,3.30,2.56,2.20
19.9610,0.07,0.13,-0.99,3.42,2.08,2.08
19.9660,0.08,0.13,-0.99,3.54,2.50,2.01
19.9910,0.09,0.13,-0.99,4.03,2.69,2.01
20.0050,0.10,0.13,-0.99,3.54,2.32,2.01
20.0210,0.13,0.14,-0.99,2.62,2.44,2.14
20.0390,0.10,0.12,-0.99,3.17,2.26,3.11
20.0550,0.10,0.12,-0.98,2.44,1.77,2.93
20.0700,0.07,0.13,-0.99,3.60,2.14,3.05
20.0860,0.06,0.14,-0.99,2.93,2.56,2.38
20.1030,0.06,0.14,-0.99,2.93,2.38,2.26
20.1190,0.05,0.14,-0.99,2.75,2.32,2.20
20.1340,0.05,0.14,-0.99,2.62,2.56,2.08
20.1390,0.04,0.13,-0.99,3.05,2.01,2.14
20.1540,0.04,0.14,-0.99,2.99,2.26,2.32
20.1760,0.07,0.13,-0.99,3.54,2.08,2.08
20.1920,0.07,0.13,-0.99,3.66,1.59,1.83
20.2090,0.08,0.13,-0.99,3.85,1.77,2.01
20.2270,0.08,0.14,-0.99,3.36,2.26,1.83
20.2420,0.08,0.13,-0.99,3.23,2.20,1.71
20.2590,0.08,0.13,-0.99,3.23,2.44,1.89
20.2770,0.08,0.13,-0.99,3.66,2.08,1.77
20.2920,0.08,0.13,-0.99,3.54,2.56,1.89
20.3080,0.08,0.13,-0.99,3.42,2.44,1.95
20.3250,0.08,0.13,-0.99,3.48,2.26,2.01
20.3420,0.08,0.13,-0.99,3.91,2.20,2.01
20.3580,0.08,0.13,-0.99,3.42,2.38,1.95
20.3740,0.08,0.13,-0.99,3.54,2.69,2.01
20.3760,0.08,0.13,-0.99,3.91,2.44,2.01
20.4050,0.08,0.13,-0.99,3.97,2.32,2.08
20.4210,0.08,0.13,-0.99,3.60,2.32,2.32
20.4260,0.07,0.14,-0.99,3.48,2.50,2.08
20.4520,0.08,0.13,-0.99,3.11,2.81,2.32
20.4670,0.08,0.13,-0.99,3.48,2.62,2.50
20.4760,0.07,0.14,-0.99,3.11,2.26,2.50
20.4920,0.08,0.13,-0.99,3.17,2.08,2.20
20.5090,0.07,0.14,-0.99,3.30,2.14,2.01
20.5250,0.08,0.13,-0.99,2.99,2.44,2.01
20.5420,0.07,0.13,-0.99,3.42,2.26,1.95
20.5580,0.07,0.13,-0.99,3.48,2.20,1.95
20.5740,0.07,0.13,-0.99,3.60,2.81,2.01
20.5760,0.08,0.14,-0.99,3.42,2.20,1.83
20.5930,0.08,0.13,-0.99,3.30,1.95,1.77
20.6080,0.08,0.13,-0.99,3.42,1.95,1.71
20.6240,0.08,0.13,-0.99,3.48,2.08,1.71
20.6490,0.08,0.13,-0.99,3.30,2.26,1.71
20.6660,0.07,0.13,-0.99,2.93,2.14,1.53
20.6820,0.07,0.13,-0.99,3.17,2.14,1.59
20.6980,0.07,0.13,-0.99,3.30,2.56,1.77
20.7130,0.07,0.13,-0.99,3.48,2.44,1.77
20.7290,0.08,0.13,-0.99,3.91,2.50,1.71
20.7310,0.08,0.13,-0.99,3.36,2.75,2.01
20.7590,0.08,0.13,-0.99,3.42,2.56,1.77
20.7750,0.08,0.13,-0.99,3.42,2.50,1.77
20.7900,0.08,0.13,-0.99,3.78,2.32,1.71
20.8010,0.08,0.13,-0.99,3.91,2.14,1.89
20.8170,0.08,0.13,-0.99,3.66,2.26,1.83
20.8340,0.08,0.13,-0.99,3.36,2.32,1.83
20.8500,0.08,0.13,-0.99,3.11,2.20,1.34
20.8650,0.07,0.13,-0.99,3.36,2.20,0.98
20.8820,0.07,0.13,-0.99,4.27,1.95,1.34
20.8970,0.07,0.14,-0.99,4.03,2.20,1.40
20.9120,0.08,0.13,-0.99,3.36,1.95,1.46
20.9280,0.08,0.13,-0.99,3.11,2.50,1.65
20.9330,0.08,0.13,-0.99,3.36,2.50,1.59
20.9490,0.07,0.13,-0.99,3.54,2.62,1.65
20.9720,0.08,0.13,-0.99,3.72,2.44,1.71
20.9900,0.08,0.13,-0.99,3.42,2.44,1.65
21.0060,0.08,0.13,-0.99,3.48,1.95,1.59
21.0220,0.08,0.14,-0.99,3.54,2.20,1.16
21.0380,0.07,0.13,-0.99,3.23,2.50,0.92
21.0550,0.07,0.13,-0.99,3.48,2.75,1.16
21.0710,0.08,0.13,-0.99,3.36,2.20,1.22
21.0720,0.08,0.13,-0.99,2.99,2.44,1.04
21.0920,0.09,0.13,-0.99,3.42,2.38,0.92
21.1060,0.08,0.14,-0.99,3.48,2.44,0.55
21.1220,0.08,0.14,-0.99,3.05,2.44,0.31
21.1450,0.08,0.14,-0.99,3.11,2.44,0.12
21.1610,0.07,0.13,-0.99,3.23,2.14,-0.37
21.1780,0.08,0.13,-0.99,3.60,2.75,-0.31
21.1950,0.07,0.13,-0.99,3.60,2.69,0.00
21.2110,0.08,0.14,-0.99,3.54,2.44,0.37
21.2270,0.07,0.13,-0.99,3.36,2.26,0.37
21.2430,0.08,0.13,-0.99,3.66,2.26,0.73
21.2610,0.06,0.14,-0.99,3.48,2.56,0.67
21.2770,0.07,0.13,-0.99,2.14,2.69,1.22
21.2920,0.08,0.13,-0.99,3.23,2.38,1.28
21.3090,0.07,0.13,-0.99,3.30,2.26,0.85
21.3120,0.07,0.13,-0.99,3.11,2.87,1.34
21.3410,0.07,0.13,-0.99,3.17,2.69,1.40
21.3570,0.08,0.13,-0.99,3.30,2.50,1.53
21.3730,0.08,0.13,-0.99,3.42,2.75,1.34
21.3780,0.08,0.13,-0.99,3.48,2.38,1.04
21.3940,0.08,0.13,-0.99,3.60,2.50,0.98
21.4180,0.08,0.13,-0.99,3.66,2.50,1.16
21.4330,0.08,0.14,-0.99,3.30,2.44,1.10
21.4490,0.08,0.13,-0.99,3.54,2.69,0.67
21.4650,0.08,0.13,-0.99,3.72,2.44,0.24
21.4800,0.08,0.14,-0.99,3.72,2.38,0.12
21.4960,0.08,0.13,-0.99,3.48,2.56,0.18
21.5100,0.07,0.13,-0.99,3.11,2.50,0.18
21.5190,0.07,0.13,-0.99,3.48,2.32,0.73
21.5410,0.07,0.13,-0.99,3.66,2.38,1.40
21.5520,0.07,0.13,-0.99,3.17,2.99,1.71
21.5700,0.08,0.14,-0.99,3.17,2.50,1.77
21.5860,0.08,0.14,-0.99,3.54,2.50,1.77
21.6020,0.08,0.13,-0.99,3.60,2.38,1.53
21.6180,0.07,0.13,-0.99,3.42,2.26,1.40
21.6350,0.07,0.13,-0.99,3.54,2.62,1.40
21.6510,0.07,0.13,-0.99,3.85,2.62,1.53
21.6660,0.08,0.13,-0.99,3.66,2.44,1.83
21.6820,0.08,0.13,-0.99,3.72,2.26,1.53
21.6970,0.09,0.13,-0.99,3.66,2.44,1.53
21.7020,0.08,0.13,-0.99,3.36,2.69,1.22
21.7290,0.08,0.13,-0.99,3.11,2.50,1.22
21.7440,0.07,0.13,-0.99,3.36,2.50,1.10
21.7520,0.07,0.13,-0.99,3.48,2.38,1.40
21.7670,0.07,0.13,-0.99,3.54,2.93,1.59
21.7890,0.08,0.13,-0.99,3.72,2.50,1.53
21.7920,0.07,0.13,-0.99,3.36,2.50,1.59
21.8200,0.07,0.13,-0.99,3.05,2.56,1.59
21.8230,0.08,0.13,-0.99,3.23,2.44,1.77
21.8520,0.08,0.13,-0.99,3.42,2.62,1.65
21.8670,0.08,0.14,-0.99,3.78,2.44,1.53
21.8760,0.09,0.14,-0.99,3.97,2.32,1.40
21.8920,0.08,0.14,-0.99,3.72,2.32,1.04
21.9110,0.08,0.13,-0.99,3.23,2.81,1.04
21.9270,0.08,0.13,-0.99,3.05,2.93,0.79
21.9440,0.08,0.13,-0.98,3.23,2.75,0.67
21.9590,0.08,0.13,-0.99,3.60,2.75,0.79
21.9590,0.07,0.14,-0.99,3.85,2.62,1.16
21.9910,0.08,0.13,-0.99,3.91,2.75,1.04
22.0050,0.08,0.13,-0.99,3.54,2.44,0.98
22.0200,0.07,0.13,-0.99,3.17,2.44,0.92
22.0260,0.08,0.14,-0.99,3.42,2.87,1.16
22.0420,0.08,0.14,-0.99,3.30,2.56,1.04
22.0640,0.08,0.13,-0.99,3.23,2.44,0.98
22.0810,0.08,0.13,-0.99,4.09,2.69,1.22
22.0980,0.07,0.13,-0.99,3.85,2.87,1.16
22.1130,0.08,0.13,-0.99,3.30,2.62,1.28
22.1280,0.09,0.14,-0.99,3.11,2.81,0.98
22.1440,0.09,0.14,-0.99,3.72,2.62,-0.18
22.1610,0.08,0.13,-0.99,3.97,2.75,-0.37
22.1750,0.07,0.13,-0.99,3.48,2.56,-0.18
22.1930,0.07,0.13,-0.99,3.60,3.05,0.12
22.2080,0.08,0.12,-0.99,3.78,2.93,0.67
22.2240,0.08,0.14,-0.99,3.48,2.93,1.16
22.2390,0.07,0.14,-0.99,2.69,2.75,1.10
22.2470,0.07,0.14,-1.00,2.81,2.56,1.34
22.2620,0.07,0.13,-0.99,3.23,2.50,1.34
22.2840,0.07,0.13,-1.00,2.93,2.56,1.53
22.2930,0.08,0.13,-0.99,3.17,2.26,1.89
22.3140,0.07,0.14,-0.98,4.52,2.93,2.01
22.3290,0.09,0.13,-0.99,4.03,2.56,1.46
22.3450,0.09,0.13,-0.99,3.42,2.26,1.46
22.3600,0.08,0.13,-0.99,2.50,2.20,1.71
22.3750,0.07,0.14,-0.99,3.23,2.62,0.73
22.3860,0.07,0.13,-0.99,3.54,2.56,0.85
22.4030,0.07,0.13,-0.99,3.11,2.93,1.83
22.4200,0.07,0.14,-0.99,3.60,3.05,1.95
22.4360,0.07,0.13,-0.99,3.60,2.26,1.71
22.4520,0.08,0.13,-0.99,3.36,2.50,1.77
22.4530,0.08,0.13,-0.99,2.44,2.69,1.83
22.4840,0.08,0.13,-0.99,3.36,2.56,1.71
22.5000,0.07,0.13,-0.99,3.66,2.20,1.77
22.5170,0.08,0.13,-0.99,3.78,2.32,1.95
22.5310,0.08,0.13,-0.99,3.36,2.44,1.71
22.5480,0.08,0.13,-0.99,3.48,2.26,1.46
22.5530,0.08,0.13,-0.99,3.17,2.56,1.34
22.5690,0.08,0.13,-0.99,3.30,2.44,1.40
22.5930,0.08,0.13,-0.99,3.30,2.56,1.16
22.6080,0.07,0.13,-0.99,3.54,2.44,1.34
22.6240,0.08,0.13,-0.99,3.60,2.32,1.71
22.6410,0.08,0.13,-0.99,3.60,2.50,1.65
22.6560,0.07,0.14,-0.99,3.60,2.38,1.53
22.6580,0.08,0.13,-0.99,3.30,2.56,1.59
22.6740,0.08,0.13,-0.99,3.11,2.62,1.65
22.7040,0.08,0.13,-0.99,2.81,2.38,1.40
22.7070,0.07,0.13,-0.99,3.36,2.69,1.16
22.7360,0.08,0.13,-0.99,3.48,2.62,1.53
22.7430,0.08,0.13,-0.99,3.54,2.32,1.83
22.7590,0.09,0.13,-0.99,3.66,2.44,1.59
22.7780,0.07,0.13,-0.99,3.36,2.62,1.16
22.7930,0.08,0.13,-0.99,3.11,2.81,1.40
22.8130,0.07,0.13,-0.99,3.23,3.05,1.40
22.8280,0.08,0.13,-0.99,3.60,2.62,1.40
22.8320,0.08,0.13,-0.99,3.54,2.81,1.34
22.8600,0.08,0.13,-0.99,3.36,2.56,1.04
22.8770,0.08,0.13,-0.99,3.23,2.62,0.92
22.8820,0.08,0.13,-0.99,3.23,2.62,1.04
22.8980,0.07,0.13,-0.99,3.30,2.32,0.98
22.9210,0.07,0.13,-0.99,3.54,2.56,0.92
22.9370,0.07,0.13,-0.99,3.60,2.50,1.16
22.9390,0.08,0.13,-0.99,3.60,2.69,1.65
22.9550,0.09,0.13,-0.99,3.42,2.50,1.04
22.9700,0.08,0.13,-0.99,2.44,2.26,0.73
22.9930,0.08,0.13,-0.99,2.32,2.87,0.55
23.0090,0.08,0.13,-0.99,3.05,2.81,0.67
23.0270,0.07,0.13,-0.99,3.42,2.69,0.37
23.0420,0.07,0.13,-0.99,3.91,2.50,0.79
23.0610,0.07,0.13,-0.99,3.42,2.44,1.28
23.0770,0.08,0.13,-0.99,3.66,2.44,1.40
23.0930,0.08,0.13,-0.99,3.48,2.50,1.28
23.1090,0.08,0.13,-0.99,3.42,2.50,0.98
23.1250,0.08,0.13,-0.99,3.42,2.44,1.04
23.1270,0.07,0.13,-0.99,3.66,2.62,1.16
23.1570,0.07,0.13,-0.99,3.72,2.69,1.46
23.1600,0.08,0.13,-0.99,3.66,2.32,1.71
23.1890,0.08,0.13,-0.99,3.05,2.87,1.46
23.1940,0.08,0.13,-0.99,3.85,2.44,1.28
23.2090,0.08,0.13,-0.99,4.09,2.26,1.22
23.2250,0.08,0.13,-0.99,3.78,2.50,1.28
23.2530,0.07,0.13,-0.99,3.72,2.75,1.28
23.2640,0.08,0.13,-0.99,3.36,2.38,1.59
23.2810,0.07,0.13,-0.99,3.66,2.81,1.59
23.2970,0.08,0.13,-0.99,3.66,2.50,1.46
23.3130,0.08,0.13,-0.99,3.72,2.50,1.46
23.3300,0.08,0.13,-0.99,3.72,2.20,1.16
23.3450,0.08,0.13,-0.99,3.23,2.56,1.04
23.3620,0.08,0.13,-0.99,3.42,2.44,1.10
23.3770,0.07,0.13,-0.99,3.36,2.14,0.98
23.3930,0.08,0.13,-0.99,3.85,2.32,1.10
23.4100,0.08,0.13,-0.99,3.78,2.81,1.22
23.4130,0.07,0.13,-0.99,3.54,2.56,0.79
23.4290,0.07,0.13,-0.99,2.87,2.87,0.85
23.4510,0.08,0.13,-0.99,2.99,2.87,0.92
23.4670,0.07,0.13,-0.99,3.60,2.87,1.22
23.4830,0.08,0.13,-0.99,3.54,2.75,1.40
23.5000,0.08,0.13,-0.99,3.42,3.23,1.40
23.5170,0.08,0.13,-0.99,3.36,2.62,1.40
23.5330,0.08,0.13,-0.99,3.17,2.93,1.28
23.5510,0.08,0.13,-0.99,2.81,2.69,1.28
23.5660,0.08,0.13,-0.99,3.23,2.81,0.92
23.5820,0.08,0.13,-0.99,3.48,2.69,1.10
23.5970,0.07,0.13,-0.99,3.85,2.44,1.34
23.6120,0.08,0.13,-0.99,4.03,2.62,1.46
23.6290,0.08,0.13,-0.99,3.36,2.56,1.40
23.6440,0.08,0.13,-0.99,2.99,2.56,1.46
23.6510,0.08,0.13,-0.99,3.11,2.75,1.28
23.6750,0.08,0.13,-0.99,3.36,2.81,0.92
23.6910,0.07,0.13,-0.99,3.36,2.75,1.10
23.7010,0.08,0.13,-0.99,3.66,2.81,1.28
23.7170,0.08,0.13,-0.99,3.42,2.75,1.28
23.7340,0.07,0.13,-0.99,3.11,2.87,1.16
23.7520,0.08,0.13,-0.99,3.54,2.81,1.28
23.7680,0.07,0.13,-0.99,3.42,2.62,1.34
23.7830,0.07,0.13,-0.99,3.66,2.69,1.71
23.8000,0.07,0.13,-0.99,3.36,3.23,1.71
23.8170,0.08,0.13,-0.99,3.48,2.62,1.77
23.8330,0.08,0.13,-0.99,3.17,2.62,1.59
23.8490,0.08,0.13,-0.99,3.42,2.56,1.46
23.8630,0.07,0.13,-0.99,3.42,3.11,1.59
23.8790,0.07,0.13,-0.99,3.30,3.05,1.77
23.8950,0.08,0.13,-0.99,3.23,2.87,1.71
23.9110,0.08,0.13,-0.99,3.36,2.50,1.46
23.9270,0.08,0.13,-0.99,3.36,2.81,1.40
23.9430,0.08,0.13,-0.99,3.30,2.81,1.34
23.9580,0.08,0.13,-0.99,3.17,2.75,1.22
23.9730,0.07,0.13,-0.99,3.36,2.20,1.22
23.9840,0.08,0.13,-0.99,3.48,2.56,1.46
24.0010,0.08,0.13,-0.99,3.60,2.44,1.40
24.0170,0.08,0.13,-0.99,3.72,2.81,1.40
24.0350,0.08,0.13,-0.99,3.11,2.69,1.40
24.0490,0.07,0.13,-0.99,3.17,2.62,1.04
24.0650,0.07,0.13,-0.99,3.66,2.75,1.28
24.0810,0.07,0.13,-0.99,3.48,2.50,1.40
24.0960,0.08,0.13,-0.99,3.42,2.56,1.59
24.1010,0.08,0.13,-0.99,3.11,2.69,1.65
24.1160,0.08,0.13,-0.99,2.99,2.44,1.59
24.1410,0.08,0.13,-0.99,3.05,2.56,1.59
24.1560,0.08,0.13,-0.99,3.17,2.62,1.40
24.1730,0.08,0.13,-0.99,3.66,2.62,1.16
24.1890,0.07,0.13,-0.99,3.36,2.20,1.16
24.2060,0.08,0.13,-0.99,3.36,2.56,1.22
24.2070,0.08,0.13,-0.99,3.30,2.50,1.22
24.2240,0.08,0.13,-0.99,3.36,2.50,1.04
24.2400,0.08,0.13,-0.99,3.48,2.75,0.85
24.2550,0.07,0.13,-0.99,3.91,2.69,0.92
24.2780,0.08,0.13,-0.99,3.78,2.56,1.04
24.2960,0.08,0.13,-0.99,3.30,2.81,1.40
24.3110,0.08,0.13,-0.99,2.62,2.69,1.34
24.3290,0.07,0.13,-0.99,2.69,3.05,1.46
24.3450,0.07,0.13,-0.99,3.11,2.62,1.22
24.3620,0.08,0.13,-0.99,3.36,2.81,1.34
24.3780,0.08,0.13,-0.99,3.72,2.50,1.34
24.3950,0.08,0.13,-0.99,3.60,2.93,1.22
24.3960,0.08,0.13,-0.99,3.54,2.56,0.92
24.4250,0.08,0.13,-0.99,3.30,2.93,1.04
24.4410,0.08,0.13,-0.99,3.48,2.99,1.04
24.4560,0.08,0.13,-0.99,3.48,2.99,1.16
24.4730,0.07,0.13,-0.99,3.30,2.50,1.22
24.4900,0.08,0.13,-0.99,3.48,2.62,1.46
24.5050,0.08,0.13,-0.99,3.36,2.99,1.22
24.5110,0.08,0.13,-0.99,3.11,3.17,1.34
24.5350,0.07,0.13,-0.99,3.54,2.38,1.22
24.5450,0.07,0.13,-0.99,3.72,3.05,1.22
24.5610,0.08,0.13,-0.99,4.15,2.38,1.40
24.5840,0.08,0.13,-0.99,3.42,2.62,1.22
24.5990,0.08,0.13,-0.99,3.17,2.75,1.16
24.6150,0.08,0.13,-0.99,2.75,2.75,0.98
24.6300,0.07,0.13,-0.99,2.69,2.93,1.10
24.6460,0.08,0.13,-0.99,3.36,2.81,1.10
24.6610,0.08,0.13,-0.99,3.54,2.50,1.34
24.6760,0.08,0.13,-0.99,3.36,2.50,1.28
24.6840,0.09,0.13,-0.99,3.48,2.38,1.10
24.7060,0.08,0.13,-0.99,3.05,2.75,0.92
24.7170,0.07,0.13,-0.99,3.05,3.05,0.92
24.7340,0.07,0.13,-0.99,3.42,2.69,1.28
24.7500,0.08,0.13,-0.99,3.54,2.75,1.22
24.7690,0.08,0.13,-0.99,2.93,2.62,1.04
24.7850,0.08,0.13,-0.99,2.93,2.81,0.85
24.8010,0.08,0.13,-0.99,3.42,2.26,0.49
24.8170,0.08,0.13,-0.99,3.78,2.56,0.24
24.8180,0.07,0.13,-0.99,3.42,2.56,0.06
24.8360,0.07,0.13,-0.99,3.66,3.17,0.61
24.8520,0.07,0.13,-0.99,3.42,2.99,0.73
24.8780,0.08,0.13,-0.99,3.42,2.93,0.98
24.8840,0.07,0.13,-0.99,3.17,2.99,0.98
24.9000,0.08,0.13,-0.99,3.30,2.56,1.10
24.9230,0.07,0.13,-0.99,3.85,2.38,1.28
24.9400,0.07,0.13,-0.99,3.72,2.56,1.46
24.9560,0.08,0.13,-0.99,3.17,2.62,1.59
24.9720,0.08,0.13,-0.99,2.99,2.99,1.46
24.9880,0.08,0.13,-0.99,3.23,2.38,1.28
25.0040,0.07,0.13,-0.99,3.36,2.26,1.04
25.0200,0.07,0.13,-0.99,3.54,2.38,1.28
25.0240,0.07,0.13,-0.99,3.48,2.32,1.46
25.0400,0.08,0.13,-0.99,3.36,2.20,1.53
25.0550,0.08,0.13,-0.99,3.36,2.32,1.10
25.0790,0.08,0.12,-0.99,3.30,2.44,0.85
25.0970,0.07,0.13,-0.99,3.85,2.81,0.67
25.1130,0.07,0.13,-0.99,3.60,2.32,0.85
25.1300,0.07,0.13,-0.99,3.60,2.20,1.10
25.1460,0.08,0.13,-0.99,3.78,2.32,1.46
25.1610,0.08,0.13,-0.99,3.42,2.38,1.59
25.1780,0.08,0.13,-0.99,3.42,2.20,1.22
25.1930,0.07,0.13,-0.99,3.66,2.93,1.40
25.1970,0.07,0.13,-0.99,4.09,1.89,1.53
25.2120,0.08,0.13,-0.99,3.48,2.56,1.77
25.2340,0.08,0.13,-0.99,2.99,2.50,1.71
25.2520,0.08,0.13,-0.99,2.93,2.08,1.53
25.2680,0.08,0.12,-0.99,3.36,2.50,1.28
25.2840,0.07,0.13,-0.99,3.91,3.23,1.28
25.3000,0.07,0.13,-0.99,3.72,2.69,1.59
25.3160,0.07,0.13,-0.99,3.66,2.20,1.89
25.3320,0.08,0.13,-0.99,3.72,2.14,1.83
25.3480,0.08,0.13,-0.99,3.42,2.62,2.01
25.3630,0.08,0.13,-0.99,3.42,2.69,1.83
25.3780,0.09,0.13,-0.99,3.42,2.01,1.71
25.3950,0.07,0.13,-0.99,3.60,2.75,1.71
25.4110,0.08,0.13,-0.99,3.72,2.32,1.83
25.4270,0.08,0.13,-0.99,3.48,2.44,1.83
25.4420,0.09,0.13,-0.99,3.05,2.32,1.65
25.4520,0.08,0.13,-0.99,2.81,2.08,1.34
25.4680,0.07,0.12,-0.99,3.48,2.08,1.46
25.4880,0.07,0.13,-0.99,4.15,2.50,1.77
25.5050,0.08,0.13,-0.99,3.91,2.14,2.01
25.5210,0.08,0.13,-0.99,3.30,2.44,1.95
25.5370,0.09,0.13,-0.99,2.99,2.56,1.77
25.5540,0.08,0.13,-0.99,3.36,2.56,1.34
25.5690,0.07,0.13,-0.99,3.97,2.14,1.34
25.5850,0.07,0.13,-0.99,4.15,2.38,1.53
25.6000,0.07,0.13,-0.99,3.72,2.44,1.71
25.6150,0.08,0.13,-0.99,2.99,2.32,1.71
25.6230,0.08,0.13,-0.99,2.69,2.75,1.83
25.6390,0.08,0.13,-0.99,3.54,2.69,1.95
25.6610,0.08,0.13,-0.99,3.97,2.50,2.08
25.6780,0.08,0.13,-0.99,3.60,2.44,1.95
25.6940,0.08,0.13,-0.99,3.36,2.56,1.95
25.7100,0.08,0.13,-0.99,3.72,2.20,1.89
25.7260,0.08,0.13,-0.99,3.85,2.56,2.08
25.7410,0.08,0.13,-0.99,3.72,2.50,1.95
25.7570,0.08,0.13,-0.99,3.23,2.62,2.01
25.7740,0.08,0.13,-0.99,2.99,2.75,1.83
25.7900,0.08,0.13,-0.99,3.42,2.44,1.89
25.7980,0.08,0.13,-0.99,4.03,2.20,2.01
25.8110,0.08,0.13,-0.99,3.97,2.32,2.01
25.8350,0.08,0.13,-0.99,3.60,2.38,1.83
25.8510,0.08,0.13,-0.99,3.05,2.99,1.95
25.8670,0.08,0.13,-0.99,3.05,2.69,1.77
25.8830,0.08,0.13,-0.99,3.36,2.56,1.95
25.8990,0.08,0.13,-0.99,3.66,2.56,1.83
25.9150,0.08,0.13,-0.99,3.66,2.38,1.59
25.9310,0.07,0.13,-0.99,3.54,2.38,1.46
25.9470,0.08,0.13,-0.99,3.17,2.38,1.77
25.9630,0.07,0.13,-0.99,3.17,2.69,1.71
25.9790,0.08,0.13,-0.99,3.60,2.38,1.83
25.9840,0.08,0.13,-0.99,3.36,2.26,1.71
26.0000,0.08,0.13,-0.99,3.78,2.50,1.53
26.0230,0.08,0.13,-0.99,3.54,2.38,1.46
26.0400,0.08,0.13,-0.99,3.48,2.56,1.28
26.0550,0.08,0.13,-0.99,3.48,2.20,1.46
26.0570,0.08,0.13,-0.99,3.42,2.93,1.77
26.0870,0.08,0.13,-0.99,3.72,2.38,1.53
26.0990,0.08,0.13,-0.99,3.48,2.56,1.53
26.1050,0.07,0.13,-0.99,3.30,2.69,1.46
26.1330,0.07,0.13,-0.99,3.42,2.75,1.89
26.1450,0.07,0.13,-0.99,3.30,2.56,1.89
26.1600,0.08,0.13,-0.99,3.48,2.44,1.95
26.1800,0.08,0.13,-0.99,3.78,2.50,2.01
26.1950,0.08,0.13,-0.99,3.91,2.20,1.83
26.2110,0.08,0.13,-0.99,3.17,2.56,1.95
26.2280,0.08,0.13,-0.99,3.30,1.95,1.89
26.2420,0.08,0.13,-0.99,3.85,2.08,2.01
26.2590,0.08,0.13,-0.99,4.03,2.38,2.08
26.2650,0.08,0.13,-0.99,3.97,1.95,2.01
26.2800,0.08,0.13,-0.99,3.66,2.01,1.83
26.3020,0.08,0.13,-0.99,3.54,2.20,2.01
26.3200,0.08,0.13,-0.99,3.60,2.62,2.08
26.3360,0.08,0.13,-0.99,3.97,2.32,1.95
26.3530,0.08,0.13,-0.99,3.72,2.20,1.77
26.3700,0.08,0.13,-0.99,3.91,2.08,1.95
26.3860,0.08,0.13,-0.99,3.78,2.32,2.01
26.4020,0.08,0.13,-0.99,3.60,2.08,2.01
26.4190,0.08,0.13,-0.99,3.66,2.38,2.08
26.4340,0.08,0.13,-0.99,4.09,2.38,1.89
26.4510,0.08,0.13,-0.99,3.85,2.56,2.14
26.4670,0.08,0.13,-0.99,3.66,2.26,1.89
26.4830,0.08,0.13,-0.99,3.66,2.26,1.89
26.4990,0.08,0.13,-0.99,3.54,2.14,1.83
26.5020,0.08,0.13,-0.99,3.85,1.95,1.89
26.5180,0.08,0.13,-0.99,3.48,2.50,2.01
26.5410,0.08,0.13,-0.99,3.42,2.50,2.01
26.5580,0.08,0.13,-0.99,3.60,2.50,1.89
26.5750,0.08,0.13,-0.99,3.91,2.32,2.01
26.5920,0.08,0.13,-0.99,3.66,2.56,1.77
26.6080,0.08,0.13,-0.99,3.78,2.14,1.83
26.6260,0.08,0.13,-0.99,3.66,2.38,1.95
26.6410,0.08,0.13,-0.99,3.85,2.44,1.89
26.6560,0.08,0.13,-0.99,3.60,2.50,1.89
26.6730,0.08,0.13,-0.99,3.36,2.38,2.01
26.6760,0.08,0.13,-0.99,3.66,2.75,1.89
26.6990,0.08,0.13,-0.99,4.03,2.14,1.89
26.7070,0.08,0.13,-0.99,3.91,2.20,1.89
26.7310,0.07,0.11,-0.98,3.78,2.14,1.89
26.7480,0.08,0.13,-0.99,3.66,2.26,2.08
26.7640,0.08,0.13,-0.99,4.27,1.71,2.08
26.7810,0.08,0.13,-0.99,3.85,2.20,1.89
26.7960,0.08,0.13,-0.99,3.97,2.26,1.89
26.8120,0.08,0.13,-0.99,3.66,2.38,1.95
26.8150,0.08,0.13,-0.99,2.93,2.93,1.95
26.8300,0.08,0.13,-0.99,2.44,3.42,1.95
26.8540,0.09,0.16,-1.01,2.20,3.30,1.89
26.8710,0.08,0.14,-1.00,2.62,2.93,2.01
26.8870,0.07,0.13,-0.98,2.26,3.30,1.95
26.9030,0.08,0.13,-0.99,3.42,3.05,2.08
26.9200,0.08,0.13,-0.99,3.97,3.30,2.14
26.9370,0.08,0.13,-0.99,4.70,2.62,2.01
26.9530,0.08,0.13,-0.99,4.15,3.11,2.32
26.9690,0.07,0.13,-0.99,3.30,2.69,2.01
26.9850,0.07,0.13,-0.99,3.48,2.50,2.14
26.9990,0.08,0.13,-0.99,3.85,2.62,2.14
27.0030,0.08,0.13,-0.99,3.78,2.62,1.77
27.0280,0.08,0.13,-0.99,3.85,2.50,1.89
27.0450,0.08,0.13,-0.99,4.27,2.20,1.71
27.0610,0.08,0.13,-0.99,4.39,2.81,2.01
27.0780,0.08,0.13,-0.99,3.54,2.56,1.89
27.0930,0.08,0.13,-0.99,3.17,2.75,1.95
27.1100,0.08,0.13,-0.99,2.99,3.11,2.20
27.1260,0.08,0.13,-0.99,3.54,2.62,2.08
27.1280,0.08,0.13,-0.99,3.42,3.05,2.01
27.1440,0.08,0.13,-0.99,3.30,3.05,1.95
27.1670,0.08,0.13,-0.99,3.66,2.62,2.20
27.1830,0.08,0.13,-0.99,3.36,2.69,1.89
27.2000,0.08,0.13,-0.99,4.09,2.93,2.08
27.2160,0.08,0.13,-0.99,4.33,2.75,2.08
27.2330,0.08,0.13,-0.99,4.09,2.81,2.14
27.2490,0.08,0.14,-0.99,3.17,2.87,1.95
27.2660,0.07,0.13,-0.97,1.22,3.54,1.95
27.2820,0.08,0.13,-0.99,2.44,3.30,1.89
27.2980,0.07,0.12,-0.99,1.59,3.42,1.95
27.3150,0.07,0.13,-0.99,3.72,3.05,2.20
27.3310,0.08,0.14,-1.00,4.09,2.87,2.08
27.3460,0.07,0.12,-0.98,2.26,2.75,1.77
27.3620,0.09,0.14,-1.00,2.93,2.75,1.89
27.3780,0.08,0.13,-0.99,2.01,3.30,1.89
27.3940,0.07,0.13,-0.99,2.38,2.69,1.89
27.4080,0.08,0.13,-0.99,2.62,2.87,2.01
27.4160,0.07,0.13,-0.99,2.87,2.44,2.01
27.4400,0.08,0.13,-0.99,2.75,2.93,1.89
27.4500,0.07,0.13,-0.99,2.93,3.05,2.01
27.4660,0.08,0.12,-1.00,2.26,2.20,1.83
27.4830,0.08,0.12,-0.98,3.11,2.50,2.08
27.5000,0.09,0.15,-1.00,6.04,2.26,2.44
27.5160,0.08,0.12,-0.99,3.48,2.14,1.95
27.5330,0.07,0.12,-0.98,3.66,2.69,1.77
27.5500,0.08,0.13,-0.99,4.21,2.69,2.08
27.5650,0.07,0.13,-0.99,3.48,2.93,2.01
27.5810,0.07,0.13,-0.99,3.60,2.50,2.01
27.5970,0.08,0.13,-0.99,3.97,2.14,1.95
27.6130,0.07,0.13,-0.99,3.42,2.87,2.01
27.6170,0.07,0.13,-0.99,3.42,2.69,1.95
27.6450,0.07,0.13,-0.99,3.36,2.50,1.89
27.6610,0.08,0.13,-0.99,3.60,2.62,1.89
27.6770,0.07,0.13,-0.99,3.60,2.62,1.89
27.6830,0.07,0.13,-0.99,3.48,2.32,1.95
27.7010,0.07,0.13,-0.99,3.54,2.75,2.08
27.7200,0.07,0.13,-0.99,3.60,2.32,1.83
27.7370,0.07,0.13,-0.99,3.42,2.44,1.89
27.7530,0.08,0.13,-0.99,3.30,2.87,2.14
27.7700,0.08,0.13,-0.99,3.48,2.87,2.01
27.7860,0.07,0.13,-0.99,3.48,2.50,2.01
27.8020,0.07,0.13,-0.99,3.05,2.75,1.89
27.8180,0.07,0.13,-0.99,3.11,2.87,1.95
27.8330,0.08,0.13,-0.99,3.11,2.69,1.83
27.8370,0.07,0.13,-0.99,2.99,2.50,1.89
27.8520,0.07,0.13,-0.99,2.50,2.93,2.01
27.8770,0.08,0.13,-0.99,2.20,2.75,1.95
27.8950,0.07,0.13,-0.99,1.71,3.11,2.01
27.9110,0.07,0.13,-0.99,2.08,2.99,1.89
27.9280,0.08,0.13,-0.99,2.62,2.87,2.01
27.9430,0.07,0.12,-0.99,1.89,3.23,1.77
27.9600,0.07,0.12,-0.99,2.62,2.81,1.89
27.9750,0.07,0.13,-0.99,3.23,2.62,2.01
27.9920,0.07,0.13,-0.99,3.54,2.08,2.01
28.0080,0.07,0.13,-0.99,3.17,2.62,1.89
28.0240,0.07,0.13,-0.99,2.81,2.50,1.83
28.0390,0.07,0.13,-0.99,3.23,2.44,2.01
28.0550,0.07,0.13,-0.99,2.93,2.56,2.01
28.0710,0.07,0.12,-0.99,2.93,2.32,1.77
28.0870,0.07,0.12,-0.99,3.54,2.69,2.08
28.1030,0.08,0.13,-0.99,3.91,2.20,2.01
28.1190,0.07,0.13,-0.99,3.60,2.62,1.89
28.1270,0.07,0.12,-0.99,3.23,2.62,1.89
28.1450,0.07,0.13,-0.99,2.99,2.32,2.01
28.1610,0.07,0.12,-0.99,3.30,2.50,2.08
28.1770,0.07,0.13,-0.99,2.99,2.75,2.14
28.1960,0.07,0.13,-0.99,3.66,2.93,1.89
28.2120,0.07,0.12,-0.99,3.78,2.81,1.77
28.2140,0.07,0.13,-0.99,4.39,1.95,1.83
28.2290,0.07,0.13,-0.99,3.54,2.32,1.83
28.2510,0.07,0.13,-0.99,3.48,2.14,1.95
28.2680,0.07,0.13,-0.99,3.48,2.56,2.01
28.2850,0.07,0.13,-0.99,3.48,2.26,1.95
28.3020,0.07,0.13,-0.99,2.87,2.26,1.95
28.3180,0.07,0.12,-0.99,3.11,2.26,1.95
28.3350,0.07,0.12,-0.99,3.42,2.62,1.83
28.3510,0.07,0.12,-0.99,3.60,2.56,1.95
28.3670,0.07,0.12,-0.99,4.15,2.32,2.01
28.3690,0.07,0.13,-0.99,4.09,2.44,2.01
28.3850,0.07,0.13,-1.00,3.66,2.32,1.89
28.4020,0.07,0.12,-0.99,2.75,2.62,1.89
28.4310,0.07,0.13,-0.99,4.09,2.38,1.89
28.4410,0.07,0.13,-0.99,3.60,2.50,1.89
28.4570,0.07,0.13,-0.99,3.17,2.32,1.83
28.4740,0.07,0.13,-0.99,3.36,2.32,2.01
28.4900,0.07,0.12,-0.99,3.42,2.38,2.14
28.5080,0.07,0.13,-0.99,4.15,2.38,2.14
28.5230,0.07,0.13,-0.99,4.09,2.62,1.95
28.5400,0.07,0.13,-0.99,4.27,2.69,1.95
28.5560,0.08,0.13,-0.99,3.97,2.93,2.08
28.5580,0.07,0.13,-0.99,3.78,2.81,2.14
28.5890,0.07,0.13,-0.99,3.17,2.81,2.38
28.6020,0.08,0.13,-0.99,3.42,2.44,2.32
28.6080,0.08,0.13,-0.99,4.39,2.44,2.44
28.6240,0.07,0.13,-0.99,4.39,2.38,2.50
28.6390,0.07,0.13,-0.99,3.54,2.38,2.08
28.6630,0.07,0.13,-0.99,3.48,2.93,1.89
28.6780,0.07,0.13,-0.99,4.21,2.32,2.01
28.6960,0.07,0.13,-0.99,3.97,1.95,1.71
28.7130,0.08,0.13,-0.99,4.09,2.38,1.89
28.7300,0.07,0.13,-0.99,3.66,2.44,1.83
28.7450,0.07,0.13,-0.99,3.91,2.44,1.71
28.7620,0.08,0.13,-0.99,3.97,2.44,1.46
28.7790,0.08,0.13,-0.99,3.42,2.56,0.61
28.7800,0.07,0.13,-0.99,3.23,2.99,-0.49
28.8030,0.07,0.13,-0.99,3.54,2.81,-0.18
28.8140,0.07,0.13,-0.99,3.78,2.87,-0.37
28.8290,0.07,0.13,-0.99,3.72,2.81,0.49
28.8520,0.07,0.13,-0.99,3.78,2.87,1.04
28.8690,0.07,0.13,-0.99,3.72,2.93,1.40
28.8860,0.08,0.13,-0.99,3.54,3.05,-0.06
28.9030,0.07,0.14,-0.99,3.85,2.56,-0.12
28.9190,0.07,0.13,-0.99,3.72,2.56,1.34
28.9340,0.07,0.13,-0.99,3.48,2.44,0.55
28.9500,0.07,0.13,-0.99,3.54,2.14,0.55
28.9660,0.07,0.14,-0.99,3.36,2.08,0.98
28.9810,0.07,0.13,-0.99,2.99,2.62,1.71
28.9850,0.07,0.13,-0.99,3.36,2.20,1.77
29.0040,0.07,0.13,-0.99,3.78,2.32,1.95
29.0230,0.07,0.13,-0.99,3.48,2.26,1.89
29.0390,0.07,0.13,-0.99,3.11,2.69,1.89
29.0560,0.07,0.13,-0.99,3.23,2.38,1.95
29.0740,0.07,0.13,-0.99,3.05,2.44,1.95
29.0900,0.07,0.13,-0.99,3.85,2.32,1.89
29.1050,0.07,0.13,-0.99,3.60,2.38,1.77
29.1220,0.07,0.13,-0.99,3.66,2.38,1.28
29.1380,0.07,0.13,-0.99,3.17,2.75,1.34
29.1540,0.07,0.13,-0.99,3.30,2.69,1.65
29.1560,0.07,0.13,-0.99,3.36,2.62,1.10
29.1720,0.07,0.13,-0.99,3.60,2.50,0.61
29.1950,0.07,0.13,-0.99,3.72,2.62,0.73
29.2120,0.07,0.13,-0.99,3.66,2.32,1.34
29.2280,0.07,0.13,-0.99,3.36,2.62,1.65
29.2450,0.07,0.13,-0.99,3.54,2.56,1.83
29.2620,0.07,0.13,-0.99,3.30,2.62,1.95
29.2780,0.07,0.13,-0.99,3.54,2.56,1.89
29.2950,0.07,0.13,-0.99,3.91,2.01,1.77
29.3130,0.07,0.12,-0.99,3.97,2.20,1.22
29.3290,0.08,0.13,-0.99,3.85,2.50,0.00
29.3450,0.07,0.14,-0.99,4.03,2.62,0.12
29.3610,0.07,0.13,-0.99,3.66,2.62,0.98
29.3760,0.07,0.13,-0.99,3.36,2.93,1.16
29.3930,0.07,0.13,-0.99,3.85,2.81,1.59
29.4090,0.07,0.13,-0.99,3.72,2.32,1.40
29.4260,0.07,0.12,-0.99,3.97,2.20,0.92
29.4410,0.07,0.13,-0.99,3.91,2.93,0.06
29.4570,0.07,0.13,-0.99,3.60,2.99,-0.55
29.4750,0.07,0.12,-0.99,3.66,3.11,-1.16
29.4790,0.07,0.14,-0.99,3.72,3.05,-1.10
29.5070,0.08,0.13,-0.99,4.15,2.93,-0.06
29.5230,0.08,0.13,-0.99,3.85,2.99,0.18
29.5290,0.08,0.13,-0.99,3.78,2.99,0.67
29.5550,0.07,0.14,-0.99,3.36,3.05,0.92
29.5610,0.07,0.14,-0.99,3.36,2.50,1.59
29.5770,0.07,0.13,-0.99,2.99,2.44,1.95
29.6000,0.07,0.12,-0.99,3.85,2.69,1.77
29.6170,0.07,0.12,-0.99,3.91,2.75,0.67
29.6330,0.07,0.12,-0.99,3.85,3.17,-1.10
29.6490,0.07,0.13,-0.99,3.78,3.23,-0.67
29.6640,0.07,0.13,-0.99,3.54,3.17,0.55
29.6800,0.07,0.13,-0.99,3.23,2.56,0.73
29.6940,0.07,0.13,-0.99,3.05,2.69,1.46
29.7110,0.07,0.14,-0.99,3.23,3.05,1.77
29.7270,0.07,0.13,-0.99,3.72,2.38,1.16
29.7430,0.07,0.12,-0.99,3.66,2.56,0.61
29.7500,0.07,0.13,-0.99,3.66,2.50,0.12
29.7660,0.07,0.13,-0.99,3.54,2.87,0.06
29.7880,0.07,0.12,-0.99,3.30,2.75,-0.37
29.8040,0.07,0.14,-0.99,3.54,2.87,0.37
29.8200,0.07,0.13,-0.99,3.72,2.38,0.92
29.8240,0.07,0.14,-0.99,3.91,2.38,0.61
29.8510,0.07,0.14,-0.99,3.66,2.32,0.67
29.8570,0.07,0.13,-0.99,3.66,2.44,0.18
29.8730,0.07,0.13,-0.99,3.85,2.32,0.12
29.8880,0.07,0.13,-0.99,3.54,2.81,0.06
29.9100,0.07,0.14,-0.99,3.91,2.26,1.04
29.9270,0.07,0.13,-0.99,3.78,2.01,1.53
29.9450,0.07,0.13,-0.99,4.21,2.01,1.53
29.9600,0.07,0.13,-0.99,3.78,2.62,1.53
29.9770,0.07,0.13,-0.99,3.72,2.44,1.16
29.9930,0.07,0.13,-0.99,3.78,2.20,1.10
30.0090,0.07,0.13,-0.99,3.60,2.50,1.34
30.0250,0.07,0.13,-0.99,3.54,2.69,1.34
30.0410,0.07,0.13,-0.99,3.36,2.14,1.22
30.0560,0.08,0.13,-0.99,3.54,2.32,1.46
30.0720,0.07,0.13,-0.99,3.60,2.62,1.16
30.0880,0.07,0.13,-0.99,3.30,2.62,0.98
30.0950,0.07,0.14,-0.99,3.48,2.26,0.85
30.1100,0.07,0.14,-0.99,3.42,2.38,1.71
30.1340,0.07,0.13,-0.99,3.78,2.44,1.95
30.1500,0.07,0.13,-0.99,3.60,2.56,1.59
30.1660,0.07,0.13,-0.99,3.48,2.44,1.28
30.1820,0.07,0.13,-0.99,3.66,2.62,1.28
30.1990,0.07,0.13,-0.99,3.48,2.44,1.34
30.2150,0.07,0.13,-0.99,3.72,2.38,1.46
30.2310,0.07,0.13,-0.99,3.48,2.08,1.46
30.2470,0.07,0.13,-0.99,3.42,2.56,1.46
30.2620,0.07,0.13,-0.99,3.48,2.38,1.59
30.2770,0.07,0.13,-0.99,3.36,2.50,1.46
30.2920,0.07,0.13,-0.99,3.23,3.11,1.59
30.3070,0.07,0.13,-0.99,3.17,2.38,1.77
30.3170,0.07,0.13,-0.99,3.60,2.32,1.71
30.3320,0.08,0.13,-0.99,3.23,2.20,1.59
30.3520,0.07,0.13,-0.99,3.48,2.14,1.71
30.3690,0.07,0.13,-0.99,3.60,2.50,1.71
30.3850,0.07,0.13,-0.99,3.36,2.87,1.40
30.4010,0.07,0.12,-0.99,3.54,2.81,0.49
30.4170,0.07,0.13,-0.99,3.30,2.62,-0.18
30.4330,0.07,0.14,-0.99,3.54,3.05,0.00
30.4490,0.07,0.13,-0.99,3.78,2.56,0.79
30.4650,0.07,0.14,-0.99,3.30,3.11,1.04
30.4700,0.07,0.14,-0.99,3.23,2.75,1.46
30.4860,0.07,0.13,-0.99,3.11,2.38,1.95
30.5110,0.07,0.13,-0.99,3.42,2.32,1.77
30.5110,0.07,0.13,-0.99,3.30,2.75,1.46
30.5400,0.07,0.09,-0.99,3.60,2.50,0.98
30.5560,0.07,0.13,-0.99,3.60,2.50,0.73
30.5710,0.07,0.14,-0.99,3.60,2.81,0.61
30.5870,0.07,0.14,-0.99,3.54,2.44,1.34
30.6030,0.07,0.13,-0.99,3.66,2.87,1.77
30.6190,0.07,0.13,-0.99,3.23,2.26,1.89
30.6340,0.07,0.13,-0.99,3.36,2.50,1.95
30.6450,0.07,0.13,-0.99,3.85,2.56,1.77
30.6610,0.07,0.13,-0.99,3.54,2.50,1.65
30.6800,0.07,0.13,-0.99,3.78,2.32,1.65
30.6850,0.07,0.13,-0.99,3.78,2.14,1.71
30.7060,0.07,0.13,-0.99,3.60,2.38,1.77
30.7170,0.07,0.13,-0.99,3.60,2.08,2.01
30.7410,0.07,0.13,-0.99,3.60,2.26,1.89
30.7420,0.07,0.13,-0.99,3.48,2.08,1.53
30.7730,0.07,0.13,-0.99,3.36,2.14,1.40
30.7890,0.07,0.13,-0.99,3.60,2.44,1.22
30.7910,0.07,0.13,-0.99,3.54,2.26,1.34
30.8080,0.07,0.13,-0.99,3.60,2.50,1.46
30.8250,0.07,0.13,-0.99,3.11,2.62,1.53
30.8400,0.07,0.13,-0.99,3.36,2.56,1.83
30.8610,0.07,0.13,-0.99,3.30,2.62,1.95
30.8780,0.07,0.13,-0.99,3.17,2.69,1.40
30.8940,0.07,0.13,-0.99,3.36,2.75,1.22
30.9130,0.07,0.13,-0.99,3.17,2.62,0.31
30.9280,0.07,0.13,-0.99,3.36,2.62,0.37
30.9440,0.07,0.14,-0.99,3.60,2.50,0.79
30.9600,0.07,0.14,-0.99,3.66,2.44,0.98
30.9760,0.07,0.13,-0.99,3.42,2.69,1.71
30.9810,0.07,0.13,-0.99,3.60,2.26,1.40
31.0050,0.07,0.13,-0.99,3.60,2.44,1.77
31.0140,0.07,0.13,-0.99,3.30,2.32,1.46
31.0300,0.07,0.13,-0.99,3.48,2.08,1.46
31.0460,0.07,0.13,-0.99,3.72,2.56,1.28
31.0660,0.07,0.12,-0.99,3.42,2.75,0.92
31.0820,0.08,0.13,-0.99,3.42,2.32,0.67
31.0980,0.07,0.13,-0.99,3.17,2.81,0.31
31.1120,0.07,0.13,-0.99,3.60,2.62,0.06
31.1280,0.07,0.13,-0.99,3.72,2.75,-0.06
31.1440,0.07,0.13,-0.99,3.36,2.93,0.06
31.1590,0.08,0.13,-0.99,3.48,2.87,0.98
31.1740,0.07,0.13,-0.99,3.23,2.87,1.40
31.1850,0.07,0.13,-0.99,3.05,2.69,1.22
31.2000,0.07,0.13,-0.99,3.42,2.56,1.22
31.2170,0.08,0.13,-0.99,3.54,2.69,0.98
31.2340,0.07,0.13,-0.99,3.54,2.38,0.55
31.2500,0.07,0.13,-0.99,3.48,2.69,0.61
31.2680,0.07,0.12,-0.99,3.42,2.87,0.67
31.2830,0.07,0.13,-0.99,3.17,2.69,-0.12
31.2990,0.07,0.13,-0.99,3.60,2.62,-0.12
31.3160,0.07,0.14,-0.99,3.36,2.44,0.24
31.3320,0.07,0.13,-0.99,3.48,2.62,0.85
31.3480,0.07,0.13,-0.99,3.60,2.32,0.92
31.3640,0.07,0.13,-0.99,3.54,2.87,1.22
31.3790,0.07,0.13,-0.99,3.36,2.20,1.40
31.3950,0.07,0.13,-0.99,3.17,2.62,1.83
31.4070,0.07,0.13,-0.99,3.60,2.14,1.83
31.4260,0.07,0.13,-0.99,3.66,2.44,1.89
31.4340,0.07,0.12,-0.99,3.91,2.08,1.71
31.4570,0.07,0.13,-0.99,3.48,2.08,1.46
31.4670,0.07,0.13,-0.99,3.36,2.26,1.53
31.4830,0.07,0.13,-0.99,3.66,2.08,0.92
31.5050,0.07,0.13,-0.99,3.42,2.50,0.79
31.5080,0.07,0.13,-0.99,3.66,2.38,1.10
31.5370,0.07,0.13,-0.99,3.36,2.62,1.10
31.5390,0.07,0.13,-0.99,3.60,2.62,0.92
31.5680,0.07,0.13,-0.99,3.23,2.69,0.85
31.5720,0.07,0.13,-0.99,3.30,2.38,0.85
31.5990,0.07,0.13,-0.99,3.48,2.44,1.22
31.6080,0.07,0.13,-0.99,3.42,3.05,1.16
31.6210,0.07,0.13,-0.99,3.48,2.62,0.98
31.6400,0.07,0.12,-0.99,3.54,2.81,0.31
31.6550,0.07,0.12,-0.99,3.91,2.69,-0.49
31.6770,0.07,0.12,-0.99,3.91,2.87,-1.53
31.6940,0.07,0.13,-0.99,3.30,2.81,-1.59
31.7090,0.08,0.14,-0.99,3.85,2.75,-0.06
31.7110,0.07,0.14,-0.99,3.91,2.26,0.55
31.7280,0.07,0.14,-0.99,3.48,2.50,1.89
31.7570,0.07,0.13,-0.99,3.48,2.20,1.71
31.7740,0.07,0.13,-0.99,3.30,2.14,1.59
31.7890,0.07,0.12,-0.99,3.72,2.26,1.22
31.8050,0.07,0.12,-0.99,3.36,2.44,0.92
31.8210,0.07,0.13,-0.99,3.60,2.75,0.73
31.8350,0.07,0.13,-0.99,3.48,2.32,0.37
31.8440,0.07,0.13,-0.99,3.60,2.38,0.61
31.8590,0.07,0.12,-0.99,3.42,2.26,0.67
31.8810,0.07,0.12,-0.99,3.42,2.75,0.37
31.8840,0.07,0.12,-0.99,3.54,2.44,-0.18
31.9080,0.07,0.13,-0.99,3.85,2.62,-0.67
31.9250,0.07,0.13,-0.99,3.85,2.56,-0.67
31.9400,0.07,0.13,-0.99,3.78,2.50,-0.55
31.9560,0.07,0.13,-0.99,3.85,3.05,0.24
31.9670,0.07,0.14,-0.99,3.72,2.87,0.49
31.9840,0.07,0.13,-0.99,3.60,2.87,0.73
32.0010,0.07,0.14,-0.99,3.72,2.56,0.85
32.0170,0.07,0.13,-0.99,4.03,2.32,0.85
32.0330,0.08,0.13,-0.99,3.85,2.75,0.43
32.0490,0.07,0.13,-0.99,3.66,2.93,-0.18
32.0650,0.07,0.12,-0.99,3.91,2.56,0.06
32.0800,0.07,0.13,-0.99,3.54,2.81,-0.18
32.0970,0.07,0.13,-0.99,3.66,2.62,0.31
32.1120,0.08,0.13,-0.99,3.66,2.62,0.55
32.1280,0.07,0.13,-0.99,3.60,2.32,0.73
32.1420,0.07,0.13,-0.99,3.54,2.87,0.43
32.1570,0.07,0.12,-0.99,3.11,2.75,0.37
32.1720,0.07,0.13,-0.99,3.23,2.81,0.18
32.1840,0.07,0.13,-0.99,3.36,2.50,-0.06
32.2020,0.07,0.13,-0.99,3.54,2.99,-0.61
32.2170,0.07,0.13,-0.99,3.66,2.99,-0.43
32.2350,0.07,0.13,-0.99,3.66,2.69,-0.73
32.2500,0.07,0.13,-0.99,3.30,2.69,-1.16
32.2670,0.07,0.13,-0.99,3.36,2.99,-0.73
32.2830,0.07,0.13,-0.99,3.48,3.17,-0.61
32.3000,0.07,0.13,-0.99,3.72,2.38,-0.73
32.3160,0.07,0.14,-0.99,3.97,2.26,-0.43
32.3320,0.07,0.14,-0.99,3.60,2.62,0.73
32.3470,0.07,0.13,-0.99,3.42,2.26,1.22
32.3630,0.07,0.13,-0.99,3.36,2.50,1.71
32.3770,0.07,0.13,-0.99,3.36,2.38,1.77
32.3940,0.07,0.13,-0.99,3.66,2.26,1.65
32.4080,0.07,0.13,-0.99,3.48,2.44,1.59
32.4230,0.07,0.13,-0.99,3.60,2.50,1.53
32.4340,0.07,0.13,-0.99,3.42,2.38,1.59
32.4570,0.07,0.13,-0.99,3.23,2.69,1.71
32.4670,0.07,0.13,-0.99,3.60,2.44,2.08
32.4840,0.07,0.13,-0.99,3.72,2.32,1.95
32.5000,0.07,0.13,-0.99,3.54,2.62,2.08
32.5180,0.07,0.13,-0.99,3.42,2.38,1.83
32.5330,0.07,0.13,-0.99,3.11,2.62,1.95
32.5490,0.07,0.13,-0.99,3.30,2.32,1.89
32.5660,0.07,0.13,-0.99,3.54,2.56,1.77
32.5820,0.07,0.12,-0.99,3.42,2.62,1.71
32.5960,0.07,0.13,-0.99,3.23,2.81,1.28
32.6110,0.07,0.13,-0.99,3.60,2.93,1.34
32.6170,0.07,0.13,-0.99,3.30,2.32,1.34
32.6430,0.07,0.13,-0.99,3.05,2.50,1.40
32.6510,0.07,0.13,-0.99,3.05,2.69,1.16
32.6660,0.07,0.12,-0.99,3.17,2.99,0.61
32.6890,0.07,0.13,-0.99,3.23,2.75,0.18
32.6910,0.07,0.13,-0.99,3.48,2.87,0.12
32.7200,0.07,0.13,-0.99,3.54,2.62,-0.79
32.7360,0.07,0.13,-0.99,3.05,2.81,-0.98
32.7410,0.07,0.14,-0.99,3.36,2.93,-0.49
32.7580,0.07,0.13,-0.99,3.60,2.99,0.43
32.7740,0.07,0.14,-0.99,3.91,2.38,0.79
32.7910,0.07,0.13,-0.99,3.42,2.62,1.46
32.8140,0.07,0.13,-0.99,3.30,2.32,1.53
32.8230,0.07,0.13,-0.99,3.36,2.62,1.71
32.8400,0.07,0.13,-0.99,3.66,2.56,1.65
32.8570,0.07,0.12,-0.99,3.60,2.38,1.34
32.8730,0.07,0.13,-0.99,3.48,2.75,0.61
32.8930,0.07,0.13,-0.99,3.54,2.62,0.67
32.9060,0.07,0.13,-0.99,3.42,2.50,0.92
32.9220,0.07,0.13,-0.99,2.99,2.26,1.04
32.9280,0.07,0.13,-0.99,3.17,2.32,1.16
32.9440,0.07,0.13,-0.99,3.11,2.69,0.73
32.9660,0.07,0.12,-0.99,3.48,2.50,0.18
32.9840,0.07,0.13,-0.99,3.60,2.56,-0.18
33.0010,0.07,0.13,-0.99,3.60,2.32,-0.18
33.0170,0.07,0.13,-0.99,3.78,2.69,0.24
33.0170,0.07,0.13,-0.99,3.23,2.75,0.00
33.0470,0.07,0.13,-0.99,3.36,2.81,0.49
33.0630,0.07,0.13,-0.99,3.36,2.75,0.61
33.0790,0.07,0.13,-0.99,3.54,2.56,0.61
33.0940,0.07,0.13,-0.99,3.36,2.75,0.43
33.1090,0.07,0.13,-0.99,3.42,2.62,0.18
33.1250,0.07,0.13,-0.99,3.60,2.93,-0.12
33.1340,0.07,0.13,-0.99,3.72,2.69,-0.37
33.1560,0.07,0.12,-0.99,3.66,2.93,-0.31
33.1670,0.07,0.12,-0.99,3.48,2.62,-0.55
33.1850,0.07,0.13,-0.99,3.60,2.81,-1.22
33.2010,0.07,0.13,-0.99,3.66,2.93,-1.16
33.2170,0.07,0.13,-0.99,3.60,3.23,-0.92
33.2340,0.07,0.13,-0.99,3.85,2.50,-0.73
33.2500,0.07,0.13,-0.99,4.03,2.56,-0.06
33.2660,0.07,0.13,-0.99,3.72,2.44,0.18
33.2820,0.07,0.13,-0.99,3.30,2.44,0.49
33.2960,0.07,0.13,-0.99,3.42,2.44,0.49
33.3110,0.07,0.13,-0.99,3.60,2.44,0.49
33.3280,0.07,0.13,-0.99,3.42,2.93,0.73
33.3430,0.07,0.13,-0.99,3.78,2.32,0.92
33.3500,0.07,0.13,-0.99,4.27,2.08,1.53
33.3660,0.07,0.13,-0.99,4.21,2.26,1.40
33.3880,0.07,0.13,-0.99,3.48,2.81,1.46
33.4050,0.07,0.13,-0.99,3.42,2.32,0.98
33.4210,0.07,0.13,-0.99,3.72,2.26,0.79
33.4370,0.07,0.13,-0.99,3.36,2.69,0.67
33.4380,0.07,0.13,-0.99,3.72,2.26,0.67
33.4700,0.07,0.13,-0.99,3.78,2.56,0.43
33.4840,0.07,0.13,-0.99,3.60,2.69,0.24
33.4880,0.07,0.13,-0.99,3.48,2.62,0.31
33.5150,0.07,0.13,-0.99,3.72,2.50,0.43
33.5220,0.07,0.13,-0.99,3.42,2.62,0.31
33.5460,0.07,0.13,-0.99,3.54,2.93,0.61
33.5550,0.07,0.13,-0.99,3.48,2.69,0.98
33.5710,0.07,0.13,-0.99,3.66,2.38,0.85
33.5940,0.07,0.13,-0.99,3.60,2.20,0.79
33.6100,0.07,0.13,-0.99,3.48,2.38,0.79
33.6260,0.07,0.13,-0.99,3.48,2.20,0.67
33.6420,0.07,0.13,-0.99,3.48,2.75,0.55
33.6580,0.07,0.13,-0.99,3.85,2.38,0.55
33.6600,0.07,0.12,-0.99,4.09,2.32,0.67
33.6760,0.07,0.13,-0.99,3.66,2.50,-0.24
33.6910,0.07,0.13,-0.99,3.78,2.44,-0.67
33.7150,0.07,0.13,-0.99,3.66,2.56,-0.67
33.7310,0.07,0.13,-0.99,3.60,2.56,-0.49
33.7480,0.07,0.13,-0.99,3.60,2.56,0.67
33.7650,0.07,0.13,-0.99,3.48,2.75,0.85
33.7800,0.07,0.13,-0.99,3.72,2.62,0.49
33.7980,0.07,0.13,-0.99,3.78,2.14,0.37
33.8140,0.07,0.13,-0.99,4.09,2.20,0.79
33.8290,0.07,0.13,-0.99,3.66,2.56,0.67
33.8450,0.07,0.13,-0.99,3.36,2.69,0.67
33.8600,0.07,0.13,-0.99,3.17,2.69,1.16
33.8750,0.07,0.13,-0.99,3.42,2.62,1.28
33.8900,0.07,0.13,-0.99,3.48,2.44,1.16
33.8980,0.07,0.13,-0.99,3.78,2.32,0.18
33.9150,0.07,0.13,-0.99,3.66,2.81,-0.06
33.9370,0.07,0.13,-0.99,3.66,2.62,0.31
33.9490,0.07,0.13,-0.99,3.54,2.81,0.85
33.9650,0.07,0.13,-0.99,3.48,2.62,1.22
33.9810,0.07,0.13,-0.99,3.42,2.56,1.04
33.9980,0.07,0.13,-0.99,3.78,2.20,1.16
34.0130,0.07,0.13,-0.99,3.85,2.26,1.04
34.0300,0.07,0.13,-0.99,3.30,2.20,1.28
34.0440,0.07,0.12,-0.99,3.48,2.62,1.34
34.0470,0.07,0.13,-0.99,2.99,2.69,1.22
34.0630,0.08,0.12,-0.99,3.48,2.62,1.16
34.0870,0.07,0.12,-0.99,3.66,2.81,0.55
34.1040,0.07,0.13,-0.99,3.91,2.44,0.37
34.1200,0.07,0.13,-0.99,3.72,2.44,0.31
34.1380,0.07,0.13,-0.99,3.36,2.69,0.12
34.1540,0.07,0.13,-0.99,3.42,2.56,0.00
34.1700,0.07,0.13,-0.99,3.54,2.56,0.24
34.1710,0.07,0.13,-0.99,3.60,2.26,0.18
34.2020,0.07,0.13,-0.99,3.78,2.87,0.00
34.2100,0.07,0.13,-0.99,3.85,3.17,0.00
34.2210,0.07,0.13,-0.99,3.60,2.56,0.00
34.2370,0.07,0.13,-0.99,3.48,3.17,0.06
34.2600,0.07,0.14,-0.99,3.36,3.11,0.18
34.2760,0.07,0.14,-0.99,3.36,2.62,0.55
34.2930,0.07,0.13,-0.99,3.23,2.93,0.85
34.3100,0.07,0.13,-0.99,3.60,2.75,1.59
34.3250,0.07,0.13,-0.99,3.48,2.56,1.59
34.3440,0.07,0.12,-0.99,3.54,2.56,1.16
34.3590,0.07,0.12,-0.99,3.66,2.56,0.31
34.3760,0.07,0.12,-0.99,3.72,2.69,-0.06
34.3920,0.07,0.13,-0.99,3.42,2.93,-0.37
34.4080,0.07,0.13,-0.99,3.91,2.50,-0.18
34.4100,0.07,0.13,-0.99,3.97,2.87,-0.31
34.4400,0.07,0.13,-0.99,3.72,2.69,-0.12
34.4550,0.07,0.13,-0.99,3.60,2.50,-0.12
34.4720,0.07,0.14,-0.99,3.60,2.75,0.92
34.4880,0.07,0.14,-0.99,3.42,2.26,0.92
34.5030,0.07,0.13,-0.99,3.66,2.62,1.34
34.5200,0.07,0.13,-0.99,3.17,2.26,1.28
34.5260,0.07,0.13,-0.99,3.30,2.26,1.28
34.5510,0.07,0.13,-0.99,3.78,2.20,1.28
34.5590,0.07,0.13,-0.99,3.54,2.26,1.40
34.5760,0.07,0.13,-0.99,3.66,2.26,1.40
34.5930,0.07,0.13,-0.99,3.54,2.38,1.28
34.6100,0.07,0.13,-0.99,3.48,2.26,1.16
34.6280,0.07,0.13,-0.99,3.23,2.08,1.28
34.6440,0.07,0.13,-0.99,3.17,2.14,1.34
34.6600,0.07,0.13,-0.99,3.60,2.20,1.28
34.6740,0.07,0.13,-0.99,3.42,2.08,0.98
34.6810,0.07,0.13,-0.99,3.36,2.56,0.98
34.6960,0.07,0.13,-0.99,3.17,2.08,1.16
34.7180,0.07,0.13,-0.99,3.42,1.83,0.73
34.7350,0.07,0.13,-0.99,3.78,2.20,0.37
34.7520,0.07,0.13,-0.99,4.09,2.32,0.31
34.7690,0.07,0.12,-0.99,4.09,2.14,0.06
34.7850,0.07,0.13,-0.99,3.97,2.50,0.43
34.8010,0.07,0.13,-0.99,3.54,2.32,0.92
34.8170,0.08,0.13,-0.99,2.87,2.56,0.92
34.8180,0.07,0.13,-0.99,3.60,2.56,1.16
34.8480,0.07,0.13,-0.99,3.48,2.26,0.85
34.8630,0.07,0.13,-0.99,3.60,2.32,0.79
34.8780,0.07,0.12,-0.99,3.72,2.32,0.37
34.8850,0.07,0.13,-0.99,3.60,2.81,-0.37
34.9090,0.07,0.13,-0.99,3.54,2.87,0.00
34.9180,0.07,0.13,-0.99,3.60,2.75,0.31
34.9350,0.07,0.13,-0.99,3.17,2.69,0.12
34.9510,0.07,0.13,-0.99,3.42,2.50,0.73
34.9680,0.07,0.13,-0.99,3.60,2.20,0.67
34.9850,0.07,0.13,-0.99,3.54,2.87,0.49
35.0030,0.07,0.13,-0.99,3.42,2.81,0.85
35.0180,0.07,0.13,-0.99,3.78,2.32,0.73
35.0330,0.07,0.13,-0.99,3.72,2.32,0.85
35.0500,0.07,0.12,-0.99,3.42,2.32,0.31
35.0660,0.07,0.12,-0.99,3.54,2.50,-0.31
35.0690,0.07,0.13,-0.99,3.78,2.50,-0.79
35.0960,0.07,0.13,-0.99,3.60,2.81,-0.49
35.1110,0.07,0.13,-0.99,3.66,3.17,-0.31
35.1180,0.07,0.13,-0.99,3.85,2.38,0.06
35.1410,0.07,0.13,-0.99,4.03,2.32,0.24
35.1510,0.07,0.13,-0.99,3.36,2.56,0.67
35.1670,0.07,0.13,-0.99,3.91,2.38,0.67
35.1850,0.08,0.13,-0.99,3.85,2.56,0.98
35.2010,0.07,0.13,-0.99,3.30,3.05,0.67
35.2160,0.07,0.13,-0.99,3.54,2.56,0.55
35.2310,0.07,0.13,-0.99,3.66,2.62,0.55
35.2450,0.07,0.13,-0.99,3.60,2.44,0.73
35.2600,0.07,0.13,-0.99,3.66,2.69,0.79
35.2760,0.07,0.13,-0.99,3.85,2.69,0.92
35.2850,0.07,0.13,-0.99,3.72,2.50,0.92
35.3020,0.07,0.13,-0.99,3.54,2.50,1.16
35.3180,0.07,0.13,-0.99,3.91,2.38,1.22
35.3350,0.07,0.13,-0.99,3.54,2.69,1.22
35.3510,0.07,0.13,-0.99,3.30,2.26,1.10
35.3680,0.07,0.13,-0.99,3.42,2.44,0.98
35.3840,0.07,0.13,-0.99,3.54,2.44,0.98
35.4000,0.07,0.13,-0.99,3.17,2.56,1.04
35.4140,0.07,0.13,-0.99,3.60,2.32,0.98
35.4290,0.07,0.13,-0.99,3.78,2.26,0.79
35.4450,0.07,0.13,-0.99,3.60,2.87,0.67
35.4510,0.07,0.13,-0.99,3.72,2.62,0.92
35.4680,0.07,0.13,-0.99,3.48,2.56,0.79
35.4840,0.07,0.13,-0.99,3.30,2.69,0.92
35.5050,0.07,0.13,-0.99,3.66,2.26,1.22
35.5220,0.07,0.13,-0.99,3.72,2.32,1.16
35.5390,0.07,0.13,-0.99,3.48,2.44,1.22
35.5550,0.07,0.13,-0.99,3.66,2.32,0.92
35.5710,0.07,0.13,-0.99,3.72,2.32,1.16
35.5720,0.07,0.13,-0.99,3.78,2.32,1.22
35.5900,0.07,0.13,-0.99,3.42,2.32,1.28
35.6120,0.07,0.13,-0.99,3.48,2.44,1.16
35.6280,0.07,0.13,-0.99,3.72,2.50,0.98
35.6440,0.07,0.13,-0.99,3.60,2.26,1.10
35.6620,0.07,0.13,-0.99,3.60,2.01,1.40
35.6780,0.07,0.13,-0.99,3.54,2.08,1.53
35.6940,0.07,0.13,-0.99,3.60,2.62,1.53
35.7100,0.07,0.13,-0.99,3.78,2.32,1.59
35.7120,0.07,0.13,-0.99,3.48,2.38,1.46
35.7420,0.07,0.13,-0.99,3.54,2.32,1.10
35.7580,0.07,0.13,-0.99,3.42,2.08,1.22
35.7620,0.07,0.13,-0.99,3.11,2.99,1.28
35.7900,0.07,0.13,-0.99,2.93,3.17,1.04
35.8050,0.07,0.13,-0.99,3.60,2.75,0.85
35.8200,0.07,0.14,-0.99,3.85,2.99,0.98
35.8360,0.07,0.13,-0.99,3.85,2.44,1.16
35.8450,0.07,0.13,-0.99,3.54,2.75,1.22
35.8620,0.07,0.13,-0.99,3.66,2.26,1.04
35.8780,0.07,0.13,-0.99,3.60,2.50,0.92
35.8950,0.07,0.13,-0.99,3.36,2.69,0.85
35.9100,0.07,0.13,-0.99,3.42,2.87,0.61
35.9260,0.07,0.13,-0.99,4.03,2.32,0.06
35.9410,0.07,0.13,-0.99,3.72,2.50,-0.31
35.9570,0.07,0.13,-0.99,3.97,2.44,-0.18
35.9780,0.08,0.14,-0.99,3.72,2.87,0.12
35.9940,0.08,0.14,-0.99,3.78,2.38,0.73
35.9960,0.07,0.13,-0.99,3.23,2.50,0.85
36.0120,0.07,0.13,-0.99,3.72,2.01,0.61
36.0430,0.07,0.13,-0.99,3.85,2.08,0.00
36.0600,0.07,0.13,-0.99,3.91,2.26,-0.12
36.0760,0.07,0.13,-0.99,4.27,2.08,-0.37
36.0920,0.08,0.13,-0.99,4.03,2.50,-0.31
36.0960,0.08,0.13,-0.99,3.48,2.62,-0.31
36.1230,0.07,0.13,-0.99,3.36,2.93,-0.55
36.1400,0.07,0.14,-0.99,3.23,2.75,-0.43
36.1550,0.07,0.13,-0.99,3.36,2.44,0.24
36.1720,0.07,0.13,-0.99,3.48,2.69,0.24
36.1860,0.07,0.13,-0.99,3.30,2.75,0.31
36.1950,0.07,0.13,-0.99,3.36,2.69,0.24
36.2130,0.07,0.13,-0.99,3.36,2.69,0.43
36.2320,0.07,0.13,-0.99,3.11,2.50,0.61
36.2490,0.07,0.13,-0.99,3.54,2.56,0.79
36.2640,0.07,0.13,-0.99,3.60,2.81,1.22
36.2800,0.07,0.13,-0.99,3.66,2.69,1.10
36.2830,0.07,0.13,-0.99,3.48,2.69,0.79
36.2990,0.07,0.13,-0.99,3.66,2.75,0.67
36.3150,0.07,0.13,-0.99,3.78,2.69,0.61
36.3390,0.07,0.12,-0.99,3.72,2.75,0.12
36.3570,0.07,0.13,-0.99,3.54,2.93,-0.37
36.3720,0.07,0.13,-0.99,3.78,2.69,-0.55
36.3870,0.07,0.13,-0.99,3.72,2.44,-0.55
36.3900,0.07,0.13,-0.99,3.85,2.44,-0.43
36.4130,0.07,0.14,-0.99,3.91,2.08,0.55
36.4300,0.07,0.14,-0.99,3.85,2.08,1.04
36.4480,0.08,0.13,-0.99,3.60,2.50,1.10
36.4630,0.07,0.12,-0.99,3.23,2.87,0.06
36.4800,0.07,0.13,-0.99,3.48,2.56,-0.49
36.4960,0.07,0.13,-0.99,3.78,2.32,-0.73
36.5120,0.07,0.13,-0.99,3.72,2.69,-0.43
36.5270,0.07,0.14,-0.99,3.78,2.50,0.67
36.5440,0.07,0.14,-0.99,3.36,2.14,1.46
36.5580,0.07,0.14,-0.99,3.72,2.62,1.40
36.5730,0.07,0.13,-0.99,3.36,2.69,1.28
36.5800,0.07,0.13,-0.99,3.05,2.62,0.55
36.5960,0.08,0.13,-0.99,3.05,2.69,-0.12
36.6200,0.08,0.13,-0.99,3.48,2.75,0.00
36.6360,0.07,0.13,-0.99,3.78,2.93,-0.12
36.6510,0.07,0.13,-0.99,3.60,2.69,-0.18
36.6680,0.07,0.13,-0.99,3.54,2.44,-0.37
36.6840,0.07,0.13,-0.99,3.91,2.26,-0.31
36.7000,0.07,0.13,-0.99,3.72,2.38,-0.61
36.7160,0.07,0.13,-0.99,3.78,2.81,-0.37
36.7310,0.07,0.13,-0.99,3.54,2.87,-0.31
36.7460,0.07,0.13,-0.99,3.23,2.81,-0.24
36.7530,0.08,0.13,-0.99,3.42,2.50,-0.18
36.7770,0.07,0.13,-0.99,3.72,2.62,-0.37
36.7860,0.07,0.13,-0.99,3.78,2.87,-0.61
36.8030,0.07,0.13,-0.99,3.97,2.56,-0.67
36.8200,0.07,0.13,-0.99,3.97,2.26,-0.67
36.8370,0.07,0.14,-0.99,3.78,2.87,-0.92
36.8530,0.07,0.13,-0.99,3.97,2.32,-0.67
36.8690,0.07,0.14,-0.99,4.39,2.56,0.06
36.8860,0.07,0.14,-0.99,3.97,2.50,0.49
36.9000,0.07,0.13,-0.99,4.03,2.20,1.22
36.9150,0.07,0.13,-0.99,3.97,2.01,1.46
36.9310,0.08,0.13,-0.99,4.15,2.20,1.22
36.9470,0.08,0.13,-0.99,3.54,2.81,0.98
36.9630,0.07,0.13,-0.99,3.97,2.38,0.85
36.9780,0.07,0.14,-0.99,3.60,2.32,1.28
36.9860,0.07,0.13,-0.99,3.36,2.44,1.83
37.0030,0.07,0.13,-0.99,3.42,2.38,1.71
37.0200,0.08,0.13,-0.99,3.23,2.26,1.46
37.0360,0.08,0.13,-0.99,3.23,2.62,1.10
37.0530,0.08,0.13,-0.99,3.78,2.56,0.31
37.0690,0.07,0.13,-0.99,3.72,2.56,0.00
37.0850,0.07,0.13,-0.99,3.54,2.44,0.49
37.1020,0.07,0.14,-0.99,3.60,2.14,0.67
37.1160,0.07,0.13,-0.99,3.17,2.50,0.73
37.1310,0.08,0.13,-0.99,3.36,2.44,1.16
37.1360,0.08,0.13,-0.99,3.42,2.38,0.73
37.1520,0.07,0.13,-0.99,3.54,2.32,0.49
37.1730,0.07,0.13,-0.99,3.36,2.38,0.49
37.1910,0.07,0.13,-0.99,3.48,2.75,0.43
37.2070,0.07,0.12,-0.99,3.78,2.01,0.37
37.2230,0.07,0.12,-0.99,3.85,2.50,-0.06
37.2410,0.08,0.12,-0.99,3.91,2.69,-0.61
37.2570,0.08,0.13,-0.99,3.48,2.32,-0.79
37.2720,0.08,0.13,-0.99,3.66,2.93,-0.98
37.2880,0.08,0.14,-0.99,3.60,2.87,-0.67
37.2900,0.07,0.14,-0.99,3.54,3.11,-0.55
37.3200,0.07,0.13,-0.99,3.72,3.05,0.18
37.3350,0.07,0.13,-0.99,3.85,2.75,0.67
37.3410,0.08,0.13,-0.99,3.78,2.26,0.24
37.3560,0.08,0.13,-0.99,3.42,2.56,-0.85
37.3780,0.07,0.13,-0.99,3.48,2.87,-1.28
37.3950,0.07,0.13,-0.99,3.97,2.62,-1.16
37.4110,0.07,0.12,-0.99,3.97,2.62,-1.34
37.4130,0.07,0.13,-0.99,3.23,3.05,-1.77
37.4420,0.07,0.13,-0.99,3.78,3.11,-1.65
37.4580,0.08,0.14,-0.99,4.03,2.75,-1.34
37.4740,0.08,0.14,-0.99,3.85,2.75,-0.67
37.4890,0.07,0.14,-0.99,3.54,2.69,0.24
37.5050,0.07,0.14,-0.99,3.54,2.50,0.67
37.5220,0.08,0.13,-0.99,3.42,1.95,0.73
37.5370,0.07,0.13,-0.99,3.48,2.44,0.73
37.5520,0.08,0.13,-0.99,3.30,2.26,0.24
37.5610,0.08,0.12,-0.99,3.42,2.56,-0.31
37.5770,0.08,0.13,-0.99,3.36,2.62,-0.85
37.5990,0.07,0.13,-0.99,3.54,2.75,-1.04
37.6160,0.07,0.13,-0.99,3.97,3.05,-1.46
37.6320,0.07,0.14,-0.99,3.66,2.62,-1.46
37.6480,0.08,0.13,-0.99,3.72,2.87,-1.53
37.6640,0.07,0.14,-0.99,3.60,2.69,-1.16
37.6800,0.08,0.14,-0.99,3.91,2.56,-0.49
37.6820,0.08,0.14,-0.99,3.85,2.38,0.24
37.6980,0.08,0.14,-0.99,3.54,2.56,0.67
37.7230,0.08,0.13,-0.99,3.60,2.56,0.85
37.7390,0.07,0.13,-0.99,3.72,2.38,0.79
37.7550,0.08,0.13,-0.99,3.36,2.56,0.43
37.7730,0.07,0.13,-0.99,3.30,2.44,0.37
37.7890,0.08,0.13,-0.99,3.85,2.01,0.37
37.8050,0.08,0.13,-0.99,3.66,2.62,-0.18
37.8130,0.07,0.13,-0.99,3.66,2.44,-0.31
37.8360,0.07,0.13,-0.99,4.09,2.69,-0.06
37.8520,0.07,0.13,-0.99,3.48,2.56,0.06
37.8670,0.08,0.14,-0.99,3.60,2.38,0.67
37.8730,0.07,0.13,-0.99,3.66,2.44,0.73
37.9000,0.07,0.13,-0.99,3.66,2.38,0.79
37.9130,0.07,0.13,-0.99,3.42,2.62,0.43
37.9230,0.07,0.13,-0.99,3.05,2.93,0.00
37.9400,0.08,0.13,-0.99,3.97,2.38,-0.12
37.9560,0.08,0.13,-0.99,3.85,2.50,-0.43
37.9730,0.08,0.14,-0.99,3.78,2.44,-0.43
37.9890,0.08,0.13,-0.99,3.91,2.56,-0.18
38.0060,0.07,0.13,-0.99,3.72,2.75,-0.12
38.0240,0.08,0.13,-0.99,3.48,2.32,-0.06
38.0390,0.07,0.13,-0.99,3.42,2.56,-0.12
38.0550,0.07,0.13,-0.98,3.48,2.75,-0.43
38.0560,0.07,0.13,-0.99,3.48,2.56,-0.18
38.0860,0.07,0.12,-0.99,3.91,2.50,-0.24
38.0890,0.07,0.14,-0.99,4.03,2.75,-0.18
38.1140,0.07,0.13,-0.99,3.42,2.81,-0.31
38.1340,0.08,0.14,-0.99,3.54,2.56,-0.43
38.1500,0.08,0.14,-0.99,3.66,2.32,0.06
38.1560,0.08,0.14,-1.01,3.78,2.56,0.85
38.1720,0.07,0.13,-0.99,3.48,2.44,1.04
38.1900,0.07,0.14,-1.00,3.36,2.38,1.16
38.2060,0.08,0.13,-0.98,3.36,2.38,0.98
38.2280,0.08,0.12,-0.99,3.54,2.38,0.61
38.2440,0.08,0.12,-0.99,3.66,2.50,-0.98
38.2600,0.07,0.13,-0.99,3.66,3.11,-1.83
38.2760,0.07,0.14,-0.99,3.72,2.81,-1.59
38.2920,0.07,0.13,-0.99,3.85,2.56,-0.37
38.3080,0.07,0.14,-0.99,3.66,2.87,0.00
38.3230,0.08,0.14,-0.99,3.42,2.56,0.61
38.3400,0.08,0.13,-0.99,3.78,2.32,0.55
38.3560,0.07,0.13,-0.99,3.36,2.26,0.24
38.3610,0.07,0.12,-0.99,3.17,2.50,0.06
38.3770,0.07,0.12,-0.99,3.30,2.62,-0.98
38.3990,0.07,0.13,-0.99,3.17,2.81,-1.28
38.4170,0.08,0.13,-0.99,3.72,2.50,-0.98
38.4330,0.07,0.14,-0.99,3.72,2.81,-0.92
38.4490,0.07,0.14,-0.99,3.60,2.62,0.00
38.4650,0.07,0.14,-0.99,3.66,2.62,0.37
38.4820,0.07,0.13,-0.99,3.30,2.50,0.92
38.4980,0.08,0.13,-0.99,3.36,2.26,1.22
38.5140,0.08,0.13,-0.99,3.60,2.38,1.53
38.5290,0.07,0.13,-0.99,3.42,2.50,1.59
38.5440,0.07,0.13,-0.99,3.60,2.08,1.40
38.5500,0.07,0.13,-0.99,3.48,2.20,1.53
38.5650,0.07,0.13,-0.99,3.42,1.95,1.28
38.5890,0.07,0.13,-0.99,3.17,2.62,0.73
38.6050,0.07,0.12,-0.99,3.23,2.56,0.43
38.6210,0.07,0.12,-1.00,3.60,2.62,-0.67
38.6230,0.07,0.13,-0.99,3.30,2.87,-1.59
38.6530,0.07,0.13,-0.99,3.91,3.23,-1.10
38.6560,0.07,0.13,-0.99,3.54,3.23,-1.40
38.6850,0.07,0.14,-0.99,3.48,2.99,-1.34
38.6920,0.07,0.14,-0.99,3.66,2.56,-0.31
38.7150,0.08,0.14,-0.99,4.09,2.50,0.24
38.7250,0.07,0.13,-0.99,3.78,2.69,0.49
38.7430,0.07,0.13,-0.99,3.60,2.62,0.73
38.7590,0.07,0.13,-0.99,3.48,2.38,0.92
38.7750,0.07,0.13,-0.99,3.36,2.01,0.79
38.7930,0.07,0.13,-0.99,3.30,2.32,0.79
38.8090,0.07,0.13,-0.99,3.54,2.38,0.79
38.8240,0.07,0.13,-0.99,3.66,2.69,0.73
38.8390,0.07,0.12,-0.99,3.42,2.87,-0.18
38.8490,0.07,0.13,-0.99,3.36,2.69,-1.83
38.8660,0.07,0.13,-0.99,3.72,2.99,-1.59
38.8820,0.07,0.13,-0.99,3.78,2.56,-1.59
38.8990,0.08,0.13,-0.99,3.66,2.81,-1.77
38.9160,0.07,0.14,-0.99,3.54,3.11,-2.08
38.9330,0.07,0.14,-0.99,4.33,2.62,-0.79
38.9480,0.07,0.14,-0.99,4.03,2.38,0.06
38.9650,0.08,0.13,-0.99,3.66,2.62,0.18
38.9670,0.07,0.13,-0.99,3.48,2.87,0.67
38.9970,0.08,0.13,-0.99,3.54,2.62,0.79
39.0120,0.07,0.13,-0.99,3.78,2.99,0.49
39.0160,0.07,0.13,-0.99,3.97,2.69,0.67
39.0430,0.07,0.13,-0.99,3.54,2.75,0.61
39.0590,0.07,0.13,-0.99,3.66,2.44,-0.06
39.0740,0.07,0.13,-0.99,3.54,2.38,-0.37
39.0890,0.07,0.13,-0.99,3.60,2.93,-0.43
39.0990,0.07,0.13,-0.99,3.66,2.44,0.12
39.1160,0.07,0.14,-0.99,3.54,2.26,0.49
39.1320,0.08,0.14,-0.99,3.60,2.38,1.04
39.1500,0.07,0.14,-0.99,3.36,2.32,1.04
39.1650,0.08,0.13,-0.99,3.66,2.62,1.10
39.1810,0.07,0.13,-0.99,3.72,2.38,0.73
39.1980,0.07,0.13,-0.99,3.78,2.50,0.98
39.2130,0.07,0.13,-0.99,3.78,2.50,1.10
39.2280,0.07,0.13,-0.99,3.48,2.81,0.92
39.2440,0.08,0.13,-0.99,3.36,2.56,0.49
39.2600,0.08,0.12,-0.99,2.93,2.38,-0.31
39.2760,0.07,0.12,-0.99,3.91,2.56,-1.10
39.2830,0.07,0.13,-0.99,3.97,2.99,-1.40
39.2990,0.07,0.13,-0.99,3.91,2.56,-0.85
39.3160,0.07,0.13,-0.99,3.97,2.69,-0.98
39.3320,0.07,0.14,-0.99,3.54,2.44,-1.34
39.3490,0.08,0.14,-0.99,3.78,2.38,-0.61
39.3650,0.07,0.13,-0.99,3.42,2.75,-0.43
39.3820,0.07,0.13,-0.99,3.17,2.38,-0.24
39.3870,0.07,0.13,-0.99,3.42,2.50,0.12
39.4110,0.08,0.13,-0.99,3.66,2.44,0.43
39.4210,0.07,0.13,-0.99,3.48,2.75,-0.06
39.4370,0.07,0.13,-0.99,3.48,2.62,-0.18
39.4530,0.08,0.13,-0.99,3.72,2.38,-0.31
39.4710,0.07,0.14,-0.99,3.54,2.44,-0.31
39.4870,0.07,0.14,-0.99,3.78,2.56,0.37
39.5020,0.07,0.13,-0.99,3.54,2.26,0.85
39.5160,0.07,0.13,-0.99,2.87,2.75,0.37
39.5320,0.07,0.13,-0.99,2.99,2.56,0.55
39.5380,0.07,0.13,-0.99,3.66,2.01,0.55
39.5630,0.07,0.13,-0.99,3.36,2.14,0.24
39.5780,0.07,0.14,-0.99,3.30,2.26,0.49
39.5940,0.07,0.13,-0.99,4.03,2.20,0.67
39.6040,0.07,0.13,-0.99,3.17,2.26,0.61
39.6210,0.07,0.14,-0.99,2.81,2.38,0.79
39.6380,0.07,0.13,-0.99,2.93,2.26,1.16
39.6540,0.07,0.13,-0.99,2.93,2.50,1.53
39.6710,0.07,0.13,-1.00,2.62,2.38,1.53
39.6870,0.07,0.13,-0.99,1.95,2.75,1.22
39.7030,0.07,0.13,-0.99,2.87,2.56,0.92
39.7170,0.07,0.13,-0.99,3.23,2.44,0.85
39.7360,0.08,0.13,-0.99,3.60,2.14,0.79
39.7520,0.08,0.13,-0.99,4.09,2.20,0.85
39.7540,0.08,0.14,-0.99,4.15,2.38,0.98
39.7700,0.07,0.13,-0.99,3.48,2.26,1.46
39.7860,0.07,0.13,-0.99,3.48,2.01,1.83
39.8150,0.07,0.13,-0.99,4.03,1.77,1.83
39.8250,0.08,0.13,-0.99,4.52,1.95,1.95
39.8430,0.08,0.13,-0.99,4.46,1.77,1.89
39.8580,0.07,0.13,-0.99,4.21,1.77,1.89
39.8760,0.07,0.13,-0.99,3.54,2.32,1.89
39.8920,0.07,0.13,-0.99,3.54,2.14,2.08
39.9090,0.07,0.13,-0.99,3.85,2.01,1.83
39.9250,0.07,0.13,-0.99,3.54,1.83,1.77
39.9410,0.08,0.13,-0.99,3.60,2.38,1.16
39.9430,0.08,0.13,-0.99,3.97,2.38,1.16
39.9740,0.07,0.13,-0.99,3.97,2.20,1.16
39.9890,0.07,0.13,-0.99,3.60,2.32,1.28
40.0060,0.07,0.13,-0.99,3.36,2.38,1.34
40.0220,0.07,0.13,-0.99,3.23,2.44,1.16
40.0380,0.07,0.13,-0.99,3.11,2.38,1.04
40.0540,0.07,0.12,-0.99,3.48,2.56,0.37
40.0690,0.08,0.13,-0.99,4.15,2.87,-0.67
40.0840,0.08,0.13,-0.99,4.03,2.56,-0.06
40.0920,0.08,0.13,-0.99,4.15,2.81,-0.24
40.1100,0.08,0.14,-0.99,3.78,2.99,0.06
40.1250,0.08,0.15,-0.99,4.03,2.87,0.31
40.1430,0.07,0.13,-0.99,3.60,2.26,1.10
40.1590,0.06,0.13,-1.00,2.62,2.81,1.53
40.1760,0.07,0.13,-0.99,3.05,2.56,0.55
40.1920,0.08,0.12,-0.99,3.97,2.32,0.49
40.2090,0.07,0.13,-0.99,3.60,2.32,-0.55
40.2180,0.07,0.14,-0.99,4.21,2.44,-0.24
40.2400,0.08,0.13,-0.99,4.03,2.26,0.55
40.2420,0.08,0.13,-0.99,3.60,2.26,0.49
40.2590,0.08,0.13,-0.99,3.54,2.69,0.49
40.2890,0.08,0.13,-0.99,3.66,2.62,-0.43
40.2930,0.08,0.14,-0.98,3.30,2.93,-0.98
40.3220,0.07,0.14,-0.99,3.66,3.11,0.12
40.3380,0.07,0.13,-0.99,3.72,2.62,0.79
40.3420,0.08,0.13,-0.99,3.72,2.32,0.24
40.3600,0.07,0.13,-0.99,3.78,2.08,0.31
40.3750,0.07,0.13,-0.99,4.33,2.20,0.49
40.3910,0.08,0.14,-0.99,3.72,2.32,-0.18
40.4150,0.07,0.14,-0.99,3.48,1.95,0.55
40.4310,0.07,0.13,-0.99,3.85,2.01,1.22
40.4480,0.08,0.12,-0.99,3.66,2.20,0.73
40.4640,0.08,0.13,-0.99,4.09,2.56,0.00
40.4800,0.08,0.14,-0.99,3.97,2.56,0.00
40.4960,0.07,0.14,-0.99,3.97,2.87,0.43
40.5120,0.07,0.13,-0.99,3.48,2.69,1.04
40.5270,0.07,0.13,-0.99,3.66,2.44,1.28
40.5430,0.08,0.13,-0.99,3.78,2.26,1.34
40.5590,0.08,0.13,-0.99,4.21,2.26,1.16
40.5650,0.07,0.13,-0.99,4.09,2.01,1.53
40.5800,0.07,0.13,-0.99,4.09,2.26,1.59
40.6040,0.08,0.13,-0.99,3.42,2.75,0.92
40.6200,0.08,0.12,-0.99,3.05,2.44,0.06
40.6350,0.07,0.13,-0.99,3.05,2.56,0.12
40.6520,0.07,0.13,-0.99,3.97,2.69,0.24
40.6550,0.08,0.14,-0.99,3.72,2.62,0.55
40.6840,0.08,0.14,-0.99,3.30,2.56,0.55
40.6990,0.07,0.14,-0.99,3.54,2.87,0.67
40.7050,0.08,0.14,-0.99,3.54,2.44,1.22
40.7220,0.08,0.13,-0.99,3.30,1.89,1.40
40.7370,0.07,0.13,-0.99,3.66,2.14,1.53
40.7580,0.07,0.12,-0.99,3.60,2.44,0.92
40.7760,0.08,0.13,-0.99,4.03,2.62,0.37
40.7920,0.07,0.14,-0.99,3.54,2.62,0.37
40.8080,0.06,0.13,-0.99,3.42,2.38,0.49
40.8190,0.08,0.13,-0.99,3.66,2.81,0.31
40.8260,0.09,0.15,-0.99,3.72,2.32,0.18
40.8490,0.07,0.14,-0.99,4.03,2.01,1.34
40.8650,0.07,0.14,-0.99,4.21,2.26,1.77
40.8830,0.07,0.13,-0.99,3.54,2.62,1.22
40.8990,0.07,0.12,-0.99,2.32,2.50,1.71
40.9170,0.08,0.13,-0.99,3.17,2.44,1.46
40.9310,0.08,0.13,-0.99,4.76,2.14,0.24
40.9490,0.08,0.13,-0.99,4.52,2.08,-0.79
40.9490,0.07,0.14,-0.99,3.54,2.56,-0.85
40.9780,0.07,0.13,-0.99,3.54,2.62,-0.67
40.9930,0.08,0.12,-1.00,3.42,2.81,-0.73
40.9990,0.07,0.13,-0.99,2.44,3.11,-1.89
41.0260,0.08,0.14,-0.99,3.85,2.81,-1.46
41.0330,0.08,0.14,-0.99,4.15,2.38,-1.10
41.0570,0.07,0.14,-0.99,3.72,2.26,-1.22
41.0650,0.07,0.15,-0.99,3.60,2.69,-0.73
41.0820,0.07,0.14,-0.99,3.60,2.50,0.06
41.0980,0.07,0.14,-0.99,3.05,2.69,1.10
41.1140,0.08,0.14,-0.99,3.23,2.01,1.59
41.1330,0.08,0.13,-0.99,3.54,2.44,1.10
41.1350,0.08,0.13,-0.99,3.42,2.44,0.31
41.1520,0.07,0.13,-0.99,3.11,2.99,-0.61
41.1680,0.07,0.13,-0.99,3.42,2.75,-0.43
41.1880,0.07,0.13,-0.99,3.30,2.56,-0.73
41.2040,0.08,0.13,-0.99,3.48,2.50,-1.28
41.2200,0.08,0.14,-0.99,3.54,2.38,-1.34
41.2370,0.08,0.14,-0.99,3.97,2.50,-0.24
41.2550,0.08,0.14,-0.99,3.54,2.44,0.18
41.2710,0.07,0.13,-0.99,2.99,2.50,0.55
41.2870,0.07,0.13,-0.99,3.05,2.26,0.61
41.3030,0.08,0.12,-0.99,3.91,2.38,0.12
41.3190,0.07,0.12,-0.99,3.97,2.69,-1.40
41.3340,0.07,0.14,-0.99,4.09,2.87,-1.89
41.3380,0.07,0.14,-0.99,4.39,2.69,-1.59
41.3660,0.08,0.13,-0.99,3.54,2.44,-1.16
41.3710,0.08,0.14,-0.99,3.23,2.62,-0.79
41.3970,0.07,0.14,-0.99,3.42,2.20,0.12
41.4120,0.07,0.14,-0.99,3.48,2.32,0.98
41.4210,0.07,0.13,-0.99,3.66,2.26,1.65
41.4380,0.08,0.13,-0.99,3.36,2.38,1.95
41.4550,0.08,0.13,-0.99,3.48,2.32,2.08
41.4710,0.07,0.13,-0.99,3.30,2.38,2.01
41.4880,0.07,0.13,-0.99,3.72,1.95,1.83
41.5040,0.07,0.14,-0.99,3.42,2.26,1.77
41.5210,0.08,0.13,-0.99,3.05,2.32,1.95
41.5390,0.07,0.13,-0.99,3.23,2.01,1.89
41.5540,0.06,0.14,-0.99,3.48,2.08,1.89
41.5710,0.06,0.14,-0.98,2.99,2.20,1.77
41.5880,0.06,0.13,-0.99,3.05,2.14,1.95
41.6030,0.07,0.13,-1.00,2.93,2.38,1.89
41.6200,0.08,0.12,-1.01,2.75,2.08,1.65
41.6360,0.08,0.12,-1.01,2.75,2.44,1.22
41.6520,0.09,0.12,-1.00,3.11,1.83,1.16
41.6540,0.09,0.13,-1.00,3.23,2.32,1.71
41.6700,0.08,0.13,-0.99,3.30,2.20,1.83
41.6850,0.07,0.13,-0.99,2.75,2.38,2.01
41.7140,0.07,0.12,-0.98,3.36,2.26,1.83
41.7310,0.07,0.14,-0.99,4.33,2.32,1.95
41.7460,0.07,0.13,-0.98,3.17,2.44,1.77
41.7490,0.08,0.14,-0.99,3.78,2.01,1.83
41.7770,0.08,0.13,-0.99,3.17,2.32,1.83
41.7930,0.08,0.13,-0.99,3.60,2.08,1.89
41.8090,0.07,0.13,-0.99,3.36,2.14,2.14
41.8250,0.08,0.13,-0.99,3.36,1.95,2.14
41.8410,0.08,0.13,-0.99,3.97,1.83,1.95
41.8560,0.08,0.13,-0.98,4.27,1.89,1.89
41.8710,0.07,0.14,-0.99,4.21,2.08,1.89
41.8810,0.06,0.14,-0.98,3.54,2.38,1.89
41.8970,0.07,0.14,-0.97,2.99,2.26,1.89
41.9150,0.07,0.14,-0.99,2.99,2.26,1.83
41.9310,0.07,0.14,-0.99,3.36,2.20,2.08
41.9470,0.07,0.13,-0.99,3.97,1.89,2.14
41.9640,0.07,0.13,-0.99,3.85,1.83,1.95
41.9800,0.07,0.13,-0.99,3.54,2.26,1.95
41.9960,0.07,0.13,-0.99,3.11,1.89,2.01
42.0110,0.06,0.13,-0.99,3.23,1.95,1.83
42.0270,0.08,0.13,-0.99,3.42,2.50,2.38
42.0310,0.08,0.13,-0.99,3.48,1.83,1.95
42.0460,0.08,0.12,-0.99,3.54,1.95,1.83
42.0680,0.08,0.13,-0.99,4.03,2.01,1.83
42.0850,0.07,0.14,-0.99,4.21,1.95,1.77
42.1020,0.07,0.13,-0.99,3.60,2.14,1.89
42.1200,0.07,0.13,-0.99,3.11,1.89,1.77
42.1360,0.07,0.13,-0.98,3.60,1.89,1.65
42.1510,0.08,0.13,-0.99,4.46,2.01,1.83
42.1680,0.08,0.13,-0.99,5.00,1.16,1.71
42.1840,0.07,0.13,-0.99,5.37,0.98,1.71
42.2010,0.08,0.14,-0.99,5.62,1.34,1.71
42.2160,0.05,0.12,-0.97,4.46,1.77,1.71
42.2320,0.08,0.14,-1.00,4.46,1.77,1.71
42.2350,0.08,0.13,-1.00,3.72,2.69,1.89
42.2500,0.08,0.13,-0.99,3.05,3.05,2.01
42.2730,0.08,0.13,-0.99,3.11,2.50,1.77
42.2930,0.08,0.13,-0.99,3.66,2.69,2.01
42.3060,0.10,0.16,-1.01,4.15,2.26,2.14
42.3240,0.08,0.14,-1.00,2.56,2.93,1.95
42.3400,0.08,0.13,-0.99,1.53,3.85,2.08
42.3560,0.07,0.13,-0.99,1.71,3.05,1.95
42.3700,0.08,0.13,-0.99,1.89,2.75,1.77
42.3730,0.07,0.13,-0.99,3.05,2.01,1.71
42.3900,0.07,0.13,-0.99,3.78,2.32,1.83
42.4070,0.08,0.13,-0.99,4.27,2.14,1.95
42.4230,0.08,0.14,-1.00,4.27,1.77,1.89
42.4450,0.07,0.14,-0.99,3.42,2.56,1.53
42.4630,0.07,0.14,-0.99,2.81,2.44,1.53
42.4780,0.08,0.13,-0.99,2.81,2.62,1.59
42.4940,0.08,0.13,-0.99,3.05,2.62,1.65
42.4960,0.07,0.13,-0.99,3.66,2.50,1.65
42.5260,0.08,0.13,-0.99,4.09,2.50,1.65
42.5420,0.07,0.14,-0.99,3.85,2.38,1.65
42.5580,0.07,0.14,-0.99,3.30,2.38,1.89
42.5730,0.08,0.13,-0.99,3.17,2.32,2.08
42.5890,0.08,0.13,-0.99,2.93,2.62,2.44
42.5950,0.08,0.13,-0.99,3.42,2.38,2.50
42.6220,0.08,0.13,-0.99,3.48,2.14,2.38
42.6370,0.08,0.13,-0.99,3.72,1.65,2.20
42.6450,0.07,0.13,-0.99,3.54,2.14,2.14
42.6620,0.07,0.13,-0.99,3.42,2.14,2.44
42.6800,0.08,0.13,-0.99,3.36,2.08,2.32
42.6960,0.07,0.13,-0.99,3.30,2.38,2.26
42.7110,0.07,0.14,-0.99,3.30,2.38,2.38
42.7290,0.07,0.13,-0.99,2.99,2.32,2.44
42.7440,0.07,0.14,-1.00,4.15,1.77,2.69
42.7460,0.08,0.13,-0.99,2.93,2.44,2.62
42.7620,0.08,0.13,-0.99,3.05,2.69,2.26
42.7790,0.08,0.13,-0.99,3.85,1.71,1.77
42.7940,0.08,0.13,-0.99,3.85,1.95,1.71
42.8210,0.08,0.14,-0.99,3.91,2.08,1.46
42.8340,0.08,0.13,-0.99,3.23,2.20,1.59
42.8510,0.07,0.13,-0.99,3.23,2.38,1.83
42.8670,0.07,0.13,-0.99,3.42,2.38,1.77
42.8850,0.08,0.13,-0.99,4.09,2.50,1.71
42.9000,0.08,0.14,-0.99,4.46,1.89,1.34
42.9160,0.08,0.13,-0.99,3.91,2.20,1.04
42.9320,0.08,0.14,-0.99,3.72,2.44,0.98
42.9470,0.08,0.13,-0.99,2.87,2.62,1.04
42.9620,0.07,0.13,-0.99,3.17,2.50,1.16
42.9770,0.07,0.13,-0.99,3.42,2.38,0.98
42.9840,0.08,0.13,-0.99,3.78,2.56,0.79
43.0010,0.08,0.13,-0.99,3.85,2.38,1.10
43.0220,0.07,0.13,-0.99,3.66,2.44,1.22
43.0390,0.07,0.13,-0.99,3.66,2.08,0.98
43.0550,0.08,0.13,-0.99,3.72,1.95,0.18
43.0710,0.08,0.13,-0.99,3.72,2.26,-0.18
43.0870,0.08,0.14,-0.99,3.85,2.32,0.00
43.1030,0.07,0.13,-0.99,3.60,2.14,0.67
43.1190,0.07,0.13,-0.99,3.48,2.50,1.10
43.1260,0.07,0.13,-0.99,3.23,2.26,0.98
43.1410,0.07,0.13,-0.99,3.30,2.14,1.22
43.1630,0.07,0.13,-0.99,3.60,2.44,0.85
43.1790,0.08,0.14,-0.99,3.66,2.38,0.79
43.1960,0.07,0.14,-0.99,3.97,2.50,1.16
43.2140,0.07,0.13,-0.99,2.99,3.23,1.28
43.2300,0.08,0.13,-0.99,2.81,2.87,1.10
43.2460,0.07,0.13,-0.99,3.54,2.32,1.16
43.2470,0.07,0.13,-0.99,3.30,2.44,1.28
43.2760,0.08,0.13,-0.99,3.54,2.56,1.22
43.2800,0.08,0.14,-0.99,3.30,2.14,1.77
43.3090,0.07,0.13,-0.99,3.23,2.32,2.20
43.3260,0.07,0.13,-0.99,3.30,2.26,2.32
43.3420,0.07,0.13,-0.99,3.78,2.01,2.01
43.3570,0.07,0.13,-0.99,3.72,2.01,2.01
43.3730,0.08,0.13,-0.99,3.66,2.38,1.95
43.3890,0.08,0.13,-0.99,3.60,2.14,2.01
43.4050,0.07,0.13,-0.99,3.23,2.44,2.14
43.4130,0.07,0.13,-0.99,3.23,2.08,2.01
43.4300,0.08,0.13,-0.99,3.42,2.20,2.14
43.4470,0.07,0.13,-0.99,3.85,2.20,2.14
43.4630,0.08,0.14,-0.99,3.91,2.26,2.01
43.4800,0.07,0.14,-0.99,3.05,2.44,2.08
43.4960,0.07,0.13,-0.99,2.99,2.01,2.32
43.5120,0.07,0.13,-0.99,2.81,2.26,2.44
43.5270,0.07,0.13,-0.99,3.23,2.32,2.56
43.5420,0.07,0.14,-0.99,3.66,2.26,2.75
43.5590,0.08,0.14,-0.99,3.85,1.65,2.50
43.5760,0.07,0.13,-0.99,3.23,2.44,2.38
43.5930,0.08,0.13,-0.99,3.05,2.08,2.44
43.6090,0.08,0.13,-0.99,3.66,2.38,2.20
43.6260,0.07,0.13,-0.99,3.78,2.08,1.95
43.6420,0.07,0.13,-0.99,3.72,1.89,1.83
43.6580,0.07,0.14,-0.99,3.48,2.20,1.65
43.6640,0.08,0.14,-0.98,3.36,1.95,1.89
43.6800,0.08,0.14,-0.98,3.60,2.14,2.01
43.6950,0.08,0.13,-0.99,3.78,2.26,1.89
43.7170,0.07,0.13,-0.99,3.60,2.26,2.01
43.7340,0.07,0.13,-0.99,3.42,2.50,1.95
43.7510,0.08,0.13,-0.99,3.72,2.44,1.89
43.7660,0.08,0.14,-0.99,3.97,1.83,1.65
43.7830,0.08,0.14,-0.99,3.60,2.32,1.65
43.7990,0.08,0.14,-0.99,3.48,2.62,1.53
43.8140,0.08,0.13,-0.99,3.17,2.38,1.71
43.8310,0.07,0.13,-0.99,3.30,2.50,1.77
43.8460,0.07,0.13,-0.99,3.30,2.14,1.71
43.8620,0.07,0.13,-0.99,3.60,2.38,1.71
43.8780,0.08,0.13,-0.99,3.54,2.44,1.71
43.8840,0.08,0.13,-0.99,3.85,2.56,1.71
43.9000,0.08,0.13,-1.00,3.97,2.20,1.89
43.9240,0.08,0.13,-1.00,3.30,1.89,1.77
43.9420,0.08,0.13,-0.99,3.48,1.65,1.71
43.9570,0.08,0.13,-0.99,3.48,1.89,1.83
43.9740,0.08,0.14,-0.98,3.42,2.50,1.83
43.9900,0.07,0.14,-0.98,3.05,2.20,1.77
44.0060,0.07,0.14,-0.98,3.30,2.69,1.65
44.0230,0.08,0.13,-0.99,3.36,1.71,1.71
44.0250,0.08,0.13,-0.99,3.48,2.62,1.83
44.0400,0.08,0.14,-0.99,3.48,2.08,1.65
44.0710,0.07,0.14,-0.99,3.23,2.50,2.01
44.0880,0.07,0.14,-0.99,3.23,1.83,1.83
44.1040,0.07,0.14,-0.99,3.11,2.32,1.95
44.1190,0.08,0.13,-0.99,3.17,2.01,1.83
44.1250,0.07,0.13,-1.00,3.30,2.38,1.95
44.1400,0.07,0.13,-1.00,3.48,1.95,1.77
44.1610,0.08,0.12,-1.00,3.42,2.08,1.95
44.1780,0.08,0.13,-0.99,3.78,2.32,1.65
44.1960,0.08,0.13,-0.99,3.97,1.95,1.77
44.2110,0.07,0.14,-0.99,3.48,2.32,1.71
44.2270,0.08,0.14,-0.99,3.05,2.44,1.71
44.2430,0.07,0.13,-0.99,3.17,1.89,1.71
44.2590,0.07,0.13,-0.99,3.66,2.08,1.89
44.2740,0.07,0.13,-0.99,3.85,2.01,1.71
44.2890,0.08,0.13,-0.99,3.36,2.08,1.95
44.3050,0.08,0.13,-0.99,3.85,2.20,1.89
44.3190,0.08,0.13,-0.99,3.91,2.38,1.71
44.3350,0.07,0.14,-0.99,3.48,2.50,1.40
44.3450,0.08,0.14,-0.99,3.30,2.56,1.46
44.3600,0.08,0.13,-0.99,3.11,2.44,1.40
44.3810,0.07,0.13,-0.99,3.23,2.38,1.71
44.3980,0.08,0.13,-0.99,3.66,2.20,1.77
44.4140,0.08,0.13,-0.99,3.48,2.50,1.71
44.4310,0.07,0.14,-0.99,3.48,2.20,1.95
44.4470,0.07,0.13,-0.99,3.60,2.32,1.83
44.4630,0.08,0.14,-0.99,3.72,2.26,1.59
44.4650,0.08,0.13,-0.99,3.17,2.75,1.53
44.4960,0.07,0.13,-0.99,3.05,2.14,1.65
44.4980,0.07,0.13,-0.99,3.17,2.32,1.65
44.5230,0.07,0.13,-0.99,3.36,2.50,1.28
44.5310,0.08,0.13,-0.99,3.48,2.44,0.98
44.5570,0.08,0.13,-0.99,3.17,2.32,1.04
44.5720,0.08,0.13,-0.99,3.36,2.56,1.59
44.5810,0.08,0.13,-0.99,3.42,2.62,1.59
44.5960,0.08,0.13,-0.99,3.36,2.50,1.77
44.6170,0.08,0.14,-0.99,3.85,2.44,1.83
44.6340,0.08,0.13,-0.99,3.30,2.26,1.89
44.6510,0.08,0.13,-0.99,3.17,2.38,1.77
44.6670,0.07,0.13,-0.99,3.17,2.62,2.01
44.6830,0.08,0.13,-0.99,3.54,2.26,2.08
44.6990,0.08,0.13,-0.99,3.54,2.14,1.83
44.7150,0.07,0.13,-0.99,3.36,2.26,1.83
44.7230,0.08,0.13,-0.99,3.11,2.75,1.89
44.7470,0.07,0.13,-0.99,3.66,2.50,1.95
44.7510,0.07,0.13,-0.99,3.85,2.26,1.77
44.7670,0.07,0.13,-0.99,3.17,2.44,1.53
44.7870,0.08,0.13,-0.99,2.99,2.38,1.28
44.8030,0.08,0.13,-0.99,2.93,2.62,1.59
44.8230,0.08,0.13,-0.99,3.11,2.56,1.65
44.8370,0.07,0.13,-0.99,3.05,2.38,1.71
44.8540,0.07,0.13,-0.99,3.60,2.62,1.89
44.8690,0.08,0.13,-0.99,3.30,2.38,1.89
44.8860,0.08,0.13,-0.99,3.11,2.50,1.95
44.9030,0.08,0.13,-0.99,3.48,2.38,1.77
44.9200,0.08,0.13,-0.99,3.60,2.14,1.77
44.9360,0.08,0.14,-1.00,4.09,2.01,1.89
44.9520,0.07,0.13,-0.99,3.60,2.14,1.77
44.9690,0.07,0.13,-0.99,4.21,2.14,1.71
44.9710,0.07,0.13,-0.99,3.36,2.44,1.77
44.9990,0.07,0.14,-0.99,2.99,2.50,1.65
45.0030,0.08,0.13,-0.99,2.99,2.01,1.59
45.0230,0.08,0.13,-0.99,3.05,2.14,1.46
45.0410,0.07,0.13,-0.99,3.05,2.62,1.83
45.0600,0.07,0.13,-0.99,3.17,2.20,1.89
45.0740,0.07,0.13,-0.99,3.30,2.14,2.14
45.0910,0.08,0.13,-0.99,3.36,2.62,2.44
45.1090,0.08,0.13,-0.99,3.66,2.38,2.50
45.1250,0.07,0.13,-0.99,4.09,2.38,2.32
45.1410,0.07,0.14,-0.99,3.48,2.14,2.20
45.1420,0.07,0.13,-0.99,2.62,2.20,2.38
45.1700,0.08,0.13,-0.99,3.42,2.08,2.44
45.1740,0.08,0.13,-0.99,3.72,2.08,2.14
45.1910,0.07,0.14,-0.99,3.72,2.08,2.44
45.2080,0.08,0.13,-0.99,2.93,2.20,2.38
45.2270,0.08,0.13,-0.99,2.87,2.20,2.26
45.2420,0.08,0.13,-0.99,3.05,2.38,2.26
45.2580,0.07,0.13,-0.99,3.05,2.38,2.20
45.2740,0.08,0.13,-0.99,3.66,1.83,2.01
45.2910,0.08,0.13,-0.99,4.52,1.89,1.89
45.3090,0.08,0.13,-0.99,3.72,1.89,1.95
45.3250,0.08,0.13,-0.99,3.42,2.20,1.89
45.3410,0.08,0.13,-0.99,3.23,2.26,1.83
45.3570,0.07,0.13,-0.99,3.36,2.38,1.95
45.3590,0.07,0.13,-0.99,3.42,1.83,1.77
45.3890,0.07,0.13,-0.99,3.05,2.38,1.95
45.4050,0.07,0.13,-0.99,3.11,2.26,2.08
45.4090,0.07,0.13,-0.99,2.56,2.32,1.89
45.4370,0.07,0.13,-0.99,2.87,2.14,1.71
45.4420,0.08,0.13,-0.99,2.93,2.08,1.83
45.4690,0.08,0.13,-0.99,3.85,2.26,1.65
45.4860,0.08,0.14,-1.00,4.64,2.08,1.59
45.5020,0.08,0.13,-0.99,3.54,2.32,1.83
45.5170,0.08,0.13,-0.99,3.36,2.32,1.95
45.5320,0.08,0.13,-0.99,3.78,2.20,2.08
45.5410,0.08,0.13,-0.99,3.60,2.26,1.95
45.5580,0.08,0.13,-0.99,3.36,2.08,1.89
45.5750,0.08,0.13,-0.99,3.48,2.08,1.65
45.5910,0.08,0.13,-0.99,3.36,2.08,1.83
45.6090,0.07,0.13,-0.99,2.62,2.01,1.71
45.6250,0.08,0.13,-0.99,3.42,2.01,1.83
45.6420,0.08,0.13,-0.99,3.72,1.89,1.83
45.6570,0.08,0.13,-0.99,4.09,2.44,1.83
45.6590,0.08,0.14,-0.99,4.09,2.20,1.89
45.6890,0.07,0.13,-0.99,3.42,2.01,1.71
45.7050,0.08,0.13,-0.99,3.30,2.56,1.89
45.7090,0.07,0.13,-0.99,3.36,2.44,1.83
45.7370,0.08,0.14,-1.00,3.36,2.38,1.83
45.7530,0.06,0.14,-1.00,2.99,2.56,1.59
45.7690,0.08,0.13,-0.98,3.11,2.32,1.83
45.7850,0.08,0.13,-0.99,3.36,2.62,1.83
45.8010,0.08,0.12,-0.99,3.42,2.38,1.71
45.8170,0.08,0.13,-0.99,3.42,2.14,1.77
45.8260,0.07,0.13,-0.99,3.66,2.20,1.77
45.8410,0.07,0.13,-0.99,3.42,1.95,1.71
45.8590,0.08,0.14,-0.99,2.87,2.75,1.77
45.8750,0.08,0.13,-0.99,3.11,2.32,1.89
45.8900,0.07,0.13,-0.99,3.17,2.20,1.95
45.9110,0.07,0.13,-0.99,2.62,2.38,2.26
45.9270,0.08,0.13,-0.99,2.93,2.26,2.38
45.9420,0.07,0.13,-0.99,3.72,1.89,2.26
45.9470,0.08,0.13,-0.99,3.78,2.32,2.32
45.9740,0.08,0.14,-0.99,3.66,2.01,2.14
45.9890,0.08,0.13,-0.99,2.87,2.26,2.32
45.9980,0.08,0.13,-0.99,2.99,2.32,2.56
46.0140,0.08,0.13,-0.99,3.30,2.26,2.56
46.0310,0.08,0.13,-0.99,3.54,2.50,2.56
46.0480,0.08,0.13,-0.99,3.48,2.38,2.38
46.0640,0.07,0.13,-0.99,3.54,2.44,2.20
46.0810,0.07,0.13,-0.99,3.11,2.26,2.08
46.0970,0.07,0.13,-0.99,2.99,2.32,2.32
46.1130,0.08,0.13,-0.99,3.11,2.14,2.56
46.1310,0.08,0.13,-0.99,3.23,2.56,2.50
46.1460,0.08,0.13,-0.99,3.66,2.62,2.32
46.1620,0.08,0.13,-0.99,3.30,2.44,2.32
46.1770,0.08,0.13,-0.99,3.11,2.56,2.20
46.1940,0.07,0.13,-0.99,3.60,2.38,2.08
46.2090,0.08,0.13,-0.99,3.85,2.38,2.26
46.2260,0.07,0.13,-0.99,3.42,2.14,2.20
46.2410,0.08,0.13,-0.99,2.81,2.32,2.38
46.2480,0.08,0.12,-0.99,2.99,2.38,2.50
46.2640,0.08,0.13,-0.99,3.30,2.32,2.50
46.2870,0.08,0.13,-0.99,3.78,2.20,2.32
46.3030,0.08,0.13,-0.99,3.85,2.20,2.14
46.3170,0.07,0.13,-0.99,3.60,2.26,1.77
46.3330,0.08,0.13,-0.99,3.05,2.26,1.71
46.3380,0.08,0.13,-0.99,3.36,1.83,1.95
46.3630,0.07,0.13,-0.99,3.66,2.14,2.01
46.3700,0.07,0.13,-0.99,3.48,2.62,2.20
46.3890,0.07,0.13,-0.99,3.66,2.14,2.44
46.4030,0.07,0.13,-0.99,3.36,2.75,2.32
46.4220,0.08,0.13,-0.99,3.48,2.32,2.26
46.4380,0.07,0.13,-0.99,3.36,2.32,2.20
46.4540,0.07,0.13,-0.99,3.72,2.26,1.77
46.4700,0.08,0.13,-0.99,3.66,2.38,1.34
46.4870,0.08,0.13,-0.99,3.30,2.50,1.65
46.5030,0.08,0.13,-0.99,3.17,2.44,1.95
46.5040,0.07,0.13,-0.99,3.36,2.50,1.95
46.5340,0.08,0.13,-0.99,3.23,1.89,1.95
46.5370,0.08,0.13,-0.99,2.87,2.38,1.95
46.5550,0.08,0.13,-0.99,2.93,2.20,1.95
46.5720,0.08,0.13,-0.99,3.30,2.62,2.14
46.5880,0.08,0.13,-0.99,3.36,2.26,2.01
46.6100,0.07,0.13,-0.99,2.93,2.75,2.14
46.6270,0.08,0.13,-0.99,2.93,2.69,2.56
46.6430,0.08,0.13,-0.99,3.42,2.14,2.14
46.6600,0.07,0.13,-0.99,3.23,2.69,2.14
46.6750,0.07,0.13,-0.99,3.17,2.14,2.26
46.6780,0.07,0.13,-0.99,3.48,1.95,2.14
46.7080,0.08,0.13,-0.99,3.54,2.14,2.32
46.7240,0.07,0.13,-0.99,3.60,2.62,2.38
46.7400,0.08,0.13,-0.99,3.54,2.44,2.32
46.7570,0.08,0.13,-0.99,3.78,2.14,2.32
46.7600,0.08,0.13,-0.99,3.72,2.32,2.08
46.7760,0.07,0.13,-0.99,3.30,2.01,2.01
46.8010,0.08,0.13,-0.99,3.11,2.26,1.95
46.8160,0.08,0.13,-0.99,3.48,2.01,1.95
46.8320,0.08,0.13,-0.99,3.72,2.62,1.89
46.8480,0.07,0.13,-0.99,3.66,2.32,1.95
46.8650,0.08,0.13,-0.99,3.60,2.20,1.83
46.8820,0.07,0.13,-0.99,3.11,2.26,1.71
46.8970,0.08,0.13,-0.99,2.99,2.50,1.83
46.9120,0.08,0.13,-0.99,3.36,1.95,2.01
46.9270,0.07,0.13,-0.99,3.11,2.14,1.95
46.9440,0.07,0.13,-0.99,3.42,2.20,1.83
46.9520,0.07,0.13,-0.99,3.42,2.38,1.83
46.9690,0.08,0.13,-0.99,3.48,2.14,1.83
46.9840,0.07,0.13,-0.99,3.48,1.95,1.95
47.0020,0.08,0.13,-0.99,3.42,2.50,2.01
47.0180,0.07,0.13,-0.99,3.05,2.20,1.71
47.0350,0.07,0.13,-0.99,3.23,2.56,1.89
47.0510,0.08,0.13,-0.99,3.48,2.14,1.95
47.0670,0.08,0.13,-0.99,3.17,2.62,2.38
47.0820,0.07,0.13,-0.99,3.36,2.50,2.56
47.0960,0.08,0.13,-0.99,3.42,2.32,2.38
47.1120,0.07,0.13,-0.99,3.60,2.38,2.26
47.1280,0.07,0.13,-0.99,3.11,2.44,2.01
47.1430,0.07,0.13,-0.99,3.11,2.20,2.20
47.1510,0.07,0.13,-0.99,3.54,2.26,2.20
47.1680,0.07,0.13,-0.99,3.17,2.50,2.32
47.1840,0.08,0.13,-0.99,3.36,2.08,2.38
47.2010,0.08,0.13,-0.99,3.30,2.14,2.26
47.2180,0.08,0.13,-0.99,3.48,2.32,2.08
47.2340,0.07,0.13,-0.99,3.60,2.44,1.89
47.2510,0.08,0.13,-0.99,3.60,2.38,1.89
47.2670,0.08,0.13,-0.99,3.54,1.89,1.95
47.2680,0.07,0.13,-0.99,3.48,2.32,1.89
47.2970,0.07,0.13,-0.99,3.42,2.32,1.95
47.3120,0.07,0.13,-0.99,3.17,2.20,1.95
47.3270,0.08,0.13,-0.99,3.60,2.38,2.20
47.3340,0.07,0.13,-0.99,3.42,2.44,2.01
47.3550,0.08,0.13,-0.99,3.54,1.83,1.95
47.3720,0.08,0.13,-0.99,3.66,1.71,2.08
47.3880,0.08,0.13,-0.99,3.42,1.83,2.01
47.4050,0.08,0.13,-0.99,3.48,2.26,2.14
47.4220,0.07,0.13,-0.99,3.72,1.77,2.01
47.4390,0.08,0.13,-0.99,3.54,2.20,1.95
47.4550,0.07,0.13,-0.99,3.17,2.62,2.01
47.4700,0.08,0.13,-0.99,3.60,2.20,2.01
47.4730,0.07,0.13,-0.99,3.54,2.32,2.08
47.4890,0.07,0.13,-0.99,3.42,1.95,2.01
47.5080,0.08,0.13,-0.99,3.17,2.08,2.01
47.5260,0.08,0.13,-0.99,3.17,2.26,2.01
47.5440,0.08,0.13,-0.99,3.30,2.32,2.01
47.5610,0.08,0.13,-0.99,3.48,2.32,2.14
47.5780,0.07,0.13,-0.99,3.11,2.50,2.26
47.5790,0.08,0.13,-0.99,3.42,2.69,2.56
47.5950,0.08,0.13,-0.99,3.30,2.20,2.62
47.6240,0.08,0.13,-0.99,3.36,2.26,2.69
47.6410,0.08,0.13,-0.99,3.36,2.38,2.32
47.6570,0.08,0.13,-0.99,3.30,2.14,1.95
47.6730,0.07,0.13,-0.99,3.05,2.62,2.14
47.6880,0.07,0.13,-0.99,3.17,2.99,2.20
47.7050,0.07,0.13,-0.99,3.11,2.44,2.26
47.7110,0.08,0.13,-0.99,3.36,2.38,2.69
47.7370,0.08,0.13,-0.99,3.48,2.56,2.44
47.7530,0.07,0.13,-0.99,3.66,2.32,2.26
47.7610,0.07,0.13,-0.99,3.42,1.83,2.14
47.7760,0.07,0.13,-0.99,3.11,2.32,2.01
47.7980,0.07,0.13,-0.99,3.05,2.38,2.08
47.8130,0.07,0.13,-0.99,3.17,2.01,2.38
47.8280,0.07,0.13,-0.99,3.72,2.08,2.38
47.8430,0.08,0.13,-0.99,3.91,1.71,1.83
47.8510,0.08,0.13,-0.99,3.60,2.20,1.95
47.8670,0.08,0.13,-0.99,3.30,2.26,1.95
47.8840,0.07,0.13,-0.99,2.99,2.26,2.32
47.9000,0.07,0.13,-0.99,2.93,1.95,2.62
47.9200,0.07,0.13,-0.99,2.99,2.01,2.75
47.9270,0.07,0.13,-0.99,3.17,2.50,2.81
47.9380,0.07,0.13,-0.99,3.54,2.14,2.56
47.9670,0.07,0.13,-0.99,3.85,2.14,1.95
47.9710,0.07,0.13,-0.99,3.42,2.62,1.89
47.9880,0.08,0.13,-0.99,2.93,2.38,2.26
48.0150,0.08,0.13,-0.99,3.17,2.14,2.56
48.0270,0.08,0.13,-0.99,3.17,2.50,2.62
48.0390,0.07,0.13,-0.99,3.17,2.32,2.56
48.0550,0.09,0.13,-0.99,3.42,2.01,2.56
48.0720,0.08,0.13,-0.99,3.30,2.44,2.26
48.0890,0.08,0.13,-0.99,3.42,2.20,2.08
