Timestamp, AccX, AccY, AccZ, GyroX, GyroY, GyroZ
0.0110,0.09,0.12,-0.98,2.93,3.66,2.08
0.0250,0.09,0.12,-0.98,3.05,3.30,1.95
0.0400,0.08,0.12,-0.98,2.93,3.36,1.95
0.0560,0.09,0.12,-0.98,3.05,3.17,1.95
0.0670,0.09,0.12,-0.98,3.17,3.36,1.95
0.0830,0.09,0.12,-0.98,2.99,3.42,1.89
0.1000,0.09,0.12,-0.98,2.93,3.36,2.14
0.1150,0.08,0.12,-0.98,2.93,3.60,2.08
0.1300,0.09,0.12,-0.98,2.87,3.17,1.95
0.1460,0.09,0.12,-0.98,2.87,3.30,1.95
0.1600,0.09,0.12,-0.98,2.99,3.17,1.89
0.1750,0.09,0.12,-0.98,3.11,3.23,2.01
0.1900,0.09,0.12,-0.98,3.17,2.99,1.89
0.2050,0.09,0.12,-0.98,3.11,3.48,1.95
0.2160,0.09,0.12,-0.98,3.05,4.03,2.08
0.2330,0.09,0.12,-0.98,3.17,3.54,2.08
0.2500,0.09,0.12,-0.98,3.17,3.36,1.89
0.2650,0.08,0.12,-0.98,3.05,3.17,1.89
0.2810,0.09,0.12,-0.98,2.99,3.36,1.95
0.2950,0.08,0.12,-0.98,3.11,3.30,1.89
0.3110,0.09,0.12,-0.98,3.11,3.23,1.95
0.3260,0.09,0.12,-0.98,2.93,3.54,2.01
0.3420,0.09,0.12,-0.98,3.05,3.36,2.01
0.3580,0.09,0.12,-0.98,3.11,3.42,2.08
0.3720,0.09,0.12,-0.98,3.11,3.17,2.14
0.3830,0.09,0.12,-0.98,2.99,3.42,1.95
0.4000,0.08,0.12,-0.98,3.05,3.11,1.89
0.4160,0.09,0.12,-0.98,3.05,3.36,1.89
0.4330,0.09,0.12,-0.98,2.81,3.36,1.89
0.4500,0.09,0.12,-0.98,2.99,3.42,2.08
0.4660,0.09,0.12,-0.98,2.99,3.05,2.01
0.4820,0.09,0.12,-0.98,3.11,3.42,2.01
0.4970,0.09,0.12,-0.98,2.99,3.60,2.14
0.5120,0.09,0.12,-0.98,3.17,3.42,1.95
0.5270,0.09,0.12,-0.98,3.11,2.99,1.95
0.5420,0.09,0.12,-0.98,3.17,3.30,1.95
0.5570,0.09,0.12,-0.98,2.99,3.17,2.08
0.5720,0.09,0.12,-0.98,2.99,3.30,1.95
0.5840,0.09,0.12,-0.98,2.87,3.48,2.14
0.6000,0.09,0.12,-0.98,2.99,3.11,1.95
0.6170,0.09,0.12,-0.98,3.05,3.11,1.89
0.6340,0.09,0.12,-0.98,2.99,3.30,2.01
0.6500,0.09,0.12,-0.98,2.93,3.42,1.89
0.6660,0.09,0.12,-0.98,3.05,3.17,2.08
0.6820,0.09,0.12,-0.99,2.93,3.11,1.83
0.6990,0.09,0.12,-0.98,2.93,3.42,2.01
0.7140,0.08,0.12,-0.98,2.99,3.54,1.95
0.7290,0.09,0.12,-0.98,2.93,3.36,2.01
0.7420,0.09,0.12,-0.99,2.93,3.23,1.77
0.7580,0.08,0.12,-0.99,3.17,3.11,1.95
0.7740,0.08,0.12,-0.98,3.05,3.11,2.01
0.7880,0.09,0.12,-0.99,3.11,3.48,2.01
0.8000,0.08,0.12,-0.99,3.05,3.36,1.95
0.8160,0.08,0.12,-0.98,3.11,3.66,1.83
0.8330,0.09,0.12,-0.98,3.17,3.17,1.95
0.8500,0.09,0.12,-0.98,3.05,3.60,2.01
0.8660,0.08,0.12,-0.98,2.99,3.54,2.01
0.8820,0.08,0.12,-0.98,3.11,3.42,1.83
0.8980,0.09,0.12,-0.98,2.99,3.66,2.01
0.9130,0.08,0.12,-0.98,3.11,2.93,2.08
0.9290,0.09,0.12,-0.98,3.11,3.30,2.01
0.9440,0.09,0.12,-0.98,3.11,3.30,1.95
0.9490,0.09,0.12,-0.98,3.11,3.23,2.08
0.9750,0.09,0.12,-0.98,3.23,3.23,2.01
0.9860,0.08,0.12,-0.98,2.99,3.23,2.01
1.0020,0.09,0.12,-0.98,3.05,3.66,1.95
1.0190,0.09,0.12,-0.98,3.05,3.30,1.95
1.0360,0.09,0.13,-0.97,3.05,3.11,1.89
1.0520,0.08,0.12,-0.99,3.05,3.54,1.95
1.0690,0.09,0.12,-0.99,3.17,3.66,2.08
1.0850,0.09,0.12,-0.99,3.23,3.54,2.08
1.1000,0.08,0.12,-0.99,3.36,3.30,1.95
1.1160,0.09,0.12,-0.98,2.93,3.23,2.01
1.1320,0.09,0.12,-0.98,3.05,3.23,2.01
1.1440,0.09,0.12,-0.98,3.11,3.11,2.01
1.1620,0.08,0.12,-0.98,3.05,3.54,2.01
1.1780,0.09,0.12,-0.98,3.05,3.72,2.08
1.1870,0.09,0.12,-0.98,3.05,3.42,2.01
1.2020,0.08,0.12,-0.98,3.11,3.23,1.95
1.2240,0.09,0.12,-0.98,3.30,3.36,2.08
1.2400,0.09,0.12,-0.98,3.17,3.23,1.95
1.2570,0.09,0.12,-0.98,3.05,3.54,1.95
1.2720,0.08,0.12,-0.98,3.05,3.17,1.89
1.2870,0.08,0.12,-0.98,2.93,3.48,2.01
1.3020,0.09,0.12,-0.98,2.99,3.36,1.95
1.3190,0.08,0.12,-0.98,3.11,3.17,2.08
1.3350,0.09,0.12,-0.98,3.11,3.36,1.95
1.3510,0.09,0.12,-0.98,3.11,3.30,1.77
1.3580,0.09,0.12,-0.98,2.99,3.72,2.01
1.3740,0.08,0.12,-0.98,3.11,3.54,1.95
1.3970,0.09,0.12,-0.98,2.99,3.11,1.95
1.4110,0.09,0.12,-0.98,2.87,3.30,1.89
1.4280,0.09,0.12,-0.98,3.05,3.17,1.89
1.4450,0.09,0.12,-0.98,2.99,3.48,1.95
1.4610,0.09,0.12,-0.98,3.11,3.23,2.08
1.4770,0.08,0.12,-0.98,2.87,3.30,1.95
1.4800,0.09,0.12,-0.98,2.99,3.30,1.89
1.4960,0.09,0.12,-0.98,3.05,3.36,1.89
1.5230,0.09,0.12,-0.98,3.11,3.30,1.89
1.5350,0.09,0.12,-0.98,3.11,3.30,1.89
1.5510,0.09,0.12,-0.98,3.11,2.99,2.01
1.5670,0.08,0.12,-0.98,2.87,3.54,1.83
1.5840,0.08,0.12,-0.98,3.17,3.30,2.08
1.6000,0.09,0.12,-0.98,3.11,3.42,2.01
1.6170,0.08,0.12,-0.98,3.05,3.30,2.01
1.6330,0.09,0.12,-0.98,3.05,3.42,1.95
1.6500,0.08,0.12,-0.98,3.05,3.48,1.89
1.6660,0.08,0.12,-0.99,3.05,3.42,2.01
1.6820,0.08,0.12,-0.98,2.87,3.60,2.01
1.6970,0.09,0.12,-0.98,2.99,3.48,2.01
1.7130,0.09,0.12,-0.98,2.99,3.48,2.20
1.7280,0.09,0.12,-0.98,2.87,3.42,1.95
1.7340,0.09,0.12,-0.98,2.81,3.48,2.01
1.7490,0.08,0.12,-0.98,3.11,3.54,2.08
1.7730,0.09,0.12,-0.98,2.93,3.30,2.08
1.7900,0.08,0.12,-0.98,2.99,3.54,1.95
1.8050,0.08,0.12,-0.98,2.99,3.30,1.89
1.8200,0.09,0.12,-0.98,3.05,3.54,1.83
1.8370,0.09,0.12,-0.98,3.11,3.36,2.08
1.8530,0.09,0.12,-0.98,3.11,3.11,1.95
1.8690,0.09,0.12,-0.98,2.93,3.30,2.14
1.8840,0.08,0.12,-0.98,2.93,3.48,2.08
1.8990,0.09,0.11,-0.92,3.05,3.30,2.14
1.9150,0.09,0.12,-1.00,2.99,3.36,2.01
1.9230,0.08,0.12,-0.98,3.17,3.36,1.95
1.9390,0.09,0.12,-0.99,3.05,3.30,1.83
1.9600,0.09,0.12,-0.98,3.11,3.54,1.83
1.9750,0.08,0.12,-0.98,3.17,3.48,1.95
1.9910,0.08,0.12,-0.98,2.99,3.54,2.01
2.0060,0.09,0.12,-0.98,2.99,3.23,1.95
2.0220,0.09,0.12,-0.98,3.11,3.42,1.95
2.0380,0.08,0.12,-0.98,3.05,3.42,1.83
2.0530,0.09,0.12,-0.98,3.05,3.66,2.08
2.0680,0.09,0.12,-0.98,3.11,3.30,1.89
2.0790,0.08,0.12,-0.98,2.99,3.17,1.89
2.0960,0.09,0.12,-0.98,3.05,3.11,1.83
2.1120,0.09,0.12,-0.98,3.11,3.30,1.83
2.1280,0.08,0.12,-0.98,2.99,3.85,1.95
2.1440,0.09,0.12,-0.98,2.93,3.60,2.14
2.1610,0.09,0.12,-0.98,3.05,3.48,1.89
2.1630,0.09,0.12,-0.98,2.99,3.23,2.01
2.1780,0.09,0.12,-0.98,2.99,3.54,1.83
2.2080,0.09,0.12,-0.98,3.05,3.54,1.95
2.2230,0.09,0.12,-0.98,2.93,3.60,2.01
2.2340,0.09,0.12,-0.99,3.11,3.17,1.89
2.2500,0.08,0.12,-0.98,2.81,3.23,2.01
2.2660,0.09,0.12,-0.98,2.93,3.48,1.95
2.2840,0.09,0.12,-0.98,2.99,3.42,2.01
2.3010,0.08,0.12,-0.98,2.99,3.30,1.95
2.3020,0.09,0.12,-0.98,3.11,3.05,2.01
2.3320,0.08,0.12,-0.98,2.99,3.48,2.01
2.3460,0.08,0.12,-0.98,2.99,3.30,1.89
2.3620,0.09,0.12,-0.98,2.93,3.66,1.95
2.3760,0.09,0.12,-0.98,2.99,3.48,2.08
2.3870,0.08,0.12,-0.98,2.99,3.36,1.89
2.4040,0.09,0.12,-0.98,2.87,3.60,2.08
2.4210,0.08,0.12,-0.99,3.05,3.48,1.89
2.4380,0.09,0.12,-0.99,3.11,3.36,2.01
2.4540,0.09,0.12,-0.99,2.99,3.48,2.01
2.4700,0.08,0.12,-0.98,2.93,3.17,2.01
2.4860,0.09,0.12,-0.99,2.93,3.42,1.95
2.5030,0.09,0.12,-0.98,2.87,3.42,1.89
2.5170,0.09,0.12,-0.98,2.69,3.23,2.01
2.5320,0.09,0.12,-0.98,2.93,3.11,1.83
2.5480,0.09,0.12,-0.98,3.05,3.30,1.89
2.5540,0.09,0.12,-0.98,2.99,2.99,2.01
2.5700,0.09,0.12,-0.98,2.99,3.30,1.95
2.5880,0.09,0.12,-0.98,2.99,3.66,2.08
2.6050,0.09,0.12,-0.98,2.87,3.54,1.89
2.6210,0.09,0.12,-0.98,2.99,3.05,1.89
2.6390,0.09,0.12,-0.98,2.93,3.66,2.01
2.6540,0.09,0.12,-0.98,2.93,3.42,1.89
2.6710,0.09,0.12,-0.98,3.05,3.36,1.89
2.6870,0.09,0.12,-0.98,3.11,3.36,1.89
2.7030,0.09,0.12,-0.98,2.87,3.36,1.95
2.7180,0.09,0.12,-0.98,2.99,3.42,1.89
2.7340,0.09,0.12,-0.98,2.99,3.30,2.01
2.7460,0.09,0.12,-0.98,2.93,3.54,2.01
2.7550,0.09,0.12,-0.98,2.93,3.60,1.95
2.7710,0.08,0.12,-0.98,2.93,3.54,1.89
2.7940,0.09,0.12,-0.98,2.99,3.54,1.95
2.8110,0.09,0.12,-0.98,2.99,3.48,1.95
2.8280,0.08,0.12,-0.98,3.17,3.17,1.95
2.8450,0.09,0.12,-0.98,3.17,3.17,1.77
2.8600,0.08,0.12,-0.98,3.17,3.60,1.89
2.8750,0.09,0.12,-0.98,3.05,3.48,2.26
2.8780,0.09,0.12,-0.98,2.99,3.11,2.01
2.9070,0.09,0.12,-0.98,3.05,3.17,1.89
2.9230,0.09,0.12,-0.98,3.11,3.36,1.83
2.9390,0.09,0.12,-0.98,2.93,3.54,1.95
2.9540,0.09,0.12,-0.98,3.05,3.30,2.08
2.9700,0.09,0.12,-0.98,2.99,3.48,1.95
2.9860,0.09,0.12,-0.98,2.93,3.54,1.95
3.0010,0.09,0.12,-0.98,2.93,3.72,2.08
3.0160,0.09,0.12,-0.98,3.05,3.30,1.83
3.0270,0.08,0.12,-0.98,3.05,3.36,2.01
3.0440,0.09,0.12,-0.98,2.99,3.42,2.01
3.0600,0.09,0.12,-0.98,2.99,3.36,1.95
3.0770,0.09,0.12,-0.98,3.11,3.30,1.83
3.0930,0.09,0.12,-0.98,2.93,3.66,2.08
3.1080,0.09,0.12,-0.98,2.93,3.48,1.95
3.1240,0.08,0.12,-0.98,2.93,3.42,1.95
3.1400,0.09,0.12,-0.98,2.87,3.30,1.95
3.1570,0.09,0.12,-0.98,3.05,3.42,1.83
3.1740,0.09,0.12,-0.98,2.99,3.23,1.95
3.1890,0.09,0.12,-0.98,2.93,3.60,2.14
3.2050,0.09,0.12,-0.98,2.93,3.72,2.01
3.2210,0.09,0.12,-0.98,2.93,3.60,1.95
3.2260,0.09,0.12,-0.98,3.05,3.42,1.89
3.2470,0.09,0.12,-0.98,3.05,3.78,1.95
3.2660,0.08,0.12,-0.98,3.11,3.30,1.89
3.2820,0.08,0.12,-0.98,3.11,3.54,2.01
3.2980,0.09,0.12,-0.98,3.05,3.48,2.14
3.3140,0.09,0.12,-0.98,2.99,3.48,1.83
3.3300,0.09,0.12,-0.98,2.87,3.48,2.01
3.3450,0.09,0.12,-0.98,2.99,3.30,1.83
3.3480,0.09,0.12,-0.98,2.93,3.48,1.83
3.3640,0.09,0.12,-0.98,2.93,3.30,1.95
3.3870,0.09,0.12,-0.98,2.99,3.66,1.95
3.4040,0.09,0.12,-0.98,2.93,3.23,1.95
3.4210,0.09,0.12,-0.98,2.99,3.42,1.89
3.4370,0.09,0.12,-0.98,2.93,3.60,1.95
3.4530,0.09,0.12,-0.98,2.93,3.60,1.89
3.4710,0.09,0.12,-0.98,2.93,3.48,2.01
3.4860,0.09,0.12,-0.98,3.05,3.42,1.89
3.5020,0.08,0.12,-0.98,2.93,3.11,1.89
3.5190,0.09,0.12,-0.98,2.99,3.60,1.89
3.5350,0.09,0.12,-0.98,3.11,3.48,1.95
3.5510,0.09,0.12,-0.98,3.11,3.42,1.95
3.5660,0.09,0.12,-0.98,3.11,3.72,1.95
3.5810,0.09,0.12,-0.98,2.99,3.23,1.95
3.5960,0.09,0.12,-0.98,3.11,3.23,1.95
3.6040,0.09,0.12,-0.98,2.99,3.54,1.95
3.6200,0.09,0.12,-0.98,2.93,3.17,2.01
3.6410,0.09,0.12,-0.98,2.99,3.23,1.95
3.6570,0.08,0.12,-0.98,2.93,3.54,2.14
3.6730,0.09,0.12,-0.98,2.99,3.30,1.89
3.6890,0.08,0.12,-0.98,3.30,3.30,2.01
3.7050,0.09,0.12,-0.98,3.17,3.30,1.95
3.7090,0.08,0.12,-0.98,3.05,3.54,2.14
3.7240,0.09,0.12,-0.98,3.11,3.54,1.95
3.7490,0.09,0.12,-0.98,2.87,3.23,2.01
3.7650,0.08,0.12,-0.98,2.93,3.42,1.89
3.7820,0.09,0.12,-0.98,2.93,3.36,1.95
3.7970,0.09,0.12,-0.98,3.05,3.23,1.95
3.8130,0.08,0.12,-0.98,3.11,3.42,1.89
3.8280,0.09,0.12,-0.98,3.11,3.30,2.01
3.8310,0.09,0.12,-0.98,2.87,3.72,2.01
3.8480,0.09,0.12,-0.98,2.93,3.05,2.01
3.8700,0.09,0.12,-0.98,2.93,3.54,2.08
3.8870,0.09,0.12,-0.98,2.99,3.60,2.01
3.9030,0.08,0.12,-0.98,3.05,3.36,2.01
3.9200,0.09,0.12,-0.98,2.93,3.42,1.95
3.9350,0.08,0.12,-0.98,2.87,3.23,1.89
3.9530,0.09,0.12,-0.98,3.05,3.60,2.20
3.9680,0.09,0.12,-0.98,2.99,3.54,1.95
3.9850,0.09,0.12,-0.98,3.11,3.42,2.14
4.0010,0.08,0.12,-0.98,3.11,3.48,2.01
4.0160,0.08,0.12,-0.98,2.99,3.42,2.08
4.0300,0.08,0.12,-0.98,3.05,3.91,1.95
4.0370,0.09,0.12,-0.98,3.11,3.42,1.95
4.0520,0.09,0.12,-0.98,3.05,3.42,2.08
4.0730,0.08,0.12,-0.98,2.87,3.42,1.95
4.0900,0.09,0.12,-0.98,2.87,3.36,1.89
4.1070,0.09,0.12,-0.98,2.99,3.36,1.89
4.1230,0.09,0.12,-0.98,3.11,3.72,1.95
4.1390,0.09,0.12,-0.98,3.11,3.05,2.01
4.1550,0.08,0.12,-0.98,2.99,3.42,1.89
4.1710,0.09,0.12,-0.98,2.93,3.66,1.95
4.1870,0.09,0.12,-0.98,3.11,3.60,1.89
4.1900,0.09,0.12,-0.98,3.11,3.48,2.01
4.2050,0.09,0.12,-0.98,2.87,3.36,2.01
4.2280,0.08,0.12,-0.98,3.05,3.42,2.08
4.2450,0.09,0.12,-0.98,3.23,3.54,2.08
4.2610,0.09,0.12,-0.98,3.05,3.42,2.01
4.2770,0.09,0.12,-0.98,2.99,3.05,1.95
4.2930,0.08,0.12,-0.98,2.99,3.05,1.95
4.3100,0.08,0.12,-0.98,2.99,3.36,1.95
4.3260,0.09,0.12,-0.98,3.05,3.54,2.01
4.3410,0.09,0.12,-0.98,3.23,3.05,2.01
4.3560,0.09,0.12,-0.98,3.05,3.48,1.89
4.3710,0.09,0.12,-0.98,3.11,3.11,1.95
4.3870,0.09,0.12,-0.98,3.11,3.48,1.95
4.4030,0.09,0.12,-0.98,3.05,3.42,1.95
4.4180,0.09,0.12,-0.98,3.05,3.30,1.95
4.4330,0.09,0.12,-0.98,3.05,3.42,1.95
4.4480,0.09,0.12,-0.98,3.11,3.23,2.01
4.4610,0.09,0.12,-0.98,2.99,3.48,1.89
4.4760,0.09,0.12,-0.98,2.99,3.30,2.01
4.4960,0.09,0.12,-0.98,3.11,3.17,1.95
4.4990,0.09,0.12,-0.98,3.11,3.17,1.89
4.5150,0.09,0.12,-0.98,2.99,3.54,2.08
4.5340,0.09,0.12,-0.98,2.93,3.36,1.95
4.5510,0.08,0.12,-0.98,3.17,3.30,1.89
4.5670,0.09,0.12,-0.98,3.11,3.36,2.01
4.5870,0.09,0.12,-0.98,3.05,3.36,2.20
4.6020,0.09,0.12,-0.98,3.11,3.42,1.89
4.6180,0.09,0.12,-0.98,2.99,3.17,2.08
4.6350,0.09,0.12,-0.98,3.11,3.23,2.14
4.6490,0.09,0.12,-0.98,3.30,2.87,1.83
4.6530,0.09,0.12,-0.98,3.11,3.23,1.95
4.6680,0.09,0.12,-0.98,3.11,3.36,1.95
4.6900,0.09,0.12,-0.98,3.05,3.36,1.89
4.7070,0.09,0.12,-0.98,3.05,3.54,2.01
4.7230,0.08,0.12,-0.98,3.30,3.11,2.01
4.7450,0.09,0.12,-0.98,3.17,2.87,1.89
4.7600,0.08,0.12,-0.98,2.99,3.42,2.08
4.7750,0.09,0.12,-0.98,3.05,3.17,2.01
4.7900,0.08,0.12,-0.98,2.99,3.54,1.95
4.8050,0.08,0.12,-0.98,3.23,3.30,1.95
4.8200,0.09,0.12,-0.98,2.99,3.30,1.95
4.8360,0.09,0.12,-0.98,2.93,3.66,2.01
4.8500,0.09,0.12,-0.98,3.05,3.30,2.01
4.8620,0.08,0.12,-0.98,3.23,3.36,2.08
4.8780,0.09,0.12,-0.98,3.11,3.23,2.14
4.8960,0.09,0.12,-0.98,2.99,3.30,1.95
4.9000,0.09,0.12,-0.98,3.11,2.93,1.95
4.9270,0.08,0.12,-0.98,3.05,3.23,1.95
4.9420,0.09,0.12,-0.98,3.11,3.05,2.08
4.9570,0.09,0.12,-0.98,3.05,3.42,2.01
4.9720,0.09,0.12,-0.98,2.93,3.48,1.95
4.9840,0.09,0.12,-0.98,3.17,2.93,1.95
5.0000,0.09,0.12,-0.98,3.23,3.23,1.89
5.0190,0.09,0.12,-0.98,3.17,3.17,1.95
5.0340,0.09,0.12,-0.98,3.30,3.66,1.95
5.0480,0.09,0.12,-0.98,3.11,3.17,2.01
5.0640,0.09,0.12,-0.98,3.11,3.36,1.95
5.0800,0.09,0.12,-0.98,3.11,3.05,2.14
5.0890,0.09,0.12,-0.98,3.23,3.17,1.95
5.1050,0.08,0.12,-0.98,3.17,3.17,2.08
5.1250,0.09,0.12,-0.98,3.05,3.30,1.89
5.1260,0.08,0.12,-0.98,2.99,3.42,2.01
5.1560,0.09,0.12,-0.98,3.05,3.23,1.89
5.1700,0.09,0.12,-0.98,3.17,3.11,1.83
5.1870,0.09,0.12,-0.98,2.93,3.17,1.95
5.2030,0.09,0.12,-0.98,3.17,3.05,2.01
5.2100,0.09,0.12,-0.98,3.05,3.36,1.95
5.2260,0.09,0.12,-0.98,2.93,3.30,1.89
5.2500,0.09,0.12,-0.98,2.93,3.42,1.95
5.2610,0.08,0.12,-0.98,3.17,3.42,2.14
5.2770,0.09,0.12,-0.98,2.99,3.05,2.01
5.2920,0.09,0.12,-0.98,2.99,3.11,2.01
5.3130,0.09,0.12,-0.98,3.05,3.42,2.01
5.3280,0.09,0.12,-0.98,2.99,3.54,2.01
5.3430,0.09,0.12,-0.98,3.05,3.54,2.01
5.3580,0.09,0.12,-0.98,3.05,3.48,2.26
5.3720,0.09,0.12,-0.98,3.05,3.42,2.01
5.3880,0.09,0.12,-0.98,2.93,3.36,2.01
5.4030,0.09,0.12,-0.98,3.11,3.36,2.01
5.4150,0.09,0.12,-0.98,2.99,3.54,1.89
5.4310,0.09,0.12,-0.98,3.23,3.66,2.01
5.4480,0.08,0.12,-0.98,3.05,3.11,1.95
5.4630,0.09,0.12,-0.98,3.05,3.36,2.01
5.4780,0.09,0.12,-0.98,3.11,3.72,2.08
5.4940,0.09,0.12,-0.98,3.05,3.23,1.89
5.5090,0.09,0.12,-0.98,3.23,3.05,2.01
5.5250,0.09,0.12,-0.98,3.11,3.36,2.08
5.5410,0.09,0.12,-0.98,3.17,3.48,2.08
5.5570,0.09,0.12,-0.98,3.05,3.23,2.01
5.5730,0.09,0.12,-0.98,2.99,3.36,1.95
5.5890,0.09,0.12,-0.98,2.99,3.36,1.95
5.6040,0.09,0.12,-0.98,2.99,3.72,2.08
5.6130,0.09,0.12,-0.98,2.99,3.66,2.01
5.6290,0.09,0.12,-0.98,2.93,3.30,2.01
5.6490,0.09,0.12,-0.98,3.17,3.23,1.95
5.6650,0.09,0.12,-0.98,3.05,3.54,1.95
5.6810,0.08,0.12,-0.98,3.11,3.60,2.08
5.6970,0.08,0.12,-0.98,2.93,3.30,2.01
5.7110,0.09,0.12,-0.98,2.99,3.36,2.01
5.7270,0.09,0.12,-0.98,3.11,3.11,1.95
5.7430,0.09,0.12,-0.98,3.11,3.11,2.01
5.7580,0.09,0.12,-0.98,3.05,3.30,2.08
5.7740,0.09,0.12,-0.98,2.99,3.23,1.95
5.7840,0.09,0.12,-0.98,2.93,3.30,1.95
5.8000,0.09,0.12,-0.98,3.11,3.72,2.08
5.8210,0.09,0.12,-0.98,3.05,3.36,1.95
5.8370,0.09,0.12,-0.98,3.05,3.36,1.83
5.8530,0.08,0.12,-0.98,3.17,3.36,1.95
5.8690,0.09,0.12,-0.98,3.11,3.30,2.01
5.8850,0.09,0.12,-0.98,2.99,3.48,1.95
5.8890,0.09,0.12,-0.98,3.05,3.23,1.89
5.9040,0.09,0.12,-0.98,3.17,3.60,1.95
5.9290,0.09,0.12,-0.98,3.11,3.66,1.95
5.9460,0.09,0.12,-0.98,3.11,3.36,2.08
5.9610,0.09,0.12,-0.98,2.99,3.48,1.89
5.9770,0.08,0.12,-0.98,3.11,3.23,1.95
5.9790,0.09,0.12,-0.98,3.05,3.48,1.83
5.9950,0.08,0.12,-0.98,2.99,3.54,2.01
6.0250,0.08,0.12,-0.98,3.17,3.60,2.01
6.0330,0.09,0.12,-0.98,2.87,3.36,1.89
6.0500,0.09,0.12,-0.98,3.05,3.05,1.95
6.0720,0.09,0.12,-0.98,3.11,3.42,1.89
6.0880,0.09,0.12,-0.98,2.99,3.42,1.95
6.1040,0.09,0.12,-0.98,2.87,3.36,2.01
6.1200,0.09,0.12,-0.98,3.11,3.54,1.95
6.1220,0.08,0.12,-0.98,2.99,3.48,1.83
6.1500,0.09,0.12,-0.98,2.93,3.36,2.01
6.1560,0.08,0.12,-0.98,3.17,3.11,2.01
6.1720,0.08,0.12,-0.98,3.05,3.54,2.01
6.2000,0.09,0.12,-0.98,3.11,3.23,1.89
6.2150,0.09,0.12,-0.98,2.99,3.17,1.89
6.2270,0.09,0.12,-0.98,3.11,3.17,1.95
6.2440,0.09,0.12,-0.98,3.05,2.93,1.83
6.2600,0.09,0.12,-0.98,2.93,3.48,1.95
6.2770,0.09,0.12,-0.98,3.05,3.30,2.08
6.2920,0.08,0.12,-0.98,3.05,3.42,2.08
6.3090,0.08,0.12,-0.98,2.93,3.48,1.95
6.3240,0.09,0.12,-0.98,2.93,3.66,2.08
6.3410,0.09,0.12,-0.98,2.99,2.75,1.95
6.3570,0.09,0.12,-0.98,2.93,3.30,1.89
6.3720,0.08,0.12,-0.98,2.87,3.42,1.95
6.3780,0.09,0.12,-0.98,2.99,3.66,1.95
6.4030,0.09,0.12,-0.98,2.99,3.17,1.89
6.4100,0.08,0.12,-0.98,2.99,3.60,2.01
6.4250,0.08,0.12,-0.98,3.11,3.23,2.08
6.4490,0.08,0.12,-0.98,3.23,3.36,2.08
6.4640,0.09,0.12,-0.99,3.05,3.36,1.89
6.4800,0.08,0.12,-0.98,2.99,2.93,1.95
6.4960,0.08,0.12,-0.98,3.17,3.36,1.83
6.5110,0.08,0.12,-0.98,2.99,3.66,2.01
6.5270,0.09,0.12,-0.98,2.87,3.72,2.01
6.5430,0.09,0.12,-0.98,3.11,3.48,1.95
6.5580,0.08,0.12,-0.98,3.11,3.05,1.95
6.5740,0.09,0.12,-0.98,3.11,3.23,2.08
6.5810,0.09,0.12,-0.98,2.93,3.54,2.08
6.5970,0.08,0.12,-0.98,3.11,3.48,1.95
6.6190,0.08,0.12,-0.98,3.23,3.66,2.08
6.6350,0.09,0.12,-0.98,2.99,3.30,1.89
6.6510,0.09,0.12,-0.98,2.99,3.36,2.01
6.6670,0.09,0.12,-0.98,3.11,3.23,2.08
6.6830,0.09,0.12,-0.98,3.05,3.30,1.89
6.6990,0.09,0.12,-0.98,3.11,3.36,1.95
6.7150,0.09,0.12,-0.98,3.17,3.23,1.95
6.7200,0.09,0.12,-0.98,2.99,3.30,2.01
6.7350,0.08,0.12,-0.98,3.05,3.36,1.95
6.7580,0.09,0.12,-0.98,2.99,3.60,2.01
6.7750,0.09,0.12,-0.98,2.99,3.42,1.89
6.7920,0.09,0.12,-0.98,3.05,3.42,2.01
6.8080,0.09,0.12,-0.98,2.99,3.42,2.01
6.8250,0.08,0.12,-0.98,3.11,3.48,2.01
6.8400,0.09,0.12,-0.98,2.99,3.42,1.89
6.8570,0.09,0.12,-0.98,2.93,3.48,1.89
6.8730,0.08,0.12,-0.98,2.99,3.36,1.95
6.8900,0.09,0.12,-0.98,3.05,3.60,2.08
6.9050,0.09,0.12,-0.98,3.17,3.42,2.01
6.9210,0.09,0.12,-0.98,3.11,3.72,2.08
6.9370,0.09,0.12,-0.98,3.23,3.17,1.89
6.9530,0.09,0.12,-0.98,2.99,3.17,1.95
6.9690,0.09,0.12,-0.98,3.05,3.23,2.01
6.9850,0.08,0.12,-0.98,3.11,3.30,2.01
6.9930,0.09,0.12,-0.98,2.99,3.11,1.95
7.0090,0.09,0.12,-0.98,2.93,3.30,1.89
7.0320,0.08,0.12,-0.98,3.17,3.42,2.01
7.0470,0.09,0.12,-0.98,2.99,3.11,1.83
7.0630,0.08,0.12,-0.98,3.11,3.54,2.01
7.0780,0.08,0.12,-0.98,2.99,3.60,1.95
7.0820,0.08,0.12,-0.98,3.05,3.60,1.89
7.0980,0.09,0.12,-0.98,3.05,3.42,1.95
7.1210,0.09,0.12,-0.98,3.05,3.36,1.83
7.1390,0.09,0.12,-0.98,3.05,3.66,2.01
7.1540,0.09,0.12,-0.98,2.99,3.54,2.08
7.1710,0.09,0.12,-0.98,3.05,3.66,2.01
7.1870,0.09,0.12,-0.98,3.11,3.72,2.01
7.1880,0.09,0.12,-0.98,3.05,3.17,2.08
7.2060,0.09,0.12,-0.98,3.05,3.30,1.95
7.2210,0.09,0.12,-0.98,3.11,3.36,1.89
7.2380,0.09,0.12,-0.98,3.11,3.42,1.83
7.2660,0.09,0.12,-0.98,3.05,3.30,1.89
7.2810,0.09,0.12,-0.98,2.99,3.36,1.89
7.2920,0.08,0.12,-0.98,2.99,3.11,1.95
7.3090,0.09,0.12,-0.98,3.05,3.48,2.08
7.3250,0.09,0.12,-0.98,2.87,3.42,1.89
7.3420,0.08,0.12,-0.98,2.81,3.66,2.08
7.3580,0.09,0.12,-0.98,3.05,3.17,1.89
7.3740,0.09,0.12,-0.98,2.87,3.48,2.01
7.3910,0.09,0.12,-0.98,2.99,3.17,2.01
7.4070,0.09,0.12,-0.98,2.99,3.30,1.95
7.4230,0.08,0.12,-0.98,2.93,3.30,1.95
7.4260,0.09,0.12,-0.98,3.30,3.72,2.08
7.4540,0.09,0.12,-0.98,3.11,3.66,2.01
7.4590,0.09,0.12,-0.98,3.05,3.36,2.08
7.4850,0.09,0.12,-0.98,3.11,3.11,2.01
7.5000,0.09,0.12,-0.98,2.99,3.54,2.01
7.5150,0.09,0.12,-0.98,2.93,3.23,1.83
7.5270,0.09,0.12,-0.98,3.11,3.23,1.89
7.5440,0.09,0.12,-0.98,3.17,3.30,1.95
7.5600,0.09,0.12,-0.98,3.23,3.60,2.08
7.5770,0.09,0.12,-0.98,3.11,3.66,2.20
7.5930,0.08,0.12,-0.98,2.93,3.66,1.95
7.6090,0.08,0.12,-0.98,3.05,3.17,2.01
7.6240,0.09,0.12,-0.98,3.05,3.60,1.89
7.6280,0.08,0.12,-0.98,3.05,3.48,2.01
7.6530,0.09,0.12,-0.98,2.99,3.42,2.01
7.6670,0.09,0.12,-0.98,3.11,3.30,1.83
7.6830,0.09,0.12,-0.98,3.05,3.42,2.01
7.7010,0.09,0.12,-0.98,2.99,3.48,2.01
7.7160,0.09,0.12,-0.98,2.81,3.23,1.89
7.7330,0.09,0.12,-0.98,3.11,3.17,1.89
7.7480,0.09,0.12,-0.98,2.99,3.60,2.01
7.7630,0.09,0.12,-0.98,3.05,3.42,2.01
7.7780,0.09,0.12,-0.98,3.11,3.36,1.95
7.7930,0.09,0.12,-0.98,2.93,3.17,1.95
7.8000,0.09,0.12,-0.98,3.17,3.42,2.01
7.8240,0.09,0.12,-0.98,3.11,3.36,1.83
7.8390,0.09,0.12,-0.98,2.93,3.30,1.95
7.8540,0.09,0.12,-0.98,2.93,3.60,1.95
7.8670,0.08,0.12,-0.98,3.17,2.87,1.95
7.8830,0.09,0.12,-0.98,2.99,3.11,1.95
7.9000,0.09,0.12,-0.98,3.05,3.42,1.95
7.9150,0.09,0.12,-0.98,3.05,3.23,2.08
7.9310,0.09,0.12,-0.98,3.05,3.42,2.01
7.9460,0.09,0.12,-0.98,3.05,3.36,1.95
7.9620,0.09,0.12,-0.99,3.23,3.30,1.83
7.9770,0.08,0.12,-0.98,2.99,3.05,2.01
7.9830,0.09,0.12,-0.98,2.99,3.60,1.95
7.9990,0.09,0.12,-0.98,3.05,3.17,1.95
8.0220,0.09,0.12,-0.98,2.93,3.78,2.08
8.0380,0.09,0.12,-0.98,2.93,3.36,2.01
8.0540,0.09,0.12,-0.98,2.99,3.48,2.14
8.0560,0.09,0.12,-0.98,3.23,3.30,1.89
8.0870,0.09,0.12,-0.98,2.99,3.42,2.08
8.0880,0.09,0.12,-0.98,3.05,3.17,1.89
8.1050,0.08,0.12,-0.98,2.81,3.36,1.95
8.1230,0.09,0.12,-0.98,3.05,3.17,1.89
8.1380,0.09,0.12,-0.98,3.05,3.60,2.08
8.1640,0.09,0.12,-0.98,3.11,3.54,2.08
8.1710,0.09,0.12,-0.98,3.11,3.42,2.01
8.1870,0.09,0.12,-0.98,2.99,3.54,2.01
8.2060,0.09,0.12,-0.98,2.99,3.30,1.83
8.2210,0.09,0.12,-0.98,2.87,3.36,1.89
8.2390,0.09,0.12,-0.98,2.93,3.42,1.83
8.2540,0.09,0.12,-0.98,3.11,3.36,2.01
8.2720,0.09,0.12,-0.98,2.93,3.36,1.95
8.2880,0.09,0.12,-0.98,2.93,3.36,1.89
8.2940,0.09,0.12,-0.98,2.93,3.36,1.95
8.3100,0.09,0.12,-0.98,2.99,2.99,1.95
8.3260,0.09,0.12,-0.98,2.99,3.66,1.95
8.3450,0.09,0.12,-0.98,2.87,3.72,2.01
8.3630,0.09,0.12,-0.98,2.87,3.60,2.01
8.3630,0.09,0.12,-0.98,2.93,3.17,1.83
8.3920,0.08,0.12,-0.98,2.99,3.23,1.95
8.4080,0.08,0.12,-0.98,3.17,3.17,1.83
8.4230,0.09,0.12,-0.98,2.81,3.54,1.83
8.4380,0.09,0.12,-0.98,2.93,3.11,1.83
8.4530,0.09,0.12,-0.98,2.87,3.30,1.95
8.4640,0.08,0.12,-0.98,2.99,3.30,2.08
8.4810,0.08,0.13,-0.98,3.05,3.30,3.05
8.4970,0.09,0.12,-0.98,3.05,3.11,3.23
8.5140,0.09,0.11,-0.98,2.93,3.36,2.69
8.5310,0.09,0.12,-0.98,2.93,3.42,2.38
8.5460,0.09,0.12,-0.98,3.05,3.36,2.38
8.5610,0.09,0.12,-0.98,3.23,3.42,2.62
8.5770,0.09,0.12,-0.98,3.05,3.48,2.38
8.5920,0.09,0.12,-0.98,2.93,3.72,2.62
8.6070,0.08,0.13,-0.98,2.99,3.36,2.93
8.6220,0.09,0.12,-0.98,2.69,3.11,3.54
8.6370,0.09,0.11,-0.98,2.87,3.48,3.60
8.6520,0.09,0.11,-0.98,2.87,2.87,3.05
8.6640,0.08,0.12,-0.98,3.05,2.69,2.44
8.6800,0.08,0.12,-0.98,3.17,3.05,2.50
8.6970,0.09,0.13,-0.98,2.99,3.30,2.56
8.7120,0.09,0.13,-0.98,2.99,3.05,3.30
8.7260,0.08,0.13,-0.98,2.81,3.23,4.21
8.7410,0.09,0.12,-0.98,2.75,2.99,4.64
8.7540,0.09,0.12,-0.98,2.81,3.36,4.09
8.7670,0.08,0.11,-0.98,2.81,3.17,3.17
8.7890,0.09,0.12,-0.98,2.87,3.11,3.54
8.8040,0.08,0.12,-0.98,2.93,3.36,3.91
8.8190,0.08,0.12,-0.98,2.81,3.60,4.09
8.8350,0.09,0.11,-0.99,2.99,2.87,3.72
8.8500,0.08,0.12,-0.98,2.69,3.48,2.62
8.8650,0.08,0.12,-0.98,2.75,3.54,2.87
8.8800,0.09,0.13,-0.98,2.93,3.17,3.60
8.8900,0.08,0.13,-0.98,2.93,3.05,4.39
8.9070,0.09,0.11,-0.98,2.75,2.75,4.64
8.9230,0.08,0.12,-0.98,2.99,2.81,3.72
8.9410,0.08,0.12,-0.98,2.93,2.75,3.60
8.9570,0.09,0.13,-0.98,2.87,3.05,4.39
8.9720,0.09,0.12,-0.98,2.93,3.05,5.19
8.9890,0.09,0.12,-0.98,2.87,3.17,4.82
9.0030,0.09,0.12,-0.98,2.81,3.42,4.58
9.0180,0.09,0.11,-0.98,2.81,3.11,3.97
9.0350,0.09,0.11,-0.98,2.87,3.30,3.72
9.0400,0.08,0.11,-0.99,3.05,3.11,2.81
9.0650,0.09,0.12,-0.98,2.75,3.36,2.56
9.0800,0.09,0.12,-0.98,2.87,3.54,2.75
9.0950,0.08,0.13,-0.98,2.93,3.48,3.30
9.1070,0.09,0.13,-0.98,2.81,2.87,4.82
9.1230,0.09,0.12,-0.98,2.62,3.11,4.94
9.1400,0.09,0.12,-0.98,2.87,3.17,4.82
9.1550,0.09,0.12,-0.98,2.87,3.23,4.70
9.1710,0.09,0.13,-0.98,2.75,3.11,5.19
9.1870,0.09,0.11,-0.99,2.69,3.05,5.74
9.1910,0.09,0.12,-0.98,2.75,2.87,4.76
9.2180,0.08,0.13,-0.98,2.75,2.99,5.07
9.2330,0.09,0.11,-0.98,2.81,3.11,5.07
9.2410,0.09,0.11,-0.98,2.93,2.81,3.97
9.2580,0.09,0.11,-0.98,2.87,3.17,3.54
9.2730,0.08,0.11,-0.98,3.05,3.23,2.69
9.2940,0.09,0.13,-0.98,3.05,3.42,3.48
9.2960,0.09,0.12,-0.98,2.99,3.17,4.70
9.3240,0.09,0.11,-0.98,2.75,2.81,4.70
9.3400,0.09,0.11,-0.98,2.75,3.05,4.52
9.3560,0.08,0.12,-0.98,2.81,3.17,3.78
9.3710,0.09,0.12,-0.98,2.87,3.30,4.03
9.3860,0.09,0.11,-0.99,2.93,3.17,3.42
9.3970,0.09,0.12,-0.98,3.11,3.30,2.62
9.4130,0.09,0.12,-0.98,2.93,3.48,2.44
9.4290,0.09,0.12,-0.98,2.99,3.48,2.50
9.4460,0.09,0.13,-0.98,2.99,3.42,2.99
9.4620,0.09,0.14,-0.98,3.11,3.05,4.09
9.4770,0.09,0.13,-0.98,2.93,3.05,5.13
9.4920,0.09,0.12,-0.98,2.75,2.81,4.88
9.5070,0.08,0.11,-0.98,2.69,3.23,4.46
9.5130,0.09,0.11,-0.99,2.81,3.11,4.03
9.5290,0.09,0.12,-0.98,3.05,3.17,3.48
9.5520,0.09,0.12,-0.98,2.93,3.05,3.60
9.5670,0.09,0.12,-0.98,3.05,3.36,3.85
9.5830,0.08,0.12,-0.98,2.81,2.81,3.97
9.5980,0.08,0.13,-0.98,2.75,3.17,4.52
9.6130,0.09,0.13,-0.98,2.81,2.75,5.37
9.6280,0.09,0.10,-0.99,3.05,2.99,5.07
9.6430,0.08,0.11,-0.99,2.99,3.17,4.09
9.6560,0.09,0.11,-0.98,2.87,3.30,3.23
9.6690,0.09,0.12,-0.98,3.05,3.11,2.99
9.6860,0.09,0.13,-0.98,2.93,3.17,3.60
9.7020,0.08,0.13,-0.98,2.87,3.05,4.09
9.7190,0.09,0.12,-0.98,2.69,3.05,5.07
9.7360,0.09,0.11,-0.99,2.81,2.93,4.33
9.7510,0.08,0.10,-0.99,2.75,3.11,3.60
9.7670,0.09,0.12,-0.98,3.11,3.05,3.05
9.7820,0.09,0.12,-0.98,2.99,3.36,3.17
9.7870,0.09,0.12,-0.98,2.93,3.30,3.17
9.8120,0.09,0.12,-0.98,2.99,3.11,3.30
9.8280,0.09,0.13,-0.98,2.93,3.23,3.72
9.8420,0.09,0.13,-0.98,2.81,3.05,4.64
9.8560,0.09,0.11,-0.98,2.75,3.11,5.00
9.8690,0.09,0.11,-0.99,2.81,3.11,4.03
9.8850,0.09,0.12,-0.98,2.87,3.30,3.48
9.9020,0.09,0.11,-0.98,2.99,3.05,3.66
9.9180,0.09,0.11,-0.98,2.93,3.36,3.05
9.9340,0.09,0.12,-0.98,3.05,3.30,2.87
9.9500,0.09,0.13,-0.98,2.75,3.05,3.05
9.9560,0.09,0.12,-0.98,2.81,3.54,3.72
9.9680,0.09,0.13,-0.98,2.87,3.05,4.15
9.9960,0.09,0.12,-0.98,2.99,3.11,4.46
10.0070,0.09,0.12,-0.98,2.93,2.99,4.52
10.0220,0.09,0.12,-0.98,2.62,3.11,4.64
10.0400,0.09,0.11,-0.99,3.11,2.81,4.09
10.0560,0.09,0.11,-0.99,3.23,3.23,3.30
10.0730,0.09,0.11,-0.98,2.87,3.30,3.05
10.0880,0.08,0.13,-0.98,2.81,2.99,3.23
10.1030,0.08,0.13,-0.98,2.87,2.87,4.39
10.1190,0.09,0.13,-0.98,2.75,3.42,4.70
10.1340,0.09,0.12,-0.98,2.93,2.81,5.07
10.1510,0.09,0.12,-0.98,2.62,3.30,4.82
10.1660,0.09,0.11,-0.99,2.75,2.87,4.33
10.1830,0.09,0.11,-0.99,2.99,3.42,3.17
10.1990,0.09,0.12,-0.98,2.99,3.17,3.36
10.2140,0.09,0.12,-0.98,2.87,3.23,3.54
10.2290,0.09,0.13,-0.98,2.99,3.17,3.78
10.2390,0.09,0.13,-0.98,2.75,2.93,4.39
10.2570,0.09,0.13,-0.98,2.93,2.62,5.00
10.2720,0.09,0.13,-0.98,2.99,2.81,5.31
10.2920,0.08,0.12,-0.98,2.81,2.56,5.49
10.3070,0.09,0.12,-0.98,2.75,2.81,5.68
10.3240,0.09,0.12,-0.98,2.75,2.75,5.86
10.3400,0.09,0.11,-0.98,2.81,2.69,6.16
10.3570,0.09,0.11,-0.99,2.75,2.69,5.55
10.3600,0.09,0.11,-0.98,2.93,2.81,4.64
10.3830,0.08,0.12,-0.98,2.69,2.62,4.82
10.4000,0.08,0.12,-0.98,2.75,3.05,5.00
10.4160,0.08,0.13,-0.98,2.62,2.93,5.07
10.4320,0.09,0.13,-0.98,2.81,2.69,5.80
10.4480,0.09,0.12,-0.98,2.81,2.69,5.92
10.4620,0.09,0.11,-0.99,2.87,2.81,5.25
10.4660,0.09,0.11,-0.98,2.87,2.99,4.70
10.4820,0.09,0.11,-0.99,2.87,3.05,4.03
10.5040,0.09,0.12,-0.98,2.75,3.17,3.85
10.5200,0.09,0.12,-0.98,3.05,2.87,3.60
10.5380,0.09,0.12,-0.98,2.93,2.99,3.72
10.5540,0.09,0.12,-0.98,2.75,3.54,3.78
10.5570,0.08,0.12,-0.98,2.81,2.87,3.60
10.5710,0.09,0.12,-0.98,2.87,2.93,3.66
10.5990,0.09,0.12,-0.98,3.05,3.17,3.17
10.6040,0.09,0.12,-0.98,2.75,3.17,3.42
10.6200,0.09,0.12,-0.98,3.05,3.42,3.54
10.6410,0.09,0.12,-0.98,2.99,2.99,3.36
10.6580,0.09,0.12,-0.98,2.81,2.93,3.11
10.6730,0.09,0.13,-0.98,2.99,3.17,3.42
10.6920,0.09,0.12,-0.98,2.93,2.81,4.03
10.6920,0.08,0.12,-0.98,2.81,2.99,4.58
10.7230,0.09,0.12,-0.98,2.81,2.99,4.64
10.7250,0.09,0.13,-0.98,2.87,2.62,4.76
10.7550,0.09,0.12,-0.98,2.99,2.62,4.58
10.7580,0.09,0.12,-0.98,2.93,2.62,4.58
10.7850,0.09,0.11,-0.98,2.81,3.11,4.82
10.7910,0.09,0.11,-0.99,2.93,3.17,4.27
10.8070,0.09,0.11,-0.98,2.99,2.87,4.15
10.8290,0.08,0.13,-0.98,2.93,2.81,4.09
10.8460,0.09,0.14,-0.98,2.87,2.93,4.88
10.8610,0.09,0.13,-0.98,2.81,2.99,5.92
10.8760,0.09,0.12,-0.98,2.93,2.87,6.04
10.8910,0.09,0.12,-0.98,2.93,2.87,5.74
10.9060,0.09,0.12,-0.98,2.87,2.87,5.55
10.9220,0.09,0.12,-0.98,2.81,2.99,5.62
10.9370,0.09,0.12,-0.98,2.81,3.30,4.64
10.9520,0.09,0.12,-0.98,2.87,2.99,4.94
10.9630,0.08,0.12,-0.98,2.99,3.05,4.76
10.9790,0.09,0.13,-0.98,3.05,2.44,5.55
10.9970,0.09,0.12,-0.98,2.81,2.93,5.86
11.0120,0.09,0.12,-0.98,2.69,2.75,6.16
11.0270,0.09,0.11,-0.98,2.69,2.81,5.92
11.0420,0.09,0.11,-0.98,2.62,3.05,5.37
11.0560,0.09,0.12,-0.98,2.62,2.56,4.52
11.0730,0.08,0.11,-0.98,2.81,2.87,4.58
11.0890,0.08,0.13,-0.98,2.81,3.17,4.82
11.1040,0.09,0.12,-0.98,2.99,3.11,5.74
11.1190,0.09,0.12,-0.98,2.69,3.05,5.92
11.1300,0.09,0.12,-0.98,2.81,3.17,5.86
11.1460,0.09,0.13,-0.98,2.50,2.93,5.55
11.1630,0.09,0.11,-0.98,2.81,2.62,5.98
11.1790,0.09,0.12,-0.98,2.87,2.69,5.86
11.1940,0.09,0.12,-0.98,2.93,2.32,6.29
11.2090,0.09,0.11,-0.99,2.81,2.87,6.23
11.2240,0.09,0.11,-0.99,2.87,2.56,5.37
11.2290,0.09,0.11,-0.98,2.99,2.87,4.03
11.2450,0.09,0.11,-0.98,2.99,2.93,3.66
11.2670,0.08,0.13,-0.98,2.99,2.87,3.78
11.2840,0.09,0.13,-0.98,2.81,3.11,4.46
11.3000,0.09,0.12,-0.98,2.93,2.87,4.94
11.3170,0.08,0.12,-0.98,2.75,2.93,5.00
11.3340,0.09,0.12,-0.98,2.75,3.05,5.62
11.3500,0.09,0.11,-0.98,2.93,3.17,5.62
11.3650,0.09,0.11,-0.98,2.87,3.30,4.64
11.3820,0.09,0.12,-0.98,2.93,2.99,4.09
11.3960,0.09,0.12,-0.98,3.05,3.23,4.27
11.4110,0.08,0.12,-0.98,2.87,3.23,4.58
11.4260,0.08,0.12,-0.98,2.75,2.99,4.76
11.4410,0.09,0.12,-0.98,2.99,2.87,4.94
11.4560,0.09,0.12,-0.98,2.87,3.05,4.76
11.4670,0.09,0.12,-0.98,2.87,2.93,5.13
11.4840,0.09,0.12,-0.98,2.93,2.69,5.00
11.5000,0.09,0.12,-0.98,2.93,2.87,4.76
11.5160,0.09,0.12,-0.98,2.81,3.11,4.58
11.5320,0.09,0.12,-0.98,2.87,3.30,4.64
11.5470,0.09,0.13,-0.98,2.93,2.87,4.70
11.5620,0.09,0.13,-0.98,2.87,2.93,5.49
11.5770,0.09,0.12,-0.98,2.81,2.87,5.86
11.5920,0.09,0.11,-0.98,2.75,3.17,5.62
11.6010,0.08,0.11,-0.98,2.87,2.81,4.70
11.6230,0.09,0.12,-0.98,2.87,3.05,4.58
11.6340,0.09,0.12,-0.98,2.87,2.93,4.52
11.6500,0.09,0.13,-0.98,2.75,3.05,4.64
11.6670,0.09,0.12,-0.98,2.75,3.05,5.07
11.6830,0.09,0.12,-0.98,2.56,3.11,5.13
11.6980,0.09,0.11,-0.98,2.87,2.50,4.58
11.7010,0.09,0.12,-0.98,3.05,3.11,3.97
11.7160,0.09,0.12,-0.98,3.05,2.75,3.85
11.7400,0.08,0.12,-0.98,2.93,3.17,4.15
11.7570,0.09,0.12,-0.99,2.87,2.99,4.58
11.7730,0.09,0.12,-0.99,2.87,3.11,4.33
11.7900,0.08,0.12,-0.98,2.75,2.81,3.85
11.7960,0.09,0.12,-0.98,3.05,2.93,3.78
11.8130,0.09,0.12,-0.98,2.81,3.11,3.91
11.8350,0.09,0.12,-0.98,2.69,3.42,3.66
11.8460,0.09,0.12,-0.98,2.81,2.93,3.97
11.8620,0.09,0.12,-0.98,2.75,2.75,4.33
11.8800,0.09,0.12,-0.98,2.99,3.05,4.27
11.8950,0.09,0.12,-0.98,3.05,2.62,4.09
11.9100,0.09,0.13,-0.98,2.93,2.87,3.85
11.9260,0.09,0.12,-0.98,2.93,2.93,4.33
11.9420,0.09,0.11,-0.98,2.93,3.36,3.85
11.9590,0.09,0.12,-0.98,2.87,3.23,3.66
11.9740,0.09,0.12,-0.98,2.75,3.42,3.72
11.9900,0.09,0.12,-0.98,2.93,3.23,3.78
12.0060,0.09,0.12,-0.98,2.93,3.36,3.66
12.0210,0.09,0.12,-0.98,2.87,3.23,3.48
12.0320,0.09,0.12,-0.98,2.93,3.42,3.48
12.0480,0.09,0.12,-0.98,2.75,3.42,3.85
12.0650,0.09,0.12,-0.98,2.93,3.42,3.78
12.0810,0.09,0.12,-0.98,2.99,3.36,3.72
12.0960,0.09,0.12,-0.98,2.81,3.23,3.78
12.1100,0.09,0.12,-0.98,2.87,3.60,4.21
12.1260,0.08,0.12,-0.98,2.87,2.81,4.52
12.1420,0.09,0.12,-0.98,2.75,2.81,4.46
12.1570,0.09,0.13,-0.98,2.75,3.05,4.39
12.1720,0.09,0.12,-0.98,2.69,2.81,5.31
12.1870,0.09,0.12,-0.98,2.81,2.75,5.00
12.1980,0.09,0.12,-0.98,2.87,2.87,4.94
12.2160,0.09,0.12,-0.98,2.81,3.11,4.94
12.2320,0.09,0.11,-0.98,2.69,2.99,5.07
12.2470,0.09,0.12,-0.98,2.99,3.23,5.00
12.2620,0.09,0.13,-0.98,2.81,3.11,5.43
12.2760,0.09,0.13,-0.98,2.81,2.99,5.92
12.2920,0.09,0.12,-0.98,2.81,2.99,6.23
12.3070,0.08,0.11,-0.99,2.75,2.81,5.25
12.3230,0.09,0.11,-0.99,2.75,3.30,4.39
12.3380,0.08,0.12,-0.98,2.99,3.05,3.60
12.3490,0.09,0.12,-0.98,2.81,2.81,4.21
12.3650,0.08,0.11,-0.98,2.87,3.11,4.09
12.3820,0.09,0.11,-0.98,2.81,2.99,3.78
12.3990,0.09,0.12,-0.98,2.81,3.42,3.60
12.4150,0.09,0.12,-0.98,2.81,3.05,3.97
12.4310,0.09,0.12,-0.98,2.81,2.93,4.21
12.4470,0.09,0.12,-0.98,2.87,2.93,3.85
12.4620,0.09,0.12,-0.98,3.17,3.11,3.91
12.4770,0.08,0.13,-0.98,2.87,3.17,4.03
12.4930,0.09,0.12,-0.98,2.99,3.11,5.43
12.5090,0.09,0.11,-0.98,2.62,2.93,5.19
12.5250,0.09,0.11,-0.98,2.93,3.36,3.72
12.5400,0.09,0.12,-0.98,2.93,2.87,3.66
12.5500,0.09,0.12,-0.98,2.87,2.93,3.78
12.5660,0.09,0.12,-0.98,3.11,3.11,3.72
12.5870,0.09,0.12,-0.98,2.87,3.05,3.54
12.6010,0.09,0.13,-0.98,2.99,3.05,3.66
12.6180,0.09,0.12,-0.98,2.75,3.30,3.72
12.6330,0.09,0.13,-0.98,3.05,2.87,3.91
12.6480,0.09,0.12,-0.98,2.93,3.23,5.00
12.6630,0.09,0.12,-0.98,2.87,3.42,5.13
12.6780,0.09,0.12,-0.98,2.81,2.87,5.37
12.6930,0.09,0.12,-0.98,2.81,3.05,5.31
12.7080,0.09,0.12,-0.98,2.87,2.87,5.31
12.7200,0.09,0.11,-0.98,2.81,3.05,5.13
12.7360,0.09,0.12,-0.98,2.87,3.17,4.94
12.7530,0.09,0.12,-0.98,2.87,3.05,4.70
12.7700,0.09,0.12,-0.98,2.75,2.93,5.07
12.7710,0.09,0.13,-0.98,2.75,2.81,5.31
12.8010,0.09,0.12,-0.98,2.81,2.69,5.80
12.8170,0.09,0.11,-0.98,2.69,2.81,5.55
12.8200,0.09,0.11,-0.99,2.69,2.93,4.52
12.8490,0.09,0.12,-0.98,2.87,2.75,4.15
12.8640,0.09,0.12,-0.98,2.81,3.36,4.15
12.8790,0.09,0.12,-0.98,2.81,2.93,4.39
12.8860,0.09,0.11,-0.98,2.81,3.23,4.58
12.9050,0.09,0.12,-0.98,2.87,2.50,4.15
12.9200,0.09,0.13,-0.98,2.81,2.87,4.09
12.9370,0.09,0.11,-0.98,2.75,2.93,4.64
12.9520,0.09,0.12,-0.98,2.75,3.11,4.15
12.9700,0.09,0.12,-0.99,2.99,3.23,3.78
12.9850,0.09,0.13,-0.98,2.87,3.17,4.09
13.0020,0.09,0.13,-0.98,2.75,3.11,5.07
13.0070,0.09,0.12,-0.98,2.87,2.87,5.68
13.0220,0.09,0.12,-0.98,2.75,2.56,5.31
13.0440,0.09,0.13,-0.98,2.93,3.05,4.76
13.0610,0.09,0.12,-0.98,2.93,3.23,5.25
13.0770,0.09,0.12,-0.98,2.87,2.62,5.37
13.0920,0.09,0.11,-0.99,2.87,2.81,5.25
13.1070,0.08,0.12,-0.98,2.87,2.81,4.52
13.1230,0.09,0.13,-0.98,2.87,3.05,4.76
13.1390,0.09,0.12,-0.98,2.69,2.62,5.74
13.1540,0.08,0.12,-0.98,2.93,2.81,5.80
13.1610,0.09,0.14,-0.98,2.81,2.69,6.65
13.1760,0.09,0.14,-0.98,2.62,2.44,7.87
13.1960,0.09,0.11,-0.98,2.38,2.20,9.28
13.2130,0.09,0.11,-0.99,2.62,2.38,8.54
13.2310,0.08,0.10,-0.99,2.56,2.93,6.71
13.2460,0.09,0.11,-0.98,2.69,3.05,5.62
13.2620,0.08,0.10,-0.99,2.87,2.99,5.25
13.2770,0.09,0.11,-0.98,2.75,2.75,4.82
13.2920,0.09,0.12,-0.98,2.81,2.87,4.03
13.3000,0.09,0.13,-0.98,2.93,3.36,3.91
13.3170,0.09,0.12,-0.98,2.87,2.99,4.58
13.3330,0.09,0.12,-0.98,2.99,3.23,4.33
13.3500,0.09,0.12,-0.98,2.81,2.87,4.15
13.3650,0.09,0.13,-0.98,2.81,2.81,4.09
13.3830,0.09,0.12,-0.98,2.93,3.30,4.70
13.3990,0.09,0.11,-0.98,3.17,2.81,4.27
13.4150,0.09,0.11,-0.98,3.05,3.23,3.23
13.4300,0.09,0.11,-0.98,3.11,2.93,2.87
13.4450,0.09,0.11,-0.99,2.99,3.11,2.75
13.4600,0.09,0.12,-0.98,3.17,2.99,1.95
13.4660,0.09,0.12,-0.98,3.11,3.36,2.01
13.4810,0.09,0.13,-0.98,3.05,3.17,1.95
13.5040,0.09,0.14,-0.98,2.99,3.17,2.62
13.5210,0.09,0.12,-0.98,2.99,3.36,2.99
13.5360,0.09,0.11,-0.99,2.99,3.11,2.56
13.5530,0.09,0.11,-0.98,3.11,3.30,2.01
13.5690,0.09,0.12,-0.99,3.05,3.42,1.83
13.5840,0.09,0.12,-0.98,2.99,3.30,1.77
13.5890,0.09,0.12,-0.98,2.99,3.05,1.95
13.6050,0.09,0.12,-0.98,2.99,2.93,1.95
13.6290,0.09,0.12,-0.99,2.93,3.05,1.83
13.6440,0.09,0.12,-0.99,2.44,3.11,1.83
13.6600,0.09,0.11,-0.98,2.44,3.42,1.77
13.6750,0.11,0.15,-0.98,2.99,3.85,1.46
13.6920,0.10,0.11,-0.99,2.81,4.03,-2.38
13.7070,0.07,0.11,-0.99,2.50,3.91,0.31
13.7230,0.09,0.11,-0.98,2.14,3.48,1.65
13.7390,0.08,0.10,-0.98,2.75,3.60,2.20
13.7540,0.09,0.12,-0.98,4.52,3.17,2.14
13.7630,0.09,0.12,-0.98,3.78,3.11,2.14
13.7790,0.09,0.12,-0.98,3.17,3.42,2.14
13.8000,0.09,0.12,-0.98,3.11,3.60,2.08
13.8160,0.09,0.12,-0.98,3.11,3.48,2.01
13.8180,0.09,0.12,-0.98,3.17,3.05,2.08
13.8340,0.09,0.12,-0.98,3.23,3.42,2.14
13.8620,0.09,0.12,-0.98,3.17,3.23,2.01
13.8730,0.09,0.12,-0.98,3.05,3.54,2.01
13.8890,0.09,0.12,-0.98,3.17,3.48,1.95
13.9050,0.09,0.12,-0.98,3.17,3.42,1.83
13.9230,0.09,0.12,-0.98,3.17,3.36,1.83
13.9380,0.09,0.12,-0.98,3.23,3.11,2.14
13.9550,0.09,0.12,-0.98,3.23,2.93,2.01
13.9710,0.09,0.12,-0.98,3.05,3.23,1.89
13.9880,0.09,0.12,-0.98,2.93,3.48,2.01
14.0030,0.09,0.12,-0.98,3.30,3.72,2.08
14.0180,0.09,0.12,-0.98,3.23,3.42,2.08
14.0340,0.09,0.12,-0.98,3.17,3.36,2.08
14.0490,0.09,0.12,-0.98,2.93,3.60,2.14
14.0650,0.09,0.12,-0.98,3.05,3.72,2.08
14.0720,0.09,0.12,-0.98,3.11,3.48,2.08
14.0880,0.09,0.12,-0.98,3.30,3.48,2.01
14.1100,0.09,0.12,-0.98,3.11,3.60,2.01
14.1270,0.09,0.12,-0.98,3.05,3.48,1.89
14.1280,0.09,0.12,-0.98,3.05,3.23,2.01
14.1580,0.09,0.12,-0.98,3.05,3.23,2.14
14.1750,0.09,0.12,-0.98,3.05,3.54,1.89
14.1900,0.09,0.12,-0.98,3.30,2.93,1.89
14.2060,0.09,0.12,-0.98,3.05,3.60,2.08
14.2230,0.09,0.12,-0.98,2.87,3.60,2.01
14.2380,0.09,0.12,-0.98,2.99,3.30,2.08
14.2550,0.09,0.12,-0.98,3.11,3.36,1.95
14.2700,0.09,0.12,-0.98,3.11,3.23,1.83
14.2860,0.09,0.12,-0.98,3.17,3.05,1.83
14.3010,0.09,0.12,-0.98,3.11,3.66,2.01
14.3160,0.09,0.12,-0.98,3.11,3.17,2.08
14.3270,0.09,0.12,-0.98,3.11,3.48,2.14
14.3430,0.09,0.12,-0.98,3.11,3.23,2.01
14.3600,0.09,0.12,-0.98,2.93,3.30,1.89
14.3770,0.09,0.12,-0.98,3.05,3.36,2.01
14.3920,0.09,0.12,-0.98,3.05,3.72,2.01
14.4080,0.09,0.12,-0.98,3.11,3.66,2.08
14.4250,0.09,0.12,-0.98,3.05,3.60,2.01
14.4400,0.09,0.12,-0.98,3.17,3.23,1.95
14.4560,0.09,0.12,-0.98,3.17,3.42,2.01
14.4720,0.09,0.12,-0.98,3.05,3.36,2.01
14.4890,0.09,0.12,-0.98,3.17,2.87,2.08
14.5040,0.09,0.12,-0.98,3.05,3.23,1.89
14.5110,0.09,0.12,-0.98,3.11,3.36,2.14
14.5270,0.09,0.12,-0.98,3.17,3.54,2.01
14.5500,0.09,0.12,-0.98,3.17,3.30,1.89
14.5650,0.09,0.12,-0.98,3.23,3.48,2.08
14.5770,0.09,0.12,-0.98,3.23,2.87,1.95
14.5930,0.09,0.12,-0.98,2.99,3.23,2.08
14.6100,0.09,0.12,-0.98,3.05,3.30,1.89
14.6250,0.09,0.12,-0.98,2.99,3.72,2.08
14.6400,0.09,0.12,-0.98,3.17,3.54,2.01
14.6560,0.09,0.12,-0.98,2.99,3.48,1.95
14.6710,0.09,0.12,-0.98,2.99,3.30,1.95
14.6860,0.09,0.12,-0.98,3.05,3.36,2.14
14.6930,0.09,0.12,-0.98,3.11,3.48,2.14
14.7100,0.09,0.12,-0.98,3.17,3.72,1.89
14.7260,0.09,0.12,-0.98,2.93,3.36,1.95
14.7460,0.09,0.12,-0.98,2.93,3.23,2.01
14.7610,0.09,0.12,-0.98,3.05,3.48,1.95
14.7760,0.09,0.12,-0.98,3.11,3.30,2.01
14.7910,0.09,0.12,-0.98,2.99,3.30,2.08
14.8060,0.09,0.12,-0.98,3.05,3.17,2.01
14.8210,0.09,0.12,-0.98,3.17,3.11,2.08
14.8360,0.09,0.12,-0.98,2.93,3.42,1.95
14.8470,0.09,0.12,-0.98,3.23,2.99,1.95
14.8640,0.09,0.12,-0.98,3.05,3.48,2.01
14.8800,0.09,0.12,-0.98,2.99,3.36,2.08
14.8960,0.09,0.12,-0.98,2.99,3.42,2.26
14.9120,0.09,0.12,-0.98,3.17,3.42,2.08
14.9270,0.09,0.12,-0.98,3.17,3.30,2.01
14.9420,0.09,0.12,-0.98,3.05,3.23,1.95
14.9470,0.09,0.12,-0.98,2.99,3.23,1.89
14.9620,0.09,0.12,-0.98,3.23,3.23,1.95
14.9850,0.09,0.12,-0.98,3.23,3.23,1.89
15.0010,0.09,0.12,-0.98,3.30,3.30,1.89
15.0170,0.09,0.12,-0.99,3.17,3.30,1.89
15.0350,0.09,0.12,-0.98,3.30,3.30,2.01
15.0510,0.09,0.12,-0.98,3.17,3.48,2.08
15.0670,0.09,0.12,-0.98,3.17,3.72,2.08
15.0830,0.09,0.12,-0.98,2.99,3.66,2.08
15.0990,0.09,0.12,-0.98,3.11,3.36,2.08
15.1010,0.09,0.12,-0.98,3.17,3.60,1.95
15.1170,0.09,0.12,-0.98,3.17,3.30,2.08
15.1400,0.09,0.12,-0.98,3.11,3.23,1.95
15.1600,0.09,0.12,-0.98,3.05,3.30,1.95
15.1720,0.09,0.12,-0.98,3.11,3.30,1.83
15.1900,0.09,0.12,-0.98,3.11,3.54,2.14
15.1960,0.09,0.12,-0.98,3.05,3.17,2.08
15.2200,0.09,0.12,-0.98,2.87,3.42,1.95
15.2300,0.09,0.12,-0.98,3.11,3.54,1.95
15.2460,0.09,0.12,-0.98,3.05,3.36,2.01
15.2620,0.09,0.12,-0.98,3.05,3.60,2.14
15.2790,0.09,0.12,-0.98,3.05,3.72,2.01
15.2950,0.09,0.12,-0.98,2.99,3.42,1.89
15.3100,0.09,0.12,-0.98,3.17,3.30,1.95
15.3260,0.09,0.12,-0.99,2.99,2.93,2.20
15.3420,0.09,0.12,-0.98,2.99,2.69,2.01
15.3570,0.09,0.12,-0.98,2.93,3.11,2.01
15.3720,0.09,0.12,-0.98,2.81,3.42,1.95
15.3870,0.09,0.12,-0.98,2.81,3.66,2.20
15.3950,0.09,0.12,-0.98,2.87,3.36,2.01
15.4110,0.09,0.12,-0.98,2.93,3.30,1.89
15.4330,0.09,0.12,-0.98,3.05,3.11,2.08
15.4480,0.09,0.12,-0.98,3.11,3.23,2.01
15.4630,0.09,0.12,-0.98,3.17,3.11,2.01
15.4780,0.09,0.12,-0.98,3.17,3.05,2.01
15.4930,0.09,0.12,-0.98,3.11,3.42,2.01
15.5080,0.09,0.12,-0.98,3.17,3.23,1.95
15.5230,0.09,0.12,-0.98,3.30,3.54,1.71
15.5330,0.08,0.12,-0.98,3.48,3.30,1.83
15.5490,0.09,0.12,-0.98,3.05,3.23,1.89
15.5660,0.09,0.12,-0.98,3.23,3.36,1.83
15.5820,0.09,0.12,-0.98,3.42,3.23,2.08
15.5990,0.09,0.12,-0.98,3.23,3.23,2.08
15.6160,0.09,0.12,-0.98,2.87,3.23,1.95
15.6320,0.09,0.12,-0.98,2.99,3.17,2.01
15.6470,0.09,0.12,-0.98,2.93,3.36,2.08
15.6620,0.09,0.12,-0.98,2.81,3.72,2.08
15.6770,0.09,0.12,-0.98,3.11,3.17,2.08
15.6920,0.09,0.12,-0.98,3.11,3.36,2.01
15.7070,0.09,0.12,-0.98,3.05,3.17,1.89
15.7220,0.09,0.12,-0.98,3.05,3.36,2.01
15.7330,0.09,0.12,-0.98,2.99,3.23,2.14
15.7490,0.09,0.12,-0.98,3.05,3.72,2.08
15.7660,0.09,0.12,-0.98,2.93,3.54,2.08
15.7830,0.09,0.12,-0.98,2.99,3.42,2.01
15.7990,0.09,0.12,-0.98,3.17,3.23,2.01
15.8150,0.09,0.12,-0.98,3.05,3.42,2.01
15.8310,0.09,0.12,-0.98,3.11,3.42,1.95
15.8470,0.09,0.12,-0.98,3.05,3.11,2.08
15.8630,0.09,0.12,-0.98,3.05,3.36,1.95
15.8780,0.09,0.12,-0.98,2.99,3.36,1.95
15.8930,0.09,0.12,-0.98,2.81,3.42,1.89
15.9090,0.09,0.12,-0.98,2.99,3.23,1.95
15.9160,0.09,0.12,-0.98,3.11,3.23,2.01
15.9320,0.09,0.12,-0.98,2.93,3.23,2.08
15.9550,0.09,0.12,-0.98,3.05,3.48,1.95
15.9710,0.09,0.12,-0.98,2.87,3.36,2.08
15.9870,0.09,0.12,-0.98,2.93,3.36,1.89
16.0030,0.09,0.12,-0.98,2.87,3.48,1.95
16.0190,0.09,0.12,-0.98,2.99,3.60,2.14
16.0340,0.09,0.12,-0.98,2.87,3.66,2.08
16.0490,0.09,0.12,-0.98,3.05,3.11,2.01
16.0640,0.09,0.12,-0.98,2.99,3.48,1.95
16.0790,0.09,0.12,-0.98,2.81,3.54,2.01
16.0890,0.09,0.12,-0.98,3.05,3.60,1.95
16.1060,0.09,0.12,-0.98,2.87,3.36,2.08
16.1220,0.09,0.12,-0.98,2.81,3.42,2.01
16.1390,0.09,0.12,-0.98,2.93,3.48,1.95
16.1550,0.09,0.12,-0.98,3.05,3.30,1.95
16.1710,0.09,0.12,-0.98,2.87,3.05,2.01
16.1870,0.09,0.12,-0.98,3.11,3.36,1.95
16.2010,0.09,0.12,-0.98,3.05,3.42,2.08
16.2170,0.09,0.12,-0.98,3.11,3.48,2.01
16.2340,0.09,0.12,-0.98,3.11,3.36,2.01
16.2400,0.09,0.12,-0.98,2.99,3.30,1.89
16.2620,0.09,0.12,-0.98,2.99,3.36,1.83
16.2720,0.09,0.12,-0.98,3.05,3.17,1.83
16.2950,0.09,0.12,-0.98,2.99,3.42,1.95
16.3100,0.09,0.12,-0.98,2.87,3.42,1.95
16.3250,0.09,0.12,-0.98,2.99,3.85,2.01
16.3400,0.09,0.12,-0.98,2.99,3.60,2.01
16.3570,0.09,0.12,-0.98,3.11,2.99,1.89
16.3620,0.09,0.12,-0.98,2.93,3.42,1.89
16.3780,0.09,0.12,-0.98,2.99,3.17,1.95
16.4020,0.09,0.12,-0.98,2.93,3.48,1.89
16.4170,0.09,0.12,-0.98,2.93,3.42,1.83
16.4320,0.09,0.12,-0.98,2.69,3.66,1.95
16.4350,0.09,0.12,-0.98,2.93,3.66,2.01
16.4630,0.09,0.12,-0.98,3.05,3.48,2.08
16.4790,0.09,0.12,-0.98,2.99,3.30,1.83
16.4940,0.09,0.12,-0.98,3.11,3.60,1.83
16.5090,0.09,0.12,-0.98,3.17,3.60,1.04
16.5230,0.09,0.12,-0.98,3.11,3.42,1.59
16.5360,0.09,0.12,-0.98,3.05,3.42,1.77
16.5520,0.09,0.12,-0.98,2.93,3.78,1.95
16.5680,0.09,0.12,-0.98,2.99,3.54,1.77
16.5850,0.09,0.12,-0.98,3.05,3.42,1.89
16.6010,0.09,0.12,-0.98,3.11,3.36,1.83
16.6170,0.09,0.12,-0.98,3.05,2.69,1.77
16.6330,0.09,0.12,-0.98,2.87,3.72,1.65
16.6490,0.09,0.12,-0.98,3.05,3.48,1.40
16.6630,0.09,0.12,-0.98,2.93,3.42,1.34
16.6690,0.09,0.12,-0.98,2.99,3.42,1.46
16.6920,0.09,0.12,-0.98,3.05,3.48,1.28
16.7090,0.09,0.12,-0.98,3.05,3.60,1.40
16.7250,0.09,0.12,-0.98,3.05,3.30,0.98
16.7410,0.09,0.12,-0.98,3.05,3.54,1.04
16.7570,0.09,0.12,-0.98,3.11,3.66,1.28
16.7730,0.09,0.12,-0.98,3.11,3.78,1.22
16.7900,0.09,0.12,-0.98,2.99,3.85,1.16
16.8050,0.09,0.12,-0.98,3.17,3.17,1.22
16.8200,0.09,0.12,-0.98,2.99,3.60,1.28
16.8350,0.09,0.12,-0.98,3.05,3.42,1.22
16.8500,0.09,0.12,-0.98,2.99,3.60,1.22
16.8630,0.08,0.12,-0.98,3.23,3.36,1.10
16.8740,0.09,0.12,-0.98,2.93,3.48,1.10
16.8960,0.08,0.12,-0.98,3.23,3.48,1.28
16.9130,0.08,0.12,-0.98,3.23,3.42,1.34
16.9280,0.08,0.12,-0.98,3.11,3.36,1.28
16.9430,0.09,0.12,-0.98,3.11,3.36,1.40
16.9580,0.09,0.12,-0.98,3.17,3.30,1.22
16.9630,0.09,0.12,-0.98,2.99,3.30,1.53
16.9780,0.09,0.12,-0.98,3.17,3.66,1.40
17.0010,0.08,0.12,-0.98,3.11,3.78,1.16
17.0170,0.08,0.12,-0.98,2.99,3.60,1.16
17.0330,0.08,0.12,-0.98,3.11,3.48,1.22
17.0510,0.08,0.12,-0.98,3.11,3.36,1.46
17.0670,0.09,0.12,-0.98,2.99,3.23,1.59
17.0830,0.09,0.12,-0.98,3.11,3.42,1.71
17.0990,0.08,0.12,-0.98,3.11,3.66,1.53
17.1150,0.09,0.12,-0.98,3.11,3.66,1.71
17.1310,0.09,0.12,-0.98,2.99,3.42,1.59
17.1470,0.09,0.12,-0.98,3.05,3.36,1.53
17.1630,0.09,0.12,-0.98,3.11,3.23,1.59
17.1790,0.09,0.12,-0.98,3.11,3.36,1.65
17.1950,0.09,0.12,-0.98,3.05,3.48,1.53
17.2000,0.09,0.12,-0.98,3.17,3.66,1.53
17.2160,0.09,0.12,-0.98,2.99,3.36,1.53
17.2410,0.09,0.12,-0.98,2.99,3.72,1.77
17.2580,0.09,0.12,-0.98,2.99,3.42,1.65
17.2730,0.09,0.12,-0.98,2.93,3.54,1.59
17.2900,0.09,0.12,-0.98,3.05,3.36,1.59
17.3050,0.09,0.12,-0.98,3.11,3.48,1.46
17.3220,0.09,0.12,-0.98,2.93,3.48,1.65
17.3370,0.09,0.12,-0.98,2.99,3.66,1.59
17.3420,0.09,0.12,-0.98,3.05,3.42,1.59
17.3690,0.09,0.12,-0.98,2.99,3.60,1.46
17.3850,0.08,0.12,-0.98,3.05,3.36,1.46
17.4000,0.09,0.12,-0.98,2.99,3.11,1.59
17.4170,0.09,0.12,-0.98,3.30,3.36,1.65
17.4320,0.08,0.12,-0.98,2.87,3.23,1.53
17.4470,0.09,0.12,-0.98,3.05,3.48,1.71
17.4570,0.09,0.12,-0.98,2.99,3.42,1.46
17.4770,0.09,0.12,-0.98,3.05,3.23,1.46
17.4920,0.09,0.12,-0.98,3.05,3.72,1.46
17.4920,0.08,0.12,-0.98,3.05,3.48,1.40
17.5220,0.08,0.12,-0.98,2.81,3.11,1.53
17.5330,0.08,0.12,-0.98,2.99,3.23,1.34
17.5490,0.08,0.12,-0.98,2.99,3.42,1.59
17.5640,0.08,0.12,-0.98,2.93,3.23,1.59
17.5820,0.08,0.12,-0.98,3.11,3.11,1.65
17.5880,0.09,0.12,-0.98,3.05,3.42,1.65
17.6120,0.09,0.12,-0.98,3.05,3.36,1.65
17.6220,0.09,0.12,-0.98,2.93,3.30,1.53
17.6380,0.08,0.12,-0.98,3.17,3.36,1.40
17.6540,0.08,0.12,-0.98,2.93,3.54,1.40
17.6730,0.08,0.12,-0.98,2.87,3.23,1.59
17.6790,0.09,0.12,-0.98,3.05,3.54,1.65
17.6940,0.08,0.12,-0.98,3.05,3.66,1.65
17.7110,0.09,0.12,-0.98,2.93,3.48,1.59
17.7270,0.09,0.12,-0.98,2.93,3.48,1.59
17.7470,0.09,0.12,-0.98,2.87,3.60,1.65
17.7640,0.09,0.12,-0.98,3.05,3.36,1.65
17.7800,0.09,0.12,-0.98,3.11,3.23,1.71
17.7970,0.09,0.12,-0.98,3.05,3.42,1.59
17.8130,0.09,0.12,-0.98,2.93,3.42,1.65
17.8290,0.09,0.12,-0.98,3.05,3.66,1.65
17.8440,0.08,0.12,-0.98,2.99,3.17,1.83
17.8600,0.08,0.12,-0.98,2.93,3.42,1.77
17.8750,0.08,0.12,-0.98,2.87,3.05,1.59
17.8800,0.08,0.12,-0.98,2.99,3.11,1.89
17.8950,0.09,0.12,-0.98,2.99,3.11,1.71
17.9190,0.09,0.12,-0.98,2.99,3.48,1.95
17.9370,0.09,0.12,-0.98,2.99,3.54,1.89
17.9530,0.08,0.12,-0.98,2.99,3.23,1.77
17.9690,0.09,0.12,-0.98,2.99,3.42,1.83
17.9860,0.09,0.12,-0.98,2.99,3.60,1.65
18.0010,0.08,0.12,-0.98,3.17,3.17,1.71
18.0040,0.09,0.12,-0.98,3.05,3.36,1.65
18.0190,0.08,0.12,-0.98,2.99,3.36,1.77
18.0370,0.09,0.12,-0.98,2.99,3.48,1.65
18.0650,0.08,0.12,-0.98,2.99,3.17,1.77
18.0690,0.08,0.12,-0.98,3.11,3.66,1.65
18.0900,0.09,0.12,-0.98,2.99,3.23,1.65
18.1070,0.09,0.12,-0.98,2.93,3.30,1.83
18.1250,0.08,0.12,-0.98,2.99,3.42,1.83
18.1400,0.09,0.12,-0.98,3.11,2.99,1.89
18.1570,0.08,0.12,-0.98,3.05,3.36,1.77
18.1730,0.09,0.12,-0.98,3.17,3.36,1.71
18.1890,0.09,0.12,-0.98,3.05,3.66,1.71
18.2050,0.09,0.12,-0.98,2.93,3.17,1.65
18.2220,0.09,0.12,-0.98,2.99,3.36,1.65
18.2380,0.09,0.12,-0.98,2.99,3.48,1.59
18.2530,0.09,0.12,-0.98,3.11,3.60,1.77
18.2690,0.08,0.12,-0.98,3.17,3.36,1.77
18.2850,0.08,0.12,-0.98,3.23,2.99,1.77
18.2930,0.08,0.12,-0.98,3.05,3.11,1.89
18.3090,0.09,0.12,-0.98,2.93,3.42,1.89
18.3310,0.09,0.12,-0.98,2.99,3.30,1.89
18.3470,0.09,0.12,-0.98,3.17,3.30,1.89
18.3640,0.09,0.12,-0.98,2.99,3.54,1.95
18.3790,0.09,0.12,-0.98,2.93,3.72,1.83
18.3950,0.09,0.12,-0.98,3.11,3.48,1.77
18.4100,0.09,0.12,-0.98,2.93,3.36,1.65
18.4140,0.09,0.12,-0.98,3.11,3.05,1.71
18.4300,0.08,0.12,-0.98,3.23,3.54,1.65
18.4520,0.09,0.12,-0.98,2.93,3.66,1.65
18.4680,0.08,0.12,-0.98,2.99,3.48,1.53
18.4850,0.08,0.12,-0.98,2.99,3.36,1.46
18.5020,0.09,0.12,-0.98,2.93,3.54,1.46
18.5170,0.09,0.12,-0.98,2.99,3.30,1.65
18.5330,0.09,0.12,-0.98,3.11,3.48,1.65
18.5490,0.09,0.12,-0.98,3.11,3.05,1.77
18.5650,0.08,0.12,-0.98,2.93,3.30,1.77
18.5810,0.08,0.12,-0.98,2.99,3.60,1.77
18.5850,0.09,0.12,-0.98,3.05,3.17,1.77
18.6000,0.09,0.12,-0.98,3.05,3.36,1.65
18.6230,0.09,0.12,-0.98,3.05,3.30,1.71
18.6380,0.09,0.12,-0.98,2.99,3.36,1.53
18.6560,0.08,0.12,-0.98,2.99,3.66,1.65
18.6720,0.08,0.12,-0.98,3.05,3.48,1.71
18.6720,0.08,0.12,-0.98,3.11,3.36,1.59
18.7030,0.09,0.12,-0.98,2.99,3.36,1.65
18.7190,0.09,0.12,-0.98,2.93,3.23,1.65
18.7340,0.09,0.12,-0.98,2.93,3.72,1.71
18.7500,0.08,0.12,-0.98,2.99,3.48,1.65
18.7650,0.08,0.12,-0.98,3.05,2.99,1.77
18.7810,0.09,0.12,-0.98,3.11,3.48,1.89
18.7890,0.09,0.12,-0.98,3.11,3.30,1.71
18.8150,0.09,0.12,-0.98,2.93,3.42,1.71
18.8310,0.09,0.12,-0.98,3.11,3.30,1.71
18.8380,0.09,0.12,-0.98,2.99,3.36,1.77
18.8560,0.09,0.12,-0.98,3.11,3.42,1.71
18.8720,0.09,0.12,-0.98,2.99,3.23,1.83
18.8910,0.09,0.12,-0.98,3.05,3.11,1.59
18.9080,0.09,0.12,-0.98,2.81,3.17,1.71
18.9090,0.08,0.12,-0.98,2.99,3.30,1.89
18.9390,0.08,0.12,-0.98,3.05,2.99,2.08
18.9550,0.09,0.12,-0.98,2.93,3.17,1.89
18.9710,0.09,0.12,-0.98,3.05,3.30,2.01
18.9870,0.09,0.12,-0.99,3.05,3.42,1.59
19.0030,0.09,0.12,-0.98,2.99,3.36,1.40
19.0190,0.08,0.12,-0.98,2.87,3.48,1.53
19.0340,0.09,0.12,-0.98,2.93,3.30,1.28
19.0500,0.08,0.12,-0.98,3.11,3.23,1.40
19.0660,0.09,0.12,-0.98,3.05,3.54,1.46
19.0740,0.09,0.12,-0.98,3.05,3.30,1.34
19.0960,0.09,0.12,-0.98,2.81,3.85,1.28
19.1120,0.09,0.12,-0.98,3.11,3.23,1.22
19.1270,0.09,0.12,-0.98,3.23,3.48,0.98
19.1420,0.09,0.12,-0.98,3.05,3.97,0.98
19.1460,0.09,0.12,-0.98,2.99,3.66,0.98
19.1660,0.08,0.12,-0.98,2.87,3.60,1.04
19.1890,0.09,0.12,-0.98,2.99,3.72,0.98
19.1990,0.09,0.12,-0.98,3.11,3.36,1.28
19.2160,0.09,0.12,-0.98,3.23,3.66,1.28
19.2330,0.08,0.12,-0.98,3.17,3.17,1.46
19.2500,0.09,0.12,-0.98,3.23,3.23,1.46
19.2660,0.09,0.12,-0.98,2.87,3.23,1.34
19.2830,0.08,0.12,-0.98,2.87,3.36,1.40
19.2990,0.09,0.12,-0.98,2.81,3.54,1.59
19.3150,0.09,0.12,-0.98,3.05,3.30,1.53
19.3320,0.09,0.12,-0.98,2.99,3.05,1.71
19.3470,0.09,0.12,-0.98,3.05,3.42,1.59
19.3630,0.09,0.12,-0.98,2.99,3.48,1.40
19.3790,0.09,0.12,-0.98,2.99,3.17,1.28
19.3940,0.09,0.12,-0.98,3.30,3.17,1.28
19.4090,0.08,0.12,-0.98,3.05,3.42,1.34
19.4240,0.09,0.12,-0.98,3.05,3.30,1.34
19.4380,0.09,0.12,-0.98,3.23,3.23,1.22
19.4500,0.09,0.12,-0.98,2.93,3.72,1.28
19.4660,0.09,0.12,-0.98,2.99,3.66,1.46
19.4820,0.09,0.12,-0.98,3.05,3.36,1.16
19.4990,0.09,0.12,-0.98,3.05,3.48,1.16
19.5150,0.09,0.12,-0.98,3.05,3.54,1.04
19.5320,0.08,0.12,-0.98,2.99,3.60,1.22
19.5470,0.08,0.12,-0.98,3.05,3.54,1.34
19.5630,0.09,0.12,-0.98,3.11,3.42,1.34
19.5790,0.09,0.12,-0.98,2.93,3.30,1.28
19.5940,0.09,0.12,-0.98,3.05,3.54,1.34
19.6080,0.09,0.12,-0.98,2.99,3.66,1.28
19.6160,0.08,0.12,-0.98,2.87,3.36,1.34
19.6320,0.09,0.12,-0.98,2.93,3.42,1.46
19.6550,0.09,0.12,-0.98,3.11,3.23,1.59
19.6710,0.09,0.12,-0.98,3.05,3.48,1.46
19.6870,0.08,0.12,-0.98,3.05,3.36,1.34
19.7030,0.08,0.12,-0.98,2.99,3.54,1.65
19.7190,0.09,0.12,-0.98,2.93,3.42,1.40
19.7340,0.09,0.12,-0.98,3.05,3.48,1.46
19.7510,0.09,0.12,-0.98,3.11,3.42,1.22
19.7660,0.08,0.12,-0.98,3.11,3.60,1.28
19.7710,0.08,0.12,-0.98,3.11,3.30,1.16
19.7870,0.09,0.12,-0.98,2.99,3.36,1.10
19.8090,0.09,0.12,-0.98,2.93,3.60,1.10
19.8250,0.09,0.12,-0.98,3.11,3.72,0.92
19.8410,0.08,0.12,-0.98,2.87,3.48,0.85
19.8600,0.08,0.12,-0.98,3.17,3.36,0.85
19.8750,0.09,0.12,-0.98,3.05,3.60,1.04
19.8910,0.09,0.12,-0.98,3.23,3.60,1.10
19.9070,0.09,0.12,-0.98,2.87,3.78,1.10
19.9240,0.09,0.12,-0.98,2.99,3.66,1.10
19.9390,0.09,0.12,-0.98,3.05,3.48,1.10
19.9440,0.09,0.12,-0.98,3.11,3.48,1.16
19.9670,0.09,0.12,-0.98,3.11,3.66,0.79
19.9820,0.09,0.12,-0.98,3.17,3.36,0.92
19.9990,0.08,0.12,-0.98,3.23,3.36,0.92
20.0150,0.08,0.12,-0.98,2.99,3.72,1.16
20.0310,0.07,0.12,-0.98,2.87,3.42,1.28
20.0470,0.08,0.12,-0.98,2.93,3.23,1.46
20.0630,0.08,0.12,-0.98,2.99,3.23,1.71
20.0790,0.09,0.12,-0.98,3.11,3.05,1.71
20.0940,0.09,0.12,-0.98,2.87,3.54,1.40
20.1090,0.09,0.12,-0.98,2.99,3.48,1.40
20.1250,0.08,0.12,-0.98,3.11,3.42,1.53
20.1410,0.08,0.12,-0.98,3.23,3.23,1.46
20.1480,0.09,0.12,-0.98,3.30,3.23,1.53
20.1670,0.09,0.12,-0.98,2.93,3.42,1.53
20.1870,0.09,0.12,-0.98,2.99,3.54,1.46
20.2040,0.09,0.12,-0.98,2.99,3.30,1.28
20.2200,0.08,0.12,-0.98,2.99,3.05,1.28
20.2360,0.08,0.12,-0.98,3.17,3.11,1.34
20.2380,0.08,0.12,-0.98,3.17,2.87,1.46
20.2670,0.09,0.12,-0.98,3.11,3.48,1.65
20.2700,0.09,0.12,-0.98,3.11,3.36,1.46
20.2990,0.09,0.12,-0.98,3.23,3.42,1.10
20.3030,0.09,0.12,-0.98,3.11,3.23,1.34
20.3190,0.06,0.12,-0.98,3.11,3.30,1.10
20.3390,0.09,0.12,-0.98,3.11,3.60,0.98
20.3560,0.08,0.12,-0.98,3.11,3.60,0.85
20.3720,0.08,0.12,-0.98,3.17,3.42,1.04
20.3890,0.08,0.12,-0.98,3.05,3.66,1.10
20.3940,0.09,0.12,-0.98,3.11,3.23,1.34
20.4190,0.08,0.12,-0.98,3.30,3.36,1.28
20.4270,0.09,0.12,-0.98,3.05,3.17,1.53
20.4490,0.09,0.12,-0.98,3.23,3.42,1.53
20.4600,0.09,0.12,-0.98,3.23,3.48,1.53
20.4780,0.09,0.12,-0.98,3.42,3.17,1.34
20.4940,0.08,0.12,-0.98,3.11,3.42,1.34
20.5110,0.09,0.12,-0.98,3.05,3.23,1.40
20.5260,0.09,0.12,-0.98,3.05,3.42,1.65
20.5320,0.09,0.12,-0.98,3.30,3.11,1.59
20.5470,0.09,0.12,-0.98,2.99,3.36,1.59
20.5710,0.08,0.12,-0.98,2.93,2.99,1.40
20.5870,0.09,0.12,-0.98,3.23,3.11,1.34
20.5880,0.08,0.12,-0.98,3.05,3.48,1.53
20.6190,0.08,0.12,-0.98,2.93,3.42,1.71
20.6350,0.09,0.12,-0.98,2.93,3.42,1.65
20.6510,0.09,0.12,-0.98,2.99,3.48,1.59
20.6540,0.09,0.12,-0.98,2.99,3.60,1.46
20.6690,0.09,0.12,-0.98,3.23,3.36,1.53
20.6920,0.09,0.12,-0.98,3.30,3.36,1.46
20.7090,0.08,0.12,-0.98,3.11,3.54,1.53
20.7250,0.08,0.12,-0.98,3.17,3.30,1.71
20.7420,0.08,0.12,-0.98,3.11,3.48,1.65
20.7580,0.09,0.12,-0.98,3.11,3.30,1.95
20.7740,0.09,0.12,-0.98,3.11,3.66,1.71
20.7900,0.09,0.12,-0.98,3.05,3.72,1.71
20.8060,0.09,0.12,-0.98,3.05,3.23,1.95
20.8230,0.08,0.12,-0.98,2.93,3.30,1.71
20.8380,0.08,0.12,-0.98,2.81,3.30,2.01
20.8540,0.08,0.12,-0.98,3.17,3.36,1.89
20.8700,0.09,0.12,-0.98,3.17,3.36,1.89
20.8860,0.08,0.12,-0.98,2.99,3.48,1.95
20.8920,0.08,0.12,-0.98,3.17,3.11,1.95
20.9070,0.09,0.12,-0.98,3.05,3.42,1.95
20.9310,0.09,0.12,-0.98,3.17,3.23,1.89
20.9470,0.09,0.12,-0.98,2.99,3.66,1.95
20.9630,0.09,0.12,-0.98,2.87,3.23,1.95
20.9800,0.09,0.12,-0.98,3.05,3.36,1.95
20.9960,0.09,0.12,-0.98,2.99,3.36,2.01
21.0110,0.09,0.12,-0.98,3.17,3.30,1.77
21.0260,0.09,0.12,-0.98,3.05,3.60,1.89
21.0300,0.09,0.12,-0.98,2.99,3.23,1.83
21.0460,0.08,0.12,-0.98,2.93,3.54,1.83
21.0690,0.09,0.12,-0.98,3.11,3.23,1.71
21.0870,0.09,0.12,-0.98,2.93,3.48,1.95
21.1020,0.07,0.12,-0.98,3.11,3.11,1.71
21.1190,0.09,0.12,-0.98,2.93,3.42,1.59
21.1350,0.09,0.12,-0.98,2.93,3.48,1.65
21.1510,0.08,0.12,-0.98,3.11,3.30,1.59
21.1660,0.08,0.12,-0.98,2.87,3.42,1.89
21.1690,0.09,0.12,-0.98,2.87,3.36,1.83
21.1860,0.08,0.12,-0.98,3.23,3.23,1.83
21.2030,0.09,0.12,-0.98,3.05,3.60,1.83
21.2190,0.10,0.12,-0.98,3.11,3.05,1.83
21.2400,0.09,0.12,-0.98,3.11,3.42,1.83
21.2560,0.09,0.12,-0.98,2.93,3.36,1.83
21.2740,0.09,0.12,-0.98,3.23,3.36,1.77
21.2900,0.09,0.12,-0.98,2.99,3.36,1.95
21.2910,0.09,0.12,-0.98,3.05,3.30,1.95
21.3210,0.09,0.12,-0.98,3.17,3.48,1.89
21.3380,0.09,0.12,-0.98,3.05,3.36,1.89
21.3530,0.08,0.12,-0.98,2.99,3.54,1.89
21.3680,0.08,0.12,-0.98,3.11,3.17,1.83
21.3720,0.09,0.12,-0.98,2.99,3.23,1.89
21.4000,0.09,0.12,-0.98,3.17,3.60,1.77
21.4110,0.08,0.12,-0.98,3.05,3.66,1.83
21.4270,0.08,0.12,-0.98,3.11,3.17,1.95
21.4440,0.08,0.12,-0.98,3.11,3.48,1.89
21.4610,0.08,0.12,-0.99,2.99,3.05,1.83
21.4770,0.08,0.12,-0.98,2.87,3.11,1.89
21.4920,0.08,0.12,-0.99,3.05,3.42,2.01
21.5080,0.08,0.12,-0.98,3.05,3.17,1.95
21.5240,0.09,0.12,-0.98,2.93,3.30,2.08
21.5280,0.09,0.12,-0.98,3.05,3.23,2.01
21.5430,0.09,0.12,-0.98,2.93,3.36,2.14
21.5690,0.09,0.12,-0.98,3.05,3.36,2.14
21.5830,0.08,0.12,-0.98,2.93,3.36,2.08
21.5990,0.09,0.12,-0.98,3.11,3.30,2.01
21.6160,0.09,0.12,-0.98,3.17,3.66,2.08
21.6330,0.09,0.12,-0.98,3.17,2.93,2.08
21.6490,0.09,0.12,-0.98,3.11,3.11,1.77
21.6650,0.09,0.12,-0.99,2.93,3.36,1.71
21.6810,0.08,0.12,-0.98,3.11,3.54,1.65
21.6960,0.08,0.12,-0.98,2.93,3.66,1.65
21.7130,0.08,0.12,-0.98,3.17,2.93,1.83
21.7290,0.09,0.12,-0.98,3.11,3.30,1.83
21.7440,0.09,0.12,-0.98,2.93,3.72,1.77
21.7590,0.09,0.12,-0.98,3.36,3.11,1.53
21.7740,0.09,0.12,-0.98,3.11,3.11,1.53
21.7890,0.08,0.12,-0.98,3.11,3.42,1.71
21.8010,0.08,0.12,-0.98,3.11,3.23,1.77
21.8170,0.08,0.12,-0.98,2.93,3.05,1.71
21.8330,0.09,0.12,-0.99,3.05,3.48,1.71
21.8500,0.08,0.12,-0.98,2.99,3.42,1.65
21.8670,0.09,0.12,-0.98,3.05,3.30,1.77
21.8830,0.09,0.12,-0.98,3.23,3.30,1.59
21.8980,0.09,0.12,-0.98,3.17,3.48,1.53
21.9150,0.09,0.12,-0.98,3.11,3.48,1.53
21.9310,0.09,0.12,-0.98,3.30,3.36,1.65
21.9470,0.08,0.12,-0.98,3.11,3.66,1.71
21.9620,0.09,0.12,-0.98,3.17,3.23,1.59
21.9790,0.08,0.12,-0.98,3.11,3.48,1.59
21.9830,0.08,0.12,-0.98,3.05,3.48,1.65
21.9980,0.09,0.12,-0.98,2.99,3.30,1.65
22.0210,0.09,0.12,-0.98,3.05,3.17,1.59
22.0380,0.09,0.12,-0.98,3.11,3.36,1.83
22.0540,0.08,0.12,-0.99,3.17,2.75,1.83
22.0710,0.08,0.12,-0.98,2.87,3.05,2.08
22.0870,0.08,0.12,-0.98,3.11,2.81,2.14
22.1030,0.08,0.12,-0.99,3.23,3.05,1.83
22.1190,0.08,0.12,-0.98,2.99,3.36,1.89
22.1350,0.09,0.12,-0.98,2.93,3.23,1.89
22.1380,0.09,0.12,-0.98,3.11,3.42,1.89
22.1540,0.09,0.12,-0.98,3.05,3.78,1.77
22.1770,0.09,0.12,-0.98,3.11,3.54,1.71
22.1940,0.09,0.12,-0.98,3.11,3.36,1.71
22.2110,0.08,0.12,-0.98,3.11,3.23,1.65
22.2260,0.09,0.12,-0.98,3.11,3.60,1.59
22.2420,0.09,0.12,-0.98,3.17,3.36,1.77
22.2590,0.08,0.12,-0.98,2.99,3.42,1.65
22.2750,0.08,0.12,-0.98,2.99,3.17,1.77
22.2910,0.08,0.12,-0.98,3.11,3.11,1.71
22.3060,0.08,0.12,-0.98,2.87,3.48,1.59
22.3220,0.10,0.12,-0.98,3.05,3.48,1.65
22.3370,0.10,0.12,-0.98,3.11,3.48,1.53
22.3520,0.09,0.12,-0.98,3.17,3.36,1.53
22.3610,0.09,0.12,-0.98,3.05,3.54,1.40
22.3770,0.08,0.12,-0.98,2.93,3.42,1.46
22.3990,0.08,0.12,-0.98,3.05,3.36,1.71
22.4150,0.08,0.12,-0.98,3.11,3.36,1.77
22.4310,0.09,0.12,-0.98,3.11,3.72,1.71
22.4470,0.08,0.12,-0.98,2.99,3.30,1.65
22.4500,0.09,0.12,-0.98,3.23,3.36,1.71
22.4690,0.09,0.12,-0.98,3.05,3.66,1.65
22.4890,0.09,0.12,-0.98,2.93,3.42,1.65
22.5070,0.09,0.12,-0.98,2.87,3.48,1.65
22.5230,0.09,0.12,-0.98,3.11,3.36,1.40
22.5390,0.09,0.12,-0.98,3.05,3.30,1.34
22.5540,0.08,0.12,-0.99,3.23,3.42,1.34
22.5710,0.09,0.12,-0.98,2.93,3.42,1.46
22.5870,0.09,0.12,-0.98,3.30,3.60,1.40
22.6030,0.09,0.12,-0.98,2.99,3.48,1.04
22.6190,0.08,0.12,-0.98,3.17,3.30,0.92
22.6230,0.08,0.12,-0.98,3.11,3.60,1.04
22.6390,0.07,0.12,-0.99,3.17,3.66,1.16
22.6620,0.08,0.12,-0.98,3.17,3.48,1.28
22.6790,0.09,0.12,-0.98,3.11,3.66,1.40
22.6950,0.08,0.12,-0.98,3.23,3.36,1.40
22.7120,0.09,0.12,-0.98,2.99,3.05,1.46
22.7280,0.09,0.12,-0.98,3.36,3.60,1.71
22.7440,0.09,0.12,-0.98,3.05,3.05,1.46
22.7590,0.09,0.12,-0.98,3.11,3.48,1.40
22.7750,0.08,0.12,-0.98,2.99,3.48,1.34
22.7910,0.08,0.12,-0.98,2.99,3.42,1.59
22.8070,0.10,0.11,-0.98,3.05,3.48,1.83
22.8230,0.08,0.12,-0.98,3.17,3.54,1.83
22.8390,0.08,0.12,-0.98,2.99,3.78,1.83
22.8550,0.09,0.12,-0.98,2.99,3.11,1.83
22.8700,0.09,0.12,-0.98,2.87,3.17,1.89
22.8850,0.09,0.12,-0.98,2.99,3.30,1.89
22.8950,0.09,0.12,-0.98,2.87,3.17,2.08
22.9120,0.09,0.12,-0.98,2.81,3.42,2.01
22.9280,0.09,0.12,-0.98,2.93,3.36,2.01
22.9460,0.09,0.12,-0.98,2.99,3.36,1.89
22.9610,0.09,0.12,-0.98,3.17,3.11,1.95
22.9790,0.09,0.12,-0.98,3.11,3.36,2.08
22.9940,0.09,0.12,-0.98,3.17,3.23,2.08
23.0090,0.09,0.12,-0.98,3.05,3.36,1.95
23.0240,0.09,0.12,-0.98,3.30,3.17,2.01
23.0390,0.09,0.12,-0.98,3.17,3.17,2.14
23.0540,0.09,0.12,-0.98,2.99,3.72,1.89
23.0680,0.09,0.12,-0.98,3.05,3.42,1.89
23.0790,0.09,0.12,-0.98,3.30,3.30,2.08
23.0950,0.09,0.12,-0.98,3.48,3.42,2.01
23.1150,0.09,0.12,-0.98,3.30,3.36,2.01
23.1300,0.09,0.12,-0.99,3.36,3.48,2.14
23.1350,0.09,0.12,-0.98,3.17,3.30,1.95
23.1500,0.09,0.12,-0.98,2.81,3.05,1.95
23.1750,0.09,0.12,-0.98,2.81,3.11,1.95
23.1910,0.09,0.12,-0.98,2.99,3.66,2.01
23.2070,0.09,0.12,-0.98,2.93,3.36,1.95
23.2230,0.09,0.12,-0.98,3.05,3.66,2.01
23.2390,0.09,0.12,-0.98,3.11,3.23,2.01
23.2550,0.09,0.12,-0.98,3.11,3.23,2.01
23.2710,0.09,0.12,-0.98,3.23,3.05,1.77
23.2880,0.09,0.12,-0.98,2.87,3.54,1.83
23.3050,0.09,0.12,-0.98,3.17,3.54,1.83
23.3210,0.09,0.12,-0.98,3.23,3.17,1.95
23.3370,0.09,0.12,-0.98,3.30,2.99,1.89
23.3530,0.09,0.12,-0.98,3.05,3.54,2.08
23.3690,0.09,0.12,-0.98,2.81,3.23,2.01
23.3840,0.09,0.12,-0.98,3.11,3.05,1.77
23.3910,0.09,0.12,-0.98,3.11,3.30,1.89
23.4090,0.09,0.12,-0.98,3.11,3.42,1.77
23.4250,0.09,0.12,-0.98,2.87,3.60,1.95
23.4460,0.09,0.12,-0.98,2.87,3.17,1.89
23.4630,0.09,0.12,-0.98,3.11,3.48,1.89
23.4780,0.09,0.12,-0.99,2.99,3.72,2.01
23.4940,0.09,0.12,-0.98,3.11,3.17,2.08
23.5090,0.09,0.12,-0.99,2.99,3.30,1.89
23.5240,0.09,0.12,-0.98,2.93,3.30,2.01
23.5400,0.09,0.12,-0.98,3.05,3.23,1.83
23.5560,0.09,0.12,-0.98,3.17,3.11,1.77
23.5700,0.09,0.12,-0.98,3.05,3.36,1.89
23.5790,0.09,0.12,-0.98,2.93,3.36,1.77
23.6020,0.09,0.12,-0.98,2.81,3.23,1.89
23.6020,0.09,0.12,-0.98,2.93,3.11,1.83
23.6200,0.09,0.12,-0.98,2.87,3.36,2.08
23.6360,0.09,0.12,-0.98,2.93,3.48,1.95
23.6520,0.09,0.12,-0.98,2.81,3.60,1.95
23.6800,0.08,0.12,-0.97,3.05,3.30,1.89
23.6970,0.09,0.12,-0.98,2.69,3.17,1.95
23.7120,0.09,0.12,-0.98,2.56,3.23,1.77
23.7200,0.09,0.12,-0.98,2.87,3.23,1.89
23.7360,0.08,0.12,-0.98,3.05,3.36,2.08
23.7590,0.09,0.12,-0.98,2.99,3.23,2.62
23.7740,0.09,0.12,-0.98,3.17,3.11,2.01
23.7910,0.09,0.12,-0.98,3.05,3.11,1.95
23.8060,0.09,0.12,-0.98,2.99,3.36,1.89
23.8220,0.09,0.12,-0.98,3.11,3.30,2.01
23.8390,0.09,0.12,-0.98,2.81,3.30,1.95
23.8550,0.09,0.12,-0.98,2.93,3.23,2.08
23.8710,0.09,0.12,-0.98,2.99,3.17,1.95
23.8870,0.09,0.12,-0.98,3.11,3.42,1.83
23.9030,0.09,0.12,-0.98,3.05,3.23,2.08
23.9100,0.09,0.12,-0.98,3.36,3.42,1.89
23.9250,0.09,0.12,-0.98,3.11,2.93,1.95
23.9480,0.09,0.12,-0.98,2.99,3.48,1.89
23.9650,0.09,0.12,-0.98,2.99,3.36,1.95
23.9810,0.09,0.12,-0.98,3.11,3.11,1.95
23.9970,0.09,0.12,-0.98,2.99,3.36,2.01
24.0130,0.09,0.12,-0.98,2.93,3.30,1.89
24.0290,0.09,0.12,-0.98,3.05,3.54,1.95
24.0440,0.09,0.12,-0.98,3.11,3.36,1.95
24.0590,0.09,0.12,-0.98,3.05,3.36,1.89
24.0710,0.09,0.12,-0.98,2.93,3.54,1.89
24.0810,0.09,0.12,-0.98,2.87,3.48,1.71
24.1040,0.09,0.12,-0.98,2.93,3.36,1.89
24.1210,0.09,0.12,-0.98,2.99,3.30,2.01
24.1380,0.09,0.12,-0.98,3.17,3.17,2.08
24.1530,0.09,0.12,-0.98,2.99,3.54,2.01
24.1690,0.09,0.12,-0.98,2.93,3.23,2.20
24.1870,0.09,0.12,-0.98,3.11,3.48,2.14
24.2020,0.09,0.12,-0.98,3.11,3.05,2.14
24.2170,0.09,0.12,-0.98,3.17,2.93,2.14
24.2220,0.09,0.11,-0.98,3.17,3.11,2.32
24.2370,0.09,0.12,-0.98,3.17,3.11,2.32
24.2620,0.08,0.12,-0.98,2.93,3.30,2.32
24.2780,0.09,0.12,-0.98,3.11,3.17,2.20
24.2950,0.09,0.12,-0.98,3.11,3.30,2.20
24.3110,0.09,0.12,-0.98,2.87,3.42,2.20
24.3270,0.09,0.12,-0.98,2.81,3.17,1.77
24.3420,0.09,0.12,-0.98,3.11,3.30,1.53
24.3450,0.09,0.12,-0.98,3.11,3.54,1.40
24.3710,0.09,0.12,-0.98,3.11,3.30,1.28
24.3890,0.09,0.12,-0.98,3.05,3.42,0.92
24.4000,0.09,0.12,-0.98,3.23,3.42,0.79
24.4170,0.09,0.12,-0.98,3.17,3.78,0.61
24.4320,0.08,0.12,-0.98,2.99,3.17,0.79
24.4480,0.08,0.12,-0.98,3.11,3.11,1.10
24.4580,0.09,0.12,-0.98,3.23,3.11,1.71
24.4740,0.09,0.11,-0.98,2.99,3.23,1.71
24.4910,0.09,0.11,-0.99,3.11,3.30,1.34
24.5090,0.08,0.12,-0.98,3.05,3.72,0.61
24.5250,0.08,0.13,-0.98,3.11,3.30,1.16
24.5400,0.08,0.13,-0.98,3.11,3.60,1.65
24.5570,0.09,0.12,-0.98,3.17,2.87,1.89
24.5730,0.09,0.11,-0.98,3.05,3.54,1.71
24.5890,0.09,0.12,-0.98,3.11,3.36,1.34
24.6050,0.09,0.12,-0.98,3.05,3.36,1.34
24.6210,0.08,0.12,-0.98,2.87,3.48,1.77
24.6370,0.09,0.12,-0.98,2.93,3.36,2.01
24.6520,0.09,0.12,-0.98,2.87,3.36,1.83
24.6690,0.09,0.12,-0.98,3.11,3.42,1.89
24.6750,0.09,0.12,-0.98,3.05,3.23,1.83
24.6900,0.09,0.11,-0.98,2.93,3.42,1.34
24.7140,0.09,0.12,-0.98,3.17,3.48,0.92
24.7290,0.09,0.12,-0.98,3.30,3.30,0.37
24.7450,0.09,0.12,-0.98,3.30,3.72,0.37
24.7600,0.09,0.12,-0.98,3.30,3.66,0.43
24.7760,0.09,0.12,-0.98,3.17,3.48,0.67
24.7910,0.09,0.12,-0.98,3.11,3.23,1.46
24.8070,0.09,0.12,-0.98,3.11,3.30,1.22
24.8230,0.09,0.13,-0.98,2.99,3.66,1.16
24.8390,0.09,0.12,-0.98,3.05,3.66,1.40
24.8540,0.08,0.12,-0.98,2.99,3.72,1.71
24.8640,0.09,0.12,-0.98,2.87,3.42,2.14
24.8800,0.09,0.11,-0.98,3.11,3.60,1.59
24.8960,0.09,0.12,-0.98,3.17,3.42,0.92
24.9130,0.09,0.12,-0.98,3.30,3.42,0.67
24.9150,0.09,0.12,-0.98,3.54,2.99,0.55
24.9440,0.09,0.12,-0.98,3.17,3.36,0.73
24.9600,0.09,0.12,-0.98,3.05,3.48,1.04
24.9740,0.09,0.12,-0.98,3.05,3.48,1.04
24.9910,0.09,0.12,-0.98,3.11,3.66,0.79
25.0060,0.09,0.11,-0.99,2.99,3.66,1.10
25.0230,0.09,0.11,-0.98,2.99,3.36,0.67
25.0390,0.08,0.12,-0.98,3.17,3.17,0.24
25.0540,0.09,0.12,-0.98,3.42,3.78,0.06
25.0640,0.09,0.12,-0.98,3.23,3.66,-0.43
25.0790,0.09,0.12,-0.98,3.23,3.48,-0.06
25.1010,0.09,0.13,-0.98,2.93,3.42,1.04
25.1170,0.09,0.12,-0.98,2.99,3.36,1.65
25.1320,0.09,0.12,-0.98,3.11,3.23,1.34
25.1380,0.09,0.11,-0.98,3.05,3.60,0.98
25.1540,0.08,0.11,-0.98,3.17,3.78,0.49
25.1720,0.08,0.11,-0.98,3.11,3.60,-0.06
25.1870,0.08,0.12,-0.98,3.17,3.60,0.00
25.2050,0.08,0.12,-0.98,3.30,3.42,1.10
25.2210,0.08,0.12,-0.98,2.93,3.23,1.28
25.2390,0.08,0.12,-0.98,3.05,3.30,0.92
25.2410,0.09,0.13,-0.98,3.11,3.66,0.85
25.2710,0.09,0.12,-0.98,2.99,3.54,0.73
25.2760,0.09,0.13,-0.98,3.17,3.36,0.79
25.3040,0.09,0.12,-0.98,2.99,3.78,0.98
25.3190,0.09,0.12,-0.98,2.99,3.60,1.22
25.3350,0.08,0.12,-0.98,3.11,3.36,1.46
25.3510,0.08,0.12,-0.98,3.17,3.42,1.40
25.3600,0.09,0.12,-0.98,3.17,3.42,1.34
25.3750,0.09,0.12,-0.98,3.17,3.36,1.04
25.3990,0.09,0.11,-0.98,3.36,3.42,0.43
25.4140,0.09,0.12,-0.98,3.36,3.78,-1.04
25.4290,0.09,0.12,-0.98,3.36,3.78,-1.04
25.4450,0.09,0.12,-0.98,3.23,4.03,-0.85
25.4490,0.09,0.12,-0.98,3.30,3.60,0.06
25.4720,0.09,0.12,-0.98,3.23,3.36,0.55
25.4880,0.09,0.12,-0.98,3.17,3.48,1.53
25.5060,0.09,0.11,-0.98,3.11,3.42,2.26
25.5220,0.09,0.11,-0.98,3.17,3.48,2.01
25.5370,0.09,0.11,-0.98,3.17,3.48,0.18
25.5540,0.09,0.12,-0.98,3.23,3.78,-0.98
25.5680,0.09,0.13,-0.98,3.17,4.03,-0.67
25.5840,0.09,0.12,-0.98,3.17,3.60,0.18
25.5880,0.09,0.12,-0.98,3.11,3.60,0.43
25.6140,0.09,0.12,-0.98,3.11,3.54,0.24
25.6210,0.08,0.12,-0.98,3.17,3.42,-0.43
25.6370,0.08,0.11,-0.98,3.23,3.97,-0.49
25.6590,0.09,0.11,-0.99,3.36,4.09,-0.61
25.6750,0.09,0.13,-0.98,3.48,3.54,-0.98
25.6920,0.09,0.13,-0.98,3.42,3.85,-0.37
25.6930,0.09,0.12,-0.98,3.30,3.78,0.73
25.7230,0.08,0.11,-0.98,3.17,3.66,1.16
25.7390,0.08,0.11,-0.98,3.05,3.72,0.49
25.7550,0.08,0.11,-0.98,3.36,3.91,-0.55
25.7710,0.09,0.12,-0.98,3.36,3.91,-0.92
25.7880,0.09,0.12,-0.98,3.48,3.91,-0.98
25.8030,0.09,0.12,-0.98,3.66,3.78,-1.28
25.8180,0.09,0.12,-0.98,3.48,3.85,-1.40
25.8330,0.09,0.12,-0.98,3.30,3.60,-0.67
25.8470,0.08,0.11,-0.99,3.30,3.72,0.00
25.8590,0.08,0.11,-0.98,3.42,3.48,-0.06
25.8760,0.08,0.11,-0.99,3.30,3.60,-0.31
25.8920,0.09,0.11,-0.98,3.36,3.72,-1.34
25.9080,0.09,0.12,-0.98,3.42,3.97,-2.26
25.9100,0.09,0.13,-0.98,3.23,3.91,-1.83
25.9380,0.09,0.12,-0.98,3.23,3.91,-1.40
25.9540,0.08,0.12,-0.98,3.17,3.66,-1.22
25.9680,0.09,0.12,-0.98,3.30,3.78,-0.61
25.9840,0.09,0.12,-0.98,3.17,3.60,-0.06
25.9980,0.09,0.12,-0.98,3.42,3.60,0.00
26.0140,0.09,0.13,-0.98,3.23,3.66,0.06
26.0260,0.09,0.12,-0.98,3.23,3.66,0.12
26.0420,0.09,0.12,-0.98,3.11,3.54,0.67
26.0590,0.09,0.11,-0.99,3.17,3.66,0.49
26.0740,0.08,0.11,-0.98,3.11,3.60,0.24
26.0770,0.08,0.12,-0.98,3.05,3.85,0.49
26.1050,0.09,0.12,-0.98,2.99,3.48,0.49
26.1210,0.09,0.12,-0.98,3.11,3.42,0.24
26.1370,0.09,0.12,-0.98,3.30,3.48,0.55
26.1540,0.09,0.12,-0.98,3.17,3.42,0.18
26.1690,0.09,0.12,-0.98,3.30,3.54,0.49
26.1840,0.09,0.13,-0.98,3.11,3.48,1.28
26.1990,0.09,0.13,-0.98,3.17,3.30,1.40
26.2090,0.09,0.12,-0.98,2.87,3.66,1.59
26.2250,0.09,0.11,-0.98,3.11,3.42,1.28
26.2420,0.09,0.12,-0.98,2.99,3.54,0.85
26.2590,0.09,0.12,-0.98,3.11,3.54,0.55
26.2740,0.09,0.13,-0.98,2.99,3.17,0.73
26.2930,0.09,0.12,-0.98,3.05,3.66,1.28
26.3080,0.08,0.12,-0.98,3.05,3.48,1.28
26.3230,0.09,0.11,-0.98,3.11,3.66,1.10
26.3390,0.09,0.12,-0.98,3.11,3.48,0.31
26.3430,0.09,0.12,-0.98,3.17,3.72,0.06
26.3580,0.09,0.11,-0.98,3.23,3.72,0.12
26.3810,0.08,0.11,-0.98,3.11,3.78,0.18
26.3980,0.08,0.11,-0.98,3.30,3.78,0.12
26.4150,0.08,0.12,-0.98,3.11,3.91,-0.31
26.4310,0.09,0.12,-0.98,3.11,3.78,-0.49
26.4320,0.09,0.13,-0.98,3.30,3.60,0.00
26.4620,0.09,0.12,-0.98,3.23,3.72,0.49
26.4770,0.09,0.12,-0.98,3.36,3.78,0.49
26.4920,0.09,0.12,-0.98,3.17,3.36,0.31
26.4980,0.09,0.11,-0.98,3.17,3.60,0.18
26.5140,0.09,0.12,-0.98,3.23,3.66,0.00
26.5380,0.08,0.12,-0.98,3.30,3.85,0.06
26.5530,0.09,0.11,-0.99,3.17,3.42,0.31
26.5550,0.08,0.11,-0.98,3.11,3.78,-0.55
26.5730,0.09,0.12,-0.98,3.23,3.91,-1.10
26.5990,0.09,0.13,-0.98,3.30,3.85,-0.37
26.6150,0.09,0.12,-0.98,3.11,4.03,0.31
26.6210,0.09,0.11,-0.98,3.30,3.91,-0.06
26.6360,0.08,0.12,-0.98,3.42,3.30,-0.31
26.6600,0.09,0.12,-0.99,3.30,3.78,-0.18
26.6750,0.09,0.11,-0.99,3.23,3.48,-0.24
26.6910,0.08,0.12,-0.98,3.36,3.42,-0.85
26.7050,0.08,0.13,-0.98,3.30,3.60,-0.67
26.7120,0.09,0.12,-0.98,3.30,3.78,-0.49
26.7270,0.09,0.13,-0.98,2.99,4.03,-0.18
26.7480,0.09,0.12,-0.98,3.23,3.42,0.43
26.7650,0.09,0.12,-0.98,3.17,3.54,0.31
26.7810,0.09,0.12,-0.98,3.17,3.66,0.06
26.7960,0.09,0.11,-0.98,3.30,3.48,0.00
26.8130,0.09,0.11,-0.98,3.05,3.97,-0.49
26.8280,0.09,0.12,-0.98,2.99,3.72,-0.43
26.8420,0.09,0.12,-0.98,3.11,3.91,-0.55
26.8580,0.09,0.13,-0.98,3.11,3.66,-0.73
26.8730,0.09,0.13,-0.98,3.30,3.97,-0.24
26.8880,0.09,0.13,-0.98,3.11,3.54,0.18
26.9000,0.09,0.12,-0.98,3.11,3.72,1.10
26.9160,0.09,0.12,-0.98,3.05,3.54,1.16
26.9330,0.09,0.12,-0.98,3.48,3.60,0.61
26.9490,0.09,0.12,-0.98,3.11,3.78,0.37
26.9650,0.08,0.12,-0.98,3.17,3.60,0.49
26.9820,0.09,0.12,-0.98,3.05,3.54,0.79
26.9980,0.09,0.12,-0.98,3.05,3.66,0.98
27.0140,0.09,0.12,-0.98,3.05,3.60,0.92
27.0310,0.09,0.12,-0.98,3.17,3.54,0.37
27.0470,0.09,0.12,-0.98,2.99,3.85,0.31
27.0620,0.09,0.12,-0.98,3.30,3.30,0.67
27.0770,0.09,0.12,-0.98,3.11,3.42,0.67
27.0920,0.09,0.12,-0.98,3.05,3.85,0.55
27.1090,0.09,0.12,-0.98,3.23,3.78,0.61
27.1230,0.09,0.12,-0.98,2.99,3.85,0.49
27.1320,0.09,0.12,-0.98,3.11,3.48,0.49
27.1480,0.09,0.11,-0.99,3.30,3.78,0.49
27.1690,0.09,0.11,-0.99,3.23,3.30,-0.12
27.1730,0.08,0.11,-0.98,3.23,3.30,-0.37
27.2010,0.09,0.11,-0.98,3.11,3.97,-0.67
27.2060,0.09,0.12,-0.98,3.23,3.85,-1.53
27.2320,0.09,0.13,-0.99,3.30,3.85,-1.83
27.2400,0.08,0.12,-0.98,3.30,3.60,-1.16
27.2560,0.09,0.11,-0.98,3.48,3.66,-0.98
27.2730,0.09,0.12,-0.98,3.36,4.15,-1.89
27.2890,0.09,0.12,-0.98,3.36,3.97,-1.83
27.3080,0.09,0.13,-0.98,3.66,3.97,-1.40
27.3220,0.09,0.12,-0.98,3.30,3.91,-0.98
27.3380,0.09,0.12,-0.98,3.30,3.78,-0.55
27.3390,0.08,0.11,-0.98,3.30,3.78,-0.37
27.3700,0.08,0.11,-0.98,3.30,3.54,-0.98
27.3860,0.09,0.13,-0.98,3.54,3.48,-1.04
27.3890,0.09,0.12,-0.98,3.36,3.60,-0.24
27.4050,0.09,0.12,-0.98,3.05,3.85,-0.24
27.4280,0.09,0.11,-0.98,2.93,3.72,-0.24
27.4450,0.09,0.10,-0.99,3.48,3.91,-1.65
27.4620,0.09,0.12,-0.98,3.30,3.91,-2.93
27.4770,0.08,0.12,-0.98,3.42,4.09,-2.75
27.4930,0.09,0.13,-0.98,3.48,3.91,-1.46
27.5090,0.09,0.12,-0.98,3.23,3.66,-0.98
27.5240,0.09,0.13,-0.98,3.36,3.72,-1.65
27.5300,0.09,0.13,-0.98,3.36,3.66,-0.85
27.5450,0.09,0.12,-0.98,3.23,3.78,-0.12
27.5700,0.09,0.13,-0.98,3.17,3.91,-0.06
27.5850,0.09,0.13,-0.98,3.23,3.66,0.55
27.6020,0.08,0.13,-0.98,2.99,3.72,0.98
27.6190,0.09,0.12,-0.98,2.87,3.78,1.40
27.6350,0.09,0.12,-0.98,3.11,3.54,1.34
27.6360,0.09,0.11,-0.99,3.23,3.48,0.79
27.6540,0.09,0.11,-0.99,3.30,3.72,-0.37
27.6720,0.09,0.12,-0.98,3.17,3.97,-1.10
27.6850,0.09,0.12,-0.98,3.36,3.91,-1.04
27.7150,0.09,0.12,-0.98,3.23,3.72,-0.73
27.7190,0.09,0.11,-0.98,3.23,3.78,-0.73
27.7360,0.08,0.13,-0.98,3.23,3.78,-0.67
27.7520,0.09,0.11,-0.98,3.30,3.78,-0.49
27.7770,0.09,0.12,-0.99,3.36,4.03,-1.77
27.7870,0.09,0.11,-0.98,3.23,3.97,-1.83
27.8020,0.09,0.12,-0.98,3.36,4.33,-2.08
27.8200,0.08,0.13,-0.98,3.23,4.15,-1.95
27.8360,0.09,0.13,-0.98,3.23,3.85,-1.10
27.8530,0.08,0.12,-0.98,3.23,3.60,-0.67
27.8690,0.09,0.12,-0.98,3.11,3.60,-0.12
27.8850,0.08,0.12,-0.99,3.17,3.85,-0.24
27.8860,0.09,0.13,-0.98,3.11,3.91,0.31
27.9030,0.09,0.12,-0.98,3.36,3.78,0.12
27.9190,0.09,0.12,-0.98,3.42,3.85,-0.12
27.9360,0.08,0.12,-0.98,3.17,3.78,-0.92
27.9530,0.09,0.13,-0.98,3.17,3.48,0.00
27.9730,0.09,0.11,-0.99,3.30,3.91,0.49
27.9850,0.09,0.11,-0.98,3.23,3.36,0.18
28.0010,0.09,0.11,-0.99,3.36,3.78,-0.79
28.0230,0.08,0.11,-0.98,3.48,3.72,-1.22
28.0390,0.08,0.12,-0.98,3.36,3.85,-1.04
28.0540,0.09,0.12,-0.98,3.30,3.66,-0.31
28.0710,0.09,0.12,-0.98,3.11,3.85,-0.37
28.0740,0.09,0.10,-0.99,3.36,3.60,-1.34
28.1030,0.08,0.11,-0.99,3.36,3.97,-2.62
28.1060,0.08,0.11,-0.98,3.23,4.27,-2.26
28.1340,0.08,0.12,-0.98,3.30,4.03,-2.56
28.1510,0.08,0.13,-0.98,3.36,3.91,-2.50
28.1660,0.09,0.13,-0.98,3.36,3.85,-1.59
28.1830,0.09,0.13,-0.98,2.99,3.97,-0.37
28.1980,0.09,0.12,-0.98,3.23,3.60,0.12
28.2130,0.09,0.11,-0.98,2.75,3.54,0.24
28.2230,0.08,0.11,-0.98,2.99,3.72,-0.24
28.2390,0.08,0.12,-0.98,3.17,3.97,-0.37
28.2560,0.09,0.12,-0.98,3.42,3.36,0.31
28.2740,0.09,0.13,-0.98,3.23,4.09,0.37
28.2890,0.09,0.12,-0.98,3.05,3.66,0.49
28.3060,0.09,0.13,-0.98,3.30,3.85,0.61
28.3070,0.09,0.11,-0.99,3.23,3.85,0.73
28.3380,0.09,0.11,-0.98,3.30,3.36,-0.06
28.3400,0.09,0.11,-0.98,3.11,3.91,-0.43
28.3560,0.09,0.11,-0.99,3.23,4.03,-0.73
28.3860,0.08,0.12,-0.98,3.05,4.09,-1.40
28.4030,0.08,0.13,-0.98,3.05,4.21,-0.67
28.4070,0.08,0.13,-0.98,3.17,3.54,0.37
28.4340,0.08,0.12,-0.98,3.05,3.72,1.04
28.4400,0.08,0.11,-0.99,3.11,3.30,0.67
28.4550,0.09,0.10,-0.99,3.17,3.60,-0.43
28.4780,0.09,0.10,-0.99,3.36,3.78,-1.34
28.4960,0.09,0.12,-0.98,2.93,3.85,-1.71
28.5110,0.09,0.12,-0.99,3.23,3.97,-1.65
28.5280,0.09,0.12,-0.98,2.93,3.91,-0.92
28.5430,0.08,0.13,-0.98,2.81,3.91,-0.18
28.5580,0.08,0.12,-0.98,3.17,3.97,0.31
28.5740,0.08,0.12,-0.98,3.30,3.66,-0.24
28.5880,0.09,0.11,-0.99,3.17,3.72,-0.55
28.6050,0.09,0.11,-0.98,3.23,3.85,-0.85
28.6210,0.09,0.12,-0.98,3.17,3.66,-1.04
28.6370,0.09,0.12,-0.98,3.54,3.23,-0.73
28.6530,0.09,0.11,-0.99,3.42,3.85,-0.67
28.6670,0.09,0.11,-0.98,2.81,3.97,-0.85
28.6780,0.09,0.10,-0.99,2.87,4.21,-1.28
28.6950,0.08,0.11,-0.98,2.99,3.97,-1.40
28.7110,0.08,0.12,-0.98,3.23,3.72,-1.16
28.7280,0.09,0.13,-0.98,3.36,3.97,-1.10
28.7430,0.09,0.12,-0.98,3.23,3.91,-0.73
28.7590,0.09,0.13,-0.98,3.23,3.42,-0.61
28.7730,0.09,0.13,-0.98,3.11,3.85,0.12
28.7910,0.09,0.11,-0.98,3.17,3.54,0.73
28.8070,0.08,0.11,-0.98,3.05,3.72,0.00
28.8220,0.08,0.11,-0.99,3.05,3.54,-0.43
28.8380,0.09,0.11,-0.98,2.99,3.72,-1.83
28.8530,0.08,0.13,-0.98,3.30,4.09,-2.08
28.8680,0.09,0.13,-0.98,3.60,3.66,-0.67
28.8780,0.09,0.12,-0.98,3.66,3.60,-0.24
28.8950,0.08,0.13,-0.98,3.17,3.78,-0.12
28.9120,0.09,0.12,-0.98,2.93,3.60,0.43
28.9280,0.09,0.11,-0.99,3.17,3.78,-0.31
28.9290,0.08,0.12,-0.98,3.36,3.78,-0.49
28.9580,0.08,0.12,-0.98,3.23,3.42,-0.06
28.9610,0.09,0.13,-0.98,3.23,3.48,0.55
28.9770,0.09,0.12,-0.98,3.36,3.23,0.49
28.9990,0.09,0.12,-0.98,3.30,3.60,0.43
29.0160,0.09,0.12,-0.99,3.23,3.72,0.61
29.0320,0.08,0.11,-0.99,3.30,3.54,0.06
29.0480,0.09,0.12,-0.98,3.30,3.66,-0.06
29.0660,0.09,0.11,-0.99,3.60,4.03,-0.24
29.0820,0.09,0.12,-0.98,3.23,3.48,-0.92
29.0980,0.08,0.12,-0.98,3.23,3.66,-0.67
29.1140,0.09,0.11,-0.99,3.36,3.85,-0.79
29.1310,0.08,0.10,-0.99,3.17,4.09,-1.83
29.1460,0.08,0.11,-0.98,3.11,4.15,-2.44
29.1620,0.09,0.12,-0.98,3.30,4.33,-2.26
29.1780,0.08,0.13,-0.98,3.48,3.72,-2.26
29.1930,0.09,0.13,-0.98,3.48,4.03,-0.67
29.2080,0.09,0.12,-0.98,3.30,4.03,-0.06
29.2240,0.09,0.12,-0.98,2.87,3.78,0.31
29.2390,0.09,0.10,-0.99,3.30,3.78,-0.31
29.2550,0.09,0.11,-0.98,3.05,4.09,-1.46
29.2660,0.09,0.12,-0.99,3.30,4.21,-1.16
29.2820,0.08,0.13,-0.98,3.30,3.78,-1.16
29.2990,0.09,0.12,-0.99,3.23,4.21,-0.24
29.3150,0.08,0.12,-0.99,2.99,4.27,-0.43
29.3320,0.08,0.13,-0.98,2.81,4.09,-0.31
29.3490,0.08,0.11,-0.99,3.48,3.72,-0.18
29.3650,0.09,0.12,-0.98,3.36,4.15,-0.24
29.3810,0.09,0.12,-0.99,3.30,4.09,-0.37
29.3970,0.09,0.13,-0.98,3.11,3.91,-0.73
29.4130,0.09,0.13,-0.98,3.66,3.78,0.12
29.4280,0.09,0.12,-0.98,3.91,3.48,1.65
29.4420,0.09,0.11,-0.98,4.21,3.30,1.83
29.4590,0.08,0.12,-0.99,3.30,3.78,0.61
29.4740,0.09,0.12,-0.98,3.30,3.78,0.79
29.4890,0.09,0.12,-0.98,3.42,3.78,1.10
29.5000,0.09,0.13,-0.98,3.23,3.60,1.59
29.5150,0.10,0.13,-0.95,3.42,3.42,1.89
29.5370,0.09,0.12,-0.98,3.36,3.48,1.40
29.5530,0.08,0.12,-0.98,3.60,3.72,1.89
29.5560,0.09,0.12,-0.98,3.17,3.54,1.95
29.5760,0.09,0.12,-0.98,3.11,3.42,2.01
29.5960,0.09,0.12,-0.98,2.99,3.36,1.95
29.6120,0.09,0.12,-0.98,2.99,3.54,1.89
29.6290,0.09,0.12,-0.98,2.93,3.60,1.95
29.6450,0.09,0.12,-0.98,3.23,3.42,1.95
29.6620,0.09,0.12,-0.98,2.99,3.23,2.01
29.6780,0.09,0.12,-0.98,2.93,3.42,2.08
29.6930,0.09,0.12,-0.98,3.17,3.30,1.89
29.7080,0.09,0.13,-0.97,3.30,3.72,1.95
29.7120,0.09,0.12,-0.98,2.87,3.36,1.95
29.7270,0.09,0.12,-0.98,2.93,3.30,1.83
29.7510,0.09,0.12,-0.98,3.11,3.42,2.01
29.7690,0.09,0.12,-0.98,3.17,3.54,2.01
29.7850,0.09,0.12,-0.98,3.05,3.30,1.89
29.8010,0.09,0.12,-0.98,3.05,3.17,1.89
29.8020,0.09,0.12,-0.98,3.23,3.42,2.01
29.8180,0.09,0.12,-0.98,3.05,3.17,2.01
29.8490,0.09,0.12,-0.98,3.11,3.72,1.89
29.8510,0.09,0.12,-0.98,2.99,3.48,2.01
29.8760,0.09,0.12,-0.98,3.11,3.30,1.83
29.8840,0.09,0.12,-0.98,3.05,3.23,2.01
29.9060,0.09,0.12,-0.98,2.99,3.36,1.95
29.9230,0.08,0.12,-0.98,2.99,3.48,2.01
29.9400,0.09,0.12,-0.98,2.93,3.72,1.95
29.9560,0.09,0.12,-0.98,2.93,3.48,1.95
29.9720,0.09,0.12,-0.98,3.05,3.17,2.01
29.9880,0.09,0.12,-0.98,3.17,3.54,2.08
30.0040,0.09,0.12,-0.98,3.17,3.23,2.01
30.0210,0.09,0.12,-0.98,3.23,3.42,2.01
30.0240,0.09,0.12,-0.98,3.05,3.60,2.01
30.0530,0.08,0.12,-0.98,3.17,3.23,2.01
30.0680,0.09,0.12,-0.98,3.17,3.48,1.95
30.0830,0.09,0.12,-0.98,2.87,3.66,2.14
30.0970,0.09,0.12,-0.98,2.93,3.66,2.14
30.1060,0.09,0.12,-0.98,2.93,3.23,2.08
30.1220,0.09,0.12,-0.98,3.05,3.30,2.14
30.1430,0.09,0.11,-0.97,2.75,3.60,2.20
30.1570,0.09,0.12,-0.99,2.93,3.54,2.56
30.1610,0.09,0.12,-0.98,2.99,3.48,2.20
30.1770,0.09,0.12,-0.98,2.99,3.36,2.01
30.2000,0.09,0.12,-0.98,3.05,3.30,1.95
30.2160,0.09,0.12,-0.98,3.11,3.42,1.95
30.2330,0.09,0.12,-0.98,2.99,3.66,2.14
30.2500,0.09,0.12,-0.98,3.11,3.72,2.01
30.2660,0.09,0.12,-0.98,2.99,3.60,1.89
30.2810,0.09,0.12,-0.98,3.17,3.54,1.95
30.2990,0.09,0.12,-0.98,3.05,3.78,2.01
30.3140,0.09,0.12,-0.98,3.11,3.05,2.14
30.3160,0.09,0.12,-0.98,2.93,3.54,2.08
30.3440,0.09,0.12,-0.98,2.81,3.48,2.14
30.3500,0.09,0.12,-0.98,3.17,3.91,2.01
30.3670,0.09,0.12,-0.98,2.93,3.42,2.20
30.3830,0.09,0.12,-0.98,2.93,3.48,2.14
30.3990,0.09,0.12,-0.98,3.05,3.30,2.08
30.4210,0.09,0.12,-0.98,3.11,3.66,2.14
30.4360,0.08,0.12,-0.98,2.99,3.36,2.20
30.4540,0.06,0.12,-0.98,3.17,3.60,2.08
30.4690,0.09,0.12,-0.98,3.11,3.60,0.92
30.4860,0.09,0.12,-0.98,3.17,3.72,1.22
30.5020,0.09,0.12,-0.98,3.11,3.78,1.22
30.5190,0.08,0.12,-0.98,3.11,3.72,1.59
30.5200,0.08,0.12,-0.98,3.17,3.78,1.40
30.5490,0.08,0.12,-0.98,3.17,3.36,1.40
30.5540,0.08,0.12,-0.98,3.17,3.66,1.34
30.5830,0.08,0.12,-0.98,3.30,3.97,1.34
30.5870,0.08,0.12,-0.98,3.05,3.66,1.59
30.6140,0.08,0.12,-0.98,3.17,3.97,1.77
30.6200,0.08,0.12,-0.98,3.54,3.78,1.83
30.6370,0.08,0.12,-0.98,3.11,3.72,1.71
30.6530,0.09,0.12,-0.98,3.17,3.78,2.01
30.6710,0.09,0.12,-0.98,3.36,3.66,1.89
30.6860,0.09,0.12,-0.98,2.99,3.85,2.32
30.7030,0.09,0.12,-0.98,3.11,3.54,2.62
30.7200,0.09,0.12,-0.98,2.99,3.36,2.38
30.7370,0.09,0.12,-0.98,2.93,3.42,2.20
30.7530,0.08,0.12,-0.98,3.05,3.42,2.32
30.7540,0.08,0.12,-0.98,3.05,3.42,2.44
30.7850,0.08,0.12,-0.99,3.17,3.36,2.56
30.8010,0.08,0.12,-0.98,2.81,3.48,2.93
30.8030,0.08,0.12,-0.98,2.99,3.42,3.05
30.8210,0.09,0.12,-0.98,2.62,3.54,2.93
30.8470,0.09,0.12,-0.98,3.05,3.60,2.93
30.8540,0.08,0.12,-0.98,2.93,3.48,2.75
30.8710,0.08,0.12,-0.98,2.81,3.30,2.81
30.8870,0.09,0.12,-0.98,2.99,3.78,2.81
30.9040,0.09,0.12,-0.98,3.05,3.42,2.75
30.9190,0.09,0.12,-0.98,3.11,3.30,2.93
30.9380,0.08,0.12,-0.98,3.17,3.72,2.87
30.9540,0.09,0.12,-0.98,3.23,3.48,2.75
30.9690,0.08,0.12,-0.98,3.11,3.42,2.62
30.9850,0.09,0.12,-0.98,2.75,3.60,2.38
31.0010,0.09,0.12,-0.98,2.99,3.54,2.32
31.0100,0.08,0.12,-0.98,2.81,3.30,2.50
31.0310,0.09,0.12,-0.98,3.11,3.60,2.50
31.0430,0.09,0.12,-0.98,2.99,3.36,2.44
31.0600,0.09,0.12,-0.98,2.99,3.54,2.62
31.0750,0.09,0.12,-0.98,3.17,3.23,2.44
31.0910,0.09,0.12,-0.98,2.99,3.60,2.38
31.1070,0.08,0.12,-0.98,2.81,3.54,2.56
31.1230,0.09,0.12,-0.98,2.81,3.48,2.44
31.1380,0.09,0.12,-0.98,3.05,3.42,2.38
31.1430,0.08,0.12,-0.98,2.87,3.85,2.50
31.1580,0.08,0.12,-0.98,3.05,3.48,2.44
31.1830,0.08,0.12,-0.98,2.93,3.36,2.50
31.1990,0.08,0.12,-0.98,2.99,3.36,2.75
31.2150,0.08,0.12,-0.98,2.99,3.17,2.75
31.2310,0.08,0.12,-0.98,2.87,3.36,2.93
31.2470,0.08,0.12,-0.98,2.93,3.48,3.05
31.2630,0.08,0.12,-0.98,2.93,3.23,3.05
31.2770,0.09,0.12,-0.98,2.75,3.36,3.36
31.2930,0.09,0.12,-0.98,2.99,3.36,3.05
31.3080,0.10,0.12,-0.98,3.11,2.99,2.81
31.3170,0.09,0.12,-0.98,3.05,3.60,2.62
31.3340,0.09,0.12,-0.98,2.87,3.30,2.38
31.3500,0.09,0.12,-0.98,3.11,3.42,2.38
31.3670,0.08,0.12,-0.98,3.05,3.36,2.20
31.3840,0.08,0.12,-0.98,2.87,4.03,2.38
31.4000,0.09,0.12,-0.98,3.05,3.23,2.44
31.4160,0.08,0.12,-0.98,3.05,3.30,2.14
31.4330,0.09,0.12,-0.98,2.93,3.42,2.20
31.4490,0.08,0.12,-0.98,2.99,3.23,2.38
31.4650,0.08,0.12,-0.98,3.05,3.78,2.32
31.4810,0.08,0.12,-0.98,3.05,3.36,2.44
31.4970,0.08,0.12,-0.98,2.99,3.72,2.32
31.5120,0.08,0.12,-0.98,2.99,3.60,2.44
31.5260,0.09,0.12,-0.98,2.81,3.30,2.62
31.5420,0.09,0.12,-0.98,2.99,3.30,2.62
31.5500,0.08,0.12,-0.98,3.05,3.42,2.56
31.5670,0.09,0.12,-0.98,3.17,3.54,2.69
31.5820,0.08,0.12,-0.98,2.93,3.30,2.62
31.6040,0.08,0.12,-0.98,2.99,3.48,2.69
31.6200,0.09,0.12,-0.98,2.87,3.72,2.75
31.6350,0.08,0.12,-0.98,2.93,3.05,2.62
31.6390,0.08,0.12,-0.98,3.05,3.23,2.56
31.6540,0.08,0.12,-0.98,3.11,2.99,2.62
31.6790,0.08,0.12,-0.98,2.99,3.85,2.75
31.6940,0.08,0.12,-0.98,2.81,3.66,2.81
31.7110,0.08,0.12,-0.98,3.05,3.30,2.93
31.7280,0.08,0.12,-0.98,3.05,3.48,3.05
31.7290,0.08,0.12,-0.98,3.05,3.42,2.99
31.7580,0.08,0.12,-0.98,2.99,3.36,2.99
31.7740,0.08,0.12,-0.98,3.05,3.23,3.05
31.7900,0.08,0.12,-0.98,3.05,3.42,3.23
31.8060,0.08,0.12,-0.98,3.11,3.30,3.05
31.8210,0.09,0.12,-0.98,3.05,3.05,3.05
31.8360,0.08,0.12,-0.98,2.99,3.48,2.99
31.8520,0.09,0.12,-0.98,2.93,3.66,2.93
31.8670,0.08,0.12,-0.98,2.93,3.42,3.05
31.8790,0.09,0.12,-0.98,3.17,3.30,2.99
31.8930,0.08,0.12,-0.98,2.87,3.30,3.05
31.9120,0.08,0.12,-0.98,2.99,3.30,2.81
31.9280,0.08,0.12,-0.99,2.93,3.36,2.81
31.9420,0.09,0.12,-0.98,3.17,3.54,2.69
31.9500,0.09,0.12,-0.98,3.05,3.60,2.50
31.9670,0.09,0.12,-0.98,3.05,3.66,2.56
31.9840,0.09,0.12,-0.98,2.87,3.42,2.81
32.0000,0.09,0.12,-0.98,3.11,3.42,2.81
32.0180,0.09,0.12,-0.98,3.11,3.42,2.75
32.0330,0.09,0.12,-0.98,2.99,3.48,2.38
32.0490,0.08,0.12,-0.98,2.87,3.36,2.38
32.0640,0.08,0.12,-0.98,2.99,3.48,2.38
32.0800,0.08,0.12,-0.98,2.87,3.42,2.50
32.0940,0.09,0.12,-0.98,2.99,3.60,2.81
32.1100,0.09,0.12,-0.98,3.05,3.48,2.50
32.1170,0.08,0.12,-0.98,2.81,3.42,2.26
32.1320,0.08,0.12,-0.98,2.99,3.36,2.32
32.1550,0.08,0.12,-0.98,2.99,3.17,2.26
32.1570,0.09,0.12,-0.98,3.05,3.30,2.32
32.1860,0.08,0.12,-0.98,2.99,3.30,2.50
32.2020,0.09,0.12,-0.98,3.17,3.23,2.50
32.2080,0.09,0.12,-0.98,2.93,3.30,2.50
32.2340,0.08,0.12,-0.98,2.99,2.99,2.56
32.2410,0.08,0.12,-0.98,3.11,3.48,2.56
32.2560,0.08,0.12,-0.98,2.87,3.54,2.38
32.2800,0.09,0.12,-0.98,2.99,3.48,2.44
32.2960,0.09,0.12,-0.98,2.99,3.60,2.20
32.3130,0.09,0.12,-0.98,2.87,3.36,2.26
32.3290,0.08,0.12,-0.98,3.30,3.11,2.44
32.3450,0.09,0.12,-0.98,2.99,3.48,2.32
32.3610,0.09,0.12,-0.98,3.11,3.66,2.44
32.3760,0.09,0.12,-0.98,3.11,3.72,1.95
32.3910,0.09,0.12,-0.98,2.87,3.78,1.95
32.4060,0.09,0.12,-0.98,2.93,3.42,2.14
32.4210,0.08,0.12,-0.98,2.93,3.66,2.32
32.4360,0.08,0.12,-0.98,3.05,3.42,2.38
32.4460,0.08,0.12,-0.98,3.11,3.48,2.38
32.4630,0.08,0.12,-0.99,3.11,3.54,2.32
32.4800,0.09,0.12,-0.98,2.93,3.42,2.14
32.4980,0.08,0.12,-0.98,2.93,3.36,2.38
32.5130,0.09,0.12,-0.98,2.93,3.48,2.32
32.5280,0.08,0.12,-0.99,2.99,3.42,2.20
32.5440,0.09,0.12,-0.98,3.11,3.23,2.08
32.5600,0.09,0.12,-0.98,2.99,3.66,1.77
32.5740,0.09,0.12,-0.98,3.05,3.60,1.53
32.5800,0.09,0.12,-0.98,3.05,3.48,1.40
32.5960,0.09,0.12,-0.98,3.05,3.54,1.53
32.6180,0.09,0.12,-0.98,2.87,3.48,1.71
32.6350,0.09,0.12,-0.98,2.99,3.60,1.71
32.6500,0.08,0.12,-0.98,3.05,3.48,1.89
32.6670,0.09,0.12,-0.98,3.11,3.48,2.01
32.6800,0.08,0.12,-0.98,3.17,3.42,2.08
32.6980,0.08,0.12,-0.98,3.11,3.48,2.14
32.7010,0.09,0.12,-0.98,3.05,3.42,1.65
32.7180,0.08,0.12,-0.98,2.99,3.36,1.59
32.7340,0.09,0.12,-0.98,3.11,3.72,1.77
32.7590,0.08,0.12,-0.98,3.36,3.17,1.59
32.7740,0.08,0.12,-0.98,3.11,3.54,1.46
32.7910,0.08,0.12,-0.98,3.30,3.36,1.71
32.8070,0.08,0.12,-0.98,2.87,3.36,1.65
32.8090,0.08,0.12,-0.98,2.99,3.54,1.65
32.8390,0.09,0.12,-0.98,3.11,3.60,1.22
32.8540,0.10,0.11,-0.98,3.30,3.54,1.34
32.8700,0.09,0.12,-0.98,3.30,3.60,1.28
32.8860,0.09,0.12,-0.98,3.05,3.54,1.46
32.9000,0.09,0.12,-0.98,3.11,3.60,1.28
32.9080,0.07,0.12,-0.98,3.05,3.97,1.28
32.9240,0.06,0.12,-0.99,3.17,3.60,0.37
32.9400,0.09,0.12,-0.98,3.11,3.85,0.06
32.9610,0.08,0.12,-0.98,3.17,3.66,0.37
32.9770,0.08,0.12,-0.98,3.23,3.97,0.49
32.9920,0.09,0.12,-0.98,3.11,3.78,0.92
33.0080,0.10,0.12,-0.98,3.17,3.23,1.28
33.0230,0.09,0.12,-0.98,3.17,3.54,1.71
33.0380,0.08,0.12,-0.98,2.99,3.60,1.89
33.0530,0.09,0.12,-0.98,3.23,3.05,1.95
33.0680,0.09,0.12,-0.98,3.11,3.36,2.08
33.0830,0.08,0.12,-0.98,2.99,3.48,2.14
33.0940,0.08,0.12,-0.98,2.87,3.17,2.14
33.1110,0.07,0.12,-0.99,3.05,3.48,2.14
33.1270,0.09,0.12,-0.98,3.05,2.93,2.14
33.1430,0.09,0.12,-0.98,2.99,3.30,2.26
33.1590,0.08,0.12,-0.98,2.99,3.72,2.32
33.1750,0.07,0.12,-0.98,3.05,3.36,2.38
33.1910,0.08,0.12,-0.98,2.93,3.11,2.44
33.1940,0.10,0.12,-0.98,3.05,3.36,2.38
33.2100,0.10,0.12,-0.98,2.93,3.36,2.14
33.2330,0.09,0.12,-0.98,2.93,3.36,2.26
33.2500,0.08,0.12,-0.99,3.05,3.17,2.32
33.2660,0.08,0.12,-0.98,3.17,3.42,2.32
33.2820,0.09,0.12,-0.98,3.17,3.36,2.26
33.2990,0.09,0.12,-0.98,3.17,3.36,2.20
33.3150,0.09,0.12,-0.98,2.99,3.36,2.08
33.3310,0.08,0.12,-0.98,2.81,3.11,2.26
33.3470,0.08,0.12,-0.98,2.87,3.42,2.44
33.3620,0.09,0.12,-0.98,3.05,3.36,2.44
33.3780,0.10,0.12,-0.98,3.17,3.48,2.50
33.3930,0.09,0.12,-0.98,3.05,3.17,2.32
33.4080,0.07,0.12,-0.98,2.81,4.03,2.44
33.4160,0.09,0.12,-0.98,3.30,3.60,2.50
33.4380,0.09,0.12,-0.98,3.17,3.36,2.50
33.4490,0.09,0.12,-0.99,2.81,3.36,2.38
33.4670,0.07,0.12,-0.99,2.93,3.11,2.26
33.4830,0.09,0.12,-0.98,3.23,3.05,2.32
33.4990,0.09,0.12,-0.98,3.05,3.48,2.32
33.5150,0.09,0.12,-0.98,3.05,3.30,2.14
33.5320,0.08,0.12,-0.98,2.87,3.36,2.26
33.5490,0.08,0.12,-0.98,2.99,3.30,2.26
33.5640,0.09,0.12,-0.98,3.23,3.05,2.32
33.5790,0.09,0.12,-0.98,2.93,3.36,2.38
33.5970,0.09,0.12,-0.98,3.05,3.72,2.26
33.6130,0.09,0.12,-0.98,3.05,3.60,2.26
33.6160,0.09,0.12,-0.98,3.17,2.99,2.08
33.6310,0.09,0.12,-0.98,3.11,3.42,2.26
33.6560,0.09,0.12,-0.99,3.23,3.42,2.08
33.6730,0.08,0.12,-0.98,3.11,3.48,2.08
33.6880,0.08,0.12,-0.98,3.05,3.54,2.08
33.7040,0.09,0.12,-0.98,3.30,3.23,2.01
33.7050,0.09,0.12,-0.98,3.17,3.11,2.01
33.7350,0.09,0.12,-0.98,3.11,3.23,2.01
33.7510,0.09,0.12,-0.98,3.17,3.42,2.14
33.7550,0.08,0.12,-0.98,3.23,3.54,2.14
33.7820,0.09,0.12,-0.98,3.05,3.60,2.20
33.7880,0.09,0.12,-0.98,3.23,3.66,2.08
33.8040,0.09,0.12,-0.98,3.42,3.17,2.01
33.8270,0.09,0.12,-0.98,3.30,3.36,2.14
33.8440,0.09,0.12,-0.98,2.93,3.54,2.01
33.8600,0.09,0.12,-0.98,3.23,3.11,1.95
33.8760,0.09,0.12,-0.98,3.05,3.48,1.95
33.8910,0.09,0.12,-0.98,3.11,3.78,2.01
33.8930,0.09,0.12,-0.98,3.36,3.48,2.26
33.9090,0.09,0.12,-0.98,3.36,3.66,2.26
33.9320,0.09,0.12,-0.98,3.11,3.78,1.95
33.9490,0.09,0.12,-0.98,3.05,3.54,2.08
33.9650,0.09,0.12,-0.98,2.93,3.42,1.89
33.9820,0.08,0.15,-1.00,2.93,3.36,2.01
33.9990,0.08,0.14,-1.00,2.50,3.36,2.01
34.0150,0.09,0.12,-0.98,3.17,3.23,1.95
34.0310,0.09,0.12,-0.98,3.05,3.23,2.20
34.0470,0.08,0.12,-0.98,3.05,3.36,2.08
34.0490,0.09,0.12,-0.98,3.05,3.36,2.08
34.0650,0.09,0.12,-0.98,3.17,3.11,1.95
34.0880,0.09,0.12,-0.98,3.11,3.54,2.08
34.1060,0.09,0.12,-0.98,3.11,3.17,1.95
34.1210,0.09,0.12,-0.98,3.05,3.30,1.95
34.1380,0.09,0.12,-0.98,3.30,3.23,2.08
34.1550,0.09,0.12,-0.98,3.23,3.23,2.08
34.1700,0.09,0.12,-0.98,3.05,3.36,1.95
34.1860,0.08,0.12,-0.98,3.17,3.48,2.01
34.2030,0.09,0.12,-0.98,3.11,3.42,1.95
34.2190,0.08,0.12,-0.99,2.75,3.48,2.14
34.2350,0.09,0.12,-0.98,3.11,3.42,1.89
34.2500,0.09,0.12,-0.98,3.17,3.36,1.95
34.2660,0.09,0.12,-0.99,3.17,3.66,2.01
34.2710,0.09,0.12,-0.98,2.99,3.54,1.95
34.2860,0.09,0.12,-0.98,3.05,3.17,2.08
34.3090,0.08,0.12,-0.98,2.87,3.30,1.95
34.3250,0.09,0.12,-0.98,2.93,3.48,2.14
34.3410,0.09,0.12,-0.98,2.75,3.54,2.01
34.3570,0.09,0.12,-0.98,2.93,3.54,2.14
34.3730,0.08,0.12,-0.98,3.05,3.36,2.08
34.3890,0.08,0.12,-0.98,2.93,2.99,1.89
34.4040,0.02,0.14,-0.99,3.23,3.23,2.81
34.4210,0.10,0.12,-0.98,2.75,2.87,6.10
34.4370,0.08,0.12,-0.98,2.81,3.48,3.78
34.4540,0.08,0.13,-0.98,2.99,3.23,2.87
34.4700,0.09,0.12,-0.98,2.93,3.30,2.56
34.4860,0.09,0.12,-0.98,3.17,3.42,2.26
34.5000,0.07,0.13,-0.98,2.93,3.48,2.56
34.5160,0.09,0.11,-0.98,2.99,3.60,2.38
34.5300,0.07,0.12,-0.97,3.17,3.54,1.40
34.5430,0.09,0.13,-0.98,3.17,3.72,0.37
34.5590,0.09,0.12,-0.98,3.42,4.15,0.43
34.5750,0.10,0.10,-0.98,3.42,3.72,-0.06
34.5900,0.09,0.12,-0.98,3.48,3.36,0.18
34.6070,0.09,0.12,-0.98,3.17,3.72,0.61
34.6100,0.09,0.12,-0.98,3.11,3.66,1.16
34.6390,0.08,0.12,-0.98,3.05,3.60,1.53
34.6420,0.10,0.11,-0.98,3.05,3.11,1.95
34.6580,0.09,0.12,-0.98,3.05,3.72,2.14
34.6830,0.09,0.12,-0.98,2.99,3.30,2.44
34.6980,0.09,0.12,-0.98,2.87,3.36,2.62
34.7140,0.06,0.12,-0.99,2.99,3.42,2.99
34.7300,0.10,0.12,-0.98,2.93,3.48,2.93
34.7480,0.08,0.12,-0.98,2.99,3.17,2.93
34.7640,0.08,0.12,-0.98,3.11,2.87,3.05
34.7780,0.07,0.12,-0.98,3.17,3.11,3.72
34.7830,0.09,0.12,-0.98,2.93,2.99,3.66
34.7970,0.09,0.12,-0.98,2.93,2.99,3.48
34.8220,0.08,0.12,-0.98,2.87,3.36,3.17
34.8380,0.08,0.12,-0.98,2.93,3.05,3.17
34.8550,0.09,0.12,-0.98,2.81,3.11,3.23
34.8710,0.10,0.12,-0.98,3.17,2.99,3.30
34.8830,0.09,0.12,-0.98,2.99,3.05,2.93
34.8890,0.08,0.12,-0.98,2.99,3.23,2.99
34.9200,0.09,0.12,-0.98,3.11,3.36,3.36
34.9360,0.11,0.12,-0.98,3.11,2.81,3.72
34.9520,0.09,0.12,-0.99,2.87,3.48,2.87
34.9550,0.09,0.12,-0.98,2.87,3.60,2.75
34.9830,0.09,0.12,-0.98,2.81,3.23,2.38
34.9940,0.08,0.12,-0.98,2.93,3.36,2.50
35.0120,0.08,0.12,-0.98,2.99,3.30,2.99
35.0280,0.06,0.12,-1.00,3.30,3.48,3.72
35.0440,0.08,0.12,-0.98,2.87,2.81,3.78
35.0610,0.09,0.12,-0.98,2.69,2.87,3.72
35.0770,0.09,0.12,-0.98,2.81,2.81,3.54
35.0930,0.09,0.12,-0.98,2.93,3.11,3.23
35.1090,0.07,0.12,-0.99,3.11,3.17,3.17
35.1240,0.08,0.12,-0.98,2.99,3.54,3.23
35.1390,0.08,0.12,-0.98,2.75,3.48,3.30
35.1540,0.08,0.12,-0.98,3.05,3.30,3.54
35.1690,0.11,0.13,-0.98,3.48,3.36,3.42
35.1840,0.10,0.13,-0.98,3.11,3.11,2.87
35.1990,0.09,0.12,-0.98,2.99,3.42,2.93
35.2110,0.08,0.12,-0.98,2.75,3.54,2.62
35.2270,0.10,0.12,-0.98,2.93,2.93,2.87
35.2440,0.04,0.11,-0.99,3.05,3.42,2.62
35.2600,0.07,0.12,-0.99,3.42,3.72,3.11
35.2750,0.09,0.13,-0.98,2.81,3.48,2.75
35.2900,0.09,0.12,-0.98,2.56,2.93,2.62
35.3060,0.08,0.12,-0.98,2.75,3.05,2.75
35.3110,0.09,0.12,-0.98,3.11,3.23,2.81
35.3270,0.09,0.12,-0.98,2.99,3.60,2.81
35.3490,0.06,0.12,-0.98,3.05,3.42,2.62
35.3660,0.10,0.12,-0.98,2.93,3.30,2.56
35.3840,0.08,0.12,-0.98,2.81,3.36,2.69
35.3990,0.04,0.13,-0.98,2.81,3.54,2.69
35.4150,0.09,0.12,-0.98,3.11,3.72,1.77
35.4310,0.10,0.12,-0.98,2.99,3.30,1.46
35.4480,0.10,0.11,-0.98,3.05,3.36,1.40
35.4640,0.09,0.12,-0.98,2.93,3.48,2.14
35.4800,0.09,0.12,-0.98,2.93,3.42,2.44
35.4950,0.09,0.12,-0.99,3.11,3.54,2.38
35.5110,0.09,0.12,-0.98,2.87,3.42,2.87
35.5260,0.09,0.12,-0.98,3.23,3.48,2.75
35.5410,0.10,0.12,-0.98,3.11,3.42,2.50
35.5560,0.08,0.12,-0.98,2.93,3.30,2.50
35.5660,0.05,0.12,-0.99,3.23,3.30,2.20
35.5840,0.08,0.12,-0.98,3.11,3.11,1.77
35.6030,0.11,0.12,-0.98,3.30,3.42,1.65
35.6200,0.10,0.12,-0.98,2.93,3.54,1.34
35.6210,0.11,0.12,-0.98,3.23,3.54,1.28
35.6520,0.06,0.13,-0.99,3.11,3.42,1.77
35.6660,0.09,0.12,-0.98,3.17,2.93,1.71
35.6830,0.09,0.12,-0.98,3.23,3.42,1.77
35.6990,0.08,0.12,-0.99,3.11,3.42,1.46
35.7150,0.11,0.12,-0.98,3.11,3.48,1.95
35.7200,0.10,0.12,-0.98,2.93,3.42,1.83
35.7360,0.09,0.12,-0.98,2.87,3.17,1.95
35.7580,0.08,0.12,-0.98,2.93,3.05,2.14
35.7740,0.11,0.12,-0.98,3.30,3.36,2.08
35.7910,0.04,0.12,-0.99,3.11,3.23,2.20
35.8070,0.10,0.12,-0.98,3.17,3.48,1.59
35.8220,0.08,0.12,-0.98,3.42,3.42,1.16
35.8370,0.11,0.12,-0.98,3.30,3.48,0.43
35.8410,0.09,0.12,-0.98,3.05,3.85,0.00
35.8570,0.10,0.12,-0.98,3.11,3.78,0.37
35.8800,0.06,0.13,-0.99,3.05,3.72,0.67
35.8960,0.05,0.13,-0.98,3.48,3.48,1.28
35.9130,0.05,0.13,-0.99,3.05,3.48,1.04
35.9290,0.06,0.13,-0.99,3.30,3.48,0.73
35.9450,0.08,0.12,-0.98,2.93,3.97,0.61
35.9610,0.06,0.13,-0.99,3.11,3.72,0.73
35.9780,0.07,0.13,-0.98,2.87,3.30,1.10
35.9940,0.09,0.12,-0.98,2.93,3.42,1.71
36.0080,0.08,0.12,-0.98,2.93,3.30,2.32
36.0240,0.11,0.12,-0.98,3.11,3.36,2.69
36.0300,0.10,0.12,-0.98,3.05,3.42,3.11
36.0540,0.08,0.12,-0.98,3.17,3.42,2.99
36.0700,0.09,0.12,-0.98,3.17,3.17,2.99
36.0850,0.11,0.11,-0.98,3.23,3.54,2.62
36.0960,0.09,0.12,-0.98,3.23,3.48,2.56
36.1140,0.10,0.12,-0.98,2.99,3.66,2.44
36.1300,0.07,0.12,-0.98,3.11,3.23,2.56
36.1450,0.08,0.12,-0.99,2.93,3.23,3.05
36.1620,0.07,0.12,-0.98,2.93,3.36,2.93
36.1800,0.08,0.12,-0.98,3.17,2.87,3.42
36.1960,0.10,0.11,-0.98,3.17,3.17,3.11
36.2110,0.10,0.12,-0.98,3.05,3.11,2.62
36.2260,0.09,0.12,-0.98,3.17,3.30,2.62
36.2420,0.09,0.12,-0.98,2.99,3.17,2.56
36.2570,0.08,0.12,-0.98,2.99,3.48,2.56
36.2730,0.06,0.13,-0.99,3.11,3.17,2.56
36.2880,0.09,0.12,-0.98,2.87,3.30,2.87
36.3030,0.09,0.12,-0.98,3.05,3.17,2.50
36.3170,0.09,0.12,-0.98,3.05,3.23,2.50
36.3300,0.09,0.12,-0.98,3.23,3.48,2.44
36.3460,0.06,0.12,-0.98,3.42,3.54,2.44
36.3630,0.09,0.12,-0.98,3.11,3.54,1.40
36.3790,0.08,0.12,-0.98,3.30,4.21,0.18
36.3950,0.08,0.12,-0.98,3.36,4.03,0.43
36.4110,0.07,0.13,-0.99,3.23,3.66,0.24
36.4260,0.10,0.12,-0.98,3.36,3.60,-0.12
36.4410,0.10,0.12,-0.98,3.17,4.03,-0.12
36.4560,0.07,0.12,-0.98,3.11,4.15,0.06
36.4710,0.08,0.12,-0.98,2.81,3.66,-0.37
36.4860,0.07,0.13,-0.98,3.36,3.97,-0.55
36.4970,0.07,0.13,-0.98,3.11,4.15,-0.85
36.5120,0.10,0.12,-0.98,3.11,4.21,-1.04
36.5310,0.08,0.13,-0.98,3.23,4.09,-0.55
36.5370,0.09,0.13,-0.98,3.48,3.78,-0.43
36.5550,0.11,0.11,-0.98,3.23,4.33,-0.55
36.5700,0.09,0.11,-0.98,3.30,3.60,-0.18
36.5890,0.09,0.12,-0.98,3.23,3.60,0.73
36.6050,0.09,0.11,-0.98,3.17,3.97,1.04
36.6240,0.09,0.12,-0.98,3.05,3.42,1.53
36.6390,0.09,0.12,-0.98,3.23,3.42,1.77
36.6540,0.09,0.12,-0.98,3.23,3.66,2.01
36.6610,0.09,0.12,-0.98,3.23,3.23,2.14
36.6870,0.09,0.12,-0.98,3.23,3.54,2.20
36.7030,0.09,0.12,-0.98,2.99,3.72,2.26
36.7180,0.09,0.12,-0.98,2.93,3.30,2.14
36.7330,0.08,0.12,-0.98,3.05,3.42,2.01
36.7430,0.08,0.12,-0.98,3.05,3.72,2.01
36.7590,0.08,0.12,-0.96,2.99,4.21,2.08
36.7790,0.08,0.12,-0.99,2.62,4.27,2.20
36.7950,0.08,0.12,-0.99,2.62,3.54,2.14
36.8100,0.08,0.12,-0.98,2.69,3.54,2.08
36.8250,0.08,0.12,-0.98,3.17,3.78,2.01
36.8410,0.08,0.12,-0.99,3.11,3.91,2.20
36.8570,0.08,0.12,-0.99,3.30,3.60,2.01
36.8710,0.08,0.12,-0.98,3.23,3.23,2.26
36.8860,0.08,0.12,-0.98,3.48,3.54,2.01
36.9010,0.08,0.12,-0.99,3.30,3.72,2.20
36.9120,0.08,0.12,-0.97,2.99,3.66,2.08
36.9290,0.08,0.12,-0.98,3.11,3.30,2.08
36.9460,0.08,0.12,-0.98,3.05,3.30,1.95
36.9610,0.08,0.12,-0.99,2.99,3.60,2.20
36.9750,0.08,0.12,-0.98,2.99,3.60,2.20
36.9910,0.08,0.12,-0.98,2.99,3.23,2.14
36.9950,0.08,0.12,-0.98,2.69,3.66,2.14
37.0130,0.08,0.12,-0.98,3.11,3.78,2.26
37.0290,0.08,0.12,-0.98,3.17,3.66,2.08
37.0450,0.08,0.12,-0.98,3.17,3.91,2.08
37.0620,0.08,0.12,-0.98,2.99,3.66,2.08
37.0800,0.08,0.12,-0.98,2.99,3.78,2.01
37.0960,0.08,0.12,-0.98,2.81,3.66,2.20
37.1110,0.08,0.12,-0.98,2.99,3.48,2.20
37.1260,0.08,0.12,-0.99,2.87,3.30,2.08
37.1410,0.08,0.12,-0.99,2.50,3.05,2.20
37.1550,0.08,0.12,-0.98,2.62,2.99,2.14
37.1700,0.08,0.12,-0.99,2.50,3.23,2.08
37.1780,0.08,0.12,-0.99,2.75,3.42,2.08
37.1950,0.08,0.12,-0.99,2.38,3.30,1.95
37.2120,0.08,0.12,-0.98,2.75,2.26,2.01
37.2300,0.08,0.12,-0.98,3.36,3.36,1.83
37.2450,0.08,0.12,-0.98,3.36,3.54,2.01
37.2620,0.08,0.12,-0.99,3.23,3.48,1.95
37.2780,0.08,0.11,-0.98,2.93,3.17,1.95
37.2880,0.08,0.12,-0.98,2.99,3.78,1.95
37.3090,0.08,0.12,-0.98,2.99,3.60,1.95
37.3240,0.08,0.12,-0.98,2.99,3.48,1.95
37.3290,0.09,0.12,-0.98,3.11,3.60,2.01
37.3450,0.08,0.12,-0.98,3.11,3.72,2.08
37.3610,0.09,0.12,-0.98,3.05,3.42,2.01
37.3860,0.08,0.12,-0.98,3.11,3.48,1.95
37.4010,0.08,0.12,-0.98,2.93,3.54,1.95
37.4170,0.08,0.12,-0.98,2.99,3.36,2.01
37.4330,0.08,0.12,-0.98,3.17,3.36,2.14
37.4360,0.08,0.12,-0.98,2.93,3.60,2.08
37.4520,0.08,0.12,-0.98,2.93,3.30,2.08
37.4790,0.08,0.12,-0.98,3.05,3.54,2.08
37.4950,0.09,0.12,-0.98,3.05,3.48,2.01
37.5100,0.08,0.12,-0.98,3.11,3.60,2.01
37.5260,0.09,0.12,-0.98,3.05,3.60,2.01
37.5410,0.08,0.12,-0.98,3.11,3.54,1.95
37.5460,0.08,0.12,-0.98,2.81,3.97,2.01
37.5610,0.08,0.12,-0.98,2.87,3.66,2.08
37.5850,0.08,0.12,-0.98,2.75,3.36,2.08
37.6010,0.08,0.12,-0.98,3.11,3.78,1.89
37.6160,0.08,0.12,-0.98,3.05,3.30,2.08
37.6320,0.08,0.12,-0.98,3.05,3.23,1.95
37.6350,0.08,0.12,-0.98,2.99,3.72,2.01
37.6500,0.08,0.12,-0.98,2.99,3.23,2.01
37.6750,0.08,0.12,-0.98,2.87,3.54,1.95
37.6920,0.08,0.12,-0.98,3.17,3.72,2.08
37.7070,0.08,0.12,-0.98,3.11,3.42,2.08
37.7240,0.08,0.12,-0.98,3.17,3.42,2.08
37.7390,0.08,0.12,-0.98,2.87,3.60,2.01
37.7550,0.08,0.12,-0.98,2.75,3.54,2.14
37.7700,0.08,0.12,-0.98,3.05,3.54,1.89
37.7870,0.08,0.12,-0.98,2.87,3.85,1.95
37.8020,0.08,0.12,-0.98,2.93,3.42,2.08
37.8170,0.08,0.12,-0.98,2.93,3.72,2.01
37.8320,0.08,0.12,-0.98,2.99,3.66,1.95
37.8460,0.08,0.12,-0.98,2.99,3.17,2.01
37.8580,0.08,0.12,-0.98,2.93,3.48,2.14
37.8740,0.08,0.12,-0.98,3.11,3.17,2.08
37.8920,0.08,0.12,-0.98,2.93,3.54,1.95
37.8960,0.09,0.12,-0.99,2.87,3.54,2.01
37.9230,0.08,0.12,-0.98,2.75,3.66,2.20
37.9390,0.08,0.12,-0.98,2.93,3.42,1.95
37.9460,0.08,0.12,-0.98,2.99,3.11,2.08
37.9620,0.08,0.12,-0.98,2.93,3.60,1.89
37.9830,0.08,0.12,-0.98,2.93,3.36,2.01
37.9990,0.08,0.12,-0.98,2.93,3.60,2.08
38.0170,0.08,0.12,-0.98,2.93,3.48,2.08
38.0320,0.08,0.12,-0.98,2.99,3.36,1.95
38.0480,0.08,0.12,-0.98,3.05,3.48,1.95
38.0630,0.08,0.12,-0.98,2.93,3.66,1.89
38.0790,0.08,0.12,-0.98,2.75,3.54,1.83
38.0940,0.08,0.12,-0.98,2.93,3.42,1.95
38.1090,0.08,0.12,-0.98,2.99,3.36,1.95
38.1240,0.08,0.12,-0.98,2.87,3.23,1.95
38.1390,0.08,0.12,-0.98,2.93,3.54,2.01
38.1490,0.09,0.12,-0.98,3.17,3.30,1.89
38.1650,0.08,0.12,-0.98,3.23,3.66,2.01
38.1840,0.08,0.12,-0.98,2.93,3.48,2.01
38.2000,0.08,0.12,-0.98,2.99,3.36,2.08
38.2140,0.08,0.12,-0.98,2.93,3.48,1.95
38.2240,0.08,0.12,-0.98,2.87,3.17,2.14
38.2390,0.08,0.12,-0.98,3.05,3.23,1.89
38.2570,0.08,0.12,-0.98,3.05,3.36,2.08
38.2750,0.08,0.12,-0.98,2.93,3.11,2.08
38.2890,0.08,0.12,-0.98,2.93,3.30,1.95
38.3060,0.08,0.12,-0.98,3.17,3.54,2.20
38.3220,0.08,0.12,-0.98,2.99,3.54,2.14
38.3390,0.08,0.12,-0.98,3.17,3.48,1.95
38.3550,0.08,0.12,-0.98,2.93,3.36,1.95
38.3570,0.08,0.12,-0.98,2.99,3.48,2.01
38.3730,0.08,0.12,-0.98,2.93,3.42,1.95
38.3890,0.08,0.12,-0.98,2.93,3.11,2.01
38.4110,0.08,0.12,-0.98,2.99,3.23,2.14
38.4270,0.08,0.12,-0.98,3.30,3.42,2.08
38.4420,0.08,0.12,-0.98,3.17,3.23,2.01
38.4640,0.08,0.12,-0.98,3.11,3.36,1.95
38.4790,0.08,0.12,-0.98,2.81,3.42,1.95
38.4950,0.08,0.12,-0.98,2.99,3.42,2.01
38.5110,0.08,0.12,-0.98,3.05,3.60,2.01
38.5260,0.08,0.12,-0.98,3.11,3.48,2.08
38.5320,0.08,0.12,-0.98,2.93,3.36,1.95
38.5560,0.08,0.12,-0.98,2.99,3.66,2.01
38.5700,0.09,0.12,-0.98,3.17,3.48,2.01
38.5810,0.08,0.12,-0.98,2.99,3.23,1.89
38.5970,0.08,0.12,-0.98,2.93,3.66,2.14
38.6190,0.08,0.12,-0.98,3.11,3.66,2.08
38.6210,0.08,0.12,-0.98,2.87,3.42,2.14
38.6380,0.08,0.12,-0.98,3.05,3.48,2.08
38.6540,0.08,0.12,-0.98,2.99,3.48,2.08
38.6770,0.08,0.12,-0.98,3.11,3.48,2.14
38.6940,0.08,0.12,-0.99,3.05,3.42,1.95
38.7100,0.08,0.12,-0.98,2.93,3.42,2.01
38.7270,0.08,0.12,-0.98,3.05,3.85,2.14
38.7420,0.08,0.12,-0.98,3.11,3.60,1.95
38.7570,0.08,0.12,-0.98,2.99,3.66,1.95
38.7730,0.08,0.12,-0.98,2.87,3.54,2.01
38.7770,0.08,0.12,-0.98,2.93,3.66,1.95
38.7930,0.08,0.12,-0.98,3.11,3.54,2.08
38.8160,0.08,0.12,-0.98,2.81,3.91,2.08
38.8330,0.08,0.12,-0.98,2.87,3.36,2.08
38.8340,0.08,0.12,-0.98,2.93,2.99,2.08
38.8510,0.08,0.12,-0.98,2.99,3.85,2.20
38.8800,0.08,0.12,-0.98,2.93,3.78,2.08
38.8890,0.08,0.12,-0.98,2.99,3.66,2.14
38.9000,0.08,0.12,-0.98,3.17,3.30,2.08
38.9160,0.08,0.12,-0.98,3.05,3.42,2.01
38.9370,0.08,0.12,-0.98,2.93,3.42,2.08
38.9530,0.08,0.12,-0.98,3.05,3.54,2.01
38.9700,0.08,0.12,-0.98,2.99,3.23,1.95
38.9890,0.08,0.12,-0.98,3.05,3.05,1.89
39.0040,0.08,0.12,-0.98,2.99,3.42,2.01
39.0200,0.08,0.12,-0.98,2.99,3.48,2.08
39.0360,0.08,0.12,-0.98,2.99,3.54,2.01
39.0370,0.08,0.12,-0.98,3.11,3.36,2.08
39.0670,0.08,0.12,-0.98,2.99,3.60,2.14
39.0830,0.09,0.12,-0.98,3.05,3.48,2.08
39.0900,0.08,0.12,-0.98,3.11,3.48,2.14
39.1140,0.08,0.12,-0.98,2.99,3.54,2.01
39.1290,0.08,0.12,-0.98,2.81,3.85,2.08
39.1370,0.08,0.12,-0.98,2.99,3.66,2.14
39.1520,0.08,0.12,-0.98,3.17,3.85,1.89
39.1760,0.08,0.12,-0.98,3.11,3.48,2.14
39.1910,0.08,0.12,-0.98,2.99,3.23,2.01
39.2070,0.08,0.12,-0.98,2.93,3.30,2.01
39.2230,0.08,0.12,-0.98,2.99,3.48,2.01
39.2390,0.08,0.12,-0.98,2.99,3.42,2.08
39.2430,0.08,0.12,-0.98,2.93,3.36,2.01
39.2580,0.08,0.12,-0.98,2.93,3.60,2.01
39.2820,0.08,0.12,-0.98,2.99,3.54,2.01
39.3000,0.08,0.12,-0.98,2.99,3.66,2.14
39.3150,0.08,0.12,-0.98,2.99,3.42,2.01
39.3310,0.08,0.12,-0.98,3.11,3.66,1.89
39.3480,0.08,0.12,-0.98,3.23,3.11,1.95
39.3640,0.08,0.12,-0.98,3.11,3.23,2.08
39.3790,0.08,0.12,-0.99,3.05,3.60,2.01
39.3950,0.08,0.12,-0.98,3.05,3.48,2.08
39.4110,0.08,0.12,-0.98,3.23,3.42,2.01
39.4170,0.08,0.12,-0.98,3.30,3.17,1.89
39.4320,0.08,0.12,-0.98,3.17,3.36,1.95
39.4560,0.08,0.12,-0.98,3.11,3.66,2.08
39.4730,0.08,0.12,-0.98,3.05,3.54,2.01
39.4890,0.08,0.12,-0.98,2.93,3.66,2.01
39.4910,0.08,0.12,-0.98,3.11,3.60,2.14
39.5070,0.08,0.12,-0.98,3.17,3.60,2.20
39.5230,0.08,0.12,-0.98,3.23,3.66,2.01
39.5500,0.08,0.12,-0.98,3.11,3.60,2.08
39.5610,0.08,0.12,-0.98,3.05,3.60,2.08
39.5780,0.08,0.12,-0.98,3.05,3.36,2.08
39.5940,0.08,0.12,-0.98,3.05,3.66,2.01
39.6110,0.08,0.12,-0.98,3.17,3.66,2.01
39.6260,0.08,0.12,-0.98,3.11,3.54,1.89
39.6410,0.08,0.12,-0.98,3.11,3.36,2.01
39.6560,0.08,0.12,-0.98,3.05,3.60,2.08
39.6600,0.08,0.12,-0.98,3.05,3.11,1.89
39.6760,0.08,0.12,-0.98,3.11,3.72,2.08
39.6920,0.08,0.12,-0.98,3.05,3.78,2.08
39.7180,0.08,0.12,-0.98,2.93,3.66,2.01
39.7340,0.08,0.12,-0.98,3.05,3.66,2.01
39.7500,0.08,0.12,-0.98,3.05,3.54,2.14
39.7660,0.08,0.12,-0.98,3.05,3.91,2.08
39.7820,0.08,0.12,-0.98,3.05,3.36,1.89
39.7970,0.08,0.12,-0.98,3.05,3.60,2.08
39.8120,0.08,0.12,-0.98,3.11,3.66,2.08
39.8180,0.08,0.12,-0.98,3.05,3.72,2.01
39.8350,0.08,0.12,-0.98,3.17,3.66,2.08
39.8500,0.08,0.12,-0.98,3.11,3.54,2.14
39.8730,0.08,0.12,-0.98,3.05,3.42,2.01
39.8890,0.08,0.12,-0.98,3.11,3.42,1.95
39.8920,0.08,0.12,-0.98,3.11,3.48,1.89
39.9070,0.08,0.12,-0.98,3.23,3.11,2.01
39.9290,0.08,0.12,-0.98,3.05,3.60,2.01
39.9450,0.08,0.12,-0.98,2.99,3.54,1.89
39.9620,0.08,0.12,-0.98,3.05,3.54,2.01
39.9790,0.08,0.12,-0.98,3.17,3.17,2.01
39.9950,0.08,0.12,-0.98,3.11,3.42,2.14
40.0120,0.08,0.12,-0.98,3.17,3.48,2.01
40.0270,0.08,0.12,-0.98,3.11,3.48,2.14
40.0430,0.08,0.12,-0.98,3.05,3.36,1.95
40.0590,0.08,0.12,-0.98,3.11,3.23,2.08
40.0740,0.08,0.12,-0.98,3.05,2.87,2.01
40.0890,0.08,0.12,-0.98,3.05,3.23,2.01
40.1050,0.08,0.12,-0.98,2.81,3.30,1.83
40.1190,0.08,0.12,-0.98,3.23,3.42,2.14
40.1350,0.08,0.12,-0.98,2.93,3.72,2.14
40.1460,0.08,0.12,-0.98,2.81,3.66,2.01
40.1630,0.08,0.12,-0.98,3.05,3.42,1.95
40.1790,0.08,0.12,-0.98,3.05,3.72,1.95
40.1960,0.08,0.12,-0.98,3.05,3.66,1.95
40.2120,0.09,0.12,-0.98,3.11,3.72,2.01
40.2290,0.08,0.12,-0.98,3.17,3.60,1.95
40.2450,0.08,0.12,-0.98,3.11,3.78,2.14
40.2600,0.08,0.12,-0.98,2.99,3.30,1.89
40.2750,0.08,0.12,-0.98,3.05,3.42,1.95
40.2900,0.09,0.12,-0.98,3.23,3.42,2.08
40.3050,0.08,0.12,-0.98,2.99,3.48,2.01
40.3200,0.08,0.12,-0.98,3.23,3.30,2.01
40.3350,0.08,0.12,-0.98,2.93,3.72,2.08
40.3460,0.08,0.12,-0.98,3.05,3.66,1.95
40.3620,0.08,0.12,-0.98,2.93,3.36,2.01
40.3800,0.08,0.12,-0.98,2.87,3.48,2.14
40.3960,0.08,0.12,-0.98,2.87,3.78,2.14
40.4120,0.08,0.12,-0.98,2.93,3.66,1.95
40.4270,0.08,0.12,-0.98,3.05,3.85,2.01
40.4420,0.08,0.12,-0.98,2.87,3.60,1.89
40.4560,0.08,0.12,-0.98,3.17,3.23,1.95
40.4620,0.08,0.12,-0.98,2.93,3.36,1.89
40.4780,0.09,0.12,-0.98,3.05,3.23,1.95
40.4940,0.08,0.12,-0.98,3.05,2.99,1.95
40.5170,0.08,0.12,-0.98,2.99,3.48,2.01
40.5330,0.09,0.12,-0.98,2.75,3.30,2.01
40.5480,0.08,0.12,-0.98,3.11,3.66,1.95
40.5630,0.08,0.12,-0.98,2.99,3.60,2.08
40.5780,0.08,0.12,-0.98,3.05,3.42,2.08
40.5920,0.08,0.12,-0.98,3.23,3.60,1.95
40.6030,0.08,0.12,-0.98,2.87,3.54,1.95
40.6190,0.08,0.12,-0.98,3.11,3.60,1.95
40.6360,0.09,0.12,-0.98,3.11,3.48,2.01
40.6540,0.08,0.12,-0.98,3.05,3.42,1.89
40.6690,0.08,0.12,-0.98,3.17,3.36,2.01
40.6850,0.08,0.12,-0.98,2.93,3.66,2.08
40.6920,0.08,0.12,-0.98,2.93,3.66,2.01
40.7150,0.08,0.12,-0.98,3.11,3.54,1.95
40.7310,0.08,0.12,-0.98,2.99,3.23,2.01
40.7360,0.08,0.12,-0.98,3.05,3.36,2.08
40.7520,0.08,0.12,-0.98,3.05,2.99,1.95
40.7670,0.08,0.12,-0.98,2.99,3.42,2.01
40.7900,0.08,0.12,-0.98,3.11,3.48,1.89
40.8070,0.08,0.12,-0.98,3.05,3.60,1.89
40.8220,0.09,0.12,-0.98,3.11,3.60,2.08
40.8370,0.08,0.12,-0.98,2.93,3.42,1.95
40.8530,0.08,0.12,-0.98,2.87,3.42,2.08
40.8680,0.08,0.12,-0.98,3.05,3.54,1.95
40.8830,0.08,0.12,-0.98,2.81,3.54,2.08
40.8920,0.08,0.12,-0.98,3.05,3.23,2.01
40.9140,0.08,0.12,-0.98,3.11,3.36,2.01
40.9230,0.08,0.12,-0.98,3.23,3.54,2.08
40.9400,0.08,0.12,-0.98,2.93,3.48,2.08
40.9570,0.08,0.12,-0.98,2.93,3.17,1.89
40.9720,0.08,0.12,-0.98,2.87,3.72,2.08
40.9900,0.08,0.12,-0.98,3.05,3.48,1.95
40.9960,0.08,0.12,-0.98,3.05,3.36,2.01
41.0120,0.08,0.12,-0.98,2.93,3.23,1.95
41.0350,0.08,0.12,-0.98,3.17,3.30,2.14
41.0510,0.08,0.12,-0.98,2.93,3.48,2.01
41.0530,0.09,0.12,-0.98,3.11,3.23,1.89
41.0700,0.08,0.12,-0.98,3.17,3.30,2.20
41.0920,0.08,0.12,-0.98,3.23,3.11,2.01
41.1030,0.08,0.12,-0.98,3.05,3.48,1.95
41.1270,0.08,0.12,-0.98,3.17,3.23,2.01
41.1430,0.08,0.12,-0.98,3.05,3.54,2.14
41.1580,0.08,0.12,-0.98,3.17,3.30,1.95
41.1730,0.08,0.12,-0.98,3.23,3.23,2.01
41.1760,0.08,0.12,-0.98,3.05,3.36,2.14
41.1930,0.09,0.12,-0.98,3.17,3.36,2.01
41.2160,0.08,0.12,-0.98,3.30,3.23,1.89
41.2320,0.08,0.12,-0.98,2.87,3.54,2.08
41.2490,0.08,0.12,-0.98,2.93,2.99,2.08
41.2650,0.08,0.12,-0.98,3.05,3.11,2.01
41.2810,0.08,0.12,-0.98,3.05,3.60,1.95
41.2970,0.08,0.12,-0.98,3.11,3.48,1.95
41.3000,0.08,0.12,-0.98,2.99,3.42,2.01
41.3150,0.09,0.12,-0.98,3.05,3.54,2.08
41.3400,0.08,0.12,-0.98,2.99,3.72,2.14
41.3560,0.08,0.12,-0.98,3.30,3.23,2.08
41.3720,0.08,0.12,-0.98,3.05,3.30,2.01
41.3740,0.08,0.12,-0.98,3.05,3.36,1.95
41.4030,0.08,0.12,-0.98,3.11,3.30,2.14
41.4200,0.08,0.15,-0.98,2.93,3.30,2.20
41.4240,0.06,0.15,-0.98,3.11,2.44,8.36
41.4510,0.09,0.11,-0.98,2.69,2.38,9.40
41.4670,0.09,0.11,-0.98,2.75,2.62,5.86
41.4740,0.08,0.12,-0.98,2.93,3.23,3.54
41.4930,0.08,0.12,-0.98,2.93,3.11,3.78
41.5120,0.09,0.12,-0.98,2.93,3.48,3.72
41.5280,0.09,0.12,-0.98,3.05,3.05,3.17
41.5450,0.09,0.12,-0.98,3.23,2.93,2.81
41.5600,0.09,0.12,-0.98,3.23,3.36,1.95
41.5750,0.08,0.12,-0.98,3.23,3.23,2.08
41.5900,0.08,0.12,-0.98,3.05,3.78,2.01
41.6050,0.09,0.12,-0.98,2.93,3.54,2.01
41.6120,0.08,0.12,-0.98,3.05,3.23,2.01
41.6280,0.08,0.12,-0.98,2.93,3.48,2.01
41.6520,0.08,0.12,-0.98,3.05,3.30,2.01
41.6690,0.08,0.12,-0.98,3.11,3.36,1.95
41.6840,0.08,0.12,-0.98,2.99,3.54,1.89
41.6990,0.08,0.12,-0.98,2.99,3.42,2.01
41.7150,0.08,0.12,-0.98,3.30,3.30,2.14
41.7190,0.08,0.12,-0.98,3.05,3.48,2.01
41.7350,0.08,0.12,-0.98,2.93,3.54,2.20
41.7510,0.09,0.12,-0.98,3.11,3.23,2.01
41.7760,0.08,0.12,-0.98,2.93,3.30,2.01
41.7910,0.09,0.12,-0.98,2.99,3.23,1.89
41.8070,0.09,0.12,-0.98,3.05,3.66,1.89
41.8220,0.08,0.12,-0.98,2.99,3.36,2.14
41.8260,0.08,0.12,-0.98,2.99,3.36,2.08
41.8410,0.08,0.12,-0.98,2.99,3.23,1.95
41.8670,0.08,0.12,-0.98,2.93,3.72,1.95
41.8840,0.08,0.12,-0.98,3.11,3.60,2.08
41.8990,0.09,0.12,-0.98,2.99,3.23,1.95
41.9150,0.08,0.12,-0.98,2.93,3.66,2.14
41.9170,0.09,0.12,-0.98,3.05,3.60,1.95
41.9480,0.08,0.12,-0.98,3.05,3.30,2.01
41.9500,0.08,0.12,-0.98,2.93,3.72,1.95
41.9670,0.09,0.12,-0.98,2.93,3.36,2.08
41.9950,0.08,0.12,-0.98,2.81,3.72,1.95
42.0040,0.08,0.12,-0.98,2.93,3.72,2.14
42.0200,0.08,0.12,-0.98,2.99,3.36,2.01
42.0370,0.09,0.12,-0.98,2.99,3.54,2.14
42.0540,0.08,0.12,-0.98,3.11,3.54,1.89
42.0710,0.08,0.12,-0.98,3.30,3.48,1.89
42.0860,0.08,0.12,-0.98,2.93,3.72,2.01
42.1040,0.08,0.12,-0.98,3.23,2.99,2.01
42.1040,0.09,0.12,-0.98,2.87,3.60,2.08
42.1350,0.09,0.12,-0.98,2.93,3.66,2.01
42.1510,0.08,0.12,-0.98,3.17,3.60,1.89
42.1540,0.08,0.12,-0.98,3.17,3.48,2.01
42.1840,0.08,0.12,-0.98,2.99,3.97,1.95
42.2010,0.08,0.12,-0.98,3.17,3.60,1.95
42.2040,0.08,0.12,-0.98,3.17,3.36,1.89
42.2200,0.08,0.12,-0.98,3.05,3.42,2.08
42.2430,0.08,0.12,-0.98,3.23,3.30,1.95
42.2610,0.08,0.12,-0.98,2.93,3.23,1.95
42.2760,0.08,0.12,-0.98,2.99,3.54,1.89
42.2920,0.08,0.12,-0.98,2.93,3.36,1.95
42.3080,0.08,0.12,-0.98,3.05,3.66,2.01
42.3240,0.08,0.12,-0.99,2.93,3.66,2.08
42.3390,0.08,0.12,-0.98,2.93,3.60,1.95
42.3540,0.08,0.12,-0.98,3.05,3.42,1.95
42.3700,0.08,0.12,-0.98,2.99,3.72,1.95
42.3760,0.08,0.12,-0.98,2.99,3.36,2.08
42.3950,0.08,0.12,-0.98,2.99,3.54,2.01
42.4150,0.08,0.12,-0.98,3.17,3.23,2.08
42.4310,0.09,0.12,-0.98,3.11,3.54,2.08
42.4480,0.08,0.12,-0.98,3.05,3.60,2.14
42.4640,0.08,0.12,-0.98,3.11,3.60,2.01
42.4800,0.08,0.12,-0.98,2.99,3.78,2.08
42.4950,0.09,0.12,-0.98,2.87,3.66,1.89
42.5100,0.08,0.12,-0.98,3.11,3.54,1.89
42.5150,0.08,0.12,-0.98,2.99,3.36,2.01
42.5420,0.08,0.12,-0.98,3.11,3.30,1.89
42.5570,0.08,0.12,-0.98,3.05,3.42,1.95
42.5650,0.08,0.12,-0.98,2.99,3.85,2.01
42.5820,0.08,0.12,-0.98,2.93,3.48,1.95
42.5980,0.08,0.12,-0.98,2.93,3.66,1.95
42.6150,0.08,0.12,-0.98,2.81,3.91,2.01
42.6310,0.08,0.12,-0.98,2.93,3.42,1.95
42.6470,0.08,0.12,-0.99,2.99,3.42,2.01
42.6630,0.09,0.12,-0.98,2.99,3.36,2.01
42.6780,0.08,0.12,-0.98,2.87,3.48,2.01
42.6940,0.08,0.12,-0.98,3.05,3.54,2.08
42.7090,0.08,0.12,-0.98,3.23,3.36,1.95
42.7240,0.08,0.12,-0.98,3.17,3.60,2.08
42.7390,0.08,0.12,-0.98,3.23,3.60,2.08
42.7480,0.08,0.12,-0.98,3.05,3.78,1.95
42.7650,0.08,0.12,-0.98,2.99,3.30,2.08
42.7810,0.08,0.12,-0.98,2.99,3.66,2.08
42.7980,0.08,0.12,-0.98,3.05,3.30,1.95
42.8140,0.08,0.12,-0.98,3.11,3.42,2.14
42.8160,0.08,0.12,-0.98,2.93,3.48,1.95
42.8460,0.08,0.12,-0.98,3.11,3.54,1.89
42.8610,0.08,0.12,-0.98,3.17,3.36,1.89
42.8770,0.08,0.12,-0.98,3.11,3.30,2.08
42.8940,0.08,0.12,-0.98,3.23,3.36,1.83
42.9090,0.08,0.12,-0.98,3.17,2.93,1.95
42.9240,0.08,0.12,-0.98,3.17,3.23,1.89
42.9320,0.08,0.12,-0.98,3.05,3.23,1.95
42.9490,0.08,0.12,-0.98,2.93,3.48,1.95
42.9660,0.08,0.12,-0.98,3.11,3.23,1.89
42.9830,0.09,0.12,-0.98,3.05,3.42,2.08
42.9980,0.08,0.12,-0.98,3.05,3.36,1.89
43.0150,0.08,0.12,-0.98,2.87,3.78,1.95
43.0300,0.08,0.12,-0.98,3.11,3.17,2.01
43.0450,0.08,0.12,-0.98,2.81,3.36,2.01
43.0480,0.08,0.12,-0.98,3.17,3.36,1.95
43.0640,0.08,0.12,-0.98,3.48,2.93,1.95
43.0870,0.08,0.12,-0.98,3.17,2.93,1.95
43.1030,0.08,0.12,-0.98,2.99,3.30,1.95
43.1210,0.08,0.12,-0.98,3.11,3.60,2.08
43.1360,0.10,0.11,-0.98,2.93,3.60,2.14
43.1530,0.08,0.12,-0.98,2.93,3.23,2.56
43.1530,0.08,0.12,-0.98,2.81,3.60,2.26
43.1700,0.08,0.12,-0.98,3.23,3.36,2.14
43.1960,0.08,0.12,-0.98,2.87,3.66,2.01
43.2030,0.08,0.12,-0.98,2.99,3.48,2.08
43.2190,0.08,0.12,-0.98,3.23,3.30,2.01
43.2430,0.08,0.12,-0.98,2.93,3.48,1.95
43.2580,0.08,0.12,-0.98,2.99,3.42,2.01
43.2740,0.08,0.12,-0.98,3.23,3.48,2.14
43.2890,0.08,0.12,-0.98,2.99,3.48,1.89
43.2960,0.08,0.12,-0.98,2.87,3.66,2.08
43.3070,0.08,0.12,-0.98,2.87,3.48,2.08
43.3290,0.09,0.12,-0.98,2.93,3.42,1.95
43.3460,0.08,0.12,-0.98,3.05,3.60,2.08
43.3620,0.08,0.12,-0.98,2.99,3.60,2.01
43.3790,0.09,0.12,-0.98,2.93,3.66,2.08
43.3960,0.08,0.12,-0.98,3.11,3.48,2.01
43.4110,0.08,0.12,-0.98,3.05,3.66,2.01
43.4270,0.08,0.12,-0.98,3.30,3.30,1.95
43.4420,0.08,0.12,-0.98,3.17,3.30,2.01
43.4470,0.08,0.12,-0.98,3.05,3.60,2.01
43.4630,0.08,0.12,-0.98,3.05,3.30,2.01
43.4890,0.09,0.12,-0.98,3.11,3.60,1.89
43.5040,0.08,0.12,-0.98,2.99,3.48,1.89
43.5190,0.08,0.12,-0.98,2.87,3.66,1.89
43.5290,0.08,0.12,-0.98,3.05,3.48,1.95
43.5460,0.09,0.12,-0.98,3.11,3.42,1.89
43.5620,0.08,0.12,-0.98,2.99,3.66,2.01
43.5790,0.09,0.12,-0.98,2.87,3.54,2.01
43.5950,0.08,0.12,-0.98,3.11,3.66,2.14
43.6120,0.08,0.12,-0.98,3.23,3.85,2.01
43.6270,0.09,0.12,-0.98,3.11,3.54,2.08
43.6420,0.08,0.12,-0.98,2.99,3.30,1.89
43.6570,0.08,0.12,-0.98,3.05,3.36,2.01
43.6720,0.08,0.12,-0.98,2.99,3.30,1.95
43.6790,0.08,0.12,-0.98,3.17,3.23,2.08
43.6970,0.09,0.12,-0.98,3.05,3.72,2.14
43.7180,0.08,0.12,-0.98,2.81,3.66,2.01
43.7350,0.08,0.12,-0.99,2.93,3.36,1.95
43.7360,0.08,0.12,-0.98,2.93,3.42,2.08
43.7660,0.09,0.12,-0.98,2.93,3.54,2.14
43.7830,0.09,0.12,-0.98,3.30,3.36,1.95
43.7970,0.09,0.12,-0.98,2.99,3.36,1.95
43.8020,0.08,0.12,-0.98,3.05,3.48,2.08
43.8250,0.09,0.12,-0.98,3.05,3.60,2.08
43.8420,0.08,0.12,-0.98,2.99,3.36,1.95
43.8580,0.09,0.12,-0.98,3.17,3.17,1.95
43.8740,0.09,0.12,-0.98,3.17,3.23,1.89
43.8890,0.09,0.12,-0.98,3.23,3.30,1.83
43.9050,0.08,0.12,-0.98,3.05,3.17,1.89
43.9210,0.09,0.12,-0.98,2.99,3.23,1.77
43.9360,0.09,0.12,-0.98,3.11,3.54,1.65
43.9520,0.09,0.12,-0.98,3.11,3.36,1.40
43.9670,0.09,0.12,-0.98,3.11,3.48,1.34
43.9820,0.08,0.12,-0.98,2.93,3.30,1.28
43.9920,0.08,0.12,-0.98,3.30,3.42,1.40
44.0090,0.08,0.12,-0.98,3.11,3.60,1.46
44.0240,0.08,0.12,-0.98,3.11,3.48,1.71
44.0420,0.09,0.12,-0.98,2.87,3.54,1.71
44.0580,0.09,0.12,-0.98,3.11,3.48,1.71
44.0740,0.09,0.12,-0.98,3.11,3.60,1.71
44.0890,0.09,0.12,-0.98,2.99,3.60,1.40
44.1060,0.09,0.12,-0.98,3.11,3.17,1.59
44.1090,0.08,0.12,-0.98,3.23,3.11,1.65
44.1240,0.08,0.12,-0.98,2.87,3.36,1.95
44.1500,0.08,0.12,-0.98,2.99,3.42,2.14
44.1680,0.09,0.12,-0.98,2.93,3.66,2.14
44.1830,0.09,0.12,-0.98,2.87,3.48,2.20
44.1990,0.08,0.12,-0.98,2.99,3.42,2.69
44.2150,0.08,0.12,-0.98,2.75,3.54,2.81
44.2310,0.08,0.12,-0.98,2.99,3.11,2.44
44.2340,0.09,0.12,-0.98,3.11,3.23,2.32
44.2490,0.09,0.12,-0.98,3.23,3.36,2.56
44.2740,0.09,0.12,-0.98,3.11,3.36,2.56
44.2900,0.09,0.13,-0.98,2.99,3.23,2.93
44.3070,0.09,0.12,-0.98,3.11,3.36,2.81
44.3220,0.08,0.12,-0.98,2.87,3.11,2.93
44.3250,0.09,0.12,-0.98,2.93,3.23,2.99
44.3400,0.08,0.12,-0.98,2.93,3.17,3.42
44.3680,0.08,0.12,-0.98,2.93,3.36,3.72
44.3740,0.08,0.12,-0.98,3.05,3.42,3.60
44.3980,0.08,0.12,-0.98,3.05,3.30,3.48
44.4130,0.08,0.12,-0.98,2.99,3.30,3.23
44.4240,0.08,0.12,-0.98,2.75,3.30,3.17
44.4410,0.08,0.11,-0.99,2.87,3.30,2.81
44.4570,0.08,0.11,-0.98,2.99,3.36,2.56
44.4730,0.08,0.12,-0.98,2.99,3.30,2.14
44.4820,0.08,0.12,-0.98,3.05,3.42,2.08
44.4990,0.09,0.12,-0.99,3.17,3.42,2.01
44.5140,0.08,0.12,-0.98,3.05,3.48,2.14
44.5350,0.08,0.12,-0.98,3.05,3.60,2.38
44.5380,0.09,0.12,-0.98,3.05,3.72,2.26
44.5560,0.09,0.12,-0.98,3.17,3.23,2.26
44.5720,0.09,0.12,-0.98,2.99,3.60,2.20
44.5920,0.09,0.12,-0.98,3.11,3.36,2.32
44.6080,0.09,0.12,-0.98,2.99,3.48,2.44
44.6260,0.08,0.12,-0.98,2.99,3.36,2.44
44.6420,0.08,0.12,-0.98,3.05,3.60,2.56
44.6570,0.08,0.12,-0.98,3.17,3.30,2.56
44.6710,0.09,0.12,-0.98,2.99,3.60,2.62
44.6870,0.09,0.12,-0.98,2.87,3.17,2.81
44.6980,0.08,0.12,-0.98,2.81,2.99,3.11
44.7070,0.08,0.11,-0.99,2.87,3.17,3.11
44.7310,0.08,0.12,-0.98,2.81,3.23,2.93
44.7460,0.08,0.12,-0.98,3.05,3.17,2.93
44.7630,0.08,0.12,-0.98,2.93,2.99,2.93
44.7790,0.09,0.12,-0.98,2.93,3.30,3.17
44.7950,0.08,0.12,-0.98,3.11,3.05,3.30
44.8110,0.09,0.12,-0.98,2.93,3.54,3.17
44.8150,0.08,0.12,-0.98,2.99,3.60,2.99
44.8310,0.09,0.12,-0.98,2.93,3.17,2.87
44.8460,0.08,0.12,-0.98,2.93,3.42,3.17
44.8700,0.09,0.12,-0.98,2.99,3.11,3.23
44.8880,0.08,0.12,-0.98,2.75,3.17,3.60
44.9030,0.08,0.11,-0.98,2.81,3.48,3.54
44.9190,0.08,0.11,-0.98,2.99,3.23,2.93
44.9360,0.08,0.12,-0.98,2.93,3.17,2.44
44.9510,0.09,0.12,-0.98,3.05,2.99,2.44
44.9530,0.08,0.12,-0.98,3.17,3.23,2.32
44.9700,0.09,0.12,-0.98,3.05,3.48,2.38
44.9990,0.09,0.12,-0.98,2.93,3.48,2.56
45.0020,0.09,0.12,-0.98,2.93,3.30,2.75
45.0180,0.08,0.12,-0.98,2.93,3.42,2.87
45.0420,0.09,0.12,-0.98,2.93,3.30,2.93
45.0600,0.08,0.12,-0.98,2.93,3.23,2.93
45.0750,0.09,0.12,-0.98,2.99,3.23,3.17
45.0900,0.08,0.12,-0.98,2.99,3.42,3.36
45.1060,0.08,0.12,-0.99,2.81,3.42,3.23
45.1090,0.09,0.12,-0.98,2.87,2.99,2.81
45.1360,0.08,0.12,-0.98,2.87,3.36,2.93
45.1430,0.08,0.12,-0.98,3.05,3.30,2.99
45.1580,0.08,0.12,-0.98,3.05,2.75,2.87
45.1800,0.08,0.12,-0.98,2.99,3.23,2.69
45.1970,0.09,0.12,-0.98,3.05,3.17,2.32
45.2130,0.09,0.12,-0.98,3.05,3.17,2.44
45.2290,0.09,0.12,-0.98,3.17,3.11,2.87
45.2460,0.08,0.12,-0.98,3.11,2.99,2.87
45.2620,0.09,0.12,-0.98,3.17,2.69,2.81
45.2780,0.09,0.12,-0.98,3.17,2.69,2.69
45.2930,0.09,0.12,-0.98,3.11,3.11,2.87
45.2990,0.08,0.12,-0.98,3.05,3.17,2.99
45.3120,0.08,0.12,-0.99,2.93,3.30,3.11
45.3360,0.08,0.12,-0.98,3.11,3.36,3.05
45.3530,0.09,0.12,-0.98,3.05,3.30,2.81
45.3710,0.08,0.11,-0.99,2.99,3.17,2.93
45.3860,0.09,0.12,-0.98,3.23,3.17,2.81
45.4020,0.09,0.12,-0.98,2.99,3.30,2.99
45.4180,0.09,0.12,-0.98,3.05,3.11,3.17
45.4190,0.08,0.12,-0.99,2.99,3.17,3.23
45.4490,0.08,0.12,-0.98,2.99,3.30,3.05
45.4650,0.08,0.12,-0.98,2.99,3.30,2.87
45.4690,0.09,0.12,-0.98,2.87,3.30,2.87
45.4860,0.09,0.12,-0.98,2.87,3.23,2.87
45.5020,0.09,0.12,-0.98,2.87,3.17,2.87
45.5250,0.08,0.12,-0.98,2.99,3.23,2.93
45.5420,0.09,0.12,-0.98,3.05,3.23,2.62
45.5580,0.09,0.12,-0.98,2.99,2.81,2.75
45.5740,0.10,0.13,-0.98,2.99,3.42,2.99
45.5890,0.09,0.12,-0.98,2.99,3.42,3.17
45.6000,0.08,0.12,-0.98,2.93,3.48,3.60
45.6190,0.08,0.12,-0.98,2.87,3.42,3.54
45.6350,0.08,0.12,-0.98,2.81,2.99,3.60
45.6420,0.08,0.11,-0.98,2.69,3.23,3.30
45.6660,0.08,0.11,-0.99,2.62,3.54,3.17
45.6750,0.08,0.12,-0.98,3.05,3.17,2.56
45.6900,0.09,0.12,-0.98,3.11,3.11,2.56
45.7120,0.08,0.12,-0.98,2.93,3.54,2.75
45.7280,0.09,0.12,-0.98,2.99,3.17,2.69
45.7440,0.08,0.12,-0.98,3.23,3.11,2.93
45.7610,0.08,0.12,-0.98,2.99,3.54,2.62
45.7760,0.08,0.12,-0.98,3.05,3.42,2.69
45.7810,0.08,0.12,-0.98,3.17,3.17,2.50
45.8060,0.09,0.12,-0.98,3.11,3.36,2.56
45.8140,0.08,0.12,-0.98,3.05,3.36,2.44
45.8300,0.09,0.12,-0.98,3.30,2.99,2.38
45.8450,0.08,0.12,-0.98,3.11,3.36,2.32
45.8670,0.09,0.12,-0.98,3.05,3.48,2.44
45.8830,0.09,0.12,-0.98,3.23,3.11,2.50
45.8980,0.09,0.12,-0.98,3.11,2.99,2.62
45.9010,0.09,0.12,-0.99,2.99,3.48,2.50
45.9170,0.09,0.12,-0.98,3.05,3.17,2.44
45.9320,0.09,0.12,-0.98,3.05,2.93,2.56
45.9560,0.08,0.12,-0.98,2.87,3.42,2.56
45.9730,0.09,0.12,-0.98,2.99,3.30,2.75
45.9900,0.09,0.12,-0.98,2.99,2.81,2.62
46.0000,0.08,0.12,-0.98,2.93,3.30,2.81
46.0210,0.08,0.12,-0.98,2.81,3.36,2.69
46.0240,0.09,0.12,-0.98,3.05,3.30,2.32
46.0530,0.08,0.12,-0.99,3.05,3.11,2.62
46.0690,0.09,0.12,-0.98,3.05,3.30,2.56
46.0840,0.08,0.12,-0.98,2.81,3.23,2.75
46.1000,0.08,0.11,-0.98,2.93,3.11,2.69
46.1150,0.09,0.12,-0.98,2.93,3.23,2.81
46.1300,0.08,0.12,-0.98,2.99,2.93,2.99
46.1400,0.09,0.12,-0.98,2.99,3.17,3.17
46.1570,0.08,0.12,-0.98,2.75,3.17,3.17
46.1730,0.08,0.12,-0.98,2.75,3.11,2.87
46.1900,0.08,0.12,-0.98,3.05,3.17,2.87
46.2060,0.09,0.12,-0.98,3.11,3.30,2.81
46.2210,0.09,0.12,-0.98,2.93,3.72,2.81
46.2230,0.09,0.12,-0.98,2.99,3.17,2.87
46.2530,0.09,0.12,-0.98,2.75,3.23,3.11
46.2690,0.08,0.12,-0.98,2.93,3.23,3.17
46.2850,0.08,0.12,-0.98,2.99,3.17,2.99
46.3010,0.08,0.12,-0.98,2.99,3.17,2.93
46.3170,0.09,0.12,-0.98,3.11,3.23,2.87
46.3330,0.09,0.12,-0.98,3.05,2.87,3.17
46.3400,0.09,0.12,-0.98,2.93,2.93,3.66
46.3560,0.09,0.12,-0.98,2.81,3.11,3.91
46.3800,0.08,0.12,-0.98,2.87,3.23,3.91
46.3810,0.09,0.12,-0.98,2.93,3.05,4.09
46.4110,0.08,0.12,-0.99,2.81,2.99,4.27
46.4140,0.08,0.11,-0.98,2.87,2.81,4.15
46.4420,0.08,0.12,-0.98,3.05,2.93,3.85
46.4470,0.08,0.11,-0.98,2.87,3.30,3.54
46.4720,0.09,0.12,-0.98,2.87,3.48,3.05
46.4810,0.09,0.12,-0.98,2.87,3.11,3.60
46.5010,0.08,0.12,-0.98,2.75,3.23,4.03
46.5120,0.08,0.12,-0.99,2.93,3.05,4.09
46.5340,0.08,0.12,-0.98,2.81,3.05,3.97
46.5350,0.08,0.12,-0.98,2.81,2.99,3.78
46.5520,0.08,0.12,-0.98,2.93,3.11,3.78
46.5690,0.08,0.12,-0.98,2.81,2.99,3.05
46.5960,0.08,0.12,-0.98,2.87,3.05,3.30
46.6020,0.08,0.12,-0.98,2.93,3.11,3.30
46.6190,0.08,0.12,-0.98,2.99,3.05,2.93
46.6360,0.09,0.12,-0.98,3.05,3.30,2.81
46.6530,0.09,0.12,-0.98,2.93,3.11,2.87
46.6690,0.09,0.12,-0.98,3.11,2.87,2.93
46.6860,0.08,0.12,-0.98,2.93,3.05,3.17
46.7020,0.08,0.12,-0.99,2.99,3.11,2.99
46.7180,0.09,0.12,-0.98,3.05,3.23,2.75
46.7210,0.09,0.12,-0.98,3.17,3.17,2.56
46.7500,0.09,0.12,-0.98,3.23,2.81,2.81
46.7530,0.08,0.12,-0.98,2.93,3.23,2.87
46.7690,0.09,0.12,-0.98,3.05,2.87,2.81
46.7930,0.09,0.12,-0.98,3.05,3.30,2.56
46.8100,0.09,0.12,-0.98,3.11,2.99,2.56
46.8270,0.09,0.12,-0.98,3.11,3.42,2.93
46.8430,0.08,0.12,-0.98,3.05,3.23,2.93
46.8580,0.09,0.12,-0.98,2.99,3.23,2.75
46.8740,0.09,0.12,-0.98,2.87,3.42,2.81
46.8880,0.08,0.12,-0.98,3.11,3.05,2.87
46.9040,0.08,0.12,-0.98,3.11,3.54,2.81
46.9100,0.09,0.12,-0.98,2.93,3.30,2.75
46.9350,0.09,0.12,-0.98,2.93,3.42,3.05
46.9500,0.08,0.12,-0.98,2.93,3.23,3.48
46.9600,0.08,0.11,-0.98,2.99,3.11,3.30
46.9760,0.08,0.11,-0.99,2.87,3.48,2.99
46.9930,0.08,0.12,-0.99,2.93,3.23,2.87
47.0100,0.09,0.12,-0.98,2.93,2.93,2.56
47.0260,0.08,0.12,-0.98,3.11,3.30,2.75
47.0430,0.09,0.12,-0.98,3.11,2.99,2.56
47.0580,0.09,0.12,-0.98,3.17,3.36,2.44
47.0740,0.08,0.12,-0.98,2.93,3.42,2.38
47.0770,0.08,0.12,-0.98,2.93,3.30,2.38
47.1050,0.09,0.12,-0.98,3.05,3.23,2.44
47.1210,0.09,0.12,-0.98,2.99,3.23,2.38
47.1270,0.09,0.12,-0.98,2.87,3.48,2.50
47.1430,0.09,0.12,-0.98,2.99,3.05,2.69
47.1650,0.08,0.12,-0.98,2.99,3.36,2.69
47.1810,0.08,0.12,-0.98,3.05,3.23,2.62
47.1980,0.08,0.12,-0.98,3.11,3.05,2.56
47.2150,0.08,0.12,-0.98,2.93,3.30,2.50
47.2310,0.08,0.12,-0.98,2.93,3.17,2.62
47.2470,0.08,0.12,-0.98,3.05,3.17,2.26
47.2630,0.09,0.12,-0.98,3.05,3.30,2.14
47.2790,0.09,0.12,-0.98,3.11,3.42,2.44
47.2940,0.08,0.12,-0.98,3.05,3.23,2.38
47.3100,0.08,0.12,-0.98,3.05,3.11,2.32
47.3250,0.08,0.12,-0.98,2.93,3.48,2.44
47.3400,0.08,0.12,-0.98,2.99,2.93,2.26
47.3480,0.08,0.12,-0.98,2.87,3.48,2.44
47.3650,0.09,0.12,-0.98,3.05,3.23,2.32
47.3800,0.09,0.12,-0.98,3.05,3.30,2.32
47.4010,0.09,0.12,-0.98,2.99,3.17,2.38
47.4120,0.09,0.12,-0.98,3.05,3.23,2.50
47.4290,0.09,0.12,-0.98,3.11,3.17,2.44
47.4450,0.08,0.12,-0.98,2.87,3.17,2.69
47.4620,0.08,0.12,-0.98,3.05,3.36,2.75
47.4770,0.08,0.11,-0.98,3.05,3.36,2.81
47.4940,0.08,0.12,-0.99,3.11,2.99,2.56
47.5080,0.08,0.12,-0.98,3.05,3.17,2.38
47.5240,0.08,0.12,-0.98,3.05,3.11,2.56
47.5390,0.08,0.12,-0.98,3.23,3.42,2.56
47.5540,0.08,0.12,-0.98,3.11,3.05,2.56
47.5620,0.08,0.12,-0.98,3.05,3.36,2.32
47.5780,0.09,0.12,-0.98,3.17,3.23,2.44
47.5960,0.09,0.12,-0.98,3.05,3.11,2.50
47.6120,0.08,0.12,-0.98,3.11,3.23,2.62
47.6290,0.09,0.13,-0.98,2.93,3.17,2.81
47.6440,0.08,0.12,-0.98,3.05,3.05,2.87
47.6620,0.09,0.12,-0.98,3.05,2.81,2.81
47.6770,0.08,0.12,-0.98,3.11,3.05,2.93
47.6930,0.09,0.13,-0.98,3.05,2.50,3.05
47.7090,0.09,0.12,-0.98,2.99,3.11,3.05
47.7240,0.09,0.12,-0.98,3.05,3.30,3.05
47.7290,0.09,0.12,-0.98,3.05,3.11,2.99
47.7440,0.08,0.12,-0.98,2.93,2.93,2.93
47.7680,0.08,0.11,-0.99,3.11,2.81,2.69
