Timestamp, AccX, AccY, AccZ, GyroX, GyroY, GyroZ
0.0110,0.08,0.12,-0.99,1.83,3.97,1.83
0.0260,0.08,0.12,-0.99,2.01,4.09,1.89
0.0340,0.08,0.12,-0.99,2.08,4.09,2.20
0.0510,0.08,0.12,-0.99,2.50,3.72,2.08
0.0680,0.08,0.13,-1.00,3.42,3.30,1.83
0.0830,0.08,0.12,-0.99,2.99,3.60,1.95
0.1000,0.08,0.12,-0.99,3.42,3.60,2.08
0.1160,0.08,0.12,-0.99,3.36,3.66,1.95
0.1310,0.09,0.12,-0.99,3.36,3.30,1.77
0.1460,0.09,0.12,-0.99,3.05,3.42,1.65
0.1610,0.09,0.12,-0.99,3.30,3.36,1.46
0.1750,0.08,0.12,-0.99,3.11,3.48,1.40
0.1830,0.08,0.12,-0.99,3.23,3.78,1.40
0.2000,0.08,0.12,-0.99,3.54,3.85,1.59
0.2160,0.08,0.12,-0.99,3.36,3.91,1.65
0.2340,0.08,0.12,-0.99,3.11,3.97,1.71
0.2500,0.08,0.12,-0.99,3.11,3.78,1.71
0.2670,0.08,0.12,-0.99,3.36,3.54,1.77
0.2670,0.08,0.12,-0.99,3.11,3.85,2.01
0.2970,0.08,0.12,-0.99,3.30,3.78,2.08
0.3010,0.08,0.12,-0.99,3.11,3.85,1.95
0.3170,0.08,0.12,-0.99,3.30,3.60,2.01
0.3420,0.08,0.12,-0.99,3.11,3.30,1.95
0.3500,0.08,0.12,-0.99,3.30,3.66,2.14
0.3660,0.08,0.12,-0.99,3.05,3.48,2.01
0.3830,0.08,0.12,-0.99,3.30,3.66,2.08
0.4000,0.08,0.12,-0.99,3.23,3.60,2.08
0.4170,0.08,0.12,-0.99,3.17,3.78,2.01
0.4330,0.08,0.12,-0.99,3.11,3.72,2.20
0.4500,0.08,0.12,-0.99,3.05,3.85,2.01
0.4660,0.08,0.12,-0.99,2.81,3.91,2.08
0.4820,0.08,0.12,-0.99,2.75,3.85,2.14
0.4970,0.08,0.12,-0.99,2.81,3.54,2.14
0.5000,0.08,0.12,-0.99,2.75,3.85,2.08
0.5160,0.08,0.12,-0.99,2.87,3.97,1.77
0.5430,0.08,0.12,-0.99,2.62,3.72,2.62
0.5550,0.08,0.13,-0.99,2.75,3.60,3.23
0.5710,0.08,0.12,-0.99,2.69,3.36,4.33
0.5890,0.08,0.12,-0.99,2.62,3.42,5.13
0.5910,0.08,0.12,-0.99,2.56,3.30,5.31
0.6210,0.09,0.11,-0.99,2.62,3.48,4.82
0.6360,0.09,0.11,-0.99,3.05,3.42,3.54
0.6520,0.08,0.13,-0.99,3.05,3.85,2.87
0.6680,0.08,0.16,-0.99,2.26,3.42,6.35
0.6830,0.09,0.17,-0.98,1.40,2.56,11.72
0.6920,0.08,0.15,-0.99,1.71,2.01,16.48
0.7070,0.08,0.13,-0.98,1.34,2.14,16.17
0.7290,0.09,0.10,-0.99,2.01,1.83,15.81
0.7450,0.08,0.06,-1.00,2.26,2.87,9.95
0.7470,0.08,0.04,-1.00,3.11,3.17,4.46
0.7630,0.09,0.11,-0.99,4.64,3.85,1.46
0.7830,0.09,0.11,-1.00,4.58,3.91,-0.92
0.8010,0.09,0.12,-0.99,3.66,4.15,-1.46
0.8170,0.08,0.12,-0.99,3.36,4.39,-1.28
0.8340,0.08,0.12,-0.99,3.54,3.85,-1.16
0.8500,0.08,0.12,-0.99,3.60,4.27,-0.67
0.8680,0.08,0.12,-0.99,3.72,4.09,0.00
0.8830,0.08,0.12,-0.99,3.85,3.48,0.55
0.8990,0.08,0.12,-0.99,3.60,3.48,0.67
0.9150,0.09,0.11,-0.99,3.72,4.03,0.12
0.9300,0.09,0.12,-0.99,3.97,3.66,-1.28
0.9480,0.08,0.12,-0.99,3.66,4.03,-1.22
0.9510,0.08,0.12,-0.99,3.54,3.97,0.18
0.9660,0.08,0.12,-0.99,3.30,3.54,0.85
0.9910,0.08,0.12,-0.99,3.48,3.97,1.34
1.0060,0.08,0.12,-0.99,3.11,4.21,1.83
1.0240,0.08,0.12,-0.99,3.23,3.66,2.01
1.0390,0.08,0.12,-0.99,3.30,3.78,2.08
1.0550,0.08,0.12,-0.99,3.30,3.42,2.20
1.0710,0.08,0.12,-0.99,3.54,3.60,2.14
1.0870,0.08,0.12,-0.99,3.36,3.48,2.14
1.1020,0.08,0.12,-0.99,3.17,3.48,2.14
1.1180,0.08,0.12,-0.99,3.17,3.42,1.89
1.1330,0.08,0.12,-0.99,3.17,3.48,2.08
1.1410,0.08,0.12,-0.99,2.99,3.72,2.08
1.1560,0.08,0.12,-0.99,3.17,3.78,2.20
1.1800,0.08,0.12,-0.99,2.99,3.36,2.08
1.1950,0.08,0.12,-0.99,3.05,3.97,2.08
1.2120,0.08,0.12,-0.99,3.11,3.66,1.95
1.2270,0.08,0.12,-0.99,3.17,3.72,1.89
1.2430,0.08,0.12,-0.99,3.23,3.48,2.08
1.2590,0.08,0.12,-0.99,3.23,3.66,2.08
1.2750,0.08,0.12,-0.99,3.36,3.72,2.01
1.2900,0.08,0.12,-0.99,3.17,3.54,2.01
1.3050,0.08,0.12,-0.99,3.23,3.66,2.26
1.3190,0.08,0.12,-0.99,3.17,3.91,2.08
1.3340,0.08,0.12,-0.99,3.05,3.72,2.14
1.3450,0.08,0.12,-0.99,3.17,3.97,2.01
1.3620,0.08,0.12,-0.99,3.17,3.66,2.20
1.3790,0.08,0.12,-0.99,3.11,3.48,2.01
1.3950,0.08,0.12,-0.99,3.17,3.36,2.08
1.4100,0.08,0.12,-0.99,3.17,3.60,2.14
1.4240,0.08,0.12,-0.99,3.17,3.78,2.08
1.4390,0.08,0.12,-0.99,3.05,3.48,2.14
1.4560,0.08,0.12,-0.99,2.93,3.72,2.08
1.4710,0.08,0.12,-0.99,2.93,3.48,2.08
1.4870,0.08,0.12,-0.99,3.05,3.60,2.08
1.5020,0.08,0.12,-0.99,3.05,3.60,2.08
1.5120,0.08,0.12,-0.99,2.99,3.72,2.08
1.5320,0.08,0.12,-0.99,3.05,3.78,2.08
1.5490,0.08,0.12,-0.99,3.05,3.60,2.08
1.5500,0.08,0.12,-0.99,3.23,3.72,2.08
1.5660,0.08,0.12,-0.99,3.54,3.85,2.08
1.5840,0.08,0.12,-0.99,3.54,3.78,2.26
1.5990,0.08,0.12,-0.99,3.36,3.78,2.01
1.6160,0.08,0.12,-0.99,2.93,3.78,2.08
1.6330,0.08,0.12,-0.99,3.23,3.60,2.08
1.6590,0.08,0.12,-0.99,3.23,3.54,2.01
1.6670,0.08,0.12,-0.99,2.93,3.91,2.08
1.6840,0.08,0.12,-0.99,3.05,3.85,2.20
1.7010,0.08,0.12,-0.99,2.93,3.66,2.08
1.7180,0.08,0.12,-0.99,3.05,3.85,2.08
1.7350,0.08,0.12,-0.99,3.23,3.66,1.95
1.7510,0.09,0.12,-0.99,3.11,3.48,1.89
1.7670,0.08,0.12,-0.99,3.17,3.42,2.01
1.7850,0.08,0.12,-0.99,3.05,3.60,2.01
1.8010,0.08,0.12,-0.99,3.05,3.85,2.08
1.8170,0.08,0.12,-0.99,3.36,3.85,2.14
1.8310,0.08,0.12,-0.99,3.42,3.72,2.14
1.8470,0.08,0.12,-0.99,2.93,3.72,2.14
1.8620,0.08,0.12,-0.99,3.11,3.72,2.08
1.8760,0.08,0.12,-0.99,2.87,3.48,1.95
1.8920,0.08,0.12,-0.99,3.11,3.60,2.01
1.9070,0.08,0.12,-0.99,3.05,3.72,1.89
1.9180,0.08,0.12,-0.99,2.99,3.54,2.08
1.9350,0.08,0.12,-0.99,3.17,3.66,2.08
1.9510,0.08,0.12,-0.99,3.11,3.36,1.95
1.9690,0.08,0.12,-0.99,3.36,3.85,2.08
1.9690,0.08,0.12,-0.99,3.23,3.78,2.08
2.0010,0.08,0.12,-0.99,3.17,3.85,2.14
2.0020,0.08,0.12,-0.99,3.23,3.78,2.20
2.0320,0.08,0.12,-0.99,3.42,3.36,2.01
2.0480,0.08,0.12,-0.99,3.05,3.91,2.20
2.0650,0.08,0.12,-0.99,3.23,3.60,2.08
2.0680,0.08,0.12,-0.99,2.87,3.91,2.14
2.0830,0.08,0.12,-0.99,2.87,3.72,2.14
2.1070,0.08,0.12,-0.99,2.93,3.48,2.14
2.1240,0.08,0.12,-0.99,3.11,3.85,2.01
2.1400,0.08,0.12,-0.99,3.17,3.78,2.14
2.1570,0.08,0.12,-0.99,3.30,3.97,2.01
2.1730,0.08,0.12,-0.99,3.17,3.60,2.14
2.1890,0.08,0.12,-0.99,2.99,3.85,2.14
2.1910,0.08,0.12,-0.99,3.05,3.66,2.26
2.2060,0.08,0.12,-0.99,3.11,3.97,2.08
2.2350,0.08,0.12,-0.99,3.30,3.42,2.01
2.2450,0.08,0.12,-0.99,3.05,3.66,2.08
2.2610,0.08,0.12,-0.99,3.11,3.60,2.01
2.2820,0.08,0.12,-0.99,3.30,3.66,2.08
2.2970,0.08,0.12,-0.99,3.17,3.78,2.14
2.3140,0.08,0.12,-0.99,3.17,3.48,2.01
2.3290,0.08,0.12,-0.99,3.17,3.85,2.20
2.3340,0.08,0.12,-0.99,3.11,3.85,2.14
2.3590,0.08,0.12,-0.99,3.05,3.66,2.08
2.3750,0.08,0.12,-0.99,3.17,3.54,2.01
2.3830,0.08,0.12,-0.99,2.99,3.66,2.01
2.3990,0.08,0.12,-0.99,2.99,3.85,2.08
2.4160,0.08,0.12,-0.99,3.23,3.30,2.14
2.4330,0.08,0.12,-0.99,3.23,3.72,2.08
2.4500,0.08,0.12,-0.99,3.42,3.54,2.08
2.4650,0.08,0.12,-0.99,3.11,3.78,2.26
2.4810,0.08,0.12,-0.99,3.17,3.60,2.14
2.4970,0.08,0.12,-0.99,3.05,3.91,2.14
2.5130,0.08,0.12,-0.99,3.05,3.72,1.95
2.5280,0.08,0.12,-0.99,3.36,3.48,1.95
2.5340,0.08,0.12,-0.99,3.48,3.72,2.08
2.5490,0.08,0.12,-0.99,3.36,3.72,2.01
2.5720,0.08,0.12,-0.99,3.36,3.66,2.01
2.5890,0.08,0.12,-0.99,3.30,3.97,2.08
2.6040,0.09,0.11,-1.00,3.17,3.72,1.89
2.6210,0.09,0.09,-0.99,3.17,5.07,-4.64
2.6350,0.08,0.11,-0.99,4.33,5.74,-10.56
2.6520,0.07,0.12,-0.99,4.64,5.55,-9.03
2.6680,0.08,0.12,-0.99,4.46,5.19,-7.93
2.6830,0.08,0.12,-0.99,4.64,4.94,-5.98
2.6990,0.08,0.13,-0.99,4.46,4.70,-5.07
2.7150,0.08,0.15,-0.99,3.85,4.09,-2.32
2.7300,0.08,0.14,-0.99,3.54,3.97,0.31
2.7440,0.10,0.09,-1.00,3.30,3.78,0.67
2.7550,0.10,0.07,-1.00,3.97,4.76,-5.19
2.7710,0.09,0.07,-1.00,5.00,6.10,-12.94
2.7890,0.07,0.09,-1.00,5.00,6.35,-14.53
2.8040,0.07,0.12,-1.00,4.94,6.29,-14.71
2.8210,0.08,0.17,-0.98,4.82,6.35,-11.05
2.8330,0.09,0.22,-0.97,3.60,3.66,-0.43
2.8420,0.08,0.13,-0.99,2.69,3.48,2.75
2.8580,0.08,0.12,-0.99,2.38,3.48,3.30
2.8790,0.08,0.12,-0.99,2.50,2.99,4.39
2.8960,0.08,0.12,-0.99,2.56,3.17,4.39
2.9120,0.07,0.13,-0.99,2.38,3.48,4.33
2.9290,0.07,0.13,-0.99,1.59,3.42,7.39
2.9450,0.06,0.12,-0.99,1.71,3.48,7.32
2.9600,0.07,0.11,-0.99,1.83,3.72,6.10
2.9760,0.09,0.11,-1.00,3.17,4.27,2.08
2.9920,0.11,0.12,-0.99,2.56,3.78,2.75
3.0080,0.11,0.12,-0.99,2.93,3.30,4.03
3.0130,0.08,0.13,-0.99,3.05,3.36,3.91
3.0330,0.07,0.14,-1.00,2.26,3.17,5.80
3.0520,0.06,0.14,-0.99,1.40,2.93,10.44
3.0680,0.06,0.13,-0.99,-0.43,2.56,13.12
3.0830,0.10,0.10,-0.99,0.79,2.81,13.00
3.1000,0.11,0.09,-0.99,2.26,2.69,8.73
3.1150,0.10,0.10,-0.99,3.72,2.75,4.03
3.1310,0.09,0.12,-0.99,4.27,3.17,2.26
3.1470,0.08,0.12,-0.99,3.72,3.54,2.01
3.1520,0.09,0.12,-0.99,3.60,3.72,2.20
3.1790,0.09,0.12,-0.99,3.66,3.54,2.20
3.1940,0.10,0.13,-0.99,3.97,3.42,3.23
3.2050,0.09,0.13,-0.99,3.85,2.56,6.84
3.2210,0.07,0.12,-0.99,3.42,2.93,8.06
3.2390,0.07,0.11,-1.00,2.99,2.99,6.53
3.2540,0.06,0.10,-1.00,2.87,3.11,5.19
3.2690,0.08,0.12,-0.99,3.30,3.60,2.44
3.2840,0.08,0.12,-0.99,3.78,3.60,2.20
3.2990,0.09,0.12,-0.99,3.48,3.66,2.08
3.3160,0.08,0.12,-0.99,3.30,3.36,2.01
3.3320,0.08,0.12,-0.99,3.05,3.72,2.01
3.3490,0.08,0.12,-0.99,2.99,3.42,1.89
3.3550,0.08,0.12,-0.99,2.99,3.72,2.08
3.3710,0.08,0.12,-0.99,3.05,3.54,2.14
3.3930,0.08,0.12,-0.99,3.23,3.66,2.08
3.4100,0.08,0.12,-0.99,3.54,3.54,2.08
3.4260,0.08,0.12,-0.99,3.42,3.48,2.14
3.4420,0.08,0.12,-0.99,3.30,3.66,2.14
3.4570,0.08,0.12,-0.99,3.11,3.78,2.01
3.4590,0.09,0.12,-0.99,3.17,3.30,1.95
3.4750,0.08,0.12,-0.99,3.17,3.54,2.01
3.4970,0.08,0.12,-0.99,3.23,3.42,2.20
3.5140,0.08,0.12,-0.99,3.17,3.91,2.14
3.5300,0.08,0.12,-0.99,3.42,3.91,2.14
3.5480,0.08,0.12,-0.99,3.30,3.66,1.95
3.5640,0.08,0.12,-0.99,3.17,3.36,1.95
3.5790,0.08,0.12,-0.99,3.11,3.78,2.08
3.5940,0.08,0.12,-0.99,3.36,3.78,2.14
3.5970,0.08,0.12,-0.99,3.48,3.48,2.01
3.6120,0.08,0.12,-0.99,3.42,3.48,2.01
3.6410,0.08,0.12,-0.99,3.36,3.54,2.14
3.6510,0.08,0.12,-0.99,3.42,3.42,2.08
3.6670,0.08,0.11,-0.99,3.11,3.48,2.01
3.6850,0.08,0.12,-0.99,3.17,3.78,2.01
3.7010,0.08,0.12,-0.99,3.17,3.54,2.08
3.7170,0.08,0.12,-0.99,3.23,3.60,1.95
3.7340,0.08,0.12,-0.99,3.17,3.54,2.14
3.7500,0.08,0.12,-0.99,3.05,3.72,1.95
3.7650,0.08,0.12,-0.99,3.11,3.54,2.08
3.7800,0.08,0.12,-0.99,2.93,3.72,2.01
3.7960,0.08,0.12,-0.99,3.11,3.85,2.01
3.8110,0.08,0.12,-0.99,3.30,3.66,2.08
3.8260,0.08,0.12,-0.99,3.36,3.85,2.01
3.8340,0.08,0.12,-0.99,3.11,3.48,2.01
3.8500,0.08,0.12,-0.99,3.11,3.66,2.20
3.8720,0.08,0.12,-0.99,3.23,3.72,2.01
3.8880,0.08,0.12,-0.99,3.23,3.72,2.08
3.9030,0.08,0.12,-0.99,3.17,3.54,2.26
3.9190,0.08,0.12,-0.99,2.87,3.66,2.20
3.9340,0.08,0.12,-0.99,3.11,3.66,2.14
3.9380,0.08,0.12,-0.99,3.23,4.15,2.08
3.9600,0.08,0.12,-0.99,3.11,3.66,2.20
3.9770,0.08,0.12,-0.99,3.30,3.60,2.08
3.9940,0.08,0.12,-0.99,3.23,3.85,2.01
4.0100,0.08,0.12,-0.99,3.30,3.91,2.01
4.0270,0.08,0.12,-0.99,2.99,3.60,2.01
4.0340,0.08,0.12,-0.99,3.23,3.60,2.01
4.0440,0.08,0.12,-0.99,3.17,3.85,2.26
4.0600,0.08,0.12,-0.99,2.99,3.54,2.26
4.0890,0.08,0.12,-0.99,3.30,3.36,2.14
4.1000,0.08,0.12,-0.99,3.11,3.60,2.14
4.1160,0.08,0.12,-0.99,3.05,3.54,2.14
4.1350,0.09,0.12,-0.99,3.05,3.78,2.08
4.1500,0.08,0.12,-0.99,3.17,3.48,2.08
4.1660,0.08,0.12,-0.99,3.36,3.72,2.01
4.1820,0.08,0.12,-0.99,3.17,4.03,2.14
4.1980,0.08,0.12,-0.99,3.17,4.09,2.08
4.2120,0.08,0.12,-0.99,3.05,3.72,2.08
4.2290,0.08,0.12,-0.99,3.05,3.66,1.95
4.2450,0.08,0.12,-0.99,3.11,3.72,2.14
4.2490,0.08,0.12,-0.99,3.05,3.66,1.95
4.2650,0.08,0.12,-0.99,3.11,3.91,2.14
4.2900,0.08,0.12,-0.99,2.93,3.78,2.01
4.3060,0.08,0.12,-0.99,3.30,3.91,2.08
4.3210,0.08,0.12,-0.99,2.99,3.91,1.95
4.3370,0.08,0.12,-0.99,3.11,3.85,1.89
4.3520,0.08,0.12,-0.99,3.23,3.78,1.77
4.3680,0.08,0.12,-0.99,3.23,3.60,2.14
4.3730,0.09,0.12,-0.99,2.87,4.03,2.20
4.3890,0.08,0.12,-0.99,3.11,3.48,2.08
4.4110,0.08,0.12,-0.99,3.11,3.60,1.83
4.4270,0.08,0.12,-0.99,3.11,3.60,1.83
4.4440,0.08,0.12,-0.99,3.17,3.48,1.95
4.4600,0.08,0.12,-0.99,3.23,3.85,2.01
4.4770,0.08,0.12,-0.99,3.17,3.91,2.01
4.4940,0.08,0.12,-0.99,2.99,3.85,1.95
4.5110,0.08,0.12,-0.99,3.11,3.85,1.83
4.5270,0.08,0.12,-0.99,3.05,3.66,1.71
4.5430,0.08,0.12,-0.99,3.17,3.66,2.14
4.5600,0.08,0.12,-0.99,3.05,3.91,2.08
4.5750,0.08,0.12,-0.99,2.93,3.66,2.14
4.5900,0.08,0.12,-0.99,2.99,3.91,2.14
4.6000,0.08,0.14,-0.99,3.11,3.48,1.89
4.6160,0.08,0.12,-0.99,3.30,3.60,3.60
4.6350,0.08,0.12,-0.99,3.11,3.23,3.66
4.6490,0.08,0.12,-0.99,3.17,3.42,3.60
4.6650,0.09,0.11,-0.99,2.93,3.42,3.54
4.6830,0.09,0.11,-0.99,2.99,3.42,2.99
4.6990,0.09,0.11,-0.99,3.17,3.42,2.38
4.7150,0.09,0.12,-0.99,3.17,3.48,2.08
4.7310,0.08,0.12,-0.99,3.17,3.36,2.14
4.7470,0.08,0.12,-0.99,2.99,3.54,1.77
4.7490,0.08,0.12,-0.99,3.05,4.09,1.95
4.7650,0.08,0.12,-0.99,3.05,3.60,2.20
4.7900,0.08,0.12,-0.99,3.36,3.66,2.26
4.8060,0.08,0.12,-0.99,2.99,3.60,2.87
4.8220,0.08,0.13,-0.99,3.23,3.17,3.30
4.8380,0.09,0.12,-0.99,3.17,3.36,3.11
4.8540,0.09,0.11,-0.99,3.23,3.23,2.50
4.8700,0.09,0.11,-0.99,3.23,3.36,2.32
4.8860,0.09,0.12,-0.99,3.17,3.72,2.08
4.8890,0.09,0.12,-0.99,3.36,3.66,2.01
4.9050,0.08,0.12,-0.99,3.11,3.78,2.08
4.9290,0.08,0.12,-0.99,2.87,3.48,2.01
4.9470,0.08,0.12,-0.99,2.99,3.60,2.08
4.9620,0.08,0.12,-0.99,3.30,3.85,2.01
4.9790,0.08,0.12,-0.99,2.99,3.85,2.01
4.9950,0.08,0.12,-0.99,3.23,3.54,2.14
5.0110,0.08,0.12,-0.99,3.17,4.03,2.14
5.0280,0.08,0.12,-0.99,3.30,3.66,2.08
5.0430,0.08,0.12,-0.99,3.17,3.91,2.08
5.0590,0.08,0.12,-0.99,3.05,3.54,2.08
5.0730,0.08,0.12,-0.99,3.05,3.66,1.95
5.0880,0.08,0.12,-0.99,3.05,3.60,1.89
5.0960,0.08,0.12,-0.99,2.87,3.97,2.01
5.1120,0.08,0.12,-0.99,3.30,3.91,2.20
5.1340,0.08,0.12,-0.99,3.23,3.60,1.89
5.1500,0.09,0.13,-0.99,3.23,3.54,2.26
5.1660,0.08,0.13,-0.99,2.99,3.60,3.05
5.1820,0.08,0.12,-0.99,3.05,3.72,2.87
5.1980,0.08,0.11,-0.99,3.23,3.60,2.56
5.2010,0.08,0.11,-0.99,2.99,3.85,2.14
5.2170,0.08,0.12,-0.99,2.99,3.91,2.26
5.2420,0.08,0.12,-0.99,3.17,3.91,2.14
5.2580,0.08,0.12,-0.99,2.93,3.91,2.14
5.2730,0.08,0.12,-0.99,2.81,3.91,2.01
5.2880,0.08,0.12,-0.99,3.11,3.60,2.14
5.2920,0.08,0.12,-0.99,2.99,3.48,1.89
5.3070,0.08,0.12,-0.99,3.30,3.78,2.14
5.3310,0.08,0.12,-0.99,3.17,3.36,2.14
5.3480,0.08,0.12,-0.99,3.23,3.85,2.08
5.3650,0.08,0.12,-0.99,3.17,3.85,1.89
5.3810,0.08,0.12,-0.99,3.11,4.03,2.08
5.3980,0.08,0.12,-0.99,3.17,3.48,2.01
5.4140,0.08,0.12,-0.99,3.30,3.66,1.95
5.4300,0.08,0.12,-0.99,3.17,3.91,2.14
5.4360,0.08,0.12,-0.99,2.87,4.03,2.08
5.4490,0.08,0.12,-0.99,3.30,3.91,2.01
5.4650,0.08,0.12,-0.99,3.11,3.54,2.08
5.4920,0.08,0.12,-0.99,3.30,3.66,2.01
5.5040,0.08,0.12,-0.99,3.11,3.72,2.01
5.5200,0.08,0.12,-0.99,3.11,3.72,2.20
5.5370,0.08,0.12,-0.99,2.99,3.36,2.08
5.5540,0.08,0.12,-0.99,3.17,3.78,2.26
5.5690,0.08,0.12,-0.99,3.05,4.03,2.14
5.5840,0.08,0.12,-0.99,2.93,4.15,2.08
5.6000,0.08,0.12,-0.99,3.11,3.72,2.01
5.6160,0.08,0.12,-0.99,3.23,3.54,2.01
5.6200,0.09,0.12,-0.99,3.23,3.60,1.95
5.6350,0.08,0.12,-0.99,2.99,3.78,2.14
5.6600,0.08,0.12,-0.99,3.17,3.60,2.01
5.6750,0.08,0.12,-0.99,3.11,3.85,2.01
5.6920,0.08,0.12,-0.99,3.17,3.66,1.95
5.7070,0.08,0.12,-0.99,3.05,3.36,2.01
5.7220,0.08,0.12,-0.99,3.11,3.85,2.01
5.7370,0.08,0.12,-0.99,3.05,3.66,2.01
5.7430,0.08,0.12,-0.99,3.11,3.54,2.14
5.7580,0.08,0.12,-0.99,3.11,3.85,2.08
5.7830,0.08,0.12,-0.99,2.99,3.54,1.89
5.7980,0.09,0.12,-0.99,3.23,3.60,2.14
5.8140,0.08,0.12,-0.99,2.99,3.85,1.95
5.8310,0.08,0.12,-0.99,2.99,3.78,2.08
5.8360,0.08,0.12,-0.99,3.11,3.78,1.89
5.8490,0.08,0.12,-0.99,3.23,3.91,1.89
5.8710,0.08,0.12,-0.99,3.17,3.48,2.08
5.8890,0.08,0.12,-0.99,3.11,3.54,2.08
5.9050,0.08,0.12,-0.99,3.05,3.91,2.08
5.9220,0.08,0.12,-0.99,3.11,3.60,2.08
5.9360,0.08,0.12,-0.99,2.99,3.72,2.14
5.9450,0.08,0.12,-0.99,3.05,3.85,1.89
5.9620,0.08,0.12,-0.99,2.99,3.72,2.26
5.9780,0.08,0.12,-0.99,3.11,4.03,2.08
5.9980,0.08,0.12,-0.99,2.99,3.97,2.01
6.0150,0.08,0.12,-0.99,3.05,3.91,1.95
6.0310,0.08,0.12,-0.99,3.17,3.60,2.14
6.0360,0.08,0.12,-0.99,3.17,3.54,2.08
6.0490,0.08,0.12,-0.99,2.87,3.97,2.08
6.0730,0.09,0.12,-0.99,3.11,3.66,2.08
6.0890,0.09,0.13,-0.99,2.99,3.97,2.08
6.1050,0.09,0.12,-0.99,3.05,3.36,2.56
6.1220,0.09,0.13,-0.99,3.05,3.23,2.75
6.1380,0.08,0.11,-0.99,2.99,3.54,2.93
6.1540,0.08,0.12,-0.99,3.05,3.23,1.95
6.1700,0.08,0.12,-0.99,2.99,3.60,1.77
6.1860,0.08,0.12,-0.99,3.17,3.72,2.01
6.2020,0.08,0.12,-0.99,3.17,3.91,2.08
6.2170,0.08,0.12,-0.99,3.05,3.85,2.14
6.2320,0.08,0.12,-0.99,3.17,3.60,1.95
6.2390,0.08,0.12,-0.99,3.30,3.91,2.01
6.2550,0.09,0.12,-0.99,2.93,3.85,2.14
6.2750,0.08,0.12,-0.99,3.17,3.78,1.95
6.2920,0.08,0.12,-0.99,3.05,3.72,1.95
6.3070,0.09,0.12,-0.99,3.23,3.72,2.08
6.3220,0.08,0.12,-0.99,3.23,3.42,1.89
6.3380,0.08,0.12,-0.99,3.05,3.54,2.01
6.3540,0.08,0.12,-0.99,3.11,3.66,2.08
6.3590,0.08,0.12,-0.99,3.11,3.54,2.01
6.3740,0.08,0.12,-0.99,3.05,3.66,2.01
6.3980,0.08,0.12,-0.99,3.05,3.85,2.01
6.4140,0.08,0.12,-0.99,3.23,3.54,1.89
6.4310,0.08,0.12,-0.99,3.23,3.60,1.95
6.4490,0.08,0.12,-0.99,3.17,3.48,2.01
6.4650,0.09,0.12,-0.99,3.11,3.85,2.20
6.4820,0.08,0.12,-0.99,3.23,4.09,1.89
6.4980,0.08,0.12,-0.99,2.93,4.15,1.89
6.5140,0.08,0.12,-0.99,3.17,3.42,2.01
6.5150,0.08,0.12,-0.99,3.17,3.85,2.14
6.5360,0.08,0.12,-0.99,3.17,3.72,2.08
6.5480,0.08,0.12,-0.99,3.11,3.42,1.95
6.5650,0.08,0.12,-0.99,2.99,3.36,2.01
6.5810,0.08,0.12,-0.99,2.99,3.60,1.89
6.6090,0.08,0.12,-0.99,3.05,3.72,2.08
6.6150,0.08,0.12,-0.99,3.17,3.54,2.14
6.6360,0.08,0.12,-0.99,3.30,3.78,1.95
6.6480,0.08,0.12,-0.99,3.05,3.66,2.01
6.6640,0.08,0.12,-0.99,3.23,3.60,1.95
6.6810,0.08,0.12,-0.99,3.05,3.85,2.01
6.6970,0.08,0.12,-0.99,2.93,3.72,2.14
6.7160,0.08,0.12,-0.99,3.05,3.78,2.08
6.7310,0.08,0.12,-0.99,3.05,3.66,2.08
6.7460,0.08,0.12,-0.99,3.05,3.54,2.01
6.7510,0.08,0.12,-0.99,2.99,3.78,2.14
6.7670,0.08,0.12,-0.99,3.05,3.72,1.95
6.7910,0.08,0.12,-0.99,3.17,3.91,2.14
6.8070,0.08,0.12,-0.99,3.05,3.85,2.08
6.8220,0.08,0.12,-0.99,3.11,3.66,2.08
6.8380,0.08,0.12,-0.99,2.81,3.91,2.14
6.8540,0.09,0.12,-0.99,2.93,3.72,1.95
6.8700,0.09,0.12,-0.99,3.23,3.78,2.14
6.8850,0.09,0.12,-0.99,2.99,3.72,2.14
6.9000,0.08,0.12,-0.99,2.99,3.85,2.08
6.9170,0.08,0.12,-0.99,2.99,3.60,2.14
6.9320,0.08,0.12,-0.99,3.05,3.72,2.08
6.9470,0.08,0.12,-0.99,2.99,3.60,2.20
6.9580,0.08,0.12,-0.99,2.99,3.78,1.89
6.9740,0.08,0.12,-0.99,2.93,3.85,1.95
6.9910,0.08,0.12,-0.99,3.11,3.66,2.01
7.0080,0.08,0.12,-0.99,3.30,3.42,2.20
7.0240,0.08,0.12,-0.99,3.17,3.85,2.01
7.0400,0.08,0.12,-0.99,3.05,3.91,1.95
7.0550,0.08,0.12,-0.99,3.05,3.60,1.95
7.0710,0.08,0.12,-0.99,3.17,3.85,2.14
7.0860,0.08,0.12,-0.99,2.99,3.66,2.14
7.1020,0.08,0.12,-0.99,3.11,3.48,2.26
7.1180,0.08,0.12,-0.99,3.30,3.91,2.01
7.1250,0.08,0.12,-0.99,2.93,3.85,2.08
7.1410,0.08,0.12,-0.99,2.93,4.09,1.95
7.1630,0.08,0.12,-0.99,3.05,3.60,2.01
7.1640,0.08,0.12,-0.99,3.17,3.54,2.08
7.1930,0.08,0.12,-0.99,3.36,3.66,2.08
7.1980,0.09,0.12,-0.99,2.99,3.48,2.01
7.2130,0.09,0.12,-0.99,3.11,3.78,2.08
7.2380,0.08,0.12,-0.99,3.23,3.66,2.01
7.2540,0.08,0.12,-0.99,3.11,3.85,2.08
7.2710,0.08,0.12,-0.99,3.17,3.60,2.08
7.2860,0.08,0.12,-0.99,2.99,3.91,2.08
7.3020,0.08,0.12,-0.99,3.17,3.60,2.01
7.3180,0.08,0.12,-0.99,3.17,3.72,2.08
7.3340,0.08,0.12,-0.99,2.99,3.60,2.14
7.3370,0.08,0.12,-0.99,2.93,3.91,2.08
7.3530,0.08,0.12,-0.99,2.99,4.03,2.14
7.3810,0.08,0.12,-0.99,3.17,3.91,2.20
7.3920,0.08,0.12,-0.99,3.30,3.72,2.08
7.4090,0.08,0.12,-0.99,3.17,3.66,2.01
7.4260,0.08,0.12,-0.99,3.11,3.85,2.01
7.4420,0.08,0.12,-0.99,3.05,3.72,2.08
7.4580,0.08,0.12,-0.99,3.23,3.66,2.01
7.4740,0.08,0.12,-0.99,2.99,3.91,1.89
7.4890,0.08,0.12,-0.99,2.99,3.97,2.01
7.5050,0.08,0.12,-0.99,2.99,3.78,2.14
7.5090,0.08,0.12,-0.99,3.05,3.42,2.01
7.5240,0.08,0.12,-0.99,3.05,3.54,1.95
7.5460,0.08,0.12,-0.99,3.17,3.85,2.08
7.5630,0.08,0.12,-0.99,3.17,3.91,2.01
7.5790,0.08,0.12,-0.99,3.05,3.78,2.14
7.5960,0.09,0.12,-0.99,3.11,3.72,2.01
7.6130,0.08,0.12,-0.99,3.11,3.60,2.08
7.6290,0.08,0.12,-0.99,3.05,3.85,2.08
7.6450,0.08,0.12,-0.99,3.17,3.85,2.08
7.6610,0.09,0.12,-0.99,2.99,3.72,1.95
7.6760,0.08,0.12,-0.99,2.99,3.91,2.20
7.6920,0.08,0.12,-0.99,3.23,3.66,2.08
7.7070,0.08,0.12,-0.99,3.11,3.91,2.08
7.7130,0.08,0.12,-0.99,3.05,3.42,2.01
7.7290,0.08,0.12,-0.99,2.87,3.36,2.14
7.7540,0.08,0.12,-0.99,3.05,3.36,2.08
7.7690,0.08,0.12,-0.99,3.17,3.78,2.08
7.7860,0.08,0.12,-0.99,3.17,3.42,2.14
7.8020,0.08,0.12,-0.99,3.05,3.78,2.08
7.8170,0.08,0.12,-0.99,3.17,3.42,1.95
7.8340,0.08,0.12,-0.99,2.99,3.85,2.14
7.8510,0.08,0.12,-0.99,3.17,3.36,2.26
7.8670,0.08,0.12,-0.99,3.30,3.42,2.08
7.8830,0.08,0.12,-0.99,2.99,3.78,2.14
7.8980,0.08,0.12,-0.99,3.05,3.48,2.08
7.9140,0.08,0.12,-0.99,2.99,3.72,1.95
7.9310,0.08,0.12,-0.99,3.11,3.72,2.14
7.9460,0.08,0.12,-0.99,3.23,3.60,2.08
7.9540,0.08,0.12,-0.99,3.11,3.66,2.14
7.9700,0.08,0.15,-0.99,3.11,3.36,2.87
7.9920,0.09,0.13,-0.99,3.11,3.11,5.07
8.0080,0.09,0.12,-0.99,2.69,3.48,4.94
8.0230,0.09,0.13,-0.99,2.75,3.54,5.37
8.0380,0.08,0.12,-0.99,3.05,3.23,6.10
8.0420,0.08,0.11,-0.99,2.93,3.36,5.55
8.0570,0.08,0.10,-0.99,2.87,3.78,3.97
8.0790,0.08,0.10,-0.99,3.11,3.60,2.44
8.0960,0.08,0.12,-0.99,3.11,3.72,2.08
8.1120,0.08,0.12,-0.99,3.17,3.66,2.14
8.1290,0.08,0.12,-0.99,3.23,3.85,2.14
8.1460,0.08,0.12,-0.99,3.11,3.91,2.14
8.1620,0.08,0.12,-0.99,3.23,3.85,2.08
8.1780,0.09,0.12,-0.99,3.05,3.91,2.08
8.1940,0.08,0.12,-0.99,3.11,3.85,2.14
8.2090,0.08,0.12,-0.99,3.17,3.60,1.95
8.2130,0.08,0.12,-0.99,3.11,3.48,2.14
8.2390,0.08,0.12,-0.99,3.17,3.85,2.08
8.2500,0.08,0.12,-0.99,3.11,3.85,2.01
8.2660,0.08,0.12,-0.99,3.17,3.48,2.01
8.2840,0.08,0.12,-0.99,3.11,3.66,2.01
8.3000,0.08,0.12,-0.99,2.99,3.78,1.95
8.3160,0.08,0.12,-0.99,3.05,3.42,2.01
8.3330,0.08,0.12,-0.99,3.05,3.72,1.95
8.3490,0.08,0.12,-0.99,2.99,3.72,2.01
8.3650,0.08,0.12,-0.99,2.93,3.85,2.14
8.3810,0.08,0.12,-0.99,3.23,3.60,1.95
8.3840,0.08,0.12,-0.99,2.99,3.72,1.95
8.4000,0.08,0.12,-0.99,3.05,3.60,1.95
8.4160,0.08,0.12,-0.99,3.17,3.60,1.95
8.4410,0.09,0.12,-0.99,3.11,4.03,2.26
8.4560,0.08,0.12,-0.99,3.17,3.72,2.01
8.4720,0.08,0.12,-0.99,3.17,3.48,2.32
8.4890,0.08,0.12,-0.99,3.17,3.78,1.89
8.5040,0.08,0.12,-0.99,3.23,3.72,1.95
8.5200,0.08,0.12,-0.99,3.36,3.91,2.01
8.5350,0.08,0.12,-0.99,3.30,3.54,2.01
8.5500,0.08,0.12,-0.99,3.17,3.60,1.95
8.5660,0.08,0.12,-0.99,3.23,3.72,1.95
8.5820,0.08,0.12,-0.99,2.93,3.72,1.95
8.5970,0.08,0.12,-0.99,3.11,3.54,2.01
8.6060,0.08,0.12,-0.99,3.23,3.48,1.83
8.6230,0.08,0.12,-0.99,3.17,3.23,2.08
8.6390,0.08,0.12,-0.99,3.05,3.48,2.20
8.6540,0.08,0.12,-0.99,2.99,3.66,2.01
8.6730,0.08,0.12,-0.99,3.17,3.72,2.14
8.6880,0.08,0.12,-0.99,3.17,3.78,2.20
8.7040,0.08,0.12,-0.99,3.30,3.72,1.95
8.7200,0.08,0.12,-0.99,3.05,3.60,2.08
8.7350,0.08,0.12,-0.99,2.87,3.66,2.08
8.7500,0.09,0.12,-0.99,3.05,3.78,2.14
8.7600,0.09,0.12,-0.99,2.99,3.85,2.14
8.7770,0.09,0.13,-0.99,3.05,3.60,1.95
8.7930,0.08,0.12,-0.99,3.11,3.78,2.81
8.8100,0.09,0.13,-0.99,3.17,3.42,3.05
8.8270,0.08,0.12,-0.99,2.62,3.23,3.48
8.8430,0.08,0.11,-0.99,3.05,3.36,2.69
8.8580,0.08,0.12,-0.99,3.05,3.48,2.38
8.8730,0.08,0.12,-0.99,3.17,3.42,2.26
8.8880,0.09,0.12,-0.99,3.05,3.91,2.26
8.9040,0.08,0.12,-0.99,2.99,3.54,2.32
8.9190,0.09,0.12,-0.99,2.93,3.36,2.56
8.9330,0.08,0.12,-0.99,2.99,3.78,2.56
8.9440,0.08,0.12,-0.99,3.05,3.54,2.62
8.9600,0.09,0.12,-0.99,2.93,3.36,2.99
8.9770,0.09,0.12,-0.99,2.99,3.66,3.23
8.9930,0.09,0.12,-0.99,2.81,3.66,3.78
9.0100,0.08,0.12,-0.99,2.69,3.36,3.85
9.0260,0.08,0.12,-0.99,2.81,3.30,3.60
9.0420,0.08,0.11,-0.99,2.87,3.42,3.30
9.0580,0.08,0.11,-0.99,3.11,3.72,2.75
9.0740,0.08,0.12,-0.99,3.30,3.60,2.14
9.0900,0.08,0.12,-0.99,3.17,3.78,2.01
9.0940,0.08,0.12,-0.99,3.17,3.66,2.14
9.1090,0.08,0.12,-0.99,3.11,3.85,2.08
9.1330,0.08,0.12,-0.99,3.05,3.72,2.08
9.1490,0.08,0.12,-0.99,3.36,3.60,1.95
9.1660,0.08,0.12,-0.99,3.42,3.91,2.14
9.1820,0.08,0.12,-0.99,3.17,3.54,2.01
9.1980,0.08,0.12,-0.99,3.05,3.97,2.08
9.2140,0.08,0.12,-0.99,3.11,3.60,2.01
9.2160,0.08,0.12,-0.99,3.17,3.91,2.01
9.2390,0.08,0.12,-0.99,3.17,3.42,2.08
9.2600,0.09,0.13,-0.99,3.05,3.72,2.08
9.2720,0.09,0.13,-0.99,2.93,3.54,3.36
9.2880,0.08,0.12,-0.99,2.93,3.36,3.91
9.3050,0.08,0.11,-0.99,2.81,3.42,3.66
9.3200,0.08,0.11,-0.99,3.11,3.66,2.87
9.3360,0.08,0.11,-0.99,3.05,3.85,2.38
9.3390,0.08,0.12,-0.99,3.11,3.85,2.01
9.3540,0.08,0.12,-0.99,3.11,3.54,2.20
9.3770,0.08,0.12,-0.99,2.99,3.78,2.14
9.3940,0.08,0.12,-0.99,2.99,3.66,1.95
9.4100,0.08,0.12,-0.99,3.23,3.66,2.08
9.4280,0.08,0.12,-0.99,3.36,3.23,2.08
9.4440,0.08,0.12,-0.99,2.93,3.78,2.01
9.4590,0.08,0.12,-0.99,2.99,3.97,2.14
9.4740,0.08,0.12,-0.99,2.87,3.66,2.62
9.4900,0.09,0.12,-0.99,3.05,3.72,2.38
9.5040,0.09,0.12,-0.99,3.05,3.60,2.62
9.5200,0.08,0.12,-0.99,3.17,3.66,2.87
9.5360,0.08,0.12,-0.99,3.23,3.48,2.44
9.5510,0.08,0.12,-0.99,2.99,3.48,2.26
9.5620,0.09,0.12,-0.99,3.11,3.54,2.20
9.5780,0.08,0.12,-0.99,3.05,3.78,2.32
9.5950,0.09,0.13,-0.99,2.87,3.91,2.93
9.6120,0.08,0.12,-0.99,3.17,3.48,3.54
9.6280,0.08,0.12,-0.99,3.05,3.42,3.23
9.6440,0.08,0.12,-0.99,2.87,3.85,2.99
9.6600,0.08,0.12,-0.99,3.17,3.54,2.56
9.6750,0.08,0.12,-0.99,3.11,3.97,2.62
9.6920,0.08,0.12,-0.99,3.05,3.30,2.38
9.7080,0.08,0.12,-0.99,3.17,3.54,2.56
9.7120,0.09,0.12,-0.99,3.23,3.54,2.44
9.7400,0.08,0.12,-0.99,3.11,3.66,2.26
9.7560,0.08,0.12,-0.99,3.11,3.66,2.14
9.7660,0.09,0.12,-0.99,2.93,3.72,1.95
9.7830,0.08,0.12,-0.99,3.17,3.66,2.01
9.8000,0.08,0.12,-0.99,3.23,3.66,2.08
9.8180,0.08,0.12,-0.99,2.99,3.66,2.26
9.8340,0.08,0.12,-0.99,2.81,3.78,2.26
9.8490,0.08,0.12,-0.99,2.93,3.66,2.38
9.8660,0.08,0.11,-0.99,3.17,3.97,2.26
9.8820,0.09,0.12,-0.99,2.99,3.85,2.14
9.8980,0.08,0.12,-0.99,3.17,3.54,2.08
9.9140,0.08,0.12,-0.99,3.11,3.72,2.20
9.9300,0.09,0.12,-0.99,3.11,3.72,2.26
9.9400,0.08,0.12,-0.99,3.36,3.78,2.14
9.9480,0.08,0.12,-0.99,3.30,3.72,2.01
9.9730,0.08,0.12,-0.99,3.30,3.54,1.89
9.9890,0.08,0.12,-0.99,2.99,3.72,2.26
10.0060,0.08,0.12,-0.99,3.23,3.91,2.50
10.0220,0.08,0.12,-0.99,3.11,3.60,2.44
10.0380,0.08,0.12,-0.99,3.17,3.54,2.50
10.0530,0.08,0.12,-0.99,3.11,3.48,2.26
10.0560,0.09,0.12,-0.99,3.30,3.42,2.14
10.0710,0.08,0.12,-0.99,3.11,3.72,2.20
10.0960,0.08,0.12,-0.99,3.17,3.85,2.26
10.1120,0.08,0.12,-0.99,3.17,3.91,2.44
10.1290,0.08,0.12,-0.99,3.05,3.85,2.62
10.1460,0.08,0.12,-0.99,3.05,3.97,2.44
10.1620,0.08,0.12,-0.99,3.30,3.91,2.14
10.1770,0.08,0.12,-0.99,3.11,3.72,2.20
10.1940,0.09,0.12,-0.99,3.11,3.60,2.14
10.2100,0.08,0.12,-0.99,3.11,3.78,2.26
10.2270,0.08,0.12,-0.99,3.30,3.97,2.26
10.2410,0.08,0.12,-0.99,3.05,3.91,2.44
10.2440,0.09,0.12,-0.99,3.05,3.97,2.69
10.2680,0.08,0.12,-0.99,3.11,3.23,2.69
10.2850,0.08,0.12,-0.99,3.17,3.60,2.87
10.3020,0.09,0.12,-0.99,3.11,3.42,3.05
10.3180,0.09,0.13,-0.99,2.99,3.42,3.17
10.3330,0.08,0.13,-0.99,2.87,3.72,3.48
10.3400,0.09,0.13,-0.99,3.17,3.48,4.46
10.3640,0.09,0.12,-0.99,2.87,3.54,4.94
10.3800,0.09,0.12,-0.99,2.81,3.42,4.76
10.3850,0.08,0.12,-0.99,2.93,3.23,4.64
10.4000,0.08,0.11,-0.99,3.23,3.60,4.27
10.4230,0.08,0.11,-0.99,3.05,3.60,3.36
10.4400,0.08,0.12,-0.99,3.23,3.54,2.32
10.4560,0.08,0.12,-0.99,3.05,3.66,2.01
10.4730,0.08,0.12,-0.99,2.99,3.48,2.08
10.4890,0.08,0.12,-0.99,3.05,3.66,2.01
10.5050,0.08,0.12,-0.99,3.23,3.48,2.26
10.5200,0.09,0.12,-0.99,2.93,3.91,2.20
10.5340,0.08,0.12,-0.99,3.17,3.48,1.95
10.5500,0.08,0.12,-0.99,3.23,3.85,1.95
10.5650,0.08,0.12,-0.99,3.05,3.54,2.08
10.5820,0.09,0.12,-0.99,3.05,3.54,1.95
10.5980,0.08,0.12,-0.99,2.99,3.48,1.89
10.6060,0.08,0.12,-0.99,3.11,3.48,2.26
10.6220,0.08,0.12,-0.99,3.05,4.15,2.38
10.6430,0.08,0.12,-0.99,3.05,3.60,2.32
10.6580,0.08,0.12,-0.99,3.05,3.85,2.32
10.6740,0.08,0.12,-0.99,3.11,3.60,2.32
10.6800,0.08,0.13,-0.99,2.93,3.48,2.75
10.6960,0.09,0.13,-0.99,3.17,3.66,3.17
10.7210,0.08,0.12,-0.99,2.99,3.48,3.54
10.7360,0.09,0.11,-0.99,2.99,3.54,3.42
10.7530,0.08,0.11,-0.99,3.23,3.60,2.56
10.7680,0.08,0.12,-0.99,2.99,3.85,2.08
10.7840,0.08,0.12,-0.99,3.30,3.91,2.14
10.8000,0.08,0.12,-0.99,2.93,3.66,2.26
10.8040,0.08,0.12,-0.99,3.11,3.66,2.08
10.8190,0.08,0.12,-0.99,2.99,3.78,2.08
10.8430,0.08,0.12,-0.99,3.23,3.36,2.38
10.8600,0.09,0.13,-0.99,3.11,3.78,2.62
10.8760,0.08,0.13,-0.99,3.05,3.72,3.30
10.8930,0.08,0.13,-0.99,3.17,3.48,3.23
10.9100,0.08,0.12,-0.99,3.11,3.54,3.23
10.9260,0.08,0.12,-0.99,2.87,3.42,3.05
10.9410,0.08,0.11,-0.99,3.05,3.72,2.69
10.9580,0.08,0.12,-0.99,2.99,3.72,2.56
10.9740,0.08,0.13,-0.99,2.99,3.85,2.93
10.9890,0.09,0.13,-0.99,3.05,3.30,3.48
10.9930,0.09,0.13,-0.99,2.81,2.99,4.58
11.0090,0.09,0.12,-0.99,2.87,3.23,5.19
11.0310,0.09,0.12,-0.99,2.99,3.30,5.25
11.0480,0.08,0.12,-0.99,2.87,3.05,5.62
11.0640,0.08,0.11,-0.99,2.81,3.23,5.55
11.0800,0.08,0.11,-0.99,2.87,3.30,4.82
11.0960,0.08,0.11,-0.99,2.87,3.30,3.91
11.1120,0.08,0.11,-0.99,3.05,3.23,3.30
11.1140,0.08,0.11,-0.99,3.05,3.48,2.56
11.1410,0.08,0.12,-0.99,3.17,3.78,2.08
11.1520,0.08,0.12,-0.99,3.05,3.72,2.01
11.1690,0.08,0.12,-0.99,2.99,3.60,2.01
11.1860,0.08,0.12,-0.99,3.11,3.85,1.95
11.2020,0.08,0.12,-0.99,2.99,3.54,2.08
11.2180,0.08,0.12,-0.99,2.99,3.91,2.01
11.2340,0.08,0.12,-0.99,3.23,3.60,1.89
11.2500,0.08,0.12,-0.99,3.05,3.85,2.01
11.2660,0.08,0.12,-0.99,3.05,3.78,1.95
11.2810,0.08,0.12,-0.99,2.81,3.48,1.95
11.2970,0.08,0.12,-0.99,3.05,3.60,1.95
11.3110,0.08,0.12,-0.99,2.87,3.54,1.95
11.3270,0.08,0.12,-0.99,3.11,3.05,1.95
11.3420,0.08,0.12,-0.99,2.93,3.54,2.01
11.3570,0.08,0.14,-0.99,2.93,3.91,2.32
11.3720,0.09,0.14,-0.99,2.99,3.78,3.11
11.3890,0.08,0.13,-0.99,2.99,3.97,4.09
11.4040,0.08,0.12,-0.99,2.81,3.30,4.27
11.4190,0.08,0.12,-0.99,3.05,3.54,4.27
11.4340,0.08,0.11,-0.99,2.99,3.30,4.46
11.4420,0.08,0.11,-0.99,2.99,3.54,4.03
11.4550,0.08,0.11,-0.99,2.99,3.23,3.11
11.4760,0.08,0.11,-0.99,3.05,3.54,2.69
11.4930,0.08,0.12,-0.99,3.11,3.78,2.32
11.5110,0.09,0.13,-0.99,3.11,3.54,2.75
11.5270,0.09,0.13,-0.99,2.99,3.30,3.42
11.5430,0.08,0.12,-0.99,2.93,3.54,3.72
11.5590,0.08,0.12,-0.99,2.87,3.11,3.17
11.5750,0.09,0.12,-0.99,2.81,3.60,2.62
11.5910,0.08,0.11,-0.99,2.81,3.48,2.32
11.6060,0.08,0.11,-0.99,3.23,3.60,2.32
11.6220,0.08,0.12,-0.99,3.05,3.48,2.14
11.6380,0.08,0.12,-0.99,3.11,3.54,2.14
11.6530,0.08,0.12,-0.99,2.99,3.60,2.20
11.6680,0.08,0.13,-0.99,3.05,3.72,2.56
11.6830,0.08,0.12,-0.99,2.99,3.72,2.75
11.6940,0.08,0.12,-0.99,2.93,3.42,2.56
11.7100,0.09,0.12,-0.99,3.30,3.54,2.87
11.7260,0.09,0.12,-0.99,3.11,3.54,3.05
11.7430,0.09,0.12,-0.99,3.17,3.36,3.23
11.7590,0.09,0.12,-0.99,3.23,3.42,3.05
11.7730,0.08,0.12,-0.99,3.11,3.36,2.87
11.7770,0.08,0.12,-0.99,3.30,3.54,2.69
11.7920,0.08,0.12,-0.99,3.23,3.48,2.62
11.8150,0.08,0.13,-0.99,3.17,3.54,2.81
11.8320,0.08,0.13,-0.99,3.23,3.72,3.30
11.8480,0.08,0.13,-0.99,3.11,3.42,4.09
11.8650,0.09,0.12,-0.99,3.11,2.93,5.19
11.8810,0.08,0.12,-0.99,2.75,3.42,4.58
11.8970,0.08,0.12,-0.99,2.99,3.42,4.09
11.9130,0.09,0.12,-0.99,3.05,3.36,4.21
11.9280,0.08,0.11,-0.99,3.11,3.23,4.27
11.9440,0.08,0.12,-0.99,3.11,3.05,3.91
11.9480,0.08,0.12,-0.99,3.11,3.54,3.36
11.9640,0.08,0.11,-0.99,3.05,3.66,3.05
11.9860,0.08,0.12,-0.99,3.11,3.48,2.56
12.0030,0.08,0.12,-0.99,3.05,3.60,2.56
12.0190,0.08,0.12,-0.99,3.11,3.48,2.75
12.0370,0.08,0.12,-0.99,3.17,3.30,2.81
12.0530,0.08,0.12,-0.99,3.11,3.54,2.62
12.0690,0.08,0.12,-0.99,3.05,3.66,2.87
12.0850,0.08,0.12,-0.99,3.17,3.42,2.87
12.1000,0.08,0.12,-0.99,3.11,3.36,2.32
12.1160,0.08,0.12,-0.99,3.11,3.66,2.75
12.1310,0.09,0.13,-0.99,3.11,3.23,3.30
12.1480,0.08,0.13,-0.99,2.93,3.17,3.85
12.1640,0.09,0.12,-0.99,2.93,3.48,4.21
12.1790,0.08,0.12,-0.99,3.17,3.36,3.97
12.1940,0.08,0.12,-0.99,3.11,3.30,3.42
12.2050,0.08,0.12,-0.99,2.99,3.42,3.23
12.2210,0.09,0.13,-0.99,3.30,3.54,3.72
12.2380,0.09,0.13,-0.99,3.11,3.36,4.21
12.2540,0.09,0.12,-0.99,3.11,2.93,4.15
12.2700,0.08,0.12,-0.99,2.93,3.36,3.78
12.2860,0.08,0.12,-0.99,3.23,3.30,3.42
12.3020,0.08,0.12,-0.99,2.93,3.54,3.60
12.3040,0.08,0.13,-0.99,3.05,3.17,4.64
12.3200,0.08,0.12,-0.99,3.11,3.11,5.00
12.3490,0.08,0.12,-0.99,2.87,3.23,4.03
12.3640,0.08,0.11,-0.99,2.75,3.48,3.60
12.3750,0.08,0.11,-0.99,2.87,3.54,2.93
12.3920,0.08,0.12,-0.99,3.05,3.66,2.14
12.4090,0.09,0.12,-0.99,2.87,3.60,1.95
12.4260,0.08,0.12,-0.99,3.11,3.48,2.14
12.4420,0.09,0.13,-0.99,3.17,3.48,2.69
12.4580,0.09,0.13,-0.99,2.87,3.23,3.11
12.4740,0.08,0.13,-0.99,2.99,3.36,3.54
12.4890,0.08,0.12,-0.99,3.05,3.23,3.54
12.5040,0.08,0.12,-0.99,3.05,3.66,3.54
12.5090,0.08,0.11,-0.99,3.11,3.66,3.48
12.5240,0.09,0.11,-0.99,3.11,3.72,2.81
12.5460,0.08,0.12,-0.99,3.11,3.54,2.56
12.5630,0.08,0.12,-0.99,3.23,3.78,2.38
12.5800,0.08,0.12,-0.99,2.87,3.91,2.32
12.5960,0.08,0.12,-0.99,2.99,3.66,2.14
12.6120,0.08,0.12,-0.99,3.30,3.54,2.32
12.6130,0.08,0.12,-0.99,3.05,3.54,2.38
12.6430,0.08,0.12,-0.99,2.81,3.54,2.56
12.6470,0.08,0.13,-0.99,3.11,3.54,2.75
12.6630,0.08,0.12,-0.99,2.87,3.72,2.62
12.6780,0.08,0.12,-0.99,3.17,3.60,2.26
12.7000,0.08,0.12,-0.99,3.11,3.42,2.01
12.7170,0.08,0.12,-0.99,2.99,3.48,2.08
12.7340,0.09,0.12,-0.99,2.99,3.54,2.08
12.7500,0.08,0.12,-0.99,3.05,3.30,2.20
12.7670,0.08,0.13,-0.99,3.23,3.60,2.69
12.7820,0.08,0.12,-0.99,2.99,3.30,2.38
12.7980,0.08,0.12,-0.99,3.05,3.72,2.56
12.8140,0.08,0.12,-0.99,2.87,3.36,2.81
12.8300,0.08,0.11,-0.99,2.99,3.66,2.75
12.8450,0.08,0.12,-0.99,3.23,3.42,2.50
12.8600,0.08,0.12,-0.99,2.93,3.54,2.32
12.8670,0.08,0.12,-0.99,2.99,3.72,2.32
12.8830,0.08,0.12,-0.99,3.05,3.60,2.38
12.9050,0.09,0.12,-0.99,2.99,3.48,2.50
12.9200,0.09,0.12,-0.99,2.87,3.48,2.50
12.9350,0.08,0.12,-0.99,3.11,3.72,2.44
12.9500,0.08,0.12,-0.99,2.99,3.60,2.62
12.9660,0.08,0.12,-0.99,3.23,3.78,2.93
12.9810,0.08,0.12,-0.99,2.93,3.48,3.05
12.9970,0.08,0.12,-0.99,3.17,3.30,2.62
13.0120,0.08,0.12,-0.99,3.17,3.30,2.50
13.0230,0.08,0.13,-0.99,3.05,3.72,2.69
13.0390,0.08,0.12,-0.99,2.93,3.30,3.60
13.0550,0.08,0.12,-0.99,3.11,3.60,3.05
13.0720,0.09,0.12,-0.99,3.17,3.85,2.87
13.0890,0.09,0.12,-0.99,3.23,3.42,2.56
13.1040,0.08,0.12,-0.99,3.05,3.60,2.50
13.1200,0.09,0.13,-0.99,2.93,3.54,2.81
13.1340,0.08,0.13,-0.99,3.11,3.60,3.23
13.1510,0.08,0.13,-0.99,2.93,3.60,3.78
13.1660,0.08,0.12,-0.99,2.75,3.30,3.72
13.1730,0.08,0.12,-0.99,2.87,3.42,3.66
13.1880,0.08,0.12,-0.99,3.05,3.66,4.15
13.2100,0.08,0.13,-0.99,2.87,3.11,4.82
13.2270,0.08,0.12,-0.99,2.81,3.23,5.19
13.2420,0.08,0.11,-0.99,2.99,3.54,4.58
13.2580,0.08,0.11,-0.99,2.99,3.23,3.48
13.2740,0.08,0.11,-0.99,3.05,3.48,2.87
13.2760,0.08,0.12,-0.99,3.05,3.72,2.38
13.2920,0.08,0.12,-0.99,3.23,3.48,1.89
13.3150,0.08,0.12,-0.99,3.17,3.36,1.95
13.3330,0.08,0.13,-0.99,3.17,3.48,2.26
13.3490,0.08,0.13,-0.99,3.11,3.30,2.62
13.3640,0.08,0.13,-0.99,2.87,3.78,3.48
13.3800,0.09,0.12,-0.99,2.93,3.36,3.36
13.3960,0.09,0.12,-0.99,3.11,3.42,2.99
13.4120,0.08,0.11,-0.99,2.93,3.72,2.50
13.4280,0.08,0.12,-0.99,3.05,3.91,2.26
13.4440,0.08,0.13,-0.99,3.17,3.78,2.14
13.4490,0.08,0.13,-0.99,3.17,3.30,3.05
13.4640,0.08,0.12,-0.99,2.87,3.48,3.30
13.4860,0.09,0.12,-0.99,2.93,3.30,3.42
13.5020,0.09,0.12,-0.99,2.81,3.42,3.36
13.5180,0.09,0.12,-0.99,2.99,3.23,2.99
13.5340,0.08,0.12,-0.99,2.75,3.54,2.99
13.5490,0.08,0.12,-0.99,2.93,3.48,3.05
13.5630,0.08,0.12,-0.99,3.05,3.48,3.54
13.5790,0.08,0.12,-0.99,2.81,3.54,3.42
13.5940,0.08,0.12,-0.99,3.05,3.54,2.93
13.6080,0.08,0.12,-0.99,2.99,3.30,2.75
13.6190,0.08,0.12,-0.99,2.93,3.54,2.01
13.6360,0.08,0.12,-0.99,3.11,3.42,2.08
13.6530,0.08,0.13,-0.99,2.99,3.78,2.44
13.6690,0.08,0.13,-0.99,3.17,3.48,2.56
13.6840,0.09,0.13,-0.99,2.81,3.48,3.60
13.7000,0.09,0.13,-0.99,2.99,3.30,3.91
13.7160,0.09,0.11,-0.99,2.75,3.48,3.85
13.7320,0.08,0.11,-0.99,3.05,3.30,3.36
13.7480,0.08,0.11,-0.99,2.99,3.72,2.99
13.7640,0.08,0.13,-0.99,3.11,3.91,2.56
13.7800,0.08,0.13,-0.99,3.11,3.42,3.05
13.7960,0.09,0.13,-0.99,2.93,3.54,3.36
13.8110,0.09,0.13,-0.99,2.93,3.54,3.54
13.8190,0.08,0.12,-0.99,2.87,3.36,3.60
13.8350,0.09,0.11,-0.99,2.93,3.30,2.81
13.8570,0.08,0.12,-0.99,3.17,3.54,2.38
13.8720,0.09,0.12,-0.99,3.11,3.48,2.62
13.8870,0.08,0.13,-0.99,3.11,3.42,2.99
13.9030,0.09,0.13,-0.99,2.87,3.23,3.97
13.9090,0.08,0.12,-0.99,2.75,3.23,3.85
13.9250,0.08,0.12,-0.99,3.05,3.42,3.30
13.9480,0.08,0.12,-0.99,3.11,3.30,2.93
13.9640,0.08,0.12,-0.99,2.93,3.72,2.87
13.9800,0.08,0.12,-0.99,2.99,3.66,3.05
13.9960,0.08,0.13,-0.99,3.05,2.99,3.36
14.0120,0.08,0.12,-0.99,2.93,3.54,3.85
14.0280,0.08,0.12,-0.99,3.05,3.54,3.23
14.0310,0.08,0.12,-0.99,2.93,3.48,3.05
14.0470,0.08,0.12,-0.99,3.11,3.42,3.11
14.0710,0.08,0.12,-0.99,3.17,3.30,2.75
14.0870,0.08,0.12,-0.99,3.05,3.48,2.50
14.1030,0.08,0.12,-0.99,2.99,3.23,2.62
14.1190,0.08,0.12,-0.99,3.05,3.42,2.99
14.1350,0.08,0.12,-0.99,3.11,3.72,3.05
14.1500,0.08,0.12,-0.99,2.93,3.48,2.75
14.1660,0.08,0.12,-0.99,3.05,3.66,2.56
14.1820,0.08,0.12,-0.99,2.93,3.48,2.69
14.1980,0.08,0.12,-0.99,2.93,3.54,2.87
14.2040,0.08,0.12,-0.99,2.99,3.42,2.81
14.2200,0.08,0.12,-0.99,3.11,3.60,2.44
14.2420,0.08,0.12,-0.99,2.99,3.48,1.83
14.2580,0.08,0.12,-0.99,2.93,3.78,1.83
14.2590,0.08,0.13,-0.99,2.81,3.60,1.95
14.2880,0.08,0.13,-0.99,3.05,3.72,2.01
14.2930,0.08,0.13,-0.99,2.99,3.60,2.62
14.3080,0.08,0.12,-0.99,3.11,3.54,2.99
14.3310,0.08,0.12,-0.99,3.11,3.60,2.62
14.3490,0.08,0.12,-0.99,3.30,3.48,2.75
14.3650,0.08,0.12,-0.99,3.11,3.54,2.62
14.3800,0.08,0.12,-0.99,3.17,3.66,2.56
14.3960,0.08,0.12,-0.99,2.81,3.72,2.75
14.4110,0.08,0.13,-0.99,3.11,3.85,2.50
14.4150,0.08,0.13,-0.99,3.17,3.72,2.75
14.4310,0.08,0.13,-0.99,3.11,3.60,3.11
14.4520,0.09,0.13,-0.99,2.87,3.54,3.78
14.4690,0.09,0.12,-0.99,2.87,3.66,3.85
14.4850,0.09,0.12,-0.99,2.81,3.30,3.66
14.5030,0.08,0.11,-0.99,2.93,3.72,3.30
14.5180,0.08,0.11,-0.99,2.93,3.91,3.11
14.5340,0.08,0.11,-0.99,3.11,3.60,2.56
14.5490,0.08,0.12,-0.99,3.05,3.85,2.38
14.5640,0.08,0.12,-0.99,3.11,3.72,2.01
14.5790,0.08,0.13,-0.99,3.30,3.85,2.38
14.5900,0.08,0.13,-0.99,3.11,3.85,2.62
14.6060,0.08,0.13,-0.99,3.23,3.72,3.05
14.6230,0.09,0.13,-0.99,2.87,3.48,3.42
14.6380,0.09,0.12,-0.99,3.17,3.60,3.36
14.6540,0.09,0.12,-0.99,2.99,3.91,3.23
14.6570,0.09,0.12,-0.99,3.11,3.72,3.17
14.6730,0.08,0.11,-0.99,3.11,3.66,3.05
14.6960,0.08,0.12,-0.99,3.17,3.48,2.75
14.7130,0.08,0.12,-0.99,2.99,3.23,2.32
14.7300,0.08,0.12,-0.99,3.17,3.72,2.14
14.7460,0.08,0.12,-0.99,3.11,4.03,2.26
14.7620,0.08,0.12,-0.99,2.93,3.72,2.20
14.7770,0.08,0.13,-0.99,3.05,3.30,2.44
14.7920,0.08,0.14,-0.99,2.93,3.48,2.44
14.8070,0.09,0.13,-0.99,3.11,3.48,3.17
14.8130,0.08,0.13,-0.99,3.11,3.36,3.11
14.8290,0.09,0.12,-0.99,2.93,3.72,2.93
14.8520,0.08,0.11,-0.99,2.93,3.66,2.75
14.8680,0.08,0.11,-0.99,3.23,3.66,2.50
14.8840,0.08,0.12,-0.99,3.42,3.66,2.38
14.9000,0.08,0.12,-0.99,3.11,3.78,2.44
14.9020,0.08,0.13,-0.99,3.05,3.66,2.62
14.9310,0.08,0.12,-0.99,3.05,3.42,2.75
14.9460,0.09,0.12,-0.99,3.23,3.48,2.62
14.9620,0.09,0.12,-0.99,3.17,3.54,2.56
14.9770,0.09,0.13,-0.99,3.05,3.66,2.93
14.9880,0.09,0.13,-0.99,2.69,3.60,2.87
15.0040,0.08,0.13,-0.99,2.81,3.60,2.93
15.0210,0.08,0.12,-0.99,3.05,3.54,3.11
15.0370,0.09,0.12,-0.99,2.87,3.72,2.87
15.0530,0.08,0.11,-0.99,3.11,3.36,2.69
15.0680,0.08,0.11,-0.99,3.17,3.66,2.50
15.0710,0.08,0.12,-0.99,3.23,3.66,2.08
15.0870,0.08,0.12,-0.99,3.30,3.48,2.14
15.1110,0.08,0.12,-0.99,3.17,3.72,1.95
15.1270,0.08,0.12,-0.99,3.23,3.97,2.20
15.1440,0.08,0.12,-0.99,3.11,4.03,1.89
15.1600,0.09,0.13,-0.99,3.05,3.72,2.26
15.1760,0.09,0.13,-0.99,2.93,3.54,3.30
15.1920,0.09,0.13,-0.99,2.81,3.85,4.15
15.2080,0.09,0.12,-0.99,2.81,3.48,3.78
15.2240,0.08,0.12,-0.99,3.05,3.23,3.48
15.2390,0.08,0.12,-0.99,2.81,3.17,3.23
15.2550,0.08,0.12,-0.99,2.87,3.36,3.17
15.2710,0.08,0.12,-0.99,2.93,3.85,3.11
15.2860,0.08,0.12,-0.99,2.87,3.66,2.56
15.3010,0.08,0.12,-0.99,2.93,3.42,2.38
15.3110,0.08,0.12,-0.99,3.05,3.91,2.08
15.3260,0.09,0.13,-0.99,2.93,3.91,2.32
15.3480,0.09,0.13,-0.99,2.93,3.54,2.50
15.3640,0.09,0.13,-0.99,2.75,3.72,3.54
15.3790,0.08,0.13,-0.99,2.75,3.48,4.03
15.3830,0.08,0.12,-0.99,2.81,3.78,3.78
15.4090,0.08,0.11,-0.99,2.81,3.36,3.36
15.4240,0.08,0.11,-0.99,2.93,3.72,2.50
15.4390,0.09,0.12,-0.99,3.17,3.60,2.20
15.4490,0.08,0.13,-0.99,2.81,3.91,2.08
15.4660,0.09,0.13,-0.99,2.75,3.91,2.32
15.4840,0.09,0.13,-0.99,3.05,3.97,3.30
15.4990,0.09,0.13,-0.99,2.93,3.48,3.85
15.5150,0.08,0.12,-0.99,2.93,3.11,3.60
15.5310,0.08,0.11,-0.99,2.75,3.60,3.11
15.5470,0.08,0.11,-0.99,3.23,3.66,2.50
15.5490,0.08,0.12,-0.99,3.17,3.78,2.32
15.5770,0.08,0.12,-0.99,2.99,3.48,2.14
15.5870,0.09,0.13,-0.99,2.99,3.48,2.32
15.6040,0.09,0.13,-0.99,2.81,3.97,3.48
15.6210,0.09,0.13,-0.99,2.93,3.42,3.72
15.6360,0.09,0.12,-0.99,2.56,3.42,3.72
15.6520,0.09,0.11,-0.99,3.05,3.54,3.30
15.6680,0.08,0.11,-0.99,2.81,3.30,2.87
15.6840,0.08,0.12,-0.99,3.05,3.48,2.75
15.6880,0.08,0.13,-0.99,3.11,3.72,2.93
15.7040,0.09,0.13,-0.99,2.87,3.36,3.23
15.7260,0.08,0.12,-0.99,3.05,3.48,3.36
15.7420,0.09,0.12,-0.99,2.87,3.72,2.87
15.7590,0.08,0.12,-0.99,2.93,3.48,2.93
15.7740,0.08,0.12,-0.99,2.99,3.66,2.50
15.7900,0.08,0.12,-0.99,2.99,3.66,2.14
15.8060,0.08,0.12,-0.99,3.05,3.36,2.14
15.8210,0.08,0.13,-0.99,3.11,3.97,2.44
15.8360,0.08,0.12,-0.99,2.99,3.54,2.62
15.8510,0.09,0.12,-0.99,2.99,3.54,2.56
15.8590,0.08,0.12,-0.99,3.05,3.60,2.38
15.8740,0.08,0.12,-0.99,3.11,3.78,2.26
15.8970,0.08,0.13,-0.99,3.11,3.66,2.44
15.9130,0.09,0.13,-0.99,3.05,3.85,2.26
15.9290,0.08,0.13,-0.99,2.87,3.60,2.32
15.9450,0.08,0.13,-0.99,3.11,3.48,2.69
15.9600,0.09,0.12,-0.99,2.81,3.54,3.66
15.9640,0.08,0.12,-0.99,2.93,3.42,3.72
15.9790,0.09,0.12,-0.99,3.05,3.23,3.60
16.0020,0.08,0.11,-0.99,3.23,3.60,3.05
16.0190,0.08,0.12,-0.99,3.17,3.85,2.75
16.0360,0.08,0.12,-0.99,2.93,3.78,2.62
16.0510,0.08,0.13,-0.99,3.11,3.48,2.38
16.0650,0.08,0.13,-0.99,3.05,3.42,2.69
16.0820,0.09,0.13,-0.99,3.05,3.48,3.30
16.0970,0.09,0.11,-0.99,2.87,3.72,3.11
16.1120,0.08,0.12,-0.99,2.99,3.36,2.69
16.1270,0.08,0.12,-0.99,2.93,3.91,2.81
16.1420,0.09,0.12,-0.99,2.87,3.72,2.87
16.1530,0.08,0.13,-0.99,2.99,4.03,2.81
16.1690,0.09,0.12,-0.99,2.93,3.60,2.75
16.1850,0.08,0.12,-0.99,3.05,3.78,2.44
16.2010,0.08,0.11,-0.99,3.11,3.72,2.87
16.2090,0.08,0.11,-0.99,2.87,3.60,2.87
16.2320,0.08,0.12,-0.99,2.87,3.78,2.62
16.2480,0.08,0.12,-0.99,2.75,3.78,2.32
16.2590,0.09,0.12,-0.99,2.99,3.42,1.95
16.2770,0.08,0.13,-0.99,3.17,3.85,2.32
16.2920,0.09,0.12,-0.99,3.11,3.66,2.50
16.3080,0.08,0.13,-0.99,2.99,3.54,2.56
16.3250,0.08,0.12,-0.99,3.11,3.72,2.56
16.3400,0.09,0.13,-0.99,2.93,3.54,2.81
16.3470,0.09,0.13,-0.99,2.87,3.85,3.11
16.3600,0.08,0.12,-0.99,2.87,3.36,3.72
16.3860,0.08,0.12,-0.99,3.05,3.48,3.72
16.4010,0.08,0.11,-0.99,3.17,3.60,3.36
16.4100,0.09,0.12,-0.99,3.17,3.48,3.05
16.4270,0.08,0.11,-0.99,3.17,3.66,2.62
16.4430,0.09,0.12,-0.99,3.23,3.36,2.44
16.4600,0.08,0.12,-0.99,3.17,3.66,2.44
16.4760,0.09,0.12,-0.99,3.05,3.48,2.26
16.4920,0.08,0.13,-0.99,3.17,3.48,2.44
16.5080,0.09,0.13,-0.99,2.99,3.91,2.87
16.5230,0.09,0.13,-0.99,3.17,3.60,3.05
16.5260,0.08,0.12,-0.99,3.30,3.60,2.93
16.5470,0.08,0.12,-0.99,3.23,3.60,2.81
16.5690,0.08,0.12,-0.99,3.30,3.23,2.87
16.5800,0.08,0.12,-0.99,2.81,3.66,2.75
16.5970,0.09,0.13,-0.99,2.93,3.48,2.87
16.6130,0.09,0.12,-0.99,3.11,3.54,2.75
16.6290,0.09,0.13,-0.99,3.11,3.66,2.75
16.6440,0.09,0.12,-0.99,2.99,3.42,3.11
16.6600,0.08,0.13,-0.99,2.87,3.78,3.17
16.6750,0.08,0.12,-0.99,2.99,3.54,3.23
16.6900,0.08,0.13,-0.99,3.11,3.42,3.05
16.7050,0.08,0.13,-0.99,3.05,3.54,2.93
16.7200,0.09,0.12,-0.99,2.93,3.85,3.23
16.7310,0.08,0.12,-0.99,3.17,3.48,3.11
16.7480,0.08,0.12,-0.99,3.30,3.23,2.69
16.7630,0.08,0.12,-0.99,3.11,3.78,2.99
16.7790,0.08,0.12,-0.99,3.42,3.54,2.81
16.7890,0.08,0.12,-0.99,3.05,3.54,3.05
16.8070,0.09,0.12,-0.99,3.05,3.78,2.81
16.8230,0.09,0.12,-0.99,3.11,3.54,2.69
16.8390,0.09,0.12,-0.99,3.11,3.54,2.50
16.8560,0.08,0.12,-0.99,3.23,3.60,2.20
16.8710,0.08,0.12,-0.99,3.17,3.60,2.20
16.8870,0.08,0.12,-0.99,3.11,3.48,2.26
16.9020,0.08,0.13,-0.99,3.11,3.72,2.20
16.9160,0.09,0.13,-0.99,3.17,3.60,2.32
16.9220,0.09,0.12,-0.99,3.23,3.78,2.50
16.9380,0.09,0.12,-0.99,3.11,3.72,2.38
16.9540,0.08,0.12,-0.99,3.17,3.54,2.26
16.9700,0.08,0.12,-0.99,3.23,3.42,2.08
16.9920,0.08,0.12,-0.99,2.99,3.60,2.14
16.9970,0.08,0.12,-0.99,3.11,4.03,2.14
17.0130,0.09,0.12,-0.99,3.17,3.72,2.38
17.0370,0.08,0.12,-0.99,3.36,3.72,2.14
17.0520,0.08,0.12,-0.99,3.05,3.66,2.08
17.0680,0.08,0.12,-0.99,2.99,3.72,2.01
17.0710,0.08,0.12,-0.99,3.11,3.60,2.01
17.0860,0.08,0.12,-0.99,3.11,3.60,1.89
17.1110,0.09,0.12,-0.99,2.99,4.15,2.08
17.1270,0.09,0.13,-0.99,3.36,3.66,2.08
17.1440,0.09,0.13,-0.99,3.17,3.78,2.56
17.1600,0.09,0.15,-0.99,3.11,3.17,3.72
17.1760,0.09,0.14,-0.99,2.69,3.17,6.35
17.1920,0.09,0.13,-0.99,2.69,3.36,5.98
17.2070,0.08,0.11,-0.99,2.81,3.11,5.49
17.2220,0.08,0.11,-0.99,2.87,3.23,4.76
17.2270,0.08,0.10,-0.99,2.87,3.42,3.05
17.2480,0.08,0.12,-0.99,2.87,3.72,2.32
17.2650,0.08,0.12,-0.99,3.17,3.78,2.14
17.2800,0.09,0.12,-0.99,3.05,3.72,2.08
17.2960,0.09,0.13,-0.99,3.23,3.66,2.14
17.3140,0.09,0.14,-0.99,3.05,3.60,3.23
17.3300,0.09,0.13,-0.99,2.99,3.54,4.58
17.3450,0.09,0.13,-0.99,2.81,3.60,4.76
17.3620,0.08,0.11,-0.99,2.87,3.23,4.46
17.3780,0.08,0.11,-0.99,2.99,3.60,3.11
17.3940,0.08,0.12,-0.99,3.05,3.78,2.32
17.4100,0.09,0.13,-0.99,3.05,3.72,2.62
17.4260,0.09,0.13,-0.99,3.05,3.72,3.36
17.4310,0.09,0.13,-0.99,2.93,3.48,3.97
17.4560,0.08,0.12,-0.99,2.75,3.54,4.27
17.4700,0.08,0.12,-0.99,2.75,3.66,4.21
17.4810,0.08,0.11,-0.99,3.05,3.54,3.17
17.4980,0.08,0.12,-0.99,2.93,3.78,2.69
17.5130,0.08,0.12,-0.99,3.11,3.60,2.14
17.5310,0.08,0.12,-0.99,3.36,3.97,2.20
17.5460,0.08,0.12,-0.99,2.93,3.78,2.26
17.5620,0.08,0.12,-0.99,2.87,3.66,2.20
17.5770,0.08,0.13,-0.99,2.93,3.36,2.14
17.5920,0.09,0.13,-0.99,3.05,3.48,2.81
17.6030,0.09,0.13,-0.99,2.93,3.36,3.72
17.6190,0.09,0.13,-0.99,2.81,2.93,3.78
17.6370,0.08,0.12,-0.99,2.87,3.54,3.72
17.6520,0.08,0.11,-0.99,2.99,3.42,3.23
17.6680,0.09,0.12,-0.99,2.93,3.60,2.38
17.6830,0.08,0.12,-0.99,3.11,3.60,2.14
17.6980,0.09,0.13,-0.99,2.99,3.54,2.20
17.7140,0.09,0.15,-0.99,2.87,3.30,3.78
17.7290,0.08,0.14,-0.99,2.62,3.17,5.68
17.7400,0.08,0.12,-0.99,2.62,3.30,5.49
17.7570,0.09,0.12,-0.99,2.44,3.48,4.58
17.7730,0.08,0.11,-0.99,2.62,3.60,2.99
17.7900,0.08,0.11,-0.99,3.11,3.48,2.87
17.8050,0.08,0.11,-0.99,2.87,3.97,2.38
17.8210,0.08,0.12,-0.99,3.11,3.85,2.01
17.8360,0.09,0.12,-0.99,3.05,3.72,1.95
17.8510,0.08,0.12,-0.99,3.05,3.48,1.89
17.8670,0.08,0.12,-0.99,2.87,3.66,2.20
17.8830,0.08,0.12,-0.99,3.17,3.60,2.08
17.8980,0.09,0.13,-0.99,2.93,3.91,2.20
17.9140,0.09,0.14,-0.99,2.87,3.78,2.56
17.9290,0.08,0.12,-0.99,2.93,4.03,3.36
17.9410,0.08,0.12,-0.99,2.99,3.48,3.05
17.9570,0.08,0.12,-0.99,2.75,3.30,3.11
17.9730,0.09,0.12,-0.99,2.99,3.72,2.81
17.9900,0.08,0.12,-0.99,3.05,3.66,2.62
18.0070,0.08,0.12,-0.99,2.99,3.78,2.32
18.0240,0.08,0.12,-0.99,2.81,3.48,2.32
18.0390,0.08,0.13,-0.99,2.93,3.48,2.56
18.0550,0.08,0.13,-0.99,2.99,3.54,2.99
18.0720,0.09,0.12,-0.99,3.05,3.54,2.93
18.0860,0.08,0.12,-0.99,2.93,3.60,2.38
18.1010,0.08,0.12,-0.99,2.99,3.66,2.14
18.1170,0.08,0.12,-0.99,3.17,4.21,1.89
18.1310,0.09,0.12,-0.99,2.99,3.72,2.14
18.1460,0.08,0.12,-0.99,2.99,4.03,2.14
18.1570,0.08,0.12,-0.99,2.99,3.60,2.08
18.1730,0.08,0.12,-0.99,2.93,3.78,1.83
18.1910,0.09,0.12,-0.99,2.99,3.72,2.20
18.2070,0.09,0.12,-0.99,3.05,3.78,1.89
18.2100,0.09,0.12,-0.99,3.36,3.72,2.08
18.2250,0.09,0.12,-0.99,3.30,3.66,2.08
18.2490,0.08,0.12,-0.99,3.05,3.66,2.08
18.2680,0.08,0.13,-0.99,3.05,3.78,2.08
18.2820,0.08,0.12,-0.99,3.23,3.54,2.08
18.2990,0.08,0.12,-0.99,3.05,3.42,2.08
18.3160,0.08,0.12,-0.99,2.87,3.72,2.08
18.3310,0.08,0.12,-0.99,3.05,3.60,2.08
18.3480,0.09,0.12,-0.99,3.17,3.66,2.01
18.3640,0.09,0.12,-0.99,2.99,3.60,1.89
18.3800,0.08,0.12,-0.99,3.05,3.48,2.08
18.3960,0.09,0.12,-0.99,2.93,3.97,2.01
18.4120,0.08,0.12,-0.99,3.11,3.36,2.01
18.4270,0.08,0.12,-0.99,2.87,3.54,2.26
18.4330,0.09,0.12,-0.99,3.05,3.54,2.32
18.4490,0.09,0.12,-0.99,2.87,3.54,2.32
18.4700,0.08,0.12,-0.99,2.87,3.54,2.14
18.4860,0.08,0.12,-0.99,3.05,3.54,2.20
18.5020,0.08,0.12,-0.99,3.05,3.66,2.14
18.5180,0.09,0.12,-0.99,3.05,3.60,2.08
18.5330,0.08,0.12,-0.99,3.17,3.54,1.89
18.5480,0.08,0.12,-0.99,3.23,3.30,1.89
18.5630,0.08,0.12,-0.99,3.17,3.66,1.95
18.5790,0.08,0.12,-0.99,3.36,3.54,1.77
18.5930,0.08,0.12,-0.99,3.23,3.42,1.89
18.6040,0.08,0.12,-0.99,2.93,3.54,2.08
18.6200,0.08,0.12,-0.99,3.11,3.17,2.01
18.6370,0.09,0.12,-0.99,3.11,3.85,2.01
18.6540,0.09,0.12,-0.99,3.23,3.85,1.95
18.6690,0.09,0.12,-0.99,2.99,3.66,2.08
18.6850,0.08,0.12,-0.99,3.30,3.72,1.89
18.7010,0.08,0.12,-0.99,3.11,3.60,1.83
18.7040,0.08,0.12,-0.99,3.11,3.72,1.95
18.7190,0.08,0.12,-0.99,2.99,3.85,2.01
18.7460,0.09,0.12,-0.99,3.17,3.85,2.01
18.7580,0.08,0.12,-0.99,2.93,4.03,2.01
18.7750,0.09,0.12,-0.99,3.17,3.72,2.01
18.7910,0.08,0.12,-0.99,3.23,3.48,2.08
18.8080,0.08,0.12,-0.99,3.17,3.42,1.89
18.8240,0.09,0.12,-0.99,3.05,3.72,2.01
18.8400,0.08,0.12,-0.99,2.87,3.78,2.08
18.8570,0.09,0.14,-0.99,3.17,3.36,2.50
18.8720,0.09,0.13,-0.99,2.99,3.85,2.56
18.8870,0.08,0.12,-0.99,3.05,3.78,2.93
18.9020,0.08,0.12,-0.99,2.81,3.91,2.44
18.9180,0.08,0.12,-0.99,3.17,3.91,2.26
18.9330,0.08,0.12,-0.99,2.93,3.91,2.08
18.9480,0.08,0.12,-0.99,3.11,3.91,1.95
18.9630,0.09,0.12,-0.99,3.11,3.78,2.01
18.9740,0.08,0.12,-0.99,3.05,3.48,1.95
18.9910,0.08,0.12,-0.99,3.23,3.60,2.08
19.0070,0.09,0.12,-0.99,3.17,3.42,1.89
19.0240,0.08,0.12,-0.99,3.17,3.30,2.20
19.0300,0.09,0.12,-0.99,2.99,3.72,2.08
19.0540,0.08,0.12,-0.99,3.11,3.60,2.08
19.0640,0.08,0.12,-0.99,3.11,3.48,2.01
19.0800,0.09,0.13,-0.99,3.23,3.85,2.08
19.0970,0.09,0.13,-0.99,3.11,3.66,2.50
19.1130,0.09,0.13,-0.99,3.05,3.54,3.54
19.1310,0.08,0.12,-0.99,2.87,3.36,3.36
19.1350,0.09,0.12,-0.99,3.17,3.36,3.05
19.1620,0.08,0.11,-0.99,2.99,3.36,2.99
19.1680,0.08,0.12,-0.99,2.69,3.85,2.26
19.1860,0.08,0.12,-0.99,2.93,3.54,2.08
19.2010,0.08,0.13,-0.99,3.11,3.42,1.95
19.2210,0.09,0.13,-0.99,2.93,3.78,2.14
19.2380,0.08,0.14,-0.99,2.99,3.72,2.81
19.2550,0.09,0.13,-0.99,3.11,3.60,3.17
19.2710,0.09,0.12,-0.99,2.93,3.48,2.93
19.2860,0.08,0.12,-0.99,3.11,3.60,2.69
19.3010,0.08,0.12,-0.99,2.87,3.72,2.44
19.3160,0.08,0.12,-0.99,2.93,3.66,2.01
19.3310,0.08,0.13,-0.99,3.05,3.72,2.20
19.3480,0.08,0.12,-0.99,2.87,3.54,2.08
19.3650,0.09,0.12,-0.99,2.93,3.78,2.08
19.3800,0.09,0.12,-0.99,3.11,3.72,2.08
19.3960,0.09,0.13,-0.99,2.87,3.66,2.20
19.4110,0.09,0.13,-0.99,2.99,3.54,2.50
19.4220,0.09,0.13,-0.99,3.17,3.66,2.81
19.4370,0.08,0.12,-0.99,2.75,3.72,2.75
19.4580,0.08,0.12,-0.99,3.05,3.66,2.38
19.4740,0.08,0.12,-0.99,3.11,3.66,2.26
19.4890,0.09,0.12,-0.99,2.99,3.48,2.01
19.5040,0.08,0.12,-0.99,2.56,3.78,2.01
19.5110,0.08,0.13,-0.99,3.17,3.72,2.14
19.5260,0.09,0.14,-0.99,2.81,3.72,2.50
19.5490,0.09,0.14,-0.99,2.99,3.66,3.97
19.5660,0.09,0.13,-0.99,2.99,3.66,4.58
19.5820,0.09,0.12,-0.99,2.69,3.54,5.13
19.5980,0.09,0.12,-0.99,2.93,3.36,4.46
19.6130,0.08,0.12,-0.99,2.93,3.42,4.21
19.6280,0.08,0.12,-0.99,2.81,3.60,3.91
19.6340,0.08,0.12,-0.99,2.99,3.36,2.93
19.6500,0.08,0.12,-0.99,2.99,3.66,2.26
19.6660,0.08,0.12,-0.99,3.05,3.72,2.14
19.6880,0.08,0.12,-0.99,2.99,3.78,1.95
19.7030,0.09,0.13,-0.99,3.17,3.72,2.08
19.7200,0.09,0.14,-0.99,3.05,3.54,2.50
19.7350,0.09,0.13,-0.99,2.87,3.54,3.54
19.7510,0.09,0.13,-0.99,2.75,3.42,3.72
19.7660,0.08,0.12,-0.99,2.93,3.23,3.91
19.7810,0.08,0.11,-0.99,2.93,3.66,3.85
19.7980,0.08,0.11,-0.99,2.81,3.48,3.05
19.8130,0.08,0.12,-0.99,2.93,3.85,2.26
19.8290,0.08,0.12,-0.99,3.11,3.48,2.01
19.8440,0.08,0.12,-0.99,2.93,3.72,1.89
19.8530,0.08,0.13,-0.99,3.05,3.78,1.83
19.8690,0.09,0.13,-0.99,2.99,3.66,2.20
19.8900,0.09,0.14,-0.99,3.23,3.17,2.44
19.9050,0.09,0.13,-0.99,3.05,3.60,3.48
19.9210,0.09,0.12,-0.99,2.87,3.23,3.17
19.9360,0.09,0.12,-0.99,3.05,3.30,2.99
19.9510,0.08,0.12,-0.99,3.23,3.30,3.30
19.9580,0.08,0.12,-0.99,2.99,3.30,3.23
19.9800,0.08,0.12,-0.99,2.87,3.66,3.23
19.9910,0.08,0.12,-0.99,2.99,3.54,3.42
20.0070,0.09,0.12,-0.99,2.81,3.42,3.05
20.0270,0.08,0.12,-0.99,3.17,3.36,2.62
20.0440,0.08,0.12,-0.99,2.93,3.97,2.38
20.0590,0.08,0.12,-0.99,3.11,3.78,2.20
20.0750,0.09,0.12,-0.99,2.99,3.78,2.14
20.0780,0.08,0.12,-0.99,2.93,3.78,2.01
20.0940,0.09,0.12,-0.99,3.42,3.60,2.01
20.1170,0.08,0.12,-0.99,3.17,3.60,1.89
20.1350,0.08,0.12,-0.99,3.11,3.78,1.95
20.1510,0.09,0.12,-0.99,2.99,3.72,1.95
20.1670,0.08,0.12,-0.99,2.93,3.72,2.01
20.1830,0.08,0.13,-0.99,3.23,3.66,2.20
20.1980,0.08,0.12,-0.99,3.23,3.11,2.81
20.2140,0.09,0.13,-0.99,3.05,3.36,3.42
20.2290,0.09,0.12,-0.99,2.99,3.05,3.48
20.2440,0.08,0.12,-0.99,2.75,3.60,3.17
20.2590,0.08,0.11,-0.99,2.93,3.60,2.62
20.2680,0.09,0.12,-0.99,3.05,3.72,2.08
20.2900,0.08,0.12,-0.99,2.99,3.72,1.95
20.3010,0.08,0.12,-0.99,3.23,3.72,2.08
20.3160,0.08,0.12,-0.99,3.17,3.85,1.89
20.3370,0.08,0.12,-0.99,2.87,3.60,2.01
20.3520,0.09,0.12,-0.99,2.99,3.66,1.77
20.3680,0.09,0.12,-0.99,3.05,3.36,2.01
20.3830,0.09,0.12,-0.99,3.17,3.54,1.83
20.3970,0.09,0.12,-0.99,3.36,3.60,1.95
20.4140,0.09,0.12,-0.99,2.99,3.54,2.20
20.4230,0.09,0.12,-0.99,3.17,3.54,2.08
20.4380,0.09,0.12,-0.99,2.93,3.91,2.01
20.4610,0.08,0.12,-0.99,2.99,3.60,1.83
20.4770,0.08,0.12,-0.99,2.87,3.42,2.01
20.4780,0.09,0.12,-0.99,3.05,3.85,2.08
20.4950,0.08,0.12,-0.99,3.11,3.42,2.01
20.5110,0.09,0.12,-0.99,2.87,3.66,2.14
20.5400,0.08,0.13,-0.99,2.87,3.91,2.20
20.5550,0.09,0.13,-0.99,2.81,3.66,2.26
20.5710,0.09,0.13,-0.99,3.05,3.97,2.20
20.5860,0.09,0.12,-0.99,3.30,3.60,2.38
20.5970,0.08,0.12,-0.99,3.23,3.60,2.32
20.6130,0.08,0.12,-0.99,2.99,3.60,2.50
20.6300,0.08,0.12,-0.99,2.99,3.60,2.32
20.6470,0.09,0.12,-0.99,2.87,3.91,2.56
20.6630,0.09,0.12,-0.99,2.81,3.54,2.62
20.6790,0.09,0.12,-0.99,2.99,3.91,2.38
20.6950,0.09,0.12,-0.99,2.81,3.66,2.20
20.6980,0.09,0.12,-0.99,2.93,3.85,2.08
20.7270,0.08,0.12,-0.99,2.99,3.91,2.01
20.7300,0.08,0.12,-0.99,3.11,3.78,2.08
20.7500,0.09,0.12,-0.99,3.36,3.60,2.08
20.7680,0.08,0.12,-0.99,2.93,3.66,2.01
20.7860,0.09,0.12,-0.99,2.81,3.66,2.01
20.8020,0.09,0.12,-0.99,2.99,3.78,2.01
20.8180,0.08,0.12,-0.99,2.87,3.66,1.95
20.8330,0.08,0.12,-0.99,2.75,3.78,2.01
20.8490,0.09,0.12,-0.99,2.93,3.85,2.01
20.8650,0.09,0.12,-0.99,2.99,3.60,2.01
20.8800,0.08,0.12,-0.99,3.23,3.66,2.01
20.8960,0.08,0.12,-0.99,3.30,3.72,2.08
20.9110,0.08,0.12,-0.99,3.30,3.54,2.08
20.9270,0.09,0.12,-0.99,3.23,3.60,1.89
20.9430,0.08,0.13,-0.99,2.99,3.42,2.08
20.9580,0.09,0.12,-0.99,3.11,3.30,2.99
20.9690,0.08,0.12,-0.99,2.87,3.60,2.75
20.9850,0.09,0.12,-0.99,2.93,3.54,2.69
21.0020,0.09,0.12,-0.99,2.99,3.60,2.56
21.0190,0.08,0.13,-0.99,3.05,3.72,2.32
21.0330,0.09,0.13,-0.99,3.05,3.30,2.38
21.0500,0.09,0.13,-0.99,2.93,3.54,2.99
21.0660,0.09,0.13,-0.99,2.87,3.72,3.17
21.0820,0.09,0.12,-0.99,2.93,3.54,3.36
21.0850,0.09,0.13,-0.99,2.75,3.30,3.91
21.1010,0.09,0.13,-0.99,2.69,3.30,4.33
21.1240,0.08,0.12,-0.99,2.62,3.23,4.82
21.1400,0.09,0.13,-0.99,2.56,3.36,3.97
21.1570,0.09,0.11,-0.99,2.93,3.23,3.85
21.1730,0.09,0.11,-0.99,2.93,3.36,2.87
21.1890,0.09,0.12,-0.99,3.17,3.36,2.44
21.2050,0.08,0.12,-0.99,2.93,3.91,2.08
21.2210,0.09,0.13,-0.99,3.11,3.85,2.20
21.2370,0.09,0.13,-0.99,3.11,3.78,2.20
21.2520,0.09,0.13,-0.99,3.17,3.85,2.62
21.2670,0.08,0.12,-0.99,2.99,3.36,2.99
21.2830,0.08,0.13,-0.99,2.87,3.54,2.99
21.2970,0.09,0.12,-0.99,2.75,3.48,2.99
21.3130,0.09,0.11,-0.99,2.75,3.85,2.56
21.3240,0.09,0.12,-0.99,2.93,3.72,2.20
21.3400,0.09,0.12,-0.99,2.99,3.91,2.08
21.3570,0.09,0.12,-0.99,3.17,4.03,2.14
21.3740,0.08,0.12,-0.99,3.11,3.91,2.14
21.3900,0.09,0.13,-0.99,3.17,3.48,2.81
21.4060,0.08,0.12,-0.99,2.69,3.60,2.75
21.4230,0.09,0.12,-0.99,2.93,3.48,2.87
21.4390,0.09,0.12,-0.99,2.87,3.36,2.50
21.4550,0.08,0.12,-0.99,3.05,3.85,2.44
21.4710,0.08,0.12,-0.99,3.11,3.85,2.56
21.4870,0.08,0.12,-0.99,2.99,3.66,2.56
21.5020,0.08,0.13,-0.99,3.17,3.85,2.50
21.5170,0.08,0.13,-0.99,2.99,3.78,2.87
21.5330,0.09,0.12,-0.99,2.93,3.60,2.93
21.5490,0.09,0.12,-0.99,3.17,3.60,2.44
21.5640,0.09,0.12,-0.99,3.05,3.66,1.95
21.5740,0.09,0.12,-0.99,3.05,3.91,2.01
21.5910,0.09,0.12,-0.99,2.99,3.78,2.01
21.6070,0.08,0.12,-0.99,3.23,3.60,2.01
21.6240,0.08,0.13,-0.99,2.99,3.48,2.08
21.6400,0.09,0.13,-0.99,3.23,3.91,2.38
21.6500,0.09,0.13,-0.99,3.23,3.72,3.11
21.6620,0.09,0.13,-0.99,2.81,4.03,3.54
21.6790,0.09,0.12,-0.99,2.99,3.78,4.39
21.6950,0.09,0.12,-0.99,2.87,3.05,4.15
21.7130,0.08,0.12,-0.99,3.11,3.66,3.66
21.7290,0.08,0.12,-0.99,2.87,3.48,3.23
21.7440,0.08,0.12,-0.99,2.93,3.48,2.93
21.7610,0.08,0.12,-0.99,3.17,3.48,2.62
21.7700,0.09,0.12,-0.99,3.11,3.48,2.14
21.7860,0.09,0.12,-0.99,3.05,3.54,2.14
21.8070,0.08,0.12,-0.99,2.75,3.60,2.32
21.8230,0.09,0.13,-0.99,2.93,3.05,2.44
21.8260,0.09,0.13,-0.99,3.11,3.91,3.05
21.8540,0.08,0.12,-0.99,2.93,3.72,3.17
21.8690,0.09,0.12,-0.99,2.93,3.60,2.99
21.8780,0.08,0.12,-0.99,2.93,3.85,2.62
21.8940,0.09,0.12,-0.99,3.05,4.33,2.20
21.9120,0.09,0.12,-0.99,3.23,3.78,2.08
21.9280,0.09,0.12,-0.99,2.99,3.60,2.01
21.9430,0.08,0.13,-0.99,2.81,3.78,2.32
21.9620,0.08,0.13,-0.99,2.99,3.72,2.69
21.9780,0.09,0.12,-0.99,3.23,3.78,3.17
21.9930,0.09,0.12,-0.99,2.99,3.54,2.81
22.0090,0.09,0.12,-0.99,3.17,3.60,2.20
22.0240,0.09,0.12,-0.99,2.93,3.91,2.14
22.0300,0.08,0.13,-0.99,2.87,3.72,2.38
22.0510,0.08,0.13,-0.99,3.30,3.85,2.56
22.0690,0.08,0.12,-0.99,3.30,3.85,2.81
22.0840,0.09,0.12,-0.99,3.23,3.60,2.69
22.1000,0.08,0.12,-0.99,3.30,3.60,2.50
22.1160,0.09,0.12,-0.99,3.11,3.54,2.20
22.1190,0.08,0.12,-0.99,3.11,3.60,2.08
22.1350,0.09,0.12,-0.99,3.11,3.60,2.20
22.1630,0.08,0.13,-0.99,3.23,3.60,2.20
22.1730,0.08,0.13,-0.99,2.87,3.78,2.44
22.1900,0.09,0.13,-0.99,3.11,3.72,2.62
22.2060,0.09,0.12,-0.99,3.11,3.30,2.38
22.2230,0.09,0.12,-0.99,3.05,3.60,2.38
22.2400,0.09,0.12,-0.99,3.23,3.54,2.32
22.2570,0.08,0.12,-0.99,2.93,3.42,2.38
22.2740,0.08,0.12,-0.99,3.05,3.60,2.38
22.2890,0.08,0.12,-0.99,3.05,3.48,2.44
22.3050,0.08,0.13,-0.99,3.36,3.48,2.32
22.3070,0.08,0.13,-0.99,3.30,3.60,2.69
22.3230,0.09,0.13,-0.99,3.54,3.60,2.56
22.3520,0.08,0.12,-0.99,3.23,3.60,3.17
22.3620,0.08,0.12,-0.99,3.23,3.85,3.85
22.3800,0.08,0.12,-0.99,3.42,3.60,4.15
22.3950,0.08,0.12,-0.99,2.99,3.72,4.21
22.4130,0.09,0.12,-0.99,3.54,3.11,4.27
22.4280,0.09,0.12,-0.99,3.30,3.66,3.85
22.4450,0.09,0.12,-0.99,3.23,3.54,3.78
22.4600,0.09,0.12,-0.99,3.11,3.72,3.42
22.4770,0.08,0.12,-0.99,3.42,3.72,3.42
22.4930,0.08,0.12,-0.99,2.99,3.42,3.54
22.5090,0.08,0.13,-0.99,3.05,3.23,3.42
22.5110,0.09,0.12,-0.99,2.87,3.78,3.23
22.5270,0.09,0.12,-0.99,2.99,3.42,2.56
22.5520,0.09,0.12,-0.99,3.05,3.66,2.26
22.5680,0.09,0.12,-0.99,2.81,3.48,2.20
22.5840,0.09,0.12,-0.99,3.11,3.54,2.20
22.6020,0.08,0.12,-0.99,3.17,3.66,2.20
22.6170,0.08,0.13,-0.99,3.30,3.85,2.50
22.6200,0.08,0.13,-0.99,2.99,3.72,2.20
22.6490,0.08,0.13,-0.99,2.99,3.54,2.87
22.6630,0.09,0.12,-0.99,3.05,3.48,3.23
22.6780,0.09,0.12,-0.99,3.23,3.42,3.05
22.6890,0.09,0.13,-0.99,2.99,3.36,3.23
22.7050,0.09,0.12,-0.99,2.93,3.36,2.99
22.7250,0.09,0.13,-0.99,3.05,3.48,3.17
22.7270,0.08,0.13,-0.99,3.05,3.23,3.30
22.7530,0.09,0.13,-0.99,2.99,3.60,3.91
22.7610,0.09,0.11,-0.99,3.05,3.42,3.66
22.7770,0.09,0.12,-0.99,2.87,3.36,2.87
22.7940,0.09,0.12,-0.99,2.93,3.72,2.32
22.8100,0.08,0.13,-0.99,3.42,3.78,2.26
22.8270,0.08,0.13,-0.99,3.05,3.60,2.81
22.8430,0.09,0.13,-0.99,3.11,3.54,2.87
22.8620,0.09,0.13,-0.99,2.93,3.60,3.05
22.8770,0.09,0.12,-0.99,3.05,3.48,3.05
22.8930,0.08,0.12,-0.99,3.11,3.54,2.99
22.9090,0.09,0.12,-0.99,2.87,3.60,2.93
22.9240,0.08,0.13,-0.99,2.93,3.23,2.81
22.9410,0.09,0.13,-0.99,2.99,3.23,3.17
22.9560,0.08,0.13,-0.99,2.81,3.48,3.11
22.9700,0.09,0.12,-0.99,3.17,3.23,3.05
22.9790,0.09,0.12,-0.99,2.99,3.54,2.69
22.9950,0.09,0.13,-0.99,3.17,3.60,2.69
23.0180,0.09,0.13,-0.99,2.99,3.54,3.17
23.0340,0.09,0.13,-0.99,2.93,3.66,3.48
23.0490,0.08,0.13,-0.99,2.81,3.78,3.78
23.0650,0.09,0.12,-0.99,2.93,3.66,3.60
23.0810,0.08,0.12,-0.99,3.11,3.97,2.56
23.0960,0.08,0.12,-0.99,3.23,3.17,2.32
23.1030,0.08,0.12,-0.99,3.17,3.66,2.20
23.1190,0.09,0.12,-0.99,3.05,3.48,2.08
23.1410,0.09,0.13,-0.99,2.99,3.66,2.38
23.1570,0.09,0.13,-0.99,2.87,3.85,2.32
23.1720,0.08,0.13,-0.99,3.05,3.72,2.87
23.1880,0.09,0.12,-0.99,3.11,3.42,2.56
23.2030,0.08,0.12,-0.99,3.05,3.78,2.44
23.2190,0.08,0.12,-0.99,3.05,3.60,2.14
23.2330,0.08,0.12,-0.99,3.23,3.85,2.14
23.2420,0.08,0.12,-0.99,2.99,3.91,2.32
23.2570,0.08,0.12,-0.99,3.23,3.42,2.32
23.2820,0.08,0.13,-0.99,3.05,3.72,2.26
23.2980,0.09,0.13,-0.99,2.87,3.48,2.93
23.3130,0.09,0.13,-0.99,2.93,3.60,3.54
23.3280,0.09,0.13,-0.99,3.11,3.42,3.78
23.3320,0.09,0.12,-0.99,2.69,3.66,4.33
23.3610,0.08,0.12,-0.99,2.69,3.60,3.66
23.3650,0.08,0.12,-0.99,2.87,3.36,3.42
23.3810,0.09,0.13,-0.99,2.93,3.42,3.17
23.4060,0.09,0.12,-0.99,2.87,3.48,3.05
23.4230,0.09,0.12,-0.99,2.75,3.85,2.87
23.4380,0.08,0.12,-0.99,2.75,3.66,2.87
23.4540,0.08,0.12,-0.99,2.81,3.54,2.62
23.4710,0.08,0.12,-0.99,2.99,3.54,2.44
23.4870,0.08,0.13,-0.99,2.99,3.60,2.81
23.5020,0.08,0.13,-0.99,2.93,3.60,2.93
23.5170,0.08,0.13,-0.99,2.81,3.66,3.17
23.5230,0.09,0.13,-0.99,2.69,3.54,3.17
23.5390,0.09,0.12,-0.99,2.93,3.36,3.23
23.5600,0.08,0.12,-0.99,2.81,3.48,2.75
23.5750,0.08,0.12,-0.99,2.87,3.48,2.75
23.5930,0.08,0.13,-0.99,2.81,3.48,2.69
23.6090,0.09,0.13,-0.99,2.93,3.30,2.75
23.6240,0.09,0.12,-0.99,2.69,3.17,3.48
23.6410,0.09,0.12,-0.99,2.81,3.36,3.42
23.6570,0.08,0.12,-0.99,2.69,3.54,2.99
23.6590,0.08,0.12,-0.99,2.75,3.60,2.62
23.6750,0.09,0.12,-0.99,2.93,3.54,2.50
23.6980,0.09,0.12,-0.99,2.81,3.42,2.26
23.7140,0.09,0.12,-0.99,2.87,3.66,2.08
23.7310,0.09,0.12,-0.99,3.30,3.72,2.01
23.7470,0.09,0.13,-0.99,2.93,3.60,2.26
23.7640,0.09,0.13,-0.99,2.99,3.42,2.50
23.7790,0.08,0.13,-0.99,2.75,3.36,3.42
23.7950,0.08,0.12,-0.99,2.99,3.17,3.60
23.8110,0.08,0.11,-0.99,2.99,3.17,2.93
23.8270,0.08,0.12,-0.99,3.05,3.42,2.08
23.8310,0.09,0.12,-0.99,3.05,3.42,1.89
23.8540,0.09,0.13,-0.99,3.30,3.36,2.26
23.8700,0.09,0.14,-0.99,3.23,3.72,2.56
23.8850,0.08,0.13,-0.99,2.81,2.99,4.15
23.9030,0.09,0.13,-0.99,2.62,3.54,4.64
23.9180,0.08,0.12,-0.99,2.69,3.30,4.52
23.9330,0.08,0.12,-0.99,2.69,3.17,4.76
23.9490,0.08,0.12,-0.99,2.75,3.17,4.88
23.9650,0.08,0.11,-0.99,2.62,3.17,4.46
23.9810,0.08,0.12,-0.99,2.87,3.36,3.66
23.9970,0.08,0.12,-0.99,2.81,3.30,2.81
24.0120,0.09,0.12,-0.99,3.23,3.36,2.44
24.0280,0.09,0.12,-0.99,3.05,3.91,2.20
24.0360,0.08,0.12,-0.99,2.93,3.97,2.26
24.0540,0.08,0.13,-0.99,2.99,3.48,2.32
24.0740,0.08,0.13,-0.99,2.93,3.23,2.69
24.0890,0.09,0.12,-0.99,2.93,3.42,3.30
24.1050,0.09,0.11,-0.99,2.87,3.42,3.05
24.1070,0.08,0.11,-0.99,3.23,3.48,2.62
24.1230,0.08,0.12,-0.99,3.30,3.72,2.14
24.1480,0.08,0.12,-0.99,3.23,3.97,1.89
24.1640,0.08,0.13,-0.99,3.11,3.48,1.95
24.1820,0.09,0.13,-0.99,3.17,3.72,2.20
24.1960,0.09,0.13,-0.99,3.17,3.91,2.99
24.2130,0.09,0.12,-0.99,2.93,3.91,3.11
24.2290,0.09,0.12,-0.99,2.69,3.66,2.93
24.2440,0.08,0.12,-0.99,2.81,3.97,2.56
24.2590,0.08,0.12,-0.99,2.69,3.72,2.50
24.2750,0.08,0.12,-0.99,2.75,3.91,2.38
24.2800,0.08,0.12,-0.99,3.11,3.66,2.50
24.2950,0.09,0.12,-0.99,2.81,4.09,2.50
24.3190,0.09,0.13,-0.99,3.05,3.66,2.69
24.3360,0.09,0.13,-0.99,3.11,3.97,3.17
24.3520,0.09,0.13,-0.99,3.11,3.54,3.42
24.3670,0.09,0.13,-0.99,2.75,3.36,3.42
24.3830,0.08,0.12,-0.99,2.93,3.48,3.72
24.3990,0.08,0.11,-0.99,2.87,3.42,2.62
24.4150,0.09,0.12,-0.99,3.05,3.60,2.20
24.4300,0.09,0.12,-0.99,3.30,3.42,2.01
24.4360,0.08,0.12,-0.99,3.42,3.91,2.14
24.4540,0.08,0.12,-0.99,3.30,3.54,2.08
24.4780,0.09,0.13,-0.99,3.23,3.72,2.08
24.4900,0.09,0.13,-0.99,3.11,3.60,2.20
24.5060,0.08,0.12,-0.99,2.93,3.17,2.50
24.5220,0.09,0.12,-0.99,3.17,3.60,2.20
24.5390,0.09,0.12,-0.99,3.05,4.03,2.44
24.5530,0.08,0.12,-0.99,2.99,3.91,2.38
24.5690,0.09,0.12,-0.99,2.87,3.85,2.44
24.5840,0.08,0.13,-0.99,2.87,3.78,2.56
24.5960,0.09,0.13,-0.99,3.11,3.72,2.62
24.6120,0.09,0.13,-0.99,2.99,3.42,3.17
24.6290,0.09,0.12,-0.99,2.99,3.36,3.30
24.6460,0.09,0.13,-0.99,2.93,3.48,3.54
24.6620,0.09,0.13,-0.99,2.93,3.36,3.78
24.6780,0.08,0.12,-0.99,2.87,3.23,4.39
24.6940,0.08,0.12,-0.99,2.81,3.23,4.46
24.7100,0.08,0.12,-0.99,2.81,3.48,4.09
24.7260,0.08,0.12,-0.99,2.87,3.60,3.97
24.7410,0.09,0.13,-0.99,2.93,2.93,3.91
24.7560,0.09,0.13,-0.99,3.11,3.11,4.39
24.7630,0.08,0.12,-0.99,2.81,3.11,4.88
24.7790,0.08,0.12,-0.99,2.93,3.48,4.58
24.7950,0.08,0.12,-0.99,2.93,3.66,3.97
24.8180,0.09,0.14,-0.99,2.87,3.42,3.54
24.8330,0.08,0.13,-0.99,2.93,3.42,4.52
24.8480,0.09,0.13,-0.99,2.81,3.36,4.94
24.8630,0.08,0.13,-0.99,2.62,3.23,6.10
24.8780,0.08,0.12,-0.99,2.44,3.23,6.04
24.8930,0.08,0.11,-0.99,2.69,3.85,4.88
24.9080,0.08,0.11,-0.99,2.81,3.48,3.66
24.9220,0.08,0.11,-0.99,2.93,3.60,3.36
24.9340,0.08,0.12,-0.99,2.87,3.60,2.32
24.9510,0.08,0.12,-0.99,3.11,3.97,2.01
24.9670,0.09,0.12,-0.99,2.99,3.17,1.89
24.9830,0.08,0.12,-0.99,3.05,3.54,1.89
24.9980,0.08,0.13,-0.99,3.17,3.66,2.20
25.0130,0.08,0.14,-0.99,3.05,3.23,3.05
25.0290,0.09,0.13,-0.99,2.69,3.60,4.46
25.0450,0.08,0.12,-0.99,2.87,3.30,4.15
25.0610,0.09,0.13,-0.99,2.81,3.17,4.64
25.0770,0.08,0.13,-0.99,2.87,3.17,5.25
25.0920,0.09,0.14,-0.99,2.50,2.87,7.45
25.1070,0.08,0.12,-0.99,2.44,2.81,8.18
25.1180,0.08,0.10,-0.99,2.26,3.11,6.77
25.1350,0.08,0.09,-0.99,3.05,3.48,3.72
25.1510,0.08,0.12,-0.99,3.17,3.85,1.95
25.1670,0.09,0.12,-0.99,3.36,3.72,1.95
25.1830,0.09,0.12,-0.99,3.36,3.97,1.95
25.1990,0.09,0.12,-0.99,3.36,3.66,2.08
25.2010,0.08,0.13,-0.99,3.30,3.85,2.08
25.2170,0.09,0.12,-0.99,2.81,3.72,3.36
25.2450,0.09,0.12,-0.99,3.05,3.36,3.36
25.2560,0.09,0.12,-0.99,2.93,3.42,2.93
25.2720,0.09,0.12,-0.99,3.23,3.60,2.75
25.2890,0.09,0.12,-0.99,3.60,3.30,2.44
25.3060,0.08,0.12,-0.99,3.48,3.72,2.01
25.3230,0.08,0.12,-0.99,3.11,3.60,2.01
25.3390,0.08,0.12,-0.99,3.11,3.54,1.95
25.3540,0.09,0.12,-0.99,3.30,3.66,2.26
25.3690,0.09,0.12,-0.99,3.36,3.48,2.08
25.3850,0.09,0.12,-0.99,3.17,3.78,2.08
25.3900,0.09,0.12,-0.99,2.99,3.66,2.14
25.4050,0.08,0.12,-0.99,3.11,3.78,2.01
25.4270,0.09,0.12,-0.99,2.93,3.85,2.08
25.4430,0.09,0.12,-0.99,2.99,4.03,1.89
25.4600,0.09,0.12,-0.99,2.93,3.91,1.95
25.4770,0.08,0.12,-0.99,3.36,3.60,2.01
25.4930,0.09,0.12,-0.99,3.30,3.60,1.95
25.5090,0.08,0.12,-0.99,3.23,3.48,1.95
25.5250,0.08,0.12,-0.99,3.05,3.66,2.08
25.5420,0.08,0.12,-0.99,2.93,3.78,1.95
25.5580,0.08,0.12,-0.99,3.11,3.54,1.95
25.5600,0.09,0.12,-0.99,2.99,3.66,2.01
25.5770,0.09,0.12,-0.99,3.11,3.85,2.01
25.5930,0.08,0.12,-0.99,3.17,3.72,1.83
25.6090,0.09,0.12,-0.99,2.93,3.85,1.95
25.6370,0.09,0.12,-0.99,2.93,3.54,2.14
25.6470,0.09,0.12,-0.99,3.05,3.66,2.26
25.6650,0.08,0.12,-0.99,3.11,3.48,2.56
25.6810,0.08,0.13,-0.99,2.93,3.48,2.62
25.6970,0.09,0.13,-0.99,2.81,3.36,3.05
25.7150,0.09,0.12,-0.99,2.81,3.36,3.60
25.7300,0.09,0.12,-0.99,2.87,3.78,2.93
25.7460,0.09,0.12,-0.99,3.05,3.85,2.26
25.7620,0.09,0.12,-0.99,3.30,3.72,2.01
25.7780,0.09,0.12,-0.99,2.93,3.72,2.01
25.7920,0.08,0.12,-0.99,2.99,3.66,2.01
25.8090,0.08,0.12,-0.99,3.05,3.91,1.95
25.8150,0.08,0.12,-0.99,3.30,3.85,2.01
25.8310,0.08,0.12,-0.99,3.36,3.72,2.14
25.8540,0.08,0.12,-0.99,2.99,3.78,1.95
25.8690,0.09,0.12,-0.99,3.17,3.48,2.20
25.8840,0.08,0.12,-0.99,3.11,3.72,2.20
25.9000,0.09,0.12,-0.99,2.93,3.72,2.14
25.9050,0.09,0.12,-0.99,3.17,3.72,2.14
25.9210,0.08,0.12,-0.99,3.30,3.72,2.08
25.9450,0.09,0.12,-0.99,3.11,3.66,2.14
25.9600,0.09,0.12,-0.99,3.30,3.72,2.08
25.9780,0.09,0.12,-0.99,3.11,3.60,1.89
25.9930,0.09,0.12,-0.99,3.11,3.60,1.95
26.0100,0.08,0.12,-0.99,2.93,4.09,2.08
26.0260,0.08,0.12,-0.99,3.05,3.66,2.01
26.0280,0.08,0.13,-0.99,3.05,3.54,2.20
26.0440,0.09,0.12,-0.99,2.87,3.42,2.87
26.0690,0.09,0.12,-0.99,2.81,3.48,3.36
26.0850,0.09,0.12,-0.99,2.99,3.42,2.87
26.1030,0.09,0.12,-0.99,2.93,4.03,2.62
26.1190,0.09,0.12,-0.99,2.99,3.72,2.50
26.1350,0.08,0.12,-0.99,3.17,3.36,3.11
26.1500,0.08,0.12,-0.99,3.17,3.42,2.75
26.1660,0.08,0.12,-0.99,3.23,3.60,2.20
26.1690,0.09,0.12,-0.99,3.30,3.60,1.95
26.1850,0.09,0.12,-0.99,3.05,3.36,1.95
26.2080,0.09,0.12,-0.99,3.17,3.30,1.89
26.2250,0.08,0.12,-0.99,3.05,3.91,1.95
26.2420,0.09,0.12,-0.99,2.87,3.91,2.01
26.2580,0.08,0.12,-0.99,3.17,3.42,2.08
26.2750,0.08,0.12,-0.99,3.30,3.05,2.08
26.2910,0.08,0.12,-0.99,3.17,3.42,2.01
26.2930,0.09,0.12,-0.99,2.93,3.66,1.95
26.3090,0.09,0.12,-0.99,3.17,3.78,1.89
26.3400,0.09,0.12,-0.99,3.11,3.85,1.89
26.3570,0.09,0.12,-0.99,3.17,3.60,1.95
26.3730,0.09,0.12,-0.99,3.17,3.54,1.89
26.3750,0.09,0.12,-0.99,3.11,3.60,1.89
26.3910,0.09,0.12,-0.99,3.17,3.72,1.89
26.4130,0.09,0.12,-0.99,3.11,3.60,2.01
26.4300,0.08,0.12,-0.99,3.17,3.97,1.95
26.4480,0.08,0.12,-0.99,2.93,3.91,1.95
26.4640,0.08,0.12,-0.99,3.17,3.66,1.89
26.4800,0.08,0.12,-0.99,3.05,3.66,1.89
26.4960,0.08,0.12,-0.99,3.11,3.97,1.89
26.5120,0.09,0.12,-0.99,3.05,3.85,1.77
26.5290,0.09,0.12,-0.99,3.11,3.66,1.89
26.5440,0.09,0.12,-0.99,3.05,3.78,1.89
26.5600,0.09,0.12,-0.99,3.30,3.60,1.89
26.5750,0.09,0.12,-0.99,3.42,3.48,1.95
26.5900,0.09,0.12,-0.99,3.30,3.60,2.01
26.5960,0.08,0.12,-0.99,2.99,3.85,2.01
26.6120,0.09,0.12,-0.99,3.23,3.66,1.95
26.6360,0.08,0.12,-0.99,3.11,3.48,2.01
26.6510,0.09,0.12,-0.99,2.81,3.54,2.01
26.6660,0.09,0.12,-0.99,2.81,3.60,2.08
26.6820,0.09,0.12,-0.99,2.93,3.66,2.01
26.6860,0.08,0.12,-0.99,2.56,3.85,1.95
26.7120,0.09,0.13,-0.99,1.83,4.21,2.01
26.7270,0.09,0.12,-0.99,2.14,4.21,1.95
26.7360,0.08,0.12,-0.99,2.20,3.78,1.89
26.7520,0.08,0.13,-1.00,2.20,3.91,2.32
26.7690,0.08,0.13,-0.99,1.83,3.85,2.69
26.7860,0.09,0.11,-0.99,2.56,3.54,2.81
26.8010,0.08,0.12,-0.99,3.05,3.66,2.20
26.8200,0.08,0.12,-0.99,3.23,3.97,2.01
26.8360,0.08,0.12,-0.99,2.93,3.60,1.95
26.8510,0.08,0.12,-0.99,3.05,3.72,2.01
26.8660,0.08,0.12,-0.99,2.99,4.03,1.95
26.8810,0.09,0.12,-0.99,3.11,3.85,1.95
26.8960,0.09,0.12,-0.99,3.30,3.78,1.83
26.9110,0.08,0.12,-0.99,3.17,3.72,1.95
26.9230,0.08,0.12,-0.99,3.05,3.72,1.89
26.9390,0.08,0.12,-0.99,3.17,3.85,2.01
26.9560,0.08,0.12,-0.99,3.17,3.85,1.95
26.9720,0.08,0.12,-0.99,3.36,3.66,2.01
26.9890,0.08,0.12,-0.99,3.54,3.78,1.89
27.0050,0.09,0.12,-0.99,2.87,3.42,1.95
27.0210,0.08,0.12,-0.99,2.93,3.78,2.01
27.0380,0.08,0.12,-0.99,3.42,3.36,1.95
27.0540,0.08,0.12,-0.99,3.23,3.54,1.95
27.0700,0.09,0.12,-0.99,3.11,3.60,2.01
27.0860,0.08,0.12,-0.99,3.23,3.66,1.89
27.1020,0.08,0.12,-0.99,3.42,3.85,1.89
27.1170,0.08,0.12,-0.99,3.11,3.17,1.83
27.1330,0.08,0.12,-0.99,2.93,3.91,1.95
27.1480,0.08,0.12,-0.99,3.23,3.72,2.14
27.1640,0.08,0.12,-0.99,3.30,3.48,2.01
27.1790,0.08,0.12,-0.99,3.23,3.72,2.08
27.1900,0.08,0.12,-0.99,2.69,3.54,2.01
27.2060,0.08,0.12,-0.99,3.05,3.54,2.01
27.2220,0.08,0.12,-0.99,2.87,3.66,1.89
27.2390,0.09,0.12,-0.99,2.81,3.97,2.26
27.2560,0.08,0.12,-0.99,3.05,3.85,2.08
27.2720,0.08,0.12,-0.99,3.11,3.60,2.08
27.2880,0.08,0.12,-0.99,2.93,3.54,1.95
27.3040,0.08,0.12,-0.99,3.11,3.48,2.08
27.3200,0.08,0.12,-0.99,3.23,3.42,2.01
27.3360,0.08,0.12,-0.99,3.30,3.60,1.95
27.3530,0.08,0.12,-0.99,3.05,3.72,2.08
27.3680,0.09,0.12,-0.99,3.17,3.72,2.01
27.3830,0.08,0.12,-0.99,3.30,3.48,1.95
27.3900,0.08,0.12,-0.99,3.05,3.66,1.95
27.4120,0.09,0.12,-0.99,3.17,3.48,2.01
27.4230,0.08,0.12,-0.99,3.23,3.48,2.01
27.4380,0.08,0.12,-0.99,3.36,3.42,2.08
27.4600,0.08,0.12,-0.99,3.17,3.48,1.95
27.4770,0.09,0.12,-0.99,3.17,3.48,2.44
27.4930,0.09,0.13,-0.99,3.05,3.17,2.99
27.5090,0.08,0.12,-0.99,2.87,3.11,2.75
27.5250,0.08,0.12,-0.99,2.87,3.72,2.08
27.5420,0.09,0.12,-0.99,2.93,3.97,2.08
27.5430,0.08,0.12,-0.99,2.99,3.42,2.01
27.5590,0.09,0.12,-0.99,2.87,3.78,2.14
27.5880,0.08,0.12,-0.99,3.11,3.36,2.50
27.5990,0.08,0.12,-0.99,3.11,3.30,2.26
27.6150,0.08,0.12,-0.99,2.99,3.91,1.95
27.6310,0.08,0.12,-0.99,3.30,3.48,1.89
27.6480,0.08,0.12,-0.99,3.11,3.30,1.95
27.6640,0.08,0.12,-0.99,2.99,3.48,2.14
27.6800,0.08,0.12,-0.99,3.11,3.66,2.14
27.6960,0.08,0.12,-0.99,3.11,3.48,2.08
27.7120,0.08,0.12,-0.99,3.17,3.60,2.01
27.7280,0.08,0.12,-0.99,2.93,3.97,1.95
27.7430,0.08,0.12,-0.99,2.99,3.72,1.89
27.7490,0.09,0.12,-0.99,3.17,3.54,1.95
27.7640,0.09,0.12,-0.99,3.05,3.23,2.01
27.7880,0.08,0.12,-0.99,3.30,3.60,2.20
27.8040,0.08,0.12,-0.99,3.17,3.72,1.89
27.8200,0.08,0.12,-0.99,2.99,3.78,1.89
27.8360,0.08,0.12,-0.99,2.93,3.48,1.95
27.8520,0.08,0.12,-0.99,3.11,3.42,1.89
27.8670,0.09,0.12,-0.99,2.87,3.48,2.08
27.8830,0.09,0.12,-0.99,3.11,3.66,2.01
27.8980,0.10,0.13,-0.99,3.05,3.91,1.89
27.9140,0.12,0.14,-0.99,3.42,3.66,1.77
27.9290,0.12,0.15,-0.98,2.93,3.48,3.17
27.9450,0.09,0.12,-0.99,3.36,3.66,2.50
27.9600,0.10,0.12,-0.99,3.60,3.60,2.99
27.9730,0.08,0.12,-0.99,3.42,3.42,2.81
27.9880,0.09,0.11,-0.99,3.30,3.42,3.54
28.0050,0.08,0.12,-0.99,3.78,3.48,2.99
28.0220,0.08,0.12,-0.99,3.78,3.91,1.89
28.0370,0.08,0.11,-0.99,3.66,3.97,1.16
28.0530,0.07,0.12,-0.99,3.72,3.91,1.28
28.0670,0.07,0.11,-0.99,4.09,3.91,0.61
28.0830,0.09,0.12,-0.99,3.72,4.15,0.00
28.0980,0.09,0.12,-0.99,3.48,4.21,-0.49
28.1140,0.09,0.11,-0.99,4.27,3.97,-0.73
28.1290,0.07,0.13,-0.99,3.72,4.15,-0.73
28.1400,0.06,0.13,-0.99,3.66,4.09,0.00
28.1600,0.07,0.13,-0.99,3.30,3.97,1.04
28.1730,0.08,0.13,-0.99,3.23,3.72,1.65
28.1900,0.08,0.12,-0.99,3.42,3.78,2.14
28.2050,0.08,0.12,-0.99,3.23,3.54,2.08
28.2220,0.09,0.12,-0.99,3.36,3.54,1.83
28.2230,0.09,0.13,-0.99,3.17,4.03,1.16
28.2540,0.08,0.12,-0.99,3.30,3.97,1.16
28.2700,0.08,0.12,-0.99,3.17,3.66,1.04
28.2860,0.09,0.12,-0.99,3.05,3.66,1.04
28.3020,0.10,0.11,-0.99,3.66,3.91,-0.18
28.3170,0.10,0.11,-0.99,3.91,4.46,-1.77
28.3340,0.09,0.12,-0.99,4.27,4.39,-2.75
28.3500,0.08,0.13,-0.99,4.09,4.09,-3.36
28.3590,0.07,0.14,-0.99,3.97,4.33,-3.05
28.3800,0.08,0.13,-0.99,3.78,4.33,-2.32
28.3950,0.09,0.12,-0.98,2.99,4.27,-1.89
28.4050,0.10,0.12,-0.99,4.09,4.15,-2.62
28.4220,0.10,0.13,-0.99,4.03,4.64,-3.60
28.4390,0.08,0.13,-0.99,3.97,4.46,-3.78
28.4560,0.07,0.13,-0.99,3.66,4.70,-3.66
28.4720,0.07,0.13,-0.99,3.72,4.39,-2.87
28.4880,0.10,0.12,-0.99,3.36,4.09,-1.89
28.5040,0.13,0.12,-0.99,4.21,4.64,-4.39
28.5210,0.12,0.14,-0.99,4.27,5.07,-6.84
28.5370,0.08,0.14,-0.99,3.11,5.31,-6.41
28.5530,0.05,0.13,-0.99,2.56,4.46,-3.30
28.5680,0.05,0.13,-0.99,2.69,4.27,-0.98
28.5840,0.07,0.13,-0.99,2.38,4.03,-0.37
28.5890,0.09,0.13,-0.99,2.93,3.97,0.37
28.6050,0.10,0.11,-0.99,3.66,4.21,0.00
28.6280,0.12,0.10,-0.99,4.58,4.64,-2.87
28.6440,0.14,0.12,-0.99,3.78,5.07,-5.31
28.6600,0.12,0.13,-0.98,3.36,4.21,-4.09
28.6610,0.07,0.14,-0.99,3.36,3.54,1.34
28.6910,0.02,0.13,-0.99,3.23,3.42,3.48
28.7070,0.05,0.12,-0.99,2.99,3.48,4.09
28.7230,0.06,0.12,-0.99,2.93,3.60,3.23
28.7390,0.07,0.11,-0.99,3.85,3.66,1.95
28.7550,0.07,0.12,-0.99,3.72,4.03,0.73
28.7720,0.11,0.13,-0.99,3.42,4.46,-1.10
28.7870,0.12,0.13,-0.99,3.85,3.91,-2.75
28.8030,0.09,0.13,-0.99,3.97,4.46,-2.69
28.8100,0.06,0.12,-0.99,3.85,4.15,-2.26
28.8260,0.07,0.12,-0.99,4.03,3.97,0.43
28.8490,0.09,0.12,-0.99,3.54,3.60,0.85
28.8650,0.06,0.12,-0.99,3.54,3.17,1.65
28.8810,0.07,0.13,-0.99,3.42,3.54,2.62
28.8970,0.07,0.13,-0.99,3.36,3.36,3.36
28.9120,0.06,0.12,-0.99,3.48,3.05,7.57
28.9280,0.05,0.11,-1.00,2.99,2.56,8.79
28.9420,0.05,0.13,-0.99,1.95,2.56,10.19
28.9500,0.03,0.15,-1.00,1.04,2.08,11.17
28.9650,0.02,0.16,-0.99,0.00,2.20,12.21
28.9870,0.04,0.16,-0.99,0.92,2.32,10.68
29.0030,0.10,0.12,-0.99,1.46,3.11,8.00
29.0200,0.11,0.11,-0.99,1.95,3.23,4.88
29.0360,0.07,0.12,-0.99,2.14,3.48,5.07
29.0520,0.07,0.10,-0.99,2.93,3.48,4.27
29.0600,0.12,0.11,-0.99,3.17,3.05,5.86
29.0700,0.11,0.12,-0.99,1.83,3.30,6.16
29.0920,0.11,0.12,-0.99,1.59,3.23,4.52
29.1090,0.14,0.12,-0.98,1.95,3.17,4.27
29.1250,0.11,0.13,-0.99,2.26,3.30,4.39
29.1420,0.10,0.12,-0.99,2.81,3.60,3.72
29.1590,0.11,0.12,-0.99,3.30,3.66,2.56
29.1600,0.10,0.13,-0.99,3.60,3.78,2.26
29.1760,0.08,0.12,-0.99,3.30,3.48,1.95
29.2060,0.05,0.12,-0.99,2.56,3.85,2.38
29.2220,0.06,0.12,-0.99,2.81,3.85,4.33
29.2250,0.07,0.13,-0.99,2.69,3.60,4.39
29.2430,0.07,0.12,-0.99,2.81,3.66,2.93
29.2600,0.05,0.12,-1.00,2.62,3.42,2.87
29.2750,0.08,0.10,-0.99,2.81,3.91,3.11
29.3020,0.09,0.13,-0.99,3.17,3.48,3.36
29.3080,0.07,0.13,-0.99,2.69,3.36,5.25
29.3330,0.10,0.13,-0.99,2.69,3.48,5.86
29.3410,0.13,0.13,-0.99,3.17,3.66,5.43
29.3600,0.13,0.13,-0.99,3.48,3.42,3.78
29.3750,0.12,0.13,-0.99,3.36,3.30,2.50
29.3920,0.09,0.12,-0.99,3.11,3.66,1.95
29.4080,0.09,0.12,-0.99,3.11,3.60,1.89
29.4240,0.11,0.11,-0.99,2.87,3.97,0.67
29.4250,0.11,0.11,-0.99,3.11,4.09,-0.61
29.4430,0.10,0.12,-0.99,3.42,3.36,1.77
29.4600,0.08,0.13,-0.99,3.11,3.42,4.03
29.4770,0.07,0.13,-0.99,2.69,3.48,5.43
29.4920,0.06,0.11,-0.99,2.93,3.05,4.94
29.5090,0.08,0.13,-0.99,2.99,2.99,5.31
29.5360,0.08,0.13,-0.99,3.05,3.42,3.97
29.5420,0.09,0.12,-0.99,2.87,3.42,3.60
29.5610,0.09,0.12,-0.99,3.05,3.66,2.38
29.5750,0.08,0.12,-0.99,3.42,3.97,1.71
29.5960,0.07,0.13,-0.99,3.42,3.78,1.40
29.6130,0.06,0.13,-0.99,3.54,4.03,1.10
29.6290,0.07,0.13,-0.99,3.72,3.85,1.59
29.6460,0.09,0.13,-1.00,3.05,3.97,1.95
29.6620,0.08,0.13,-0.99,2.99,3.85,1.59
29.6780,0.08,0.12,-0.99,2.99,3.72,1.83
29.6940,0.09,0.13,-0.99,3.36,3.85,2.08
29.7090,0.08,0.13,-0.99,2.99,3.42,2.01
29.7130,0.09,0.12,-0.99,3.05,3.66,2.14
29.7390,0.09,0.12,-0.99,2.99,3.60,2.08
29.7460,0.09,0.12,-0.99,3.17,3.60,2.01
29.7640,0.08,0.12,-0.99,3.17,3.54,1.95
29.7800,0.08,0.12,-0.99,3.05,3.85,2.14
29.7980,0.08,0.12,-0.99,2.75,3.60,1.89
29.8130,0.08,0.12,-0.99,2.75,3.66,2.01
29.8290,0.08,0.12,-0.99,2.99,3.72,2.01
29.8450,0.08,0.12,-0.99,2.75,3.66,1.95
29.8610,0.08,0.12,-0.99,2.99,3.97,2.08
29.8770,0.08,0.12,-0.99,3.05,3.66,2.14
29.8930,0.08,0.12,-0.99,2.99,3.85,2.01
29.9100,0.09,0.12,-0.99,2.99,3.42,2.08
29.9250,0.09,0.12,-0.99,2.93,3.60,2.01
29.9400,0.09,0.12,-0.99,2.93,3.60,2.08
29.9560,0.08,0.12,-0.99,3.11,3.85,2.08
29.9630,0.08,0.12,-0.99,3.30,3.60,2.08
29.9850,0.08,0.12,-0.99,3.54,3.66,2.01
29.9960,0.09,0.12,-0.99,3.30,3.66,2.14
30.0130,0.09,0.12,-0.99,3.11,3.72,2.08
30.0290,0.08,0.12,-0.99,3.11,3.72,1.95
30.0470,0.08,0.12,-0.99,3.17,3.36,2.01
30.0620,0.09,0.12,-0.99,3.60,3.30,2.08
30.0790,0.09,0.12,-0.99,3.30,3.85,1.95
30.0950,0.09,0.12,-0.99,3.36,4.03,1.28
30.1110,0.09,0.13,-0.99,3.54,3.97,1.04
30.1130,0.07,0.12,-0.99,3.23,3.85,1.65
30.1430,0.07,0.12,-0.99,3.23,3.85,2.01
30.1590,0.08,0.12,-0.99,3.11,3.54,2.14
30.1740,0.08,0.12,-0.99,3.11,3.72,1.95
30.1790,0.08,0.12,-0.99,3.05,3.85,2.01
30.1950,0.08,0.13,-0.99,3.17,3.78,2.14
30.2200,0.08,0.12,-0.99,3.30,3.72,2.01
30.2360,0.09,0.12,-0.99,3.05,3.78,1.89
30.2510,0.10,0.12,-0.99,3.30,3.60,1.77
30.2670,0.09,0.12,-0.99,3.36,3.54,0.79
30.2820,0.08,0.12,-0.99,3.42,3.30,1.16
30.2980,0.08,0.12,-0.99,2.87,3.72,1.89
30.3130,0.08,0.12,-0.99,2.93,3.78,2.08
30.3310,0.08,0.12,-0.99,3.11,3.54,2.20
30.3450,0.08,0.12,-0.99,2.93,3.78,2.01
30.3620,0.08,0.12,-0.99,3.23,3.42,2.14
30.3770,0.09,0.12,-0.99,3.23,3.54,1.95
30.3920,0.09,0.13,-0.99,3.11,3.78,2.01
30.4030,0.13,0.14,-0.98,3.30,3.85,0.49
30.4190,0.10,0.13,-0.99,3.54,3.91,-0.73
30.4350,0.08,0.12,-0.99,3.42,3.91,0.98
30.4520,0.07,0.12,-0.99,3.36,3.60,2.01
30.4690,0.07,0.11,-0.99,3.23,3.60,2.14
30.4840,0.06,0.11,-0.99,3.36,4.09,1.89
30.5000,0.09,0.12,-0.99,3.72,3.97,1.40
30.5170,0.09,0.12,-0.99,3.48,4.09,0.43
30.5340,0.09,0.13,-0.99,3.23,3.85,0.37
30.5490,0.07,0.13,-0.99,3.54,3.48,1.04
30.5620,0.07,0.12,-0.99,3.48,3.91,1.77
30.5670,0.08,0.12,-0.99,3.05,3.54,2.08
30.5950,0.08,0.12,-0.99,2.87,3.72,2.08
30.6060,0.08,0.13,-0.99,3.05,3.85,2.20
30.6230,0.04,0.13,-0.99,2.81,3.85,2.69
30.6390,0.07,0.12,-0.99,2.26,3.78,3.91
30.6560,0.08,0.12,-0.99,1.71,3.60,3.66
30.6730,0.10,0.12,-0.99,1.83,3.54,3.05
30.6900,0.08,0.13,-0.99,2.14,3.54,2.93
30.7050,0.06,0.13,-0.99,1.77,3.36,3.97
30.7210,0.05,0.12,-0.99,1.77,3.60,3.91
30.7230,0.08,0.11,-0.99,2.99,3.97,2.44
30.7390,0.12,0.12,-0.99,3.54,3.91,1.04
30.7620,0.14,0.12,-0.99,2.99,3.66,1.53
30.7780,0.09,0.11,-0.99,2.44,3.66,1.95
30.7950,0.09,0.12,-0.99,2.75,3.54,1.89
30.8120,0.09,0.12,-0.99,3.30,3.78,1.83
30.8270,0.09,0.13,-0.99,3.54,3.54,1.77
30.8440,0.08,0.13,-0.99,3.54,3.36,1.95
30.8590,0.08,0.12,-0.99,3.17,3.97,1.95
30.8630,0.08,0.12,-0.99,2.81,3.97,1.89
30.8790,0.10,0.13,-0.99,2.81,3.66,2.08
30.8950,0.10,0.13,-0.99,2.87,3.54,1.83
30.9170,0.09,0.12,-0.99,3.17,3.72,1.53
30.9330,0.09,0.12,-0.99,3.11,3.78,1.40
30.9500,0.09,0.12,-0.99,3.42,3.48,1.46
30.9660,0.08,0.12,-0.99,3.11,3.48,2.44
30.9810,0.08,0.12,-0.99,3.17,3.54,2.93
30.9840,0.10,0.13,-0.99,2.99,3.36,3.42
30.9990,0.07,0.14,-0.99,2.56,3.17,4.52
31.0220,0.06,0.12,-0.99,2.08,3.66,4.88
31.0380,0.08,0.11,-0.99,2.38,3.48,3.11
31.0550,0.08,0.12,-0.99,2.93,3.78,2.08
31.0720,0.08,0.12,-0.99,3.72,3.66,2.14
31.0880,0.08,0.13,-0.99,3.30,3.72,1.71
31.1040,0.08,0.12,-0.99,3.11,3.72,1.40
31.1200,0.08,0.13,-0.99,3.23,3.36,1.34
31.1360,0.06,0.14,-0.99,2.69,3.85,1.59
31.1510,0.09,0.13,-0.99,2.20,3.91,2.56
31.1660,0.09,0.12,-0.99,2.20,3.97,3.05
31.1720,0.10,0.11,-0.99,2.44,3.97,2.69
31.1960,0.10,0.10,-0.99,3.05,3.72,2.38
31.2050,0.10,0.12,-0.99,3.66,3.36,1.65
31.2200,0.09,0.12,-0.99,3.66,3.42,1.71
31.2430,0.09,0.12,-0.99,3.42,3.60,1.83
31.2600,0.08,0.13,-0.99,3.17,3.78,1.95
31.2760,0.08,0.12,-0.99,2.62,3.85,1.83
31.2920,0.09,0.12,-0.99,3.23,3.23,2.20
31.3080,0.09,0.12,-0.99,2.99,3.72,2.08
31.3110,0.09,0.12,-0.99,2.56,3.42,1.89
31.3260,0.09,0.12,-0.99,3.17,3.48,1.95
31.3520,0.09,0.12,-0.99,3.30,3.72,2.01
31.3680,0.09,0.12,-0.99,3.30,3.66,1.95
31.3840,0.09,0.12,-0.99,3.30,3.85,2.14
31.3990,0.09,0.12,-0.99,3.66,3.78,2.08
31.4150,0.08,0.13,-0.99,3.17,3.54,1.95
31.4310,0.08,0.12,-0.99,2.56,3.78,1.95
31.4460,0.08,0.12,-0.99,2.99,3.78,2.01
31.4520,0.08,0.12,-0.99,2.75,3.85,2.08
31.4670,0.08,0.12,-0.99,2.99,3.48,2.20
31.4910,0.08,0.12,-0.99,3.17,3.78,2.08
31.5070,0.09,0.12,-0.99,3.23,3.91,2.01
31.5080,0.09,0.12,-0.99,3.05,3.72,1.95
31.5240,0.09,0.12,-0.99,3.05,3.60,2.08
31.5420,0.09,0.12,-0.99,3.11,3.60,2.01
31.5700,0.09,0.12,-0.99,3.11,3.54,2.08
31.5750,0.08,0.12,-0.99,3.11,3.60,2.01
31.6010,0.08,0.12,-0.99,2.87,3.54,1.95
31.6160,0.08,0.12,-0.99,2.99,4.15,2.08
31.6260,0.08,0.12,-0.99,2.93,3.54,2.20
31.6420,0.08,0.12,-0.99,3.17,3.85,2.20
31.6590,0.08,0.12,-0.99,3.30,4.09,2.08
31.6760,0.08,0.12,-0.99,2.99,3.78,1.83
31.6920,0.08,0.12,-0.99,2.69,3.48,1.95
31.7080,0.09,0.12,-0.99,2.99,3.54,1.89
31.7230,0.08,0.12,-0.99,2.93,3.66,1.95
31.7260,0.08,0.12,-0.99,2.93,3.42,1.89
31.7410,0.07,0.12,-0.99,2.81,3.54,1.83
31.7640,0.07,0.12,-0.99,3.30,3.66,1.28
31.7820,0.09,0.13,-0.99,3.23,4.27,0.18
31.7980,0.09,0.12,-0.99,3.17,3.60,1.59
31.8140,0.08,0.12,-0.99,2.99,3.60,1.83
31.8310,0.09,0.12,-0.99,2.87,3.78,1.89
31.8470,0.09,0.12,-0.99,2.99,3.72,2.01
31.8630,0.09,0.12,-0.99,3.05,3.78,2.08
31.8790,0.09,0.12,-0.99,3.17,3.72,2.08
31.8950,0.09,0.12,-0.99,2.81,3.72,2.01
31.9110,0.08,0.12,-0.99,2.87,3.72,2.08
31.9150,0.08,0.12,-0.99,2.93,4.09,1.89
31.9300,0.06,0.12,-0.99,2.87,3.85,1.28
31.9520,0.09,0.12,-0.99,3.72,3.91,0.55
31.9690,0.09,0.12,-0.99,3.48,3.48,1.22
31.9860,0.08,0.12,-0.99,2.99,3.91,1.53
32.0030,0.08,0.12,-0.99,3.11,3.91,1.22
32.0180,0.09,0.12,-0.99,3.23,3.72,1.04
32.0340,0.10,0.12,-0.99,2.75,3.78,1.77
32.0490,0.09,0.12,-0.99,2.87,3.60,2.08
32.0650,0.09,0.12,-0.99,3.42,3.36,1.95
32.0810,0.09,0.12,-0.99,3.60,3.36,1.95
32.0960,0.08,0.12,-0.99,3.42,3.54,1.95
32.1030,0.08,0.12,-0.99,3.42,3.54,1.95
32.1180,0.08,0.12,-0.99,3.30,3.54,1.95
32.1420,0.08,0.12,-0.99,3.48,3.42,2.01
32.1590,0.08,0.12,-0.99,3.85,3.66,1.95
32.1750,0.09,0.12,-0.99,3.54,3.66,2.01
32.1910,0.09,0.12,-0.99,3.36,3.66,1.89
32.2070,0.09,0.12,-0.99,3.97,3.48,1.95
32.2090,0.09,0.12,-0.99,3.42,3.72,2.14
32.2240,0.09,0.12,-0.99,3.60,3.48,2.01
32.2420,0.08,0.12,-0.99,3.54,3.60,1.95
32.2620,0.08,0.12,-0.99,3.66,3.54,2.01
32.2860,0.09,0.12,-0.99,3.48,3.85,2.08
32.3010,0.10,0.13,-0.99,3.54,3.48,1.83
32.3100,0.09,0.13,-0.99,3.48,3.66,1.16
32.3260,0.08,0.13,-0.99,3.36,3.91,1.10
32.3460,0.09,0.13,-0.99,3.30,3.66,1.40
32.3620,0.08,0.12,-0.99,3.30,3.66,1.28
32.3760,0.08,0.12,-0.99,3.23,3.72,1.40
32.3930,0.09,0.12,-0.99,3.11,3.72,1.28
32.4090,0.09,0.12,-0.99,3.54,3.91,0.92
32.4260,0.09,0.12,-0.99,3.66,4.15,0.49
32.4420,0.09,0.12,-0.99,3.36,3.85,0.31
32.4580,0.07,0.13,-0.99,3.30,3.91,1.16
32.4620,0.08,0.13,-0.99,3.17,3.78,1.53
32.4760,0.08,0.13,-0.99,3.23,3.72,1.77
32.5060,0.08,0.13,-0.99,3.48,3.42,1.65
32.5170,0.09,0.12,-0.99,3.30,3.72,1.59
32.5330,0.09,0.12,-0.99,3.11,3.78,1.16
32.5500,0.08,0.12,-0.99,3.05,3.91,1.22
32.5660,0.08,0.12,-0.99,3.42,3.54,1.16
32.5810,0.08,0.12,-0.99,3.42,3.60,1.22
32.5970,0.08,0.13,-0.99,3.36,3.66,1.10
32.6130,0.08,0.13,-0.99,3.42,3.78,1.34
32.6290,0.08,0.13,-0.99,2.99,3.72,1.46
32.6340,0.09,0.13,-0.99,3.30,3.54,1.59
32.6490,0.09,0.12,-0.99,3.11,3.91,1.53
32.6720,0.09,0.13,-0.99,3.05,3.42,1.53
32.6880,0.08,0.13,-0.99,3.23,3.48,1.59
32.7040,0.09,0.12,-0.99,3.11,3.30,1.77
32.7200,0.09,0.12,-0.99,3.23,3.60,1.53
32.7370,0.09,0.12,-0.99,3.11,3.72,1.10
32.7530,0.08,0.12,-0.99,3.17,4.03,0.98
32.7690,0.08,0.13,-0.99,3.17,3.60,1.22
32.7720,0.08,0.13,-0.99,3.11,3.85,1.59
32.7870,0.08,0.13,-0.99,3.11,3.36,1.77
32.8100,0.08,0.13,-0.99,2.99,3.54,1.71
32.8270,0.09,0.12,-0.99,3.36,3.66,1.46
32.8450,0.08,0.13,-0.99,3.30,4.09,0.85
32.8590,0.08,0.13,-0.99,3.11,3.85,1.34
32.8760,0.08,0.13,-0.99,3.30,3.72,1.40
32.8920,0.08,0.13,-0.99,3.05,3.72,1.71
32.9080,0.09,0.12,-0.99,2.75,3.54,1.77
32.9230,0.08,0.12,-0.99,2.99,3.66,1.77
32.9390,0.09,0.12,-0.99,3.30,3.48,1.71
32.9440,0.09,0.13,-0.99,3.36,3.48,1.40
32.9620,0.09,0.13,-0.99,3.17,3.54,1.34
32.9830,0.09,0.13,-0.99,3.17,3.85,1.22
32.9990,0.09,0.13,-0.99,3.30,3.78,1.16
33.0150,0.08,0.13,-0.99,3.17,3.54,1.65
33.0300,0.08,0.13,-0.99,3.23,3.54,1.89
33.0460,0.08,0.13,-0.99,2.99,3.48,1.95
33.0600,0.08,0.12,-0.99,2.93,3.48,2.01
33.0770,0.09,0.12,-0.99,3.11,3.36,2.08
33.0920,0.09,0.12,-0.99,3.23,3.30,2.08
33.1070,0.09,0.13,-0.99,2.99,3.66,1.95
33.1160,0.08,0.13,-0.99,3.11,3.42,1.83
33.1320,0.09,0.13,-0.99,3.05,3.72,1.89
33.1530,0.09,0.13,-0.99,2.93,3.78,1.89
33.1700,0.09,0.13,-0.99,3.11,3.66,1.89
33.1870,0.08,0.13,-0.99,3.11,3.66,1.89
33.2030,0.09,0.13,-0.99,3.42,3.48,2.01
33.2190,0.08,0.13,-0.99,2.99,3.72,1.95
33.2340,0.09,0.12,-0.99,3.30,3.60,2.08
33.2490,0.08,0.13,-0.99,3.17,3.85,1.77
33.2640,0.08,0.13,-0.99,3.23,3.78,1.71
33.2790,0.08,0.13,-0.99,3.05,3.72,1.83
33.2890,0.09,0.13,-0.99,2.93,3.60,2.01
33.3060,0.09,0.13,-0.99,3.11,3.91,1.83
33.3230,0.09,0.13,-0.99,2.99,3.48,1.71
33.3380,0.09,0.13,-0.99,3.23,4.03,1.34
33.3540,0.08,0.13,-0.99,3.11,4.03,1.22
33.3710,0.08,0.13,-0.99,3.17,3.72,1.34
33.3870,0.08,0.13,-0.99,3.05,3.66,1.71
33.4030,0.08,0.13,-0.99,3.17,3.85,1.83
33.4190,0.08,0.13,-0.99,3.30,3.48,1.83
33.4350,0.09,0.13,-0.99,3.23,3.78,1.65
33.4400,0.09,0.13,-0.99,3.11,3.72,1.46
33.4620,0.08,0.13,-0.99,3.05,3.54,1.65
33.4770,0.08,0.13,-0.99,3.11,3.42,2.20
33.4930,0.08,0.13,-0.99,3.23,3.60,2.20
33.5090,0.08,0.13,-0.99,3.17,3.48,2.14
33.5280,0.09,0.13,-0.99,2.93,3.91,1.89
33.5460,0.09,0.12,-0.99,3.36,3.72,1.40
33.5620,0.08,0.13,-0.99,3.11,3.85,0.98
33.5780,0.08,0.13,-0.99,2.87,3.78,1.16
33.5940,0.08,0.13,-0.99,3.23,3.91,1.71
33.5960,0.08,0.13,-0.99,3.17,3.54,2.08
33.6120,0.10,0.13,-0.99,2.99,3.85,1.83
33.6420,0.09,0.12,-0.99,3.23,4.15,0.49
33.6590,0.08,0.12,-0.99,3.30,4.09,0.61
33.6750,0.09,0.13,-0.99,3.17,3.97,0.55
33.6900,0.08,0.13,-0.99,2.99,4.03,0.73
33.7070,0.08,0.13,-0.99,3.23,3.72,1.16
33.7230,0.08,0.13,-0.99,3.36,3.91,1.65
33.7280,0.09,0.13,-0.99,3.05,4.03,2.01
33.7430,0.09,0.13,-0.99,3.30,3.72,1.65
33.7670,0.09,0.13,-0.99,3.05,4.15,1.28
33.7830,0.09,0.13,-0.99,3.11,3.78,1.34
33.7990,0.08,0.13,-0.99,3.11,3.66,1.28
33.8140,0.08,0.13,-0.99,3.30,3.97,1.34
33.8170,0.08,0.13,-0.99,3.23,3.78,1.89
33.8330,0.09,0.13,-0.99,3.17,3.60,1.71
33.8570,0.09,0.13,-0.99,3.17,3.72,1.59
33.8750,0.09,0.13,-0.99,2.99,3.78,1.46
33.8900,0.09,0.13,-0.99,3.17,3.85,1.10
33.9090,0.08,0.13,-0.99,3.05,4.39,0.98
33.9230,0.08,0.13,-0.99,3.36,3.66,1.22
33.9400,0.08,0.13,-0.99,3.36,3.60,1.10
33.9560,0.09,0.13,-0.99,2.93,3.91,1.40
33.9720,0.09,0.13,-0.99,2.87,4.03,1.46
33.9890,0.10,0.13,-0.99,3.17,3.72,1.22
34.0050,0.09,0.12,-0.99,3.42,3.72,0.73
34.0210,0.09,0.13,-0.99,3.48,4.09,0.31
34.0360,0.08,0.13,-0.99,3.36,3.91,0.55
34.0500,0.07,0.13,-0.99,2.81,4.03,0.92
34.0650,0.08,0.13,-0.99,2.99,3.66,1.65
34.0740,0.10,0.13,-0.99,3.36,3.30,1.65
34.0900,0.09,0.13,-0.99,3.05,3.97,1.22
34.1060,0.10,0.13,-0.99,3.17,3.97,0.98
34.1230,0.09,0.12,-0.99,3.05,3.72,0.61
34.1400,0.07,0.13,-0.99,3.23,4.03,0.67
34.1550,0.07,0.12,-0.99,3.17,3.72,1.16
34.1700,0.08,0.13,-0.99,3.30,3.48,1.65
34.1850,0.09,0.13,-0.99,3.48,3.85,1.71
34.2000,0.09,0.12,-0.99,3.30,3.78,1.16
34.2160,0.09,0.13,-0.99,3.11,3.72,1.22
34.2310,0.08,0.13,-0.99,3.17,3.60,1.22
34.2450,0.08,0.13,-0.99,3.05,3.54,1.40
34.2570,0.09,0.13,-0.99,2.81,3.72,1.46
34.2720,0.09,0.13,-0.99,3.05,3.78,1.34
34.2880,0.10,0.13,-0.99,3.23,3.97,1.28
34.3090,0.09,0.13,-0.99,3.05,3.78,0.92
34.3250,0.09,0.13,-0.99,3.23,3.54,0.79
34.3410,0.08,0.13,-0.99,3.05,4.09,0.61
34.3490,0.08,0.13,-0.99,3.42,3.85,0.79
34.3710,0.09,0.13,-0.99,3.36,3.91,0.79
34.3820,0.09,0.13,-0.99,3.23,3.91,0.98
34.3970,0.08,0.13,-0.99,3.11,3.72,0.73
34.4180,0.09,0.13,-0.99,2.99,3.91,0.73
34.4340,0.08,0.13,-0.99,3.42,3.97,0.73
34.4490,0.08,0.13,-0.99,3.36,3.85,0.67
34.4650,0.07,0.13,-0.99,3.17,3.60,0.98
34.4800,0.08,0.13,-0.99,3.42,3.78,1.04
34.4850,0.08,0.12,-0.99,2.99,3.78,1.28
34.5000,0.09,0.13,-0.99,2.93,3.91,1.22
34.5230,0.08,0.12,-0.99,3.17,3.85,1.40
34.5390,0.08,0.13,-0.99,3.36,4.15,1.46
34.5550,0.08,0.13,-0.99,3.54,3.60,1.53
34.5710,0.09,0.13,-0.99,3.23,3.97,1.40
34.5870,0.09,0.13,-0.99,3.17,3.78,1.22
34.5890,0.09,0.12,-0.99,3.36,3.91,1.34
34.6050,0.09,0.13,-0.99,3.30,3.66,1.10
34.6280,0.08,0.13,-0.99,3.17,3.78,0.98
34.6450,0.08,0.13,-0.99,3.23,3.66,1.34
34.6640,0.08,0.13,-0.99,2.69,3.85,1.59
34.6770,0.08,0.13,-0.99,3.23,3.78,1.40
34.6940,0.09,0.13,-0.99,2.99,3.91,1.95
34.7110,0.10,0.12,-0.99,3.36,4.21,2.01
34.7260,0.09,0.13,-0.99,3.42,3.48,2.08
34.7420,0.09,0.13,-0.99,3.17,3.72,1.89
34.7580,0.08,0.13,-0.99,2.93,3.48,1.83
34.7730,0.09,0.13,-0.99,3.17,4.21,1.59
34.7880,0.08,0.12,-0.99,3.36,3.66,1.28
34.8030,0.08,0.13,-0.99,3.30,3.91,1.10
34.8110,0.08,0.13,-0.99,3.17,4.03,1.22
34.8260,0.09,0.13,-0.99,3.05,3.97,1.34
34.8480,0.08,0.13,-0.99,3.11,3.78,1.22
34.8640,0.09,0.13,-0.99,3.11,3.66,1.34
34.8790,0.10,0.13,-0.99,3.17,3.78,1.40
34.8940,0.09,0.13,-0.99,2.99,3.66,1.22
34.9090,0.08,0.13,-0.99,2.93,3.78,1.34
34.9240,0.08,0.13,-0.99,3.05,3.78,1.40
34.9380,0.07,0.13,-0.99,3.05,3.72,1.46
34.9500,0.08,0.13,-0.99,2.99,3.91,1.77
34.9660,0.08,0.13,-0.99,3.17,3.78,1.71
34.9820,0.09,0.13,-0.99,3.36,3.66,1.71
34.9990,0.10,0.13,-0.99,2.87,3.85,1.34
35.0150,0.10,0.13,-0.99,3.05,4.27,0.85
35.0310,0.08,0.12,-0.99,3.05,3.85,1.04
35.0460,0.07,0.12,-0.99,3.23,3.97,1.34
35.0620,0.07,0.13,-0.99,3.30,4.27,1.53
35.0790,0.08,0.13,-0.99,3.42,3.97,1.77
35.0940,0.09,0.13,-0.99,3.23,3.91,1.83
35.1100,0.09,0.13,-0.99,3.17,3.97,1.95
35.1150,0.09,0.13,-0.99,3.23,3.97,1.34
35.1310,0.08,0.13,-0.99,3.11,3.66,1.28
35.1550,0.09,0.13,-0.99,3.11,3.54,1.28
35.1720,0.09,0.13,-0.99,3.17,3.54,1.40
35.1870,0.08,0.13,-0.99,3.05,3.72,1.53
35.2030,0.09,0.12,-0.99,3.05,3.91,1.53
35.2190,0.09,0.13,-0.99,3.36,3.85,1.59
35.2340,0.09,0.12,-0.99,3.23,3.97,1.53
35.2400,0.08,0.13,-0.99,3.05,3.54,1.59
35.2650,0.08,0.13,-0.99,3.11,3.48,1.65
35.2800,0.08,0.13,-0.99,2.99,3.78,1.89
35.2940,0.08,0.13,-0.99,3.05,3.97,1.83
35.3050,0.09,0.13,-0.99,3.36,3.72,1.77
35.3220,0.10,0.12,-0.99,3.17,3.85,1.77
35.3380,0.12,0.12,-0.99,3.36,3.66,1.53
35.3550,0.09,0.13,-0.99,3.23,4.03,1.40
35.3710,0.08,0.13,-0.99,3.17,3.78,1.53
35.3870,0.07,0.13,-0.99,2.99,3.85,1.71
35.3880,0.08,0.13,-0.99,3.36,3.42,1.83
35.4040,0.08,0.13,-0.99,3.17,3.60,1.89
35.4320,0.08,0.13,-0.99,3.17,3.42,1.95
35.4430,0.09,0.13,-0.99,3.11,3.30,1.89
35.4590,0.09,0.13,-0.99,2.99,3.54,1.89
35.4760,0.09,0.13,-0.99,2.87,3.54,1.65
35.4930,0.08,0.13,-0.99,3.05,3.72,1.71
35.5090,0.08,0.13,-0.99,3.11,3.60,1.89
35.5250,0.08,0.09,-0.99,2.99,3.60,1.77
35.5410,0.09,0.12,-0.99,3.23,3.66,1.65
35.5570,0.09,0.13,-0.99,2.99,3.91,1.77
35.5640,0.09,0.13,-0.99,3.05,3.78,1.40
35.5750,0.09,0.13,-0.99,2.93,3.78,1.34
35.6000,0.08,0.13,-0.99,3.05,3.85,1.34
35.6160,0.08,0.13,-0.99,3.11,3.78,1.65
35.6330,0.07,0.13,-0.99,3.23,3.48,1.77
35.6490,0.08,0.13,-0.99,3.23,3.60,1.89
35.6640,0.10,0.13,-0.99,3.23,3.60,2.01
35.6800,0.10,0.13,-0.99,3.23,3.85,2.01
35.6940,0.08,0.13,-0.99,2.93,4.03,1.71
35.7000,0.08,0.13,-0.99,3.17,3.85,1.53
35.7150,0.08,0.13,-0.99,3.05,3.91,1.34
35.7350,0.08,0.12,-0.99,3.05,3.85,1.53
35.7500,0.08,0.13,-0.99,3.23,3.78,1.77
35.7690,0.08,0.13,-0.99,3.42,4.09,1.71
35.7850,0.09,0.12,-0.99,3.23,3.54,1.46
35.8000,0.09,0.13,-0.99,3.23,3.72,1.46
35.8170,0.09,0.13,-0.99,3.11,3.42,1.40
35.8340,0.08,0.13,-0.99,3.05,3.97,1.65
35.8490,0.08,0.13,-0.99,2.87,3.85,1.59
35.8650,0.08,0.13,-0.99,3.05,3.97,1.65
35.8800,0.09,0.13,-0.99,2.87,4.27,1.77
35.8960,0.09,0.13,-0.99,3.05,3.72,1.59
35.9100,0.09,0.13,-0.99,2.93,3.85,1.53
35.9170,0.09,0.13,-0.99,2.93,3.85,1.16
35.9330,0.09,0.13,-0.99,3.11,3.60,0.67
35.9550,0.09,0.12,-0.99,3.17,4.15,0.37
35.9710,0.10,0.12,-0.99,3.30,4.27,0.37
35.9860,0.09,0.12,-0.99,3.42,4.03,0.49
35.9900,0.09,0.13,-0.99,3.30,4.03,0.98
36.0050,0.09,0.13,-0.99,3.05,3.85,1.04
36.0280,0.08,0.13,-0.99,3.05,3.66,1.16
36.0460,0.08,0.13,-0.99,3.05,4.03,1.10
36.0460,0.09,0.13,-0.99,3.17,3.91,0.98
36.0770,0.08,0.13,-0.99,3.30,3.72,0.61
36.0930,0.09,0.13,-0.99,3.36,3.91,0.98
36.1090,0.08,0.13,-0.99,2.93,3.91,1.10
36.1120,0.08,0.13,-0.99,2.99,3.97,1.34
36.1410,0.08,0.13,-0.99,3.30,3.60,1.40
36.1570,0.09,0.13,-0.99,3.60,3.78,1.40
36.1730,0.09,0.13,-0.99,3.54,3.78,0.98
36.1790,0.08,0.13,-0.99,3.36,3.97,1.04
36.2050,0.08,0.13,-0.99,3.11,3.91,1.28
36.2210,0.08,0.13,-0.99,2.75,3.72,1.77
36.2370,0.08,0.13,-0.99,3.17,3.72,1.77
36.2450,0.09,0.13,-0.99,3.11,3.97,1.71
36.2670,0.09,0.12,-0.99,3.05,3.97,1.34
36.2780,0.10,0.12,-0.99,3.23,3.78,0.79
36.2930,0.09,0.13,-0.99,3.23,4.15,0.67
36.3090,0.08,0.13,-0.99,3.17,3.66,0.92
36.3270,0.08,0.13,-0.99,3.11,3.91,1.22
36.3420,0.08,0.13,-0.99,3.17,3.72,1.34
36.3530,0.08,0.13,-0.99,3.11,3.60,1.83
36.3690,0.08,0.13,-0.99,3.05,3.85,2.01
36.3860,0.09,0.13,-0.99,3.05,3.85,1.77
36.4020,0.09,0.12,-0.99,3.05,3.97,1.59
36.4190,0.09,0.12,-0.99,3.42,3.97,1.71
36.4350,0.08,0.13,-0.99,3.17,3.72,1.77
36.4520,0.09,0.13,-0.99,2.87,3.72,1.65
36.4680,0.09,0.13,-0.99,3.05,3.91,1.65
36.4840,0.08,0.13,-0.99,3.17,3.78,1.53
36.5000,0.09,0.13,-0.99,3.17,4.09,1.59
36.5160,0.09,0.13,-0.99,3.05,3.30,1.71
36.5300,0.08,0.13,-0.99,3.11,3.66,1.59
36.5350,0.08,0.13,-0.99,3.23,3.60,1.53
36.5510,0.09,0.13,-0.99,3.17,3.48,1.77
36.5750,0.08,0.13,-0.99,3.36,3.78,1.77
36.5910,0.09,0.13,-0.99,3.42,4.03,1.83
36.6080,0.09,0.13,-0.99,3.11,3.66,1.71
36.6240,0.09,0.13,-0.99,2.99,3.60,1.40
36.6400,0.09,0.13,-0.99,3.17,3.78,1.22
36.6560,0.08,0.13,-0.99,3.05,3.85,1.16
36.6710,0.08,0.12,-0.99,3.36,3.78,1.16
36.6860,0.09,0.13,-0.99,3.23,3.91,1.22
36.7020,0.09,0.12,-0.99,3.05,4.03,1.40
36.7180,0.08,0.12,-0.99,3.17,3.91,1.34
36.7320,0.09,0.13,-0.99,3.05,3.72,1.71
36.7470,0.09,0.13,-0.99,3.05,3.60,1.22
36.7590,0.09,0.12,-0.99,3.17,4.33,1.16
36.7740,0.09,0.13,-0.99,3.11,3.85,1.22
36.7920,0.08,0.13,-0.99,3.05,4.09,1.46
36.8080,0.09,0.12,-0.99,2.93,3.42,1.77
36.8090,0.09,0.12,-0.99,2.93,3.85,1.53
36.8400,0.08,0.13,-0.99,2.81,4.03,1.40
36.8420,0.08,0.13,-0.99,3.05,3.66,1.65
36.8710,0.08,0.13,-0.99,2.93,3.72,1.59
36.8860,0.08,0.13,-0.99,2.93,3.78,1.46
36.9010,0.08,0.13,-0.99,3.11,3.85,1.22
36.9160,0.08,0.13,-0.99,2.93,3.60,1.59
36.9250,0.08,0.13,-0.99,2.93,3.97,1.95
36.9470,0.08,0.13,-0.99,2.87,3.91,2.20
36.9580,0.08,0.12,-0.99,2.87,3.66,2.32
36.9740,0.08,0.12,-0.99,3.30,3.72,2.08
36.9930,0.08,0.13,-0.99,3.23,3.23,2.08
37.0080,0.09,0.13,-0.99,2.81,3.72,1.65
37.0230,0.09,0.13,-0.99,3.11,3.85,1.77
37.0310,0.09,0.13,-0.99,3.17,3.66,1.83
37.0470,0.08,0.13,-0.99,3.11,3.72,1.89
37.0690,0.08,0.13,-0.99,3.36,3.78,2.20
37.0850,0.08,0.13,-0.99,2.93,3.66,1.95
37.1020,0.09,0.12,-0.99,2.99,3.72,1.89
37.1170,0.08,0.13,-0.99,2.99,3.54,1.95
37.1340,0.08,0.12,-0.99,2.93,3.72,1.89
37.1500,0.08,0.13,-0.99,2.99,3.54,2.01
37.1660,0.08,0.13,-0.99,2.81,3.54,2.20
37.1810,0.09,0.13,-0.99,3.17,3.60,2.01
37.1970,0.09,0.13,-0.99,2.81,3.66,2.01
37.2110,0.09,0.13,-0.99,3.11,3.48,2.08
37.2260,0.09,0.12,-0.99,2.87,3.91,2.44
37.2400,0.08,0.13,-0.99,2.93,3.60,2.75
37.2520,0.08,0.13,-0.99,3.23,3.72,2.69
37.2680,0.08,0.13,-0.99,3.23,3.78,2.32
37.2860,0.09,0.13,-0.99,3.17,4.21,2.01
37.3020,0.09,0.13,-0.99,3.11,3.66,1.95
37.3180,0.08,0.13,-0.99,2.99,3.72,2.08
37.3350,0.08,0.12,-0.99,3.05,4.03,2.20
37.3510,0.08,0.13,-0.99,2.93,3.85,2.14
37.3660,0.08,0.12,-0.99,3.23,3.66,2.08
37.3810,0.08,0.13,-0.99,2.99,3.91,2.01
37.3970,0.09,0.13,-0.99,2.93,3.78,2.20
37.4120,0.09,0.12,-0.99,3.17,3.60,2.14
37.4270,0.09,0.12,-0.99,2.99,3.72,2.08
37.4420,0.09,0.12,-0.99,3.11,4.09,2.14
37.4520,0.08,0.13,-0.99,3.11,3.78,2.08
37.4690,0.09,0.13,-0.99,3.30,3.72,1.95
37.4860,0.09,0.12,-0.99,3.17,3.85,1.77
37.5020,0.08,0.13,-0.99,3.11,3.91,2.14
37.5190,0.08,0.13,-0.99,2.81,3.78,2.20
37.5350,0.09,0.12,-0.99,3.05,3.85,2.38
37.5520,0.09,0.12,-0.99,3.17,3.85,2.44
37.5680,0.10,0.13,-0.99,3.11,3.72,2.38
37.5830,0.09,0.13,-0.99,3.11,3.91,2.26
37.5980,0.08,0.12,-0.99,3.05,4.09,2.44
37.6130,0.08,0.13,-0.99,2.75,3.48,2.75
37.6290,0.08,0.13,-0.99,3.05,3.54,2.87
37.6450,0.07,0.12,-0.99,3.17,3.36,2.62
37.6600,0.08,0.13,-0.99,3.23,3.72,2.14
37.6760,0.08,0.13,-0.99,3.17,3.60,1.71
37.6910,0.10,0.12,-0.99,2.87,3.66,2.01
37.7020,0.09,0.12,-0.99,3.05,3.66,2.32
37.7190,0.09,0.13,-0.99,3.11,3.78,2.20
37.7360,0.08,0.13,-0.99,3.11,3.72,2.01
37.7520,0.08,0.13,-0.99,3.23,3.85,2.08
37.7690,0.08,0.13,-0.99,3.11,3.97,2.01
37.7840,0.08,0.13,-0.99,2.93,3.54,2.26
37.8000,0.08,0.13,-0.99,2.87,3.78,2.32
37.8160,0.08,0.12,-0.99,3.05,3.72,2.38
37.8190,0.08,0.13,-0.99,3.17,3.78,2.14
37.8350,0.08,0.13,-0.99,3.05,3.85,2.08
37.8570,0.09,0.13,-0.99,3.17,3.72,2.08
37.8740,0.09,0.13,-0.99,2.87,3.60,2.01
37.8900,0.09,0.13,-0.99,3.17,3.72,2.14
37.9070,0.09,0.13,-0.99,3.23,3.78,1.95
37.9230,0.09,0.13,-0.99,3.30,3.60,1.83
37.9390,0.09,0.13,-0.99,2.99,3.42,1.89
37.9540,0.09,0.12,-0.99,2.99,3.60,2.20
37.9710,0.09,0.13,-0.99,2.87,3.66,2.56
37.9860,0.08,0.13,-0.99,2.87,3.42,3.23
37.9900,0.07,0.13,-0.99,3.11,3.54,2.62
38.0070,0.08,0.13,-0.99,2.99,3.72,2.26
38.0220,0.08,0.12,-0.99,2.93,3.78,2.20
38.0440,0.08,0.12,-0.99,2.99,4.15,2.26
38.0610,0.09,0.13,-0.99,3.05,3.72,1.89
38.0770,0.09,0.12,-0.99,3.11,3.66,2.08
38.0950,0.09,0.12,-0.99,2.87,3.78,2.08
38.1100,0.09,0.13,-0.99,3.17,3.42,2.01
38.1260,0.11,0.13,-0.99,2.99,3.72,2.08
38.1430,0.07,0.12,-0.99,3.05,3.54,2.38
38.1450,0.07,0.13,-0.99,3.17,3.54,2.08
38.1750,0.08,0.12,-0.99,2.99,3.72,1.95
38.1780,0.08,0.12,-0.99,3.23,3.48,2.01
38.2070,0.09,0.13,-0.99,3.11,3.85,2.26
38.2220,0.10,0.13,-0.99,2.99,3.48,2.14
38.2370,0.08,0.12,-0.99,2.99,4.15,2.38
38.2530,0.08,0.12,-0.99,3.05,3.42,2.50
38.2660,0.08,0.12,-0.99,3.36,3.66,2.32
38.2830,0.08,0.13,-0.99,3.23,3.48,2.20
38.2940,0.09,0.13,-0.99,3.05,3.78,2.14
38.3110,0.10,0.13,-0.99,2.93,4.09,2.01
38.3270,0.09,0.13,-0.99,3.05,3.91,2.26
38.3450,0.08,0.13,-0.99,3.11,3.66,2.44
38.3600,0.09,0.13,-0.99,2.81,3.48,2.14
38.3760,0.08,0.13,-0.99,2.99,4.09,2.14
38.3930,0.08,0.12,-0.99,3.11,3.66,2.56
38.3950,0.08,0.12,-0.99,3.17,3.97,2.38
38.4240,0.08,0.13,-0.99,3.17,4.09,2.01
38.4410,0.09,0.13,-0.99,2.93,3.91,1.77
38.4450,0.09,0.13,-1.00,3.23,3.54,1.65
38.4670,0.10,0.12,-0.99,3.11,3.42,1.53
38.4830,0.09,0.12,-0.99,3.42,3.91,1.40
38.5010,0.09,0.12,-0.99,3.11,3.78,1.59
38.5170,0.09,0.13,-0.99,2.93,3.72,1.89
38.5330,0.09,0.13,-0.99,3.05,3.42,2.01
38.5480,0.09,0.13,-0.99,2.81,3.60,2.32
38.5630,0.08,0.13,-0.99,2.99,3.48,2.44
38.5780,0.09,0.13,-0.99,3.05,3.48,2.38
38.5930,0.08,0.13,-0.99,3.05,3.54,2.26
38.6000,0.09,0.13,-0.99,3.11,3.66,2.14
38.6160,0.08,0.13,-0.99,3.05,3.66,1.95
38.6380,0.08,0.12,-0.99,3.11,3.97,1.95
38.6550,0.08,0.12,-0.99,3.17,3.66,2.08
38.6710,0.09,0.12,-0.99,3.05,3.78,1.89
38.6880,0.09,0.12,-0.99,3.23,3.48,1.89
38.7050,0.08,0.12,-0.99,3.17,3.78,1.89
38.7200,0.09,0.12,-0.99,2.99,3.97,2.14
38.7360,0.07,0.13,-0.99,3.17,3.66,2.26
38.7520,0.07,0.13,-0.99,3.30,3.66,2.26
38.7670,0.09,0.13,-0.99,3.17,3.85,2.01
38.7700,0.10,0.13,-0.99,2.99,4.09,2.20
38.7990,0.10,0.12,-0.99,2.93,3.30,2.08
38.8100,0.08,0.12,-0.99,2.99,3.78,2.14
38.8270,0.10,0.12,-0.99,3.30,4.21,2.08
38.8420,0.10,0.12,-0.99,3.11,3.85,1.83
38.8600,0.08,0.13,-0.98,3.11,3.60,1.83
38.8760,0.07,0.13,-0.99,2.99,3.42,1.77
38.8930,0.08,0.12,-0.99,3.05,3.91,1.83
38.9080,0.10,0.12,-0.99,2.99,3.85,1.89
38.9250,0.12,0.13,-0.99,3.23,3.91,1.46
38.9400,0.10,0.12,-0.99,3.11,4.09,1.22
38.9560,0.08,0.12,-1.00,2.99,3.60,1.04
38.9680,0.07,0.12,-0.99,2.93,3.85,1.34
38.9750,0.08,0.13,-0.99,3.17,3.66,1.40
38.9910,0.09,0.13,-0.99,3.05,4.21,1.40
39.0180,0.09,0.13,-0.99,2.93,3.97,1.10
39.0340,0.07,0.13,-0.99,3.17,3.66,1.28
39.0510,0.07,0.13,-0.99,2.99,3.60,1.65
39.0660,0.08,0.13,-0.99,2.81,3.42,1.89
39.0810,0.08,0.12,-0.99,2.87,3.60,2.01
39.0970,0.11,0.12,-0.99,3.05,3.91,2.08
39.1120,0.10,0.12,-0.99,3.05,3.78,1.04
39.1170,0.08,0.12,-0.99,3.48,3.54,1.16
39.1330,0.07,0.12,-0.99,3.05,3.97,1.65
39.1570,0.07,0.12,-0.99,2.81,3.72,1.83
39.1730,0.08,0.13,-0.99,2.69,4.09,2.20
39.1890,0.08,0.13,-0.99,2.93,3.78,2.01
39.2040,0.08,0.13,-0.99,3.30,3.60,2.08
39.2070,0.08,0.13,-0.99,3.17,3.78,2.01
39.2220,0.08,0.13,-0.99,3.05,3.48,1.95
39.2450,0.09,0.12,-0.99,2.93,3.54,2.08
39.2610,0.09,0.12,-0.99,2.87,3.85,2.32
39.2770,0.09,0.12,-0.99,2.87,3.97,2.14
39.2970,0.09,0.12,-0.99,2.99,3.78,2.08
39.3130,0.09,0.12,-0.99,2.93,3.97,2.08
39.3280,0.09,0.12,-0.99,2.93,3.72,2.20
39.3440,0.09,0.12,-0.99,3.11,4.03,2.14
39.3610,0.08,0.13,-0.99,3.11,3.48,2.01
39.3780,0.08,0.13,-0.99,3.36,3.72,2.14
39.3930,0.08,0.13,-0.99,3.30,4.09,2.14
39.4080,0.09,0.12,-0.99,3.17,3.60,2.14
39.4240,0.09,0.13,-0.99,3.05,3.91,1.95
39.4400,0.09,0.13,-0.99,2.99,4.03,2.01
39.4560,0.08,0.12,-0.99,3.11,3.54,1.22
39.4690,0.09,0.12,-0.99,2.87,3.60,1.95
39.4800,0.10,0.13,-1.00,2.99,3.85,2.08
39.4980,0.09,0.12,-0.99,2.81,3.78,2.20
39.5140,0.08,0.12,-0.99,3.17,3.91,2.26
39.5310,0.08,0.12,-0.99,3.11,3.66,2.38
39.5470,0.08,0.13,-0.99,3.23,3.54,2.38
39.5650,0.08,0.13,-0.99,3.05,3.78,2.14
39.5790,0.09,0.13,-0.99,3.17,3.42,2.01
39.5950,0.09,0.12,-0.99,2.99,3.72,2.14
39.6110,0.09,0.12,-0.99,3.23,3.60,2.01
39.6260,0.09,0.12,-0.99,3.17,3.91,2.14
39.6430,0.09,0.12,-0.99,2.69,3.85,2.20
39.6580,0.09,0.12,-0.99,3.23,3.85,2.14
39.6730,0.08,0.12,-0.99,2.87,3.72,1.95
39.6880,0.08,0.12,-0.99,2.99,3.60,2.08
39.7030,0.08,0.12,-0.99,3.05,3.91,1.95
39.7140,0.09,0.13,-1.00,2.69,3.54,1.95
39.7310,0.09,0.13,-0.99,3.17,3.85,2.01
39.7470,0.08,0.12,-0.99,3.23,3.66,2.08
39.7640,0.08,0.12,-0.99,3.36,3.66,2.14
39.7800,0.08,0.12,-0.99,3.36,3.54,1.83
39.7960,0.09,0.12,-0.99,3.05,3.60,1.95
39.8110,0.09,0.12,-0.99,2.75,3.72,2.01
39.8140,0.10,0.13,-0.99,2.81,3.91,1.71
39.8300,0.08,0.13,-0.99,2.56,3.91,1.04
39.8530,0.07,0.12,-0.99,2.62,3.72,0.79
39.8700,0.08,0.12,-1.01,2.62,4.21,1.65
39.8870,0.08,0.12,-0.99,2.81,3.91,2.01
39.8880,0.08,0.13,-0.99,2.75,3.97,2.08
39.9180,0.08,0.12,-0.99,3.23,3.66,2.01
39.9340,0.08,0.12,-0.99,2.93,3.97,2.08
39.9500,0.08,0.12,-0.99,2.93,3.66,2.20
39.9540,0.09,0.12,-0.99,2.99,3.78,2.26
39.9690,0.09,0.12,-0.99,2.99,3.78,2.01
39.9910,0.08,0.12,-0.99,3.11,3.78,2.08
40.0080,0.08,0.12,-0.99,3.42,3.85,2.20
40.0250,0.08,0.12,-0.99,3.42,3.72,2.26
40.0420,0.09,0.12,-0.99,3.42,3.85,2.14
40.0580,0.09,0.12,-0.99,2.87,3.72,2.08
40.0740,0.09,0.12,-0.99,2.87,3.66,2.20
40.0900,0.09,0.12,-0.99,3.05,3.60,2.14
40.0920,0.09,0.12,-0.99,3.05,3.97,2.14
40.1230,0.08,0.12,-0.99,3.23,3.97,1.95
40.1400,0.08,0.12,-0.99,2.99,3.60,2.08
40.1570,0.08,0.12,-0.99,2.81,3.54,2.08
40.1730,0.08,0.12,-0.99,2.75,3.91,2.26
40.1750,0.08,0.12,-0.99,2.81,3.66,2.14
40.1910,0.08,0.16,-0.99,2.99,3.66,2.08
40.2160,0.08,0.12,-0.99,2.87,3.85,2.20
40.2330,0.08,0.12,-0.99,2.87,3.72,2.26
40.2490,0.09,0.12,-0.99,3.23,3.54,2.69
40.2660,0.09,0.12,-0.99,3.05,3.72,2.32
40.2810,0.09,0.12,-0.99,3.23,3.72,2.01
40.2960,0.09,0.12,-0.99,3.11,3.97,2.14
40.3120,0.09,0.12,-0.99,3.60,3.66,2.01
40.3280,0.08,0.12,-0.99,2.99,3.91,2.08
40.3440,0.08,0.12,-0.99,3.05,3.85,2.08
40.3600,0.08,0.12,-0.99,3.48,3.85,2.14
40.3700,0.09,0.12,-0.99,3.23,3.72,2.26
40.3820,0.09,0.12,-0.99,3.17,3.91,2.14
40.4060,0.09,0.13,-0.99,3.11,3.78,2.01
40.4220,0.08,0.13,-0.99,3.11,3.60,1.95
40.4230,0.08,0.13,-0.99,3.23,3.60,2.14
40.4400,0.08,0.13,-0.99,3.23,3.60,2.14
40.4700,0.08,0.12,-0.99,3.48,3.66,1.95
40.4730,0.08,0.12,-0.99,3.42,3.48,2.08
40.4890,0.09,0.12,-0.99,3.11,3.60,2.26
40.5120,0.08,0.12,-0.99,3.36,3.72,2.14
40.5280,0.08,0.12,-0.99,3.30,3.54,2.20
40.5450,0.08,0.12,-0.99,3.30,3.48,2.20
40.5620,0.09,0.12,-0.99,3.36,3.30,2.20
40.5780,0.09,0.12,-0.99,3.05,3.91,2.20
40.5940,0.09,0.12,-0.99,3.05,3.91,2.14
40.6090,0.09,0.13,-0.99,2.87,3.60,1.95
40.6250,0.08,0.13,-0.99,2.93,3.78,2.14
40.6410,0.08,0.13,-0.99,2.99,3.66,2.08
40.6570,0.08,0.13,-0.99,3.05,3.85,2.26
40.6700,0.08,0.12,-0.99,3.11,3.91,2.14
40.6780,0.08,0.12,-0.99,3.30,3.17,2.08
40.7030,0.09,0.12,-0.99,3.05,3.36,2.14
40.7190,0.09,0.12,-0.99,3.30,3.78,2.14
40.7350,0.09,0.12,-0.99,3.17,3.60,2.01
40.7500,0.09,0.12,-0.99,3.11,3.66,2.01
40.7530,0.09,0.12,-0.99,3.30,3.97,2.01
40.7700,0.08,0.12,-0.99,2.99,3.78,2.20
40.7920,0.08,0.12,-0.99,2.99,4.09,2.08
40.8090,0.08,0.12,-0.99,3.23,4.03,2.26
40.8240,0.08,0.12,-0.99,3.23,3.91,2.14
40.8400,0.08,0.13,-0.99,3.23,4.03,2.14
40.8580,0.08,0.12,-0.99,3.11,4.09,2.20
40.8730,0.09,0.12,-0.99,3.05,3.72,2.14
40.8880,0.09,0.12,-0.99,3.05,3.60,2.14
40.8990,0.09,0.12,-0.99,2.93,3.97,2.01
40.9150,0.09,0.12,-0.99,2.81,3.66,2.14
40.9320,0.09,0.12,-0.99,2.87,3.66,2.01
40.9490,0.08,0.12,-0.99,2.81,3.48,2.08
40.9640,0.08,0.12,-0.99,3.05,3.60,1.89
40.9810,0.08,0.12,-0.99,3.11,3.72,2.14
40.9970,0.09,0.12,-0.99,2.93,3.54,2.14
41.0120,0.09,0.13,-0.99,3.11,3.54,2.20
41.0150,0.09,0.12,-0.99,2.99,3.66,2.14
41.0300,0.09,0.13,-0.99,3.05,3.91,2.20
41.0530,0.09,0.12,-0.99,2.93,3.78,2.14
41.0700,0.09,0.12,-0.99,2.93,3.97,2.01
41.0860,0.09,0.12,-0.99,2.87,3.85,2.08
41.1030,0.08,0.12,-0.99,2.75,3.72,2.14
41.1200,0.08,0.12,-0.99,2.99,3.91,2.20
41.1360,0.08,0.12,-0.99,2.99,3.66,2.08
41.1520,0.08,0.12,-0.99,3.05,3.85,2.14
41.1680,0.08,0.12,-0.99,3.30,3.54,2.14
41.1840,0.09,0.12,-0.99,3.54,3.66,2.26
41.1870,0.08,0.12,-0.99,3.36,3.54,2.38
41.2020,0.08,0.14,-1.00,2.93,3.54,2.93
41.2260,0.08,0.13,-0.99,2.44,3.97,2.62
41.2430,0.09,0.13,-0.99,2.44,4.03,2.81
41.2590,0.10,0.13,-1.00,1.46,3.85,2.08
41.2750,0.11,0.13,-1.01,-2.87,5.31,1.16
41.2920,0.08,0.11,-1.00,-9.34,7.02,-1.04
41.2930,0.06,0.11,-0.97,-8.18,7.39,-2.56
41.3090,0.07,0.14,-1.00,-3.66,6.29,0.00
41.3270,0.06,0.16,-1.03,-8.06,7.08,5.00
41.3420,0.04,0.16,-1.04,-17.88,11.72,12.33
41.3710,0.04,0.15,-1.01,-22.52,15.08,15.50
41.3830,0.07,0.12,-0.94,-21.61,18.80,15.99
41.3990,0.07,0.06,-0.96,-5.86,19.47,6.53
41.4160,0.04,-0.00,-1.01,5.92,17.03,-1.28
41.4330,0.04,-0.02,-1.03,4.94,15.99,-6.16
41.4480,0.07,-0.00,-1.05,0.55,21.55,-12.45
41.4640,0.10,0.02,-1.04,-2.81,24.66,-8.73
41.4790,0.08,0.03,-0.99,-3.60,28.99,4.46
41.4950,0.04,0.06,-0.99,8.00,30.46,12.21
41.5100,0.04,0.07,-1.01,21.55,25.70,5.92
41.5260,0.01,0.04,-0.99,24.11,11.29,-7.08
41.5330,-0.05,0.01,-0.92,19.65,0.00,-16.30
41.5480,-0.06,0.02,-0.89,18.19,-0.79,-20.45
41.5710,-0.07,0.09,-0.89,16.11,4.27,-22.89
41.5860,-0.04,0.17,-0.95,11.90,13.37,-19.59
41.6020,-0.06,0.22,-1.11,11.41,5.62,-13.37
41.6190,0.04,0.20,-1.04,12.27,-1.46,-3.36
41.6350,0.11,0.20,-1.01,15.75,2.01,-10.38
41.6370,0.08,0.17,-1.01,10.19,7.57,-15.14
41.6530,0.08,0.15,-0.99,5.55,6.23,-2.44
41.6770,0.10,0.13,-1.00,7.45,7.08,-0.12
41.6920,0.05,0.11,-0.97,4.76,6.10,-0.67
41.7080,0.05,0.08,-0.98,4.15,-1.34,-3.30
41.7290,0.01,0.09,-0.99,5.98,-6.84,-5.19
41.7450,0.06,0.14,-1.01,6.35,-9.64,-0.06
41.7620,0.10,0.16,-1.05,2.20,-3.48,-1.77
41.7780,0.05,0.19,-1.09,-1.53,16.85,-1.04
41.7940,0.01,0.20,-1.03,-12.94,38.70,8.67
41.8110,-0.00,0.18,-0.94,-18.68,41.93,14.28
41.8270,-0.03,0.09,-0.93,-17.70,25.63,13.73
41.8300,-0.03,0.07,-0.94,-18.68,4.46,9.16
41.8590,-0.01,0.06,-0.94,-18.01,-4.39,6.29
41.8750,-0.00,0.08,-1.00,-11.11,-14.83,4.03
41.8910,0.04,0.10,-1.03,-10.13,-13.06,3.36
41.9070,0.03,0.08,-1.01,-12.57,-5.68,4.52
41.9230,0.03,0.07,-1.00,-12.27,-1.83,6.29
41.9380,0.03,0.07,-0.99,-17.03,-5.19,7.26
41.9470,0.02,0.07,-0.97,-21.61,-12.08,7.08
41.9680,0.01,0.06,-0.96,-22.09,-17.15,6.53
41.9790,0.03,0.03,-0.93,-19.41,-30.03,6.16
41.9970,0.06,-0.02,-0.95,3.78,-34.36,6.29
42.0120,0.09,0.06,-1.13,28.14,-17.52,3.97
42.0280,0.12,0.09,-1.04,5.86,-0.37,-2.08
42.0360,0.06,0.07,-1.02,-0.73,3.78,-2.93
42.0590,0.07,0.05,-0.96,-2.32,4.46,0.49
42.0710,0.07,0.04,-0.94,6.77,-0.18,-0.98
42.0860,0.06,0.01,-0.92,22.34,-6.10,-3.48
42.1040,0.09,0.00,-0.91,42.11,-13.18,-5.19
42.1210,0.05,0.09,-1.01,64.70,-4.88,-3.17
42.1360,0.07,0.10,-1.07,60.24,-3.97,-1.40
42.1530,0.09,0.15,-1.04,39.86,-1.77,3.60
42.1540,0.11,0.20,-1.08,23.74,0.55,2.75
42.1840,0.08,0.11,-0.98,3.42,3.91,-0.06
42.1990,0.08,0.13,-0.99,5.00,3.66,1.04
42.2160,0.08,0.12,-0.99,4.94,3.66,2.20
42.2210,0.08,0.13,-0.99,4.58,3.23,2.20
42.2470,0.09,0.13,-1.00,3.97,3.85,2.08
42.2620,0.09,0.11,-0.99,3.60,4.09,1.65
42.2720,0.09,0.12,-0.99,3.72,4.21,-0.98
42.2920,0.09,0.12,-0.99,3.85,4.39,-2.32
42.3030,0.08,0.13,-0.99,3.78,4.58,-3.97
42.3190,0.08,0.13,-0.99,4.21,4.46,-3.42
42.3370,0.08,0.11,-0.99,4.15,4.33,-3.54
42.3530,0.08,0.12,-0.99,4.27,5.19,-5.25
42.3700,0.07,0.17,-0.99,4.03,4.82,-3.54
42.3860,0.09,0.12,-0.99,2.81,3.42,2.01
42.4030,0.09,0.12,-0.99,3.11,3.72,2.01
42.4180,0.09,0.12,-0.99,3.17,3.91,2.14
42.4350,0.10,0.11,-0.99,2.99,3.85,1.40
42.4520,0.07,0.13,-0.99,2.81,4.33,-0.37
42.4530,0.08,0.12,-0.99,2.87,3.72,1.77
42.4720,0.08,0.12,-0.99,3.17,3.48,2.14
42.4940,0.08,0.12,-0.99,3.05,3.54,2.08
42.5120,0.08,0.12,-0.99,3.30,3.78,2.20
42.5270,0.08,0.13,-0.99,2.93,3.60,2.26
42.5430,0.09,0.12,-0.99,2.99,3.42,2.14
42.5600,0.09,0.12,-0.99,2.93,3.78,2.14
42.5770,0.09,0.12,-0.99,2.62,3.91,2.01
42.5920,0.08,0.12,-0.99,3.11,3.66,2.01
42.6080,0.08,0.12,-0.99,2.99,3.66,2.08
42.6230,0.08,0.12,-0.99,2.99,3.97,2.14
42.6270,0.08,0.12,-0.99,3.05,3.85,2.01
42.6430,0.08,0.12,-0.99,2.99,3.60,2.14
42.6650,0.08,0.13,-0.99,3.17,3.42,2.08
42.6820,0.08,0.12,-0.99,3.23,3.30,2.14
42.6990,0.08,0.13,-0.99,3.05,3.78,2.14
42.7140,0.08,0.12,-0.99,2.81,3.60,2.08
42.7290,0.08,0.12,-0.99,3.11,3.72,2.14
42.7450,0.08,0.12,-0.99,3.11,3.91,2.32
42.7610,0.08,0.12,-0.99,3.05,3.60,2.32
42.7750,0.08,0.12,-0.99,3.23,3.85,2.69
42.7820,0.08,0.12,-0.99,2.75,3.36,2.99
42.7980,0.08,0.12,-0.99,3.17,3.48,2.56
42.8190,0.08,0.12,-0.99,3.05,3.78,2.38
42.8360,0.08,0.12,-0.99,3.05,3.78,2.20
42.8530,0.08,0.12,-0.99,3.05,3.60,2.01
42.8680,0.08,0.13,-0.99,3.36,3.78,1.89
42.8840,0.08,0.13,-0.99,3.36,3.78,2.14
42.9000,0.08,0.12,-0.99,2.87,3.42,2.08
42.9150,0.08,0.12,-0.99,3.05,3.91,2.08
42.9300,0.09,0.12,-0.99,3.11,3.48,2.26
42.9450,0.09,0.12,-0.99,3.36,3.78,2.14
42.9600,0.08,0.12,-0.99,3.17,3.85,2.20
42.9730,0.08,0.12,-0.99,3.23,4.03,2.08
42.9860,0.08,0.12,-0.99,3.54,3.72,2.14
43.0020,0.08,0.12,-0.99,3.48,3.85,2.08
43.0190,0.08,0.12,-0.99,3.30,3.72,2.08
43.0350,0.09,0.12,-0.99,3.72,3.48,1.95
43.0510,0.08,0.13,-0.99,3.66,3.66,1.95
43.0670,0.09,0.12,-0.99,3.42,3.97,1.89
43.0730,0.09,0.12,-0.99,3.54,3.78,1.46
43.0850,0.09,0.12,-0.99,3.54,3.97,0.55
43.1080,0.08,0.13,-0.99,3.54,4.21,0.31
43.1240,0.09,0.12,-0.99,3.36,3.91,0.18
43.1400,0.09,0.12,-0.99,3.54,4.27,-1.34
43.1590,0.08,0.12,-0.99,3.85,4.82,-3.48
43.1740,0.08,0.13,-0.99,3.97,4.46,-3.17
43.1890,0.08,0.13,-0.99,3.78,4.39,-0.98
43.2060,0.08,0.13,-0.99,3.66,3.91,0.49
43.2210,0.09,0.12,-0.99,3.42,4.09,0.79
43.2370,0.09,0.12,-0.99,3.60,4.03,-0.73
43.2450,0.08,0.12,-0.99,3.66,4.58,-1.95
43.2610,0.08,0.13,-0.99,3.48,4.70,-1.04
43.2810,0.08,0.13,-0.99,3.30,3.85,0.92
43.2970,0.08,0.13,-0.99,3.42,3.60,1.53
43.3120,0.09,0.12,-0.99,2.93,4.09,1.53
43.3280,0.09,0.11,-0.99,3.23,4.33,-0.98
43.3440,0.08,0.11,-0.99,3.66,4.76,-3.85
43.3600,0.07,0.11,-0.99,4.15,5.25,-5.00
43.3750,0.08,0.13,-0.99,3.97,4.52,-3.72
43.3810,0.08,0.14,-0.99,3.85,4.58,-1.46
43.3960,0.09,0.14,-0.99,3.30,3.91,-0.61
43.4210,0.09,0.13,-0.99,3.30,3.85,-0.55
43.4370,0.09,0.13,-0.99,3.11,4.46,-0.43
43.4530,0.08,0.13,-0.99,3.42,4.09,-0.31
43.4700,0.08,0.13,-0.99,3.30,4.09,1.28
43.4860,0.08,0.13,-0.99,3.23,3.97,2.20
43.5020,0.08,0.12,-0.99,3.36,3.78,2.08
43.5180,0.09,0.12,-0.99,2.99,4.03,1.53
43.5340,0.08,0.12,-0.99,3.23,4.03,-0.55
43.5480,0.08,0.13,-0.99,3.42,4.09,-1.89
43.5630,0.08,0.12,-0.99,3.54,4.21,-1.71
43.5780,0.08,0.12,-0.99,3.42,4.58,-1.71
43.5870,0.08,0.12,-0.99,3.78,4.52,-2.93
43.6030,0.08,0.12,-0.99,3.72,4.33,-3.23
43.6250,0.09,0.13,-0.99,3.48,4.52,-2.75
43.6270,0.09,0.14,-0.99,3.30,4.15,-0.55
43.6430,0.08,0.13,-0.99,3.05,3.85,1.59
43.6740,0.08,0.12,-0.99,2.69,3.78,1.95
43.6770,0.09,0.11,-0.99,3.11,3.72,1.77
43.7050,0.08,0.10,-0.99,3.30,4.52,-1.04
43.7210,0.08,0.11,-0.99,3.66,4.70,-3.60
43.7260,0.08,0.12,-0.99,3.78,4.76,-3.23
43.7420,0.08,0.13,-0.99,3.60,4.33,-2.75
43.7660,0.08,0.13,-0.99,3.36,4.27,-1.53
43.7820,0.09,0.13,-0.99,3.42,4.15,-0.98
43.7990,0.08,0.11,-0.99,3.48,4.64,-2.62
43.8140,0.08,0.11,-0.99,3.85,5.13,-4.82
43.8300,0.09,0.13,-0.99,3.97,4.64,-4.46
43.8450,0.09,0.13,-0.99,3.60,4.39,-2.44
43.8610,0.09,0.15,-0.99,3.23,4.27,-1.40
43.8740,0.09,0.14,-0.99,3.30,4.15,-0.61
43.8830,0.09,0.13,-0.99,3.30,4.15,-0.85
43.9090,0.09,0.13,-0.99,3.05,4.09,0.55
43.9240,0.08,0.13,-0.99,3.17,3.72,1.71
43.9390,0.08,0.13,-0.99,2.75,4.03,2.01
43.9420,0.08,0.13,-0.99,3.17,3.66,2.01
43.9710,0.08,0.12,-0.99,3.05,3.60,2.32
43.9880,0.08,0.13,-0.99,2.99,3.72,2.20
43.9920,0.09,0.11,-0.99,3.05,3.91,0.98
44.0070,0.08,0.11,-0.99,3.36,4.33,-0.55
44.0330,0.08,0.12,-0.99,3.23,4.21,-1.71
44.0500,0.08,0.13,-0.99,3.36,4.09,-1.53
44.0650,0.08,0.13,-0.99,3.48,3.85,0.18
44.0810,0.08,0.12,-0.99,3.17,4.33,-0.31
44.0960,0.08,0.11,-0.99,3.17,4.27,-1.40
44.1110,0.08,0.11,-0.99,3.72,4.58,-4.09
44.1270,0.08,0.13,-0.99,3.72,4.70,-3.97
44.1330,0.08,0.13,-0.99,3.42,4.64,-2.44
44.1490,0.09,0.14,-0.99,3.11,4.46,-1.83
44.1720,0.09,0.14,-0.99,3.11,4.33,-1.10
44.1880,0.09,0.12,-0.99,3.54,4.27,-1.22
44.2050,0.09,0.13,-0.99,3.60,4.21,-1.40
44.2060,0.08,0.13,-0.99,3.36,3.97,0.37
44.2230,0.08,0.13,-0.99,2.87,3.97,1.71
44.2390,0.08,0.13,-0.99,3.30,3.91,2.08
44.2550,0.09,0.12,-0.99,3.11,4.15,1.71
44.2770,0.09,0.11,-0.99,3.42,3.91,0.92
44.2940,0.08,0.11,-0.99,3.42,4.21,-1.28
44.3110,0.08,0.12,-0.99,3.36,4.46,-1.59
44.3260,0.08,0.14,-0.99,3.30,4.09,-0.06
44.3420,0.08,0.14,-0.99,3.36,3.36,1.16
44.3580,0.08,0.13,-0.99,2.99,3.66,2.01
44.3730,0.08,0.12,-0.99,3.11,3.91,2.01
44.3890,0.09,0.12,-0.99,3.17,4.09,2.08
44.4050,0.08,0.11,-0.99,3.30,3.97,0.18
44.4100,0.08,0.13,-0.99,3.42,4.09,-2.08
44.4260,0.08,0.13,-0.99,3.30,4.21,-0.43
44.4490,0.08,0.13,-0.99,3.11,4.09,0.55
44.4650,0.08,0.14,-0.99,3.17,4.21,1.04
44.4820,0.08,0.12,-1.00,3.23,3.72,1.71
44.4970,0.09,0.12,-1.00,3.05,3.97,0.98
44.5120,0.09,0.11,-0.99,3.30,4.15,-1.16
44.5280,0.09,0.13,-0.99,3.23,4.39,-2.01
44.5430,0.09,0.12,-0.99,3.36,4.15,-0.79
44.5580,0.08,0.12,-0.99,3.30,4.09,-0.61
44.5730,0.08,0.12,-0.99,2.93,4.39,-1.16
44.5900,0.08,0.13,-0.99,3.05,4.52,-1.16
44.6060,0.09,0.13,-0.99,3.11,4.52,-0.49
44.6210,0.09,0.13,-0.99,3.30,4.15,-1.04
44.6320,0.09,0.13,-0.99,3.17,4.46,-1.65
44.6470,0.09,0.13,-0.99,3.54,4.27,-1.16
44.6670,0.08,0.12,-0.99,3.36,4.46,-1.22
44.6840,0.08,0.13,-0.99,3.05,4.33,-0.98
44.6990,0.08,0.12,-0.99,3.30,4.39,-0.37
44.7140,0.08,0.12,-0.99,3.36,4.27,-0.06
44.7300,0.08,0.12,-0.99,3.48,4.09,0.37
44.7450,0.08,0.12,-0.99,3.36,4.03,0.98
44.7520,0.08,0.12,-0.99,3.23,4.15,1.04
44.7750,0.08,0.13,-0.99,3.17,4.03,0.61
44.7890,0.08,0.12,-0.99,3.23,3.97,0.37
44.8060,0.08,0.11,-0.99,3.23,4.39,-1.59
44.8070,0.08,0.12,-0.99,3.60,4.46,-2.44
44.8360,0.08,0.11,-0.99,3.54,4.52,-2.69
44.8390,0.08,0.12,-0.99,3.23,4.52,-2.75
44.8660,0.08,0.12,-0.99,3.36,4.21,-3.78
44.8760,0.08,0.13,-0.99,3.48,4.46,-2.99
44.8930,0.08,0.12,-0.99,3.48,4.70,-3.17
44.9090,0.08,0.13,-0.99,3.23,4.70,-3.36
44.9260,0.08,0.14,-0.99,3.48,4.33,-1.40
44.9420,0.09,0.14,-0.99,2.99,3.48,1.10
44.9590,0.09,0.13,-0.99,3.11,3.66,2.08
44.9740,0.08,0.13,-0.99,2.87,3.72,2.01
44.9770,0.09,0.12,-0.99,3.17,3.60,1.77
44.9920,0.09,0.12,-0.99,3.30,4.15,0.12
45.0220,0.08,0.11,-0.99,3.42,4.33,-0.73
45.0370,0.08,0.12,-0.99,3.36,4.15,-1.16
45.0440,0.08,0.13,-0.99,3.23,4.03,-0.06
45.0590,0.08,0.13,-0.99,2.99,3.85,0.31
45.0830,0.08,0.12,-0.99,3.17,4.03,0.00
45.0990,0.09,0.13,-0.99,3.36,4.46,0.00
45.1150,0.09,0.13,-0.99,3.23,3.72,1.10
45.1310,0.09,0.13,-0.99,3.54,3.48,1.65
45.1460,0.08,0.12,-0.99,3.17,4.09,1.46
45.1610,0.08,0.12,-0.99,3.23,4.09,-0.37
45.1770,0.08,0.11,-0.99,3.78,4.33,-2.62
45.1920,0.08,0.12,-0.99,3.66,4.52,-3.42
45.2000,0.08,0.13,-0.99,3.42,4.46,-0.67
45.2150,0.09,0.14,-0.99,3.23,3.85,1.34
45.2360,0.09,0.13,-0.99,3.05,3.60,1.65
45.2530,0.08,0.12,-0.99,3.17,3.72,1.59
45.2700,0.08,0.11,-0.99,3.36,3.60,0.79
45.2860,0.08,0.12,-0.99,3.17,4.46,-1.59
45.3020,0.08,0.12,-0.99,3.42,4.27,-1.28
45.3180,0.08,0.13,-0.99,3.23,4.03,-0.49
45.3340,0.09,0.13,-0.99,3.48,3.97,0.55
45.3490,0.08,0.12,-0.99,3.30,4.27,0.12
45.3650,0.08,0.11,-0.99,3.42,4.64,-2.20
45.3810,0.09,0.12,-0.99,3.30,4.82,-3.42
45.3980,0.09,0.13,-0.99,3.54,4.33,-2.32
45.4130,0.09,0.13,-0.99,3.30,4.09,-0.85
45.4280,0.09,0.13,-0.99,3.11,4.15,0.12
45.4430,0.09,0.13,-0.99,3.05,3.91,1.59
45.4530,0.08,0.12,-0.99,3.11,4.09,2.01
45.4700,0.09,0.12,-0.99,2.93,3.72,2.08
45.4870,0.09,0.12,-0.99,3.30,4.03,2.01
45.5030,0.09,0.12,-0.99,3.30,3.72,1.95
45.5190,0.08,0.11,-0.99,3.23,4.21,-0.06
45.5360,0.08,0.11,-0.99,3.54,4.88,-2.08
45.5520,0.08,0.12,-0.99,3.60,4.52,-1.65
45.5680,0.08,0.12,-0.99,3.36,4.27,-0.49
45.5840,0.09,0.13,-0.99,3.23,3.97,-0.55
45.5860,0.09,0.12,-0.99,3.42,4.03,-0.31
45.6020,0.08,0.12,-0.99,3.17,4.15,-0.98
45.6270,0.08,0.12,-0.99,3.30,4.33,-1.22
45.6440,0.08,0.12,-0.99,3.23,4.27,-0.85
45.6590,0.09,0.13,-0.99,3.42,3.91,-0.79
45.6780,0.09,0.13,-0.99,3.30,4.03,-0.37
45.6940,0.09,0.12,-0.99,3.30,4.15,-0.12
45.7100,0.08,0.12,-0.99,3.48,4.21,-0.49
45.7240,0.08,0.13,-0.99,3.42,3.91,0.49
45.7400,0.08,0.13,-0.99,2.69,4.15,0.73
45.7550,0.08,0.13,-0.99,2.81,3.72,0.73
45.7710,0.08,0.13,-0.99,2.93,3.97,0.92
45.7850,0.08,0.12,-0.99,3.05,3.85,0.92
45.7960,0.08,0.11,-0.99,3.36,4.09,-0.12
45.8130,0.08,0.12,-0.99,3.48,4.58,-1.10
45.8310,0.08,0.13,-0.99,3.17,4.52,-0.73
45.8460,0.08,0.13,-0.99,3.11,4.03,-0.31
45.8620,0.08,0.13,-0.99,3.30,4.09,0.00
45.8760,0.08,0.12,-0.99,3.17,4.03,0.49
45.8850,0.08,0.11,-0.99,3.42,3.78,0.00
45.9000,0.08,0.11,-0.99,3.48,4.15,-2.14
45.9190,0.08,0.12,-0.99,3.60,4.21,-2.50
45.9360,0.08,0.13,-0.99,3.60,4.46,-1.40
45.9520,0.09,0.14,-0.99,3.42,4.21,0.37
45.9680,0.09,0.14,-0.99,3.11,3.91,0.92
45.9840,0.09,0.12,-0.99,3.17,3.85,1.46
46.0000,0.09,0.12,-0.99,3.17,3.85,1.34
46.0150,0.08,0.10,-0.99,3.17,3.91,-1.10
46.0190,0.08,0.11,-0.99,3.48,4.27,-2.14
46.0340,0.08,0.12,-0.99,3.54,4.39,-1.89
46.0570,0.08,0.13,-0.99,3.42,4.15,-0.67
46.0760,0.08,0.13,-0.99,3.17,3.85,0.24
46.0920,0.08,0.12,-0.99,3.17,3.78,0.92
46.1070,0.08,0.11,-0.99,3.11,3.85,-0.24
46.1230,0.08,0.11,-0.99,3.48,4.27,-1.53
46.1400,0.09,0.12,-0.99,3.36,4.33,-2.14
46.1410,0.09,0.13,-0.99,3.48,3.97,0.12
46.1710,0.08,0.14,-0.99,3.17,3.78,1.04
46.1870,0.08,0.13,-0.99,3.30,3.60,1.71
46.2030,0.09,0.12,-0.99,2.99,3.60,1.16
46.2180,0.09,0.10,-0.99,3.48,4.09,0.00
46.2240,0.08,0.11,-0.99,3.48,4.09,-1.28
46.2480,0.09,0.13,-0.99,3.48,4.52,-1.71
46.2630,0.09,0.13,-0.99,3.54,4.33,-1.16
46.2760,0.08,0.13,-0.99,3.42,4.09,-0.79
46.2900,0.08,0.13,-0.99,3.30,4.15,-0.43
46.3080,0.08,0.12,-0.99,3.11,4.39,-0.79
46.3240,0.08,0.12,-0.99,3.17,4.33,-1.04
46.3250,0.09,0.12,-0.99,3.48,4.64,-1.22
46.3560,0.08,0.12,-0.99,3.11,3.66,-0.18
46.3720,0.09,0.13,-0.99,3.54,3.78,0.12
46.3880,0.08,0.13,-0.99,3.17,3.78,0.00
46.3910,0.08,0.12,-0.99,3.17,4.15,-0.92
46.4060,0.08,0.11,-0.99,3.23,4.46,-1.71
46.4320,0.08,0.11,-0.99,3.17,4.76,-2.20
46.4490,0.08,0.13,-0.99,3.48,4.09,-1.22
46.4650,0.08,0.13,-0.99,3.36,4.21,-0.12
46.4820,0.09,0.13,-0.99,3.23,3.66,0.67
46.4970,0.09,0.12,-0.99,3.30,4.27,0.31
46.5130,0.08,0.12,-0.99,3.30,4.27,-0.12
46.5290,0.08,0.12,-0.99,3.23,3.97,-0.31
46.5450,0.08,0.13,-0.99,3.11,4.09,-0.06
46.5600,0.09,0.13,-0.99,3.11,4.09,0.85
46.5750,0.08,0.13,-0.99,3.23,3.60,1.28
46.5910,0.08,0.12,-0.99,3.17,3.97,0.92
46.6060,0.08,0.12,-0.99,3.11,4.03,0.37
46.6160,0.08,0.12,-0.99,3.42,4.27,0.12
46.6320,0.08,0.12,-0.99,3.23,3.78,0.55
46.6490,0.08,0.12,-0.99,2.93,3.97,-0.18
46.6650,0.08,0.11,-0.99,3.05,4.39,-1.40
46.6800,0.08,0.11,-0.99,3.60,4.27,-2.01
46.6960,0.08,0.12,-0.99,3.30,4.15,-1.71
46.7110,0.08,0.12,-0.99,3.54,3.91,-0.61
46.7260,0.08,0.13,-0.99,3.36,3.97,-0.12
46.7410,0.08,0.13,-0.99,3.30,4.09,-0.06
46.7570,0.08,0.12,-0.99,3.30,4.27,-1.22
46.7720,0.08,0.12,-0.99,3.23,4.33,-1.40
46.7820,0.08,0.12,-0.99,3.42,4.39,-1.53
46.7990,0.08,0.13,-0.99,3.17,3.66,0.06
46.8160,0.09,0.13,-0.99,2.93,3.85,1.04
46.8320,0.09,0.12,-0.99,2.93,4.03,1.28
46.8490,0.08,0.12,-0.99,3.11,4.58,0.49
46.8650,0.08,0.12,-0.99,3.48,4.21,-0.49
46.8820,0.08,0.12,-0.99,3.36,4.15,0.37
46.8970,0.08,0.12,-0.99,3.36,4.09,0.67
46.9120,0.08,0.12,-0.99,2.93,3.78,1.04
46.9270,0.08,0.11,-0.99,2.81,3.97,0.37
46.9320,0.08,0.12,-0.99,3.30,3.78,-0.43
46.9480,0.08,0.12,-0.99,3.30,4.46,-1.59
46.9720,0.08,0.13,-0.99,3.36,4.21,-0.73
46.9880,0.09,0.13,-0.99,3.23,4.15,0.67
47.0040,0.09,0.12,-0.99,3.42,4.15,0.92
47.0200,0.08,0.11,-0.99,3.17,4.15,-0.24
47.0360,0.08,0.11,-0.99,3.17,4.21,-1.28
47.0400,0.08,0.12,-0.99,3.30,4.27,-1.59
47.0680,0.08,0.12,-0.99,3.36,4.03,-1.10
47.0840,0.08,0.12,-0.99,3.54,4.03,-0.06
47.1000,0.09,0.13,-0.99,3.30,3.91,0.31
47.1160,0.08,0.11,-0.99,3.48,4.46,-1.46
47.1320,0.08,0.12,-0.99,3.30,4.52,-2.50
47.1480,0.08,0.12,-0.99,3.48,4.52,-1.95
47.1640,0.08,0.14,-0.99,3.11,3.97,-0.24
47.1780,0.09,0.13,-0.99,3.36,3.72,1.34
47.1890,0.09,0.12,-0.99,3.17,3.78,1.71
47.2060,0.09,0.11,-0.99,2.87,4.03,1.04
47.2210,0.08,0.11,-0.99,2.99,4.39,-1.10
47.2380,0.08,0.11,-0.99,3.30,4.46,-2.14
47.2540,0.08,0.12,-0.99,2.99,4.27,-1.22
47.2700,0.08,0.13,-0.99,3.23,3.54,0.18
47.2860,0.08,0.13,-0.99,3.36,4.03,0.24
47.3020,0.09,0.12,-0.99,3.17,4.03,0.06
47.3050,0.08,0.12,-0.99,3.23,4.09,-0.79
47.3210,0.08,0.12,-0.99,3.23,3.85,-0.55
47.3460,0.08,0.12,-0.99,3.05,3.72,0.24
47.3620,0.08,0.12,-0.99,3.17,4.03,1.16
47.3780,0.08,0.12,-0.99,3.23,3.78,0.49
47.3940,0.08,0.12,-0.99,3.17,3.85,0.37
47.4100,0.08,0.12,-0.99,3.36,3.97,-0.49
47.4250,0.08,0.13,-0.99,3.23,3.97,-0.31
47.4410,0.08,0.13,-0.99,3.36,3.97,0.00
47.4560,0.09,0.13,-0.99,2.87,3.85,1.40
47.4720,0.08,0.11,-0.99,3.23,3.72,1.34
47.4880,0.08,0.12,-0.99,3.30,3.85,0.67
47.5040,0.08,0.12,-0.99,3.23,3.78,0.73
47.5120,0.08,0.12,-0.99,3.36,4.03,-0.24
47.5280,0.09,0.13,-0.99,3.23,3.78,-0.24
47.5500,0.08,0.12,-0.99,3.23,4.15,0.24
47.5660,0.08,0.12,-0.99,3.23,4.33,-1.28
47.5830,0.08,0.11,-0.99,3.54,3.97,-2.50
47.5860,0.08,0.12,-0.99,3.78,4.27,-2.69
47.6010,0.08,0.12,-0.99,3.42,4.27,-1.71
47.6240,0.09,0.14,-0.99,3.60,4.15,-0.98
47.6410,0.09,0.13,-0.99,3.23,4.15,-0.18
47.6570,0.09,0.12,-0.99,3.36,4.27,-0.55
47.6730,0.08,0.12,-0.99,3.48,4.09,-1.16
47.6780,0.08,0.12,-0.99,3.60,4.15,-0.85
47.7050,0.08,0.12,-0.99,3.66,4.27,15.50
47.7070,0.08,0.12,-0.99,3.23,4.33,-0.12
47.7250,0.08,0.13,-0.99,3.42,4.09,-0.06
