Timestamp, AccX, AccY, AccZ, GyroX, GyroY, GyroZ
0.0110,0.07,0.13,-0.99,1.46,5.31,2.01
0.0260,0.08,0.12,-0.99,1.40,5.00,1.95
0.0410,0.07,0.12,-0.99,1.53,5.49,2.14
0.0510,0.07,0.12,-0.99,1.65,4.58,1.65
0.0660,0.08,0.11,-0.99,2.08,4.15,1.28
0.0830,0.07,0.12,-0.99,2.44,4.27,1.22
0.1000,0.06,0.11,-1.00,2.87,4.46,1.16
0.1160,0.10,0.13,-0.98,3.36,3.72,1.10
0.1330,0.07,0.12,-1.00,3.42,3.54,1.53
0.1480,0.07,0.12,-0.99,3.42,3.78,1.77
0.1630,0.07,0.12,-0.99,3.30,3.54,1.83
0.1670,0.07,0.12,-0.99,2.99,3.60,1.89
0.1820,0.07,0.12,-0.99,3.11,3.91,2.01
0.2090,0.07,0.12,-0.99,3.11,3.72,2.01
0.2230,0.07,0.12,-0.99,3.11,3.54,1.89
0.2330,0.07,0.12,-0.99,2.87,3.48,1.77
0.2490,0.07,0.12,-0.99,2.81,3.48,1.89
0.2660,0.07,0.12,-0.99,2.99,3.54,1.89
0.2840,0.07,0.12,-0.99,2.75,3.42,1.83
0.3000,0.07,0.12,-0.99,3.17,3.42,1.89
0.3160,0.07,0.12,-0.99,3.66,3.30,1.89
0.3160,0.07,0.12,-0.99,3.54,3.54,1.95
0.3390,0.07,0.12,-0.99,3.48,3.30,2.01
0.3560,0.07,0.12,-0.99,2.81,3.72,2.01
0.3720,0.07,0.12,-0.99,3.05,3.66,1.89
0.3890,0.07,0.12,-0.99,3.42,3.54,1.95
0.4050,0.07,0.12,-0.99,3.36,3.30,1.89
0.4230,0.07,0.12,-0.99,3.66,3.30,1.89
0.4390,0.07,0.12,-0.99,3.60,3.48,1.95
0.4550,0.07,0.12,-0.99,3.05,3.11,1.89
0.4700,0.07,0.12,-0.99,3.17,3.30,1.95
0.4840,0.07,0.12,-0.99,3.30,3.42,1.95
0.4990,0.07,0.12,-0.99,3.36,3.23,1.89
0.5140,0.07,0.12,-0.99,3.78,3.05,2.01
0.5290,0.07,0.12,-0.99,3.91,2.93,1.83
0.5410,0.07,0.12,-1.00,3.60,2.93,1.77
0.5580,0.07,0.12,-0.99,3.30,3.17,1.53
0.5750,0.07,0.12,-0.99,3.42,3.11,1.83
0.5910,0.07,0.12,-0.99,3.42,3.17,1.89
0.6070,0.07,0.12,-0.99,3.72,2.87,1.89
0.6220,0.07,0.12,-0.99,3.91,2.75,1.89
0.6360,0.07,0.12,-0.99,3.78,3.05,1.77
0.6420,0.07,0.12,-0.99,3.42,3.11,1.89
0.6580,0.07,0.12,-0.99,3.23,3.17,1.83
0.6810,0.07,0.12,-0.99,3.11,3.30,1.89
0.6970,0.07,0.12,-0.99,2.81,3.36,1.77
0.7130,0.07,0.12,-0.99,2.75,3.17,1.95
0.7290,0.07,0.12,-0.99,3.30,3.11,2.01
0.7320,0.07,0.12,-0.99,3.23,3.05,1.83
0.7610,0.07,0.13,-0.99,2.81,3.30,1.89
0.7650,0.07,0.12,-0.98,2.26,3.66,1.95
0.7800,0.08,0.12,-0.99,2.56,3.72,1.89
0.8070,0.07,0.12,-0.99,2.81,3.91,1.95
0.8180,0.07,0.12,-0.99,3.11,3.78,2.08
0.8340,0.07,0.12,-0.99,3.30,3.36,2.08
0.8520,0.07,0.12,-1.00,3.66,3.23,1.95
0.8680,0.07,0.12,-0.99,3.11,3.66,2.01
0.8830,0.08,0.12,-0.99,3.17,3.42,2.01
0.8990,0.07,0.12,-0.99,3.23,3.66,1.95
0.9070,0.07,0.12,-0.99,3.48,3.30,1.95
0.9230,0.07,0.12,-0.99,3.42,3.85,2.08
0.9390,0.07,0.12,-0.99,3.60,3.60,2.01
0.9610,0.08,0.12,-0.99,3.66,3.42,2.01
0.9730,0.07,0.12,-0.99,3.30,3.54,2.01
0.9880,0.07,0.12,-0.99,3.23,3.17,1.89
1.0070,0.07,0.12,-0.99,3.05,3.42,2.01
1.0220,0.07,0.12,-0.99,3.11,3.42,1.95
1.0380,0.07,0.12,-0.99,3.11,3.60,2.08
1.0540,0.07,0.12,-0.99,3.48,3.42,1.95
1.0680,0.07,0.12,-0.99,3.17,3.54,1.95
1.0840,0.08,0.12,-0.99,3.42,3.54,2.08
1.0930,0.08,0.12,-0.99,3.23,3.85,1.89
1.1090,0.07,0.13,-0.99,3.23,3.30,1.95
1.1310,0.07,0.12,-0.99,3.17,3.23,2.01
1.1470,0.08,0.12,-0.99,3.17,3.23,1.77
1.1490,0.07,0.12,-0.99,2.81,3.78,2.08
1.1640,0.07,0.12,-0.99,3.17,3.30,1.83
1.1850,0.08,0.12,-1.00,3.60,3.42,2.08
1.2020,0.08,0.12,-1.00,3.48,3.17,2.01
1.2190,0.07,0.12,-0.99,3.48,3.11,1.95
1.2350,0.07,0.12,-0.99,3.11,3.85,1.95
1.2520,0.07,0.12,-0.99,2.75,3.23,2.01
1.2690,0.08,0.12,-0.99,3.11,3.78,1.95
1.2850,0.07,0.12,-0.99,3.11,3.54,1.77
1.3000,0.08,0.13,-0.99,2.87,3.66,1.83
1.3180,0.08,0.12,-0.99,2.56,3.66,1.95
1.3330,0.08,0.13,-0.99,2.87,3.36,1.95
1.3480,0.07,0.12,-0.99,2.75,3.48,1.95
1.3550,0.07,0.12,-0.99,2.75,3.30,1.89
1.3790,0.07,0.12,-0.99,3.11,3.36,1.89
1.3940,0.08,0.12,-0.99,3.05,3.05,1.89
1.4050,0.08,0.12,-0.99,2.87,3.42,1.95
1.4210,0.07,0.13,-0.99,2.75,3.54,1.95
1.4380,0.07,0.12,-0.99,2.62,3.54,1.95
1.4560,0.07,0.12,-0.99,2.99,3.42,1.89
1.4720,0.07,0.12,-0.99,3.30,3.36,1.95
1.4870,0.08,0.12,-0.99,3.23,3.17,1.89
1.5020,0.07,0.12,-0.99,3.11,3.23,1.95
1.5160,0.07,0.12,-0.99,2.99,3.23,1.95
1.5260,0.07,0.12,-0.99,3.54,3.36,1.95
1.5420,0.07,0.12,-0.99,3.60,3.42,1.89
1.5580,0.07,0.12,-0.99,3.30,3.30,1.83
1.5750,0.07,0.12,-0.99,3.30,2.99,1.83
1.5910,0.08,0.12,-0.99,3.91,2.87,1.89
1.6070,0.08,0.12,-0.99,3.30,3.23,1.89
1.6260,0.07,0.12,-0.99,2.75,3.54,1.95
1.6410,0.07,0.12,-0.99,2.87,3.23,2.01
1.6560,0.08,0.12,-0.99,3.05,4.09,2.01
1.6630,0.07,0.12,-0.99,3.23,3.54,1.89
1.6800,0.07,0.12,-0.99,3.11,3.66,2.14
1.7030,0.08,0.12,-0.99,3.30,3.48,1.77
1.7130,0.08,0.12,-0.99,3.05,3.60,1.89
1.7360,0.08,0.12,-0.99,3.17,3.54,2.01
1.7470,0.07,0.12,-0.99,2.75,3.72,2.01
1.7630,0.07,0.12,-0.99,3.11,3.36,1.95
1.7810,0.07,0.12,-0.99,3.30,3.36,2.01
1.7960,0.07,0.12,-0.99,3.36,3.42,1.83
1.8120,0.07,0.12,-0.99,3.23,3.23,1.89
1.8210,0.07,0.12,-0.99,2.93,3.66,1.83
1.8380,0.07,0.12,-0.99,3.17,3.11,1.95
1.8550,0.07,0.12,-0.99,3.36,3.48,1.89
1.8710,0.07,0.12,-0.99,3.66,3.05,1.95
1.8870,0.08,0.12,-0.99,3.17,3.30,1.95
1.9040,0.07,0.12,-0.99,3.17,3.48,1.89
1.9200,0.07,0.12,-0.99,3.17,3.36,1.89
1.9360,0.07,0.12,-0.99,3.23,3.66,1.89
1.9430,0.07,0.12,-0.99,2.99,3.60,2.01
1.9590,0.08,0.12,-0.99,3.11,3.60,2.01
1.9760,0.08,0.12,-0.99,3.11,3.60,2.08
1.9960,0.08,0.12,-0.99,3.05,3.42,1.95
2.0120,0.07,0.12,-0.99,3.05,3.54,1.83
2.0290,0.07,0.12,-0.99,2.93,3.54,1.89
2.0440,0.07,0.12,-0.99,2.93,3.30,1.89
2.0600,0.07,0.12,-0.99,2.81,3.66,1.89
2.0650,0.07,0.12,-0.99,2.62,3.11,1.89
2.0810,0.08,0.12,-0.99,2.32,3.30,2.01
2.1000,0.07,0.12,-0.99,2.38,3.60,2.01
2.1180,0.08,0.12,-0.99,2.38,3.78,2.01
2.1350,0.07,0.12,-0.99,2.56,3.78,2.08
2.1520,0.07,0.12,-0.99,2.38,3.97,1.95
2.1670,0.07,0.12,-0.99,2.32,3.97,2.01
2.1820,0.07,0.12,-0.99,2.50,3.30,1.95
2.1980,0.07,0.12,-0.99,2.99,3.11,1.83
2.2140,0.08,0.12,-0.99,2.75,3.48,1.95
2.2180,0.07,0.12,-0.99,2.81,3.42,1.77
2.2460,0.07,0.12,-0.99,3.23,3.42,1.95
2.2620,0.08,0.12,-0.99,3.05,3.42,1.83
2.2770,0.08,0.12,-0.99,2.56,3.05,1.65
2.2910,0.07,0.12,-0.99,2.01,3.72,1.83
2.3020,0.07,0.12,-0.99,1.77,3.91,1.95
2.3180,0.07,0.12,-0.99,1.95,3.54,2.14
2.3350,0.08,0.12,-0.99,2.32,3.54,2.69
2.3510,0.07,0.11,-0.99,2.81,3.66,2.38
2.3670,0.07,0.12,-0.99,3.23,3.23,2.26
2.3730,0.08,0.12,-0.99,3.72,2.62,2.26
2.3900,0.07,0.12,-0.99,3.36,3.05,2.01
2.4070,0.07,0.12,-0.99,2.93,3.05,2.08
2.4290,0.08,0.14,-0.99,4.82,3.48,1.16
2.4410,0.07,0.11,-1.00,3.30,3.72,0.79
2.4560,0.07,0.12,-0.99,3.36,3.60,1.28
2.4760,0.07,0.11,-1.00,3.54,3.30,1.22
2.4920,0.07,0.12,-0.99,3.30,3.54,1.71
2.5080,0.08,0.12,-0.99,3.48,3.48,1.77
2.5230,0.08,0.12,-0.99,3.05,3.48,1.71
2.5390,0.08,0.13,-0.98,3.97,3.48,0.37
2.5540,0.06,0.10,-1.01,2.62,3.91,1.04
2.5610,0.08,0.12,-0.98,3.66,3.60,1.46
2.5770,0.06,0.10,-1.00,3.60,3.97,2.08
2.6000,0.07,0.11,-0.99,2.69,3.23,1.95
2.6160,0.08,0.12,-0.99,3.72,3.30,2.14
2.6310,0.07,0.12,-0.99,3.97,3.11,2.01
2.6460,0.07,0.12,-0.99,3.72,3.30,1.89
2.6610,0.08,0.12,-0.99,3.66,3.48,1.95
2.6770,0.07,0.12,-0.99,3.05,3.66,1.89
2.6830,0.07,0.12,-0.99,3.36,3.48,1.95
2.7060,0.08,0.12,-0.99,2.87,3.54,2.08
2.7160,0.08,0.12,-0.99,2.99,3.42,1.95
2.7330,0.08,0.12,-0.99,3.11,3.42,2.01
2.7490,0.07,0.12,-0.99,2.75,3.36,1.95
2.7680,0.08,0.13,-0.99,1.89,4.09,2.87
2.7840,0.08,0.12,-0.99,3.36,3.48,3.72
2.8010,0.07,0.11,-0.99,2.93,3.91,2.50
2.8160,0.08,0.12,-0.99,3.11,3.11,1.77
2.8310,0.07,0.12,-0.99,3.97,3.54,1.28
2.8370,0.07,0.12,-0.99,3.78,3.42,1.40
2.8520,0.07,0.12,-0.99,3.72,3.54,1.34
2.8750,0.07,0.12,-1.00,3.48,3.48,1.40
2.8930,0.07,0.12,-0.99,3.54,3.85,2.32
2.9090,0.07,0.11,-1.00,3.30,3.60,2.38
2.9240,0.07,0.12,-0.99,2.87,3.60,2.44
2.9390,0.07,0.13,-0.99,2.87,3.72,3.17
2.9540,0.08,0.12,-0.99,2.93,3.78,3.17
2.9700,0.08,0.11,-1.00,2.99,3.48,2.44
2.9840,0.08,0.12,-0.99,2.26,3.85,1.89
2.9990,0.07,0.12,-0.99,2.56,3.78,1.83
3.0080,0.07,0.12,-0.99,2.93,3.78,1.71
3.0260,0.07,0.12,-1.00,3.17,3.91,1.89
3.0420,0.07,0.12,-0.99,2.69,3.85,1.95
3.0590,0.08,0.12,-0.99,2.93,3.60,2.08
3.0750,0.07,0.12,-1.00,2.75,3.36,1.95
3.0910,0.07,0.12,-0.99,2.69,3.72,2.14
3.1120,0.07,0.12,-0.99,3.17,3.30,1.95
3.1280,0.08,0.12,-0.99,3.05,3.54,2.01
3.1440,0.07,0.12,-0.99,3.91,3.30,2.08
3.1610,0.07,0.12,-0.99,2.99,3.66,2.08
3.1760,0.07,0.12,-0.99,3.05,3.23,2.01
3.1920,0.07,0.12,-0.99,3.11,3.42,2.08
3.2000,0.06,0.14,-0.98,4.27,3.05,3.36
3.2130,0.08,0.14,-0.99,4.70,2.93,2.62
3.2390,0.08,0.12,-0.99,3.36,3.60,3.78
3.2530,0.08,0.13,-0.99,3.17,3.23,3.48
3.2640,0.08,0.12,-0.99,3.30,3.48,3.17
3.2800,0.08,0.12,-0.99,3.36,3.54,2.93
3.2970,0.08,0.11,-0.99,3.30,3.17,2.62
3.3130,0.08,0.11,-1.00,2.93,3.30,2.14
3.3310,0.07,0.11,-0.99,2.99,3.36,1.77
3.3470,0.07,0.12,-0.99,3.23,3.11,2.01
3.3490,0.07,0.11,-0.99,2.32,3.36,1.89
3.3770,0.08,0.12,-0.99,2.87,3.54,1.89
3.3930,0.07,0.12,-0.99,2.38,3.30,1.83
3.4080,0.07,0.12,-0.99,1.77,3.91,2.08
3.4230,0.07,0.13,-0.98,3.48,3.78,1.04
3.4380,0.07,0.11,-1.00,3.97,3.78,0.61
3.4500,0.07,0.12,-0.99,3.05,3.72,1.40
3.4660,0.07,0.13,-1.00,3.30,3.66,1.28
3.4830,0.07,0.13,-0.99,2.69,3.72,1.77
3.4850,0.08,0.11,-0.99,2.93,4.09,1.46
3.5150,0.07,0.11,-1.00,3.11,3.78,1.34
3.5310,0.07,0.12,-0.99,3.11,3.78,1.77
3.5470,0.08,0.11,-1.00,3.60,3.54,1.83
3.5620,0.07,0.12,-0.99,3.23,3.42,2.01
3.5780,0.07,0.12,-0.99,2.87,3.54,2.20
3.5940,0.07,0.14,-0.99,3.36,3.30,1.95
3.6010,0.07,0.11,-0.99,3.42,3.54,1.53
3.6240,0.07,0.12,-0.99,3.11,3.66,1.53
3.6390,0.07,0.12,-0.99,3.97,3.36,1.46
3.6500,0.08,0.11,-1.00,4.27,3.36,1.83
3.6660,0.07,0.12,-0.99,3.72,3.54,1.95
3.6850,0.07,0.12,-0.99,3.42,3.85,1.65
3.7000,0.08,0.13,-0.99,3.72,3.60,1.65
3.7150,0.08,0.13,-0.99,3.72,3.78,1.40
3.7310,0.07,0.13,-1.00,3.30,3.60,1.77
3.7390,0.08,0.13,-0.99,2.87,4.03,2.08
3.7610,0.07,0.12,-0.99,3.30,3.11,3.17
3.7720,0.07,0.11,-1.00,2.62,3.66,2.81
3.7890,0.07,0.12,-0.99,2.50,3.30,2.50
3.8050,0.07,0.11,-0.99,3.36,3.48,2.32
3.8210,0.07,0.12,-1.00,2.62,3.17,2.32
3.8390,0.07,0.12,-0.99,2.69,3.48,2.32
3.8550,0.07,0.12,-0.99,2.69,3.30,2.38
3.8620,0.07,0.12,-0.99,3.05,3.54,2.26
3.8870,0.07,0.12,-1.00,3.30,3.66,2.26
3.9020,0.07,0.12,-0.99,2.62,3.60,2.32
3.9170,0.07,0.13,-0.99,2.93,3.85,2.20
3.9280,0.07,0.13,-0.99,2.93,3.48,2.32
3.9450,0.07,0.13,-0.99,3.17,3.72,2.14
3.9610,0.07,0.12,-1.00,3.23,3.60,3.11
3.9780,0.07,0.12,-0.99,2.75,3.66,3.23
3.9940,0.07,0.13,-0.99,3.36,3.36,2.99
4.0090,0.07,0.13,-0.99,3.17,3.48,3.42
4.0240,0.07,0.13,-0.99,3.42,3.17,3.36
4.0290,0.07,0.12,-1.00,3.23,3.60,3.91
4.0540,0.07,0.12,-0.99,3.17,3.60,4.33
4.0690,0.07,0.12,-0.99,2.81,3.36,3.85
4.0840,0.07,0.11,-0.99,3.05,3.23,3.36
4.0950,0.07,0.11,-0.99,2.75,2.99,3.36
4.1110,0.07,0.11,-1.00,2.44,3.60,2.38
4.1300,0.07,0.12,-0.99,2.50,3.66,2.14
4.1450,0.08,0.12,-0.99,2.44,3.66,2.08
4.1600,0.08,0.12,-0.99,3.23,3.36,1.46
4.1760,0.07,0.11,-0.99,2.99,3.60,1.22
4.1900,0.07,0.13,-0.99,2.99,3.36,1.65
4.2050,0.07,0.13,-0.99,3.05,4.03,1.40
4.2180,0.08,0.14,-0.99,2.99,3.42,2.44
4.2340,0.08,0.13,-0.99,3.54,3.17,3.11
4.2500,0.07,0.12,-0.99,2.99,3.11,2.81
4.2660,0.07,0.12,-0.99,2.87,3.66,3.17
4.2810,0.06,0.10,-0.99,2.56,3.66,0.85
4.2890,0.07,0.11,-1.00,3.05,3.36,3.23
4.3120,0.07,0.12,-0.99,2.26,3.17,3.42
4.3230,0.07,0.12,-0.99,2.56,3.30,3.30
4.3390,0.07,0.11,-1.00,3.05,3.30,3.66
4.3590,0.07,0.12,-0.99,2.50,3.30,3.60
4.3740,0.07,0.12,-0.99,2.50,3.54,3.60
4.3890,0.07,0.11,-0.99,3.36,3.54,2.99
4.4050,0.07,0.11,-1.00,2.99,3.11,2.32
4.4190,0.07,0.12,-0.99,2.50,3.48,2.44
4.4280,0.07,0.12,-0.99,3.11,3.48,2.44
4.4430,0.08,0.11,-1.00,3.17,3.48,2.75
4.4590,0.07,0.12,-0.99,2.87,3.48,1.77
4.4800,0.07,0.13,-0.99,3.11,3.66,2.44
4.4950,0.07,0.13,-0.99,2.62,3.60,3.05
4.5110,0.07,0.13,-0.99,2.44,3.30,4.15
4.5150,0.08,0.13,-0.99,2.26,3.48,5.19
4.5410,0.07,0.11,-0.99,2.56,3.11,4.76
4.5560,0.07,0.11,-1.00,2.87,3.11,4.70
4.5650,0.07,0.10,-1.00,2.26,3.36,4.39
4.5820,0.07,0.10,-0.99,1.83,3.48,4.27
4.6020,0.07,0.09,-0.99,2.99,3.11,3.23
4.6140,0.07,0.11,-1.00,4.27,3.05,2.32
4.6330,0.07,0.12,-1.00,3.85,3.36,2.08
4.6480,0.07,0.12,-1.00,3.11,3.54,2.26
4.6520,0.07,0.12,-0.99,2.50,3.60,2.87
4.6810,0.07,0.12,-0.99,3.11,3.36,2.69
4.6950,0.07,0.12,-0.99,2.99,3.48,1.95
4.7110,0.08,0.12,-0.99,2.99,3.78,3.23
4.7260,0.08,0.13,-0.99,2.50,3.78,2.81
4.7410,0.08,0.13,-1.00,2.81,3.36,3.60
4.7520,0.08,0.13,-0.99,2.81,3.66,3.85
4.7700,0.07,0.12,-1.00,3.54,2.81,3.85
4.7850,0.07,0.12,-0.99,2.81,3.23,4.33
4.8010,0.07,0.12,-0.99,3.11,3.42,3.78
4.8160,0.07,0.12,-0.99,2.99,3.17,4.82
4.8310,0.07,0.11,-0.99,3.11,2.75,5.07
4.8460,0.07,0.10,-1.00,2.62,3.36,4.09
4.8610,0.07,0.11,-0.99,1.83,3.66,3.85
4.8760,0.07,0.11,-1.00,2.81,3.72,2.50
4.8910,0.07,0.11,-1.00,2.75,3.60,2.38
4.9020,0.07,0.11,-0.99,2.32,3.66,2.26
4.9190,0.07,0.11,-0.99,3.17,3.78,2.08
4.9340,0.07,0.12,-0.99,3.85,2.99,1.71
4.9510,0.07,0.12,-1.00,2.99,3.30,1.95
4.9670,0.07,0.12,-1.00,2.32,3.60,2.08
4.9810,0.07,0.15,-0.98,1.89,3.66,2.44
4.9900,0.07,0.12,-0.99,3.66,3.17,3.78
5.0060,0.07,0.13,-0.99,2.38,3.60,3.85
5.0270,0.07,0.12,-0.99,1.59,3.91,4.64
5.0430,0.07,0.11,-0.99,1.83,3.85,4.33
5.0570,0.06,0.11,-0.99,2.20,3.23,5.00
5.0720,0.07,0.11,-1.00,2.69,3.17,5.74
5.0870,0.07,0.10,-1.00,2.14,3.48,5.19
5.1020,0.07,0.10,-0.99,2.32,3.54,3.23
5.1170,0.07,0.11,-1.00,2.56,3.60,2.44
5.1280,0.07,0.12,-1.00,2.01,3.85,2.87
5.1460,0.07,0.12,-0.99,1.34,3.66,2.99
5.1610,0.08,0.12,-0.98,1.40,3.72,2.08
5.1770,0.06,0.09,-0.99,2.69,3.91,1.10
5.1920,0.07,0.10,-1.00,4.15,2.75,2.44
5.2070,0.07,0.13,-1.00,2.75,3.72,2.87
5.2220,0.07,0.12,-0.99,0.85,4.21,3.54
5.2370,0.07,0.12,-0.98,1.34,3.11,4.39
5.2520,0.07,0.11,-0.99,2.20,3.60,4.76
5.2610,0.07,0.11,-1.00,3.85,2.56,3.66
5.2790,0.07,0.10,-1.00,2.75,3.36,4.58
5.2940,0.06,0.10,-0.99,2.32,3.66,3.66
5.3120,0.07,0.11,-1.00,2.26,3.48,4.46
5.3280,0.07,0.10,-0.99,2.20,3.78,4.09
5.3440,0.07,0.10,-0.99,2.99,3.60,3.42
5.3590,0.07,0.10,-1.00,3.78,3.30,2.93
5.3740,0.07,0.11,-1.00,3.17,3.30,2.75
5.3900,0.07,0.11,-0.99,2.44,3.78,2.69
5.4050,0.07,0.11,-0.99,2.93,3.72,2.38
5.4210,0.07,0.12,-1.00,2.75,3.60,2.08
5.4360,0.07,0.13,-1.00,3.05,3.72,2.50
5.4510,0.07,0.11,-1.00,2.26,3.78,3.30
5.4620,0.06,0.11,-0.99,1.22,3.91,3.66
5.4790,0.07,0.10,-0.98,3.17,2.99,3.72
5.4950,0.07,0.10,-0.99,4.58,2.87,3.42
5.5110,0.07,0.10,-1.01,3.97,3.60,3.72
5.5270,0.07,0.10,-1.00,0.98,3.91,3.23
5.5430,0.07,0.10,-0.98,1.22,3.78,2.93
5.5580,0.07,0.11,-0.99,3.23,3.54,2.99
5.5730,0.07,0.11,-0.99,3.91,3.05,2.38
5.5830,0.07,0.13,-0.99,4.03,3.17,2.44
5.6030,0.07,0.13,-1.00,3.78,3.66,3.30
5.6160,0.07,0.12,-0.99,3.05,3.30,4.39
5.6320,0.07,0.11,-0.99,3.23,3.42,4.27
5.6480,0.07,0.10,-1.00,3.30,3.60,4.21
5.6490,0.06,0.10,-0.99,3.42,3.17,3.60
5.6780,0.08,0.11,-1.00,3.85,2.93,4.88
5.6920,0.07,0.11,-1.00,3.11,2.93,3.30
5.7080,0.07,0.11,-1.00,2.87,3.36,3.66
5.7190,0.07,0.11,-0.99,2.38,3.66,3.54
5.7350,0.07,0.11,-0.99,2.99,3.60,3.85
5.7530,0.07,0.11,-1.00,3.60,2.99,4.33
5.7690,0.07,0.11,-0.99,2.14,3.36,3.91
5.7840,0.07,0.11,-0.99,2.69,3.54,3.60
5.8010,0.07,0.12,-0.99,3.23,3.17,4.03
5.8170,0.07,0.11,-1.00,3.72,3.23,3.85
5.8190,0.07,0.11,-1.00,2.20,3.05,3.36
5.8350,0.07,0.11,-0.99,1.71,3.54,2.99
5.8630,0.07,0.11,-0.99,2.81,3.54,3.30
5.8740,0.07,0.11,-1.00,2.81,3.60,3.85
5.8910,0.07,0.11,-1.00,1.95,3.48,4.03
5.9070,0.07,0.11,-0.99,2.08,3.30,3.97
5.9230,0.07,0.10,-1.00,2.62,3.30,3.78
5.9390,0.07,0.11,-0.99,1.22,3.72,3.60
5.9540,0.07,0.10,-0.99,2.44,3.42,3.78
5.9690,0.07,0.11,-0.99,2.75,3.60,3.11
5.9840,0.07,0.11,-1.00,2.93,3.60,2.75
6.0000,0.07,0.11,-1.00,2.50,3.54,2.44
6.0150,0.07,0.11,-0.99,2.20,3.97,2.87
6.0300,0.07,0.11,-0.98,3.11,3.11,2.87
6.0410,0.07,0.10,-1.00,4.70,2.87,3.17
6.0570,0.07,0.10,-1.00,5.07,2.87,2.99
6.0720,0.07,0.11,-1.00,4.76,2.75,2.69
6.0920,0.07,0.10,-1.00,4.27,3.05,2.56
6.1110,0.07,0.11,-0.99,3.91,3.30,2.26
6.1250,0.07,0.12,-1.00,4.46,3.17,1.71
6.1270,0.07,0.13,-0.99,3.48,3.54,2.99
6.1440,0.07,0.11,-0.99,3.66,3.23,3.85
6.1600,0.07,0.11,-1.00,2.69,3.42,3.05
6.1760,0.07,0.11,-0.99,2.26,3.54,2.99
6.1940,0.07,0.11,-0.99,2.99,3.42,3.17
6.2100,0.07,0.10,-1.00,3.91,3.17,3.42
6.2290,0.07,0.11,-1.00,2.99,3.85,3.60
6.2430,0.07,0.10,-0.99,3.30,3.36,3.17
6.2610,0.07,0.10,-0.99,3.97,3.36,2.62
6.2770,0.07,0.11,-1.00,4.15,2.99,2.69
6.2940,0.07,0.11,-1.00,2.44,3.72,2.38
6.3100,0.07,0.11,-0.99,2.08,3.72,2.50
6.3260,0.07,0.12,-0.99,3.91,3.42,2.44
6.3270,0.07,0.11,-1.00,5.62,2.56,2.93
6.3440,0.07,0.11,-1.00,3.78,3.30,2.69
6.3600,0.07,0.12,-0.99,2.32,3.72,3.48
6.3770,0.08,0.11,-0.99,3.78,3.23,3.60
6.3940,0.07,0.12,-1.00,4.76,2.87,3.23
6.4100,0.07,0.12,-0.99,2.75,3.48,4.21
6.4270,0.07,0.11,-0.99,3.11,3.05,4.82
6.4440,0.07,0.10,-1.00,3.54,3.05,4.15
6.4610,0.07,0.11,-1.00,3.11,3.42,3.72
6.4770,0.07,0.10,-0.99,2.62,3.78,3.36
6.4940,0.07,0.10,-0.99,3.36,3.30,2.87
6.5100,0.07,0.11,-1.00,4.52,2.81,2.50
6.5250,0.07,0.12,-1.00,3.72,3.11,2.50
6.5400,0.07,0.11,-1.00,3.30,3.42,2.87
6.5550,0.07,0.12,-0.99,2.38,3.54,2.87
6.5700,0.07,0.12,-0.99,3.05,3.66,2.69
6.5780,0.07,0.12,-0.99,3.72,3.42,3.05
6.6010,0.07,0.12,-0.99,3.23,3.36,3.97
6.6120,0.07,0.11,-0.99,3.30,3.05,4.39
6.6290,0.07,0.11,-1.00,3.48,2.87,4.82
6.6440,0.07,0.11,-0.99,3.30,3.05,4.15
6.6620,0.07,0.12,-0.99,3.48,2.93,4.39
6.6780,0.07,0.11,-1.00,2.93,3.30,5.43
6.6930,0.07,0.12,-0.99,2.75,3.30,5.07
6.7040,0.07,0.12,-0.99,2.69,3.30,5.19
6.7160,0.07,0.10,-0.99,3.23,3.11,4.46
6.7390,0.07,0.10,-1.00,3.30,3.05,3.11
6.7540,0.07,0.11,-0.99,2.56,3.42,2.01
6.7700,0.07,0.12,-0.98,3.42,3.30,2.38
6.7870,0.07,0.11,-1.00,4.21,3.17,2.69
6.8020,0.07,0.11,-0.99,3.36,3.36,2.62
6.8050,0.07,0.12,-0.99,3.36,3.48,2.50
6.8200,0.07,0.12,-0.99,3.85,2.99,3.17
6.8430,0.07,0.12,-1.00,3.42,3.36,3.60
6.8600,0.07,0.12,-0.99,2.26,3.17,3.36
6.8770,0.07,0.12,-0.99,2.56,3.48,3.97
6.8930,0.07,0.12,-0.99,3.30,2.93,4.52
6.9110,0.07,0.12,-0.99,3.72,2.62,4.82
6.9160,0.07,0.12,-1.00,3.17,3.11,5.62
6.9450,0.06,0.12,-0.98,2.14,3.05,5.62
6.9610,0.07,0.10,-1.00,2.81,3.48,5.62
6.9760,0.07,0.11,-0.99,2.69,2.99,4.76
6.9910,0.06,0.10,-0.99,4.27,3.11,3.66
7.0060,0.07,0.11,-1.00,3.85,2.93,4.33
7.0210,0.07,0.10,-1.00,3.48,3.23,3.23
7.0330,0.07,0.10,-0.99,3.54,3.11,2.87
7.0490,0.07,0.11,-0.99,4.15,3.11,2.08
7.0660,0.07,0.12,-1.00,4.09,3.17,2.01
7.0820,0.07,0.12,-1.00,2.62,3.30,2.14
7.0820,0.07,0.13,-0.98,2.38,3.78,2.20
7.1120,0.07,0.13,-0.99,3.17,3.54,3.42
7.1270,0.07,0.12,-1.00,4.03,3.23,3.23
7.1420,0.07,0.13,-0.99,2.75,3.30,3.72
7.1570,0.08,0.13,-0.99,3.91,3.11,5.49
7.1690,0.07,0.10,-1.01,4.27,2.62,6.10
7.1870,0.07,0.11,-1.00,2.87,3.23,5.86
7.2030,0.07,0.11,-0.99,2.93,3.42,4.88
7.2200,0.06,0.09,-1.00,4.64,2.62,3.23
7.2360,0.07,0.12,-0.99,3.97,3.23,2.14
7.2520,0.07,0.12,-1.00,3.97,3.42,2.01
7.2520,0.07,0.12,-0.99,2.08,3.78,2.01
7.2690,0.07,0.11,-0.99,2.75,3.72,2.50
7.2970,0.07,0.12,-0.99,3.30,3.66,2.26
7.3060,0.07,0.12,-0.99,3.48,3.54,2.44
7.3230,0.08,0.13,-0.99,3.42,3.30,2.99
7.3400,0.07,0.12,-1.00,3.05,3.30,3.60
7.3560,0.07,0.12,-0.99,2.08,3.85,4.03
7.3730,0.07,0.11,-0.99,2.87,3.78,3.78
7.3890,0.07,0.11,-0.99,2.81,3.72,3.78
7.4050,0.07,0.12,-1.00,3.23,3.36,4.09
7.4220,0.07,0.12,-0.99,2.75,3.23,3.54
7.4300,0.07,0.13,-0.99,2.14,3.17,3.36
7.4450,0.07,0.12,-0.99,2.38,3.23,4.09
7.4670,0.06,0.11,-0.99,2.14,3.66,4.03
7.4810,0.07,0.12,-0.99,2.26,3.36,4.27
7.4970,0.07,0.12,-0.99,2.08,3.60,4.15
7.5130,0.07,0.12,-0.99,2.01,3.72,3.48
7.5280,0.07,0.11,-1.00,2.81,3.48,3.66
7.5430,0.07,0.11,-0.99,2.01,3.91,3.30
7.5590,0.07,0.11,-1.00,2.75,3.36,3.23
7.5740,0.07,0.11,-1.00,2.44,3.72,3.36
7.5850,0.07,0.11,-0.99,2.56,3.91,3.60
7.6010,0.07,0.11,-0.99,2.99,3.48,3.05
7.6180,0.07,0.11,-1.00,2.93,3.48,2.50
7.6340,0.07,0.12,-1.00,2.69,3.60,2.26
7.6520,0.07,0.12,-0.99,2.08,3.54,2.26
7.6670,0.07,0.11,-1.00,1.89,3.72,2.50
7.6820,0.07,0.12,-0.99,2.20,3.78,2.62
7.6890,0.07,0.12,-0.99,3.60,3.36,3.30
7.7050,0.07,0.12,-1.00,2.81,3.30,3.05
7.7280,0.06,0.11,-0.99,1.89,4.03,2.75
7.7440,0.07,0.10,-1.00,1.28,3.66,3.78
7.7590,0.07,0.10,-0.98,1.40,3.85,3.36
7.7750,0.07,0.10,-1.00,3.85,2.99,3.11
7.7910,0.07,0.11,-0.99,3.23,3.23,2.08
7.8070,0.07,0.11,-0.99,3.72,3.11,2.08
7.8230,0.07,0.12,-1.00,3.54,2.99,2.08
7.8380,0.07,0.11,-0.99,2.69,3.66,2.26
7.8530,0.07,0.11,-0.99,2.38,3.91,2.32
7.8610,0.07,0.11,-0.98,2.69,3.66,2.44
7.8770,0.07,0.12,-1.00,5.07,2.99,2.20
7.8940,0.07,0.12,-1.00,3.54,3.36,3.48
7.9110,0.07,0.11,-0.99,2.26,3.60,3.66
7.9280,0.07,0.11,-1.00,2.26,3.97,3.54
7.9440,0.07,0.11,-0.99,2.62,3.60,3.97
7.9630,0.07,0.11,-0.99,3.11,3.17,3.85
7.9650,0.07,0.10,-0.99,3.78,3.23,3.36
7.9800,0.07,0.11,-1.00,3.72,3.05,2.62
8.0100,0.07,0.11,-1.00,2.50,3.11,2.81
8.0150,0.07,0.12,-0.99,2.69,3.48,1.95
8.0400,0.07,0.12,-0.99,3.91,3.23,2.62
8.0480,0.07,0.12,-1.00,4.09,2.99,3.91
8.0630,0.07,0.12,-1.00,3.42,2.93,4.52
8.0850,0.07,0.12,-1.00,2.20,3.42,3.23
8.1000,0.06,0.12,-0.99,0.85,3.54,3.72
8.1150,0.07,0.10,-1.00,0.61,3.54,5.98
8.1310,0.07,0.10,-1.00,0.61,3.85,5.62
8.1460,0.07,0.09,-0.99,2.20,3.60,4.09
8.1610,0.07,0.12,-0.99,2.62,3.30,2.38
8.1760,0.07,0.10,-1.00,2.44,3.54,3.17
8.1910,0.07,0.11,-0.99,1.59,3.54,3.36
8.2060,0.07,0.12,-0.99,1.77,3.36,3.48
8.2190,0.07,0.11,-0.99,3.36,3.48,3.05
8.2360,0.07,0.11,-1.00,2.75,3.36,3.36
8.2520,0.07,0.11,-0.99,2.50,3.66,3.17
8.2680,0.07,0.10,-1.00,3.05,3.72,2.69
8.2840,0.07,0.11,-1.00,3.23,3.17,2.75
8.3000,0.07,0.11,-0.99,3.54,3.30,3.60
8.3060,0.07,0.11,-0.99,4.03,3.11,3.54
8.3180,0.07,0.11,-1.00,4.21,3.42,2.81
8.3390,0.07,0.11,-1.00,4.09,3.30,2.38
8.3560,0.07,0.11,-0.99,4.21,3.05,2.62
8.3730,0.07,0.11,-1.00,4.39,2.75,2.56
8.3900,0.07,0.12,-1.00,3.72,3.42,2.50
8.4060,0.07,0.12,-0.99,3.11,3.17,3.05
8.4220,0.07,0.12,-0.99,3.23,3.23,3.30
8.4380,0.07,0.12,-0.99,2.81,3.30,3.91
8.4530,0.07,0.11,-0.99,3.48,2.56,4.82
8.4680,0.07,0.11,-1.00,3.97,2.69,5.31
8.4830,0.07,0.11,-1.00,3.54,2.99,5.25
8.4910,0.07,0.10,-0.99,3.42,2.62,4.21
8.5060,0.07,0.10,-1.00,4.88,2.62,2.87
8.5300,0.07,0.11,-0.99,4.64,3.30,2.20
8.5460,0.07,0.12,-0.99,5.80,2.81,2.01
8.5620,0.07,0.12,-1.00,4.82,2.44,3.66
8.5770,0.07,0.11,-1.00,2.99,3.23,3.91
8.5920,0.07,0.12,-0.99,2.38,3.48,3.85
8.6070,0.08,0.12,-0.99,2.26,3.36,5.00
8.6130,0.07,0.12,-1.00,2.56,2.87,5.19
8.6380,0.07,0.11,-1.00,1.89,3.36,4.82
8.6530,0.07,0.11,-0.99,2.14,3.42,4.46
8.6630,0.07,0.10,-0.99,2.56,3.42,4.70
8.6790,0.06,0.10,-1.00,3.42,3.17,3.85
8.7000,0.07,0.11,-1.00,3.05,3.48,2.75
8.7160,0.07,0.11,-0.99,2.93,3.23,2.26
8.7330,0.07,0.11,-1.00,3.78,3.17,2.50
8.7480,0.07,0.12,-1.00,3.11,3.30,2.32
8.7630,0.07,0.12,-1.00,2.38,3.91,2.69
8.7800,0.07,0.12,-0.99,2.01,3.72,2.93
8.7950,0.07,0.14,-0.98,2.44,2.93,3.48
8.8110,0.07,0.11,-1.00,5.49,2.50,4.46
8.8260,0.07,0.11,-1.00,2.93,3.17,4.94
8.8410,0.07,0.12,-0.99,2.20,3.78,3.36
8.8520,0.06,0.11,-0.99,3.36,3.05,2.56
8.8670,0.06,0.09,-1.00,3.05,3.42,2.93
8.8880,0.07,0.10,-0.99,3.17,3.36,2.81
8.9030,0.07,0.11,-1.00,3.72,3.30,2.62
8.9180,0.07,0.11,-0.99,3.85,3.48,2.87
8.9330,0.07,0.12,-1.00,3.23,3.17,2.26
8.9500,0.07,0.12,-0.99,2.56,3.54,2.50
8.9660,0.07,0.14,-0.99,2.32,3.72,4.09
8.9730,0.07,0.11,-0.99,3.36,3.23,4.88
8.9890,0.07,0.13,-1.00,3.30,2.81,5.80
9.0110,0.06,0.13,-0.98,2.81,3.17,4.64
9.0270,0.07,0.10,-1.02,3.36,2.62,6.35
9.0290,0.07,0.13,-0.97,0.24,3.54,4.58
9.0580,0.08,0.07,-1.01,4.15,2.87,5.31
9.0730,0.07,0.09,-1.00,3.36,2.99,4.03
9.0880,0.07,0.10,-1.00,2.99,3.17,3.42
9.1030,0.07,0.11,-0.99,4.27,3.11,2.08
9.1190,0.07,0.12,-1.00,4.94,2.93,2.26
9.1290,0.07,0.12,-1.00,3.72,3.05,2.56
9.1460,0.07,0.12,-0.99,1.71,3.78,2.44
9.1620,0.07,0.12,-0.98,1.59,4.15,2.81
9.1780,0.07,0.13,-0.99,3.72,3.36,3.54
9.1940,0.07,0.11,-1.00,2.87,3.36,4.94
9.2090,0.07,0.10,-1.00,2.62,3.48,4.58
9.2240,0.07,0.10,-1.00,3.11,3.23,3.48
9.2380,0.07,0.10,-1.00,3.23,3.72,3.17
9.2460,0.07,0.11,-0.99,3.48,3.42,2.56
9.2620,0.07,0.12,-1.00,3.78,3.11,2.14
9.2780,0.07,0.12,-0.99,2.75,3.60,2.32
9.2940,0.08,0.14,-0.98,2.87,3.42,3.60
9.3160,0.07,0.13,-0.99,4.21,3.11,4.15
9.3310,0.07,0.11,-1.00,4.15,2.50,5.00
9.3320,0.07,0.11,-1.00,3.11,3.17,4.82
9.3620,0.08,0.11,-0.99,3.78,2.44,5.55
9.3690,0.07,0.10,-1.00,3.48,3.17,3.97
9.3920,0.07,0.10,-1.00,2.93,3.36,2.81
9.4070,0.07,0.12,-0.99,2.20,3.78,2.14
9.4190,0.07,0.10,-0.99,4.03,3.23,2.62
9.4370,0.07,0.11,-1.00,3.60,3.48,2.08
9.4530,0.07,0.12,-0.99,2.26,3.36,2.01
9.4680,0.07,0.12,-0.99,2.69,3.23,2.32
9.4830,0.07,0.13,-0.99,3.54,3.17,2.50
9.4850,0.07,0.12,-0.99,4.52,2.56,3.85
9.5070,0.07,0.12,-1.00,3.05,3.17,3.66
9.5230,0.07,0.15,-0.99,1.22,3.78,3.91
9.5380,0.07,0.14,-0.97,2.32,2.87,4.09
9.5570,0.08,0.10,-1.01,3.48,2.32,8.48
9.5730,0.07,0.11,-0.99,1.34,3.48,7.63
9.5880,0.07,0.10,-0.99,2.38,3.05,6.35
9.6030,0.06,0.09,-0.99,3.66,2.81,4.88
9.6180,0.07,0.09,-1.00,3.72,2.56,4.03
9.6320,0.07,0.11,-1.00,3.85,3.30,2.20
9.6480,0.07,0.12,-0.99,3.97,3.36,1.95
9.6570,0.07,0.12,-1.00,3.11,3.36,2.38
9.6730,0.07,0.12,-0.99,3.17,3.30,2.44
9.6940,0.07,0.13,-0.99,3.54,3.17,2.26
9.7100,0.07,0.11,-0.99,4.03,3.48,3.30
9.7110,0.07,0.12,-1.00,3.85,3.05,2.81
9.7410,0.07,0.12,-0.99,2.38,3.85,3.66
9.7450,0.07,0.12,-1.00,3.05,2.93,3.66
9.7620,0.07,0.12,-0.99,2.69,3.23,4.09
9.7780,0.07,0.13,-0.99,2.87,3.05,5.49
9.8030,0.07,0.12,-1.00,4.15,2.32,6.35
9.8180,0.07,0.12,-1.00,2.81,2.56,6.04
9.8280,0.07,0.11,-0.99,2.08,3.54,5.74
9.8440,0.07,0.11,-0.99,2.93,2.81,5.19
9.8630,0.07,0.11,-0.99,3.54,2.87,4.76
9.8790,0.07,0.10,-1.00,3.66,2.69,3.36
9.8940,0.07,0.12,-1.00,3.30,3.30,2.01
9.9090,0.07,0.12,-1.00,2.99,3.36,2.01
9.9240,0.07,0.12,-0.99,2.62,3.42,2.26
9.9390,0.08,0.12,-0.99,2.44,3.54,2.26
9.9540,0.07,0.14,-0.99,4.03,3.11,2.20
9.9660,0.07,0.12,-0.99,4.76,2.81,3.91
9.9820,0.07,0.12,-1.00,3.36,2.75,4.88
9.9990,0.07,0.12,-0.99,1.22,3.42,5.43
10.0150,0.07,0.12,-0.99,1.71,2.99,6.41
10.0150,0.07,0.12,-1.00,2.93,2.62,5.55
10.0450,0.07,0.12,-0.99,3.54,3.23,2.81
10.0570,0.06,0.10,-1.01,3.91,3.30,3.85
10.0730,0.08,0.12,-0.98,1.71,3.66,5.98
10.0890,0.08,0.12,-0.98,3.30,2.50,6.53
10.1060,0.07,0.11,-0.99,3.78,2.75,6.41
10.1080,0.07,0.10,-1.00,3.78,2.56,5.25
10.1230,0.07,0.10,-1.00,3.54,3.11,3.72
10.1530,0.07,0.11,-0.99,3.23,3.48,1.95
10.1680,0.07,0.12,-1.00,4.03,3.23,2.01
10.1830,0.07,0.12,-1.00,4.09,2.75,2.14
10.1980,0.07,0.12,-1.00,3.66,2.99,2.01
10.2070,0.07,0.12,-0.99,2.99,3.36,2.14
10.2220,0.07,0.12,-0.99,2.93,3.11,2.14
10.2430,0.07,0.12,-0.99,2.99,3.42,2.26
10.2600,0.07,0.12,-0.99,2.99,3.42,2.38
10.2750,0.07,0.12,-0.99,2.99,3.54,2.69
10.2900,0.07,0.14,-0.99,2.87,3.11,2.87
10.2940,0.07,0.13,-0.99,3.72,2.93,5.13
10.3090,0.07,0.12,-1.00,3.05,2.69,6.23
10.3310,0.07,0.12,-0.99,1.89,2.81,5.98
10.3470,0.07,0.10,-1.00,2.26,3.11,5.49
10.3630,0.07,0.12,-0.99,2.44,3.30,5.49
10.3800,0.07,0.10,-0.99,2.81,3.23,5.13
10.3960,0.07,0.11,-1.00,3.17,3.11,4.09
10.4120,0.07,0.11,-0.99,2.99,3.23,3.05
10.4270,0.07,0.11,-0.99,3.30,2.75,2.69
10.4320,0.07,0.12,-1.00,3.42,2.99,2.44
10.4580,0.07,0.13,-0.99,2.20,3.66,2.75
10.4730,0.07,0.13,-0.99,2.56,3.48,4.88
10.4880,0.08,0.13,-1.00,3.48,2.87,5.86
10.4980,0.07,0.12,-1.00,2.69,3.23,6.04
10.5150,0.08,0.11,-0.99,2.38,2.93,5.68
10.5330,0.07,0.11,-0.99,2.26,3.23,4.76
10.5490,0.07,0.11,-1.00,2.62,3.42,3.91
10.5490,0.07,0.11,-0.99,2.44,3.91,3.85
10.5750,0.07,0.11,-0.99,2.62,3.42,3.72
10.5910,0.07,0.12,-0.99,2.99,3.30,3.78
10.6070,0.07,0.11,-1.00,3.30,3.17,3.72
10.6240,0.07,0.11,-0.99,2.75,3.30,2.81
10.6410,0.07,0.12,-0.99,3.30,3.42,2.75
10.6560,0.07,0.12,-1.00,4.21,3.05,4.03
10.6720,0.07,0.13,-1.00,2.99,2.81,5.07
10.6870,0.08,0.13,-0.99,2.01,3.42,5.68
10.6950,0.07,0.12,-0.99,2.20,3.60,5.43
10.7130,0.07,0.11,-0.99,2.75,3.05,5.00
10.7300,0.07,0.11,-0.99,3.48,2.93,4.52
10.7460,0.07,0.11,-0.99,3.91,2.87,3.54
10.7620,0.07,0.10,-1.00,3.72,2.62,3.91
10.7790,0.07,0.12,-0.99,3.05,3.17,3.42
10.7790,0.07,0.12,-0.99,2.99,3.42,3.54
10.8080,0.07,0.13,-0.99,2.62,3.30,4.58
10.8240,0.07,0.12,-1.00,3.60,3.11,5.43
10.8390,0.07,0.12,-1.00,3.36,3.17,5.43
10.8510,0.07,0.11,-0.99,2.69,3.54,5.19
10.8670,0.07,0.11,-0.99,2.62,3.48,5.00
10.8830,0.07,0.11,-1.00,2.93,3.36,4.82
10.8850,0.07,0.11,-0.99,2.38,3.30,4.27
10.9150,0.07,0.11,-0.99,2.56,3.60,4.39
10.9300,0.07,0.11,-1.00,2.69,3.30,4.15
10.9450,0.07,0.12,-0.99,2.56,3.48,3.54
10.9600,0.07,0.13,-0.99,3.11,3.17,4.27
10.9750,0.07,0.14,-0.99,3.36,2.81,6.23
10.9900,0.07,0.13,-0.99,3.23,2.62,7.45
11.0010,0.07,0.11,-1.00,2.26,2.50,7.93
11.0170,0.07,0.13,-0.99,0.61,3.30,5.98
11.0340,0.06,0.10,-0.97,2.75,3.66,3.78
11.0500,0.07,0.08,-1.02,2.44,2.56,6.77
11.0650,0.06,0.10,-0.99,0.49,3.91,5.86
11.0800,0.07,0.10,-0.99,2.75,2.81,5.49
11.0960,0.07,0.09,-0.99,3.85,2.62,4.52
11.1120,0.07,0.11,-1.00,3.91,3.23,2.75
11.1270,0.07,0.12,-0.99,3.85,3.23,2.08
11.1420,0.07,0.12,-1.00,3.48,3.48,1.95
11.1570,0.07,0.12,-1.00,2.08,3.66,2.08
11.1680,0.07,0.11,-0.99,1.46,3.97,1.95
11.1840,0.07,0.11,-0.99,2.32,3.78,2.69
11.2010,0.07,0.11,-1.00,3.85,2.99,2.01
11.2160,0.07,0.11,-0.99,4.09,3.05,2.01
11.2350,0.07,0.12,-1.00,3.85,3.30,1.95
11.2500,0.07,0.12,-0.99,2.50,3.42,2.14
11.2660,0.07,0.11,-0.99,2.26,3.72,2.87
11.2810,0.07,0.12,-0.99,3.23,3.17,2.99
11.2970,0.07,0.11,-1.00,2.75,3.48,4.88
11.3130,0.07,0.11,-1.00,1.95,3.66,3.91
11.3280,0.07,0.12,-1.00,1.40,3.72,3.72
11.3430,0.07,0.11,-0.99,1.71,3.97,3.97
11.3540,0.07,0.10,-0.99,2.75,3.30,3.60
11.3710,0.07,0.10,-0.99,4.03,3.30,2.93
11.3870,0.07,0.12,-1.00,4.70,2.87,2.08
11.4040,0.07,0.12,-1.00,3.78,3.42,2.14
11.4200,0.07,0.12,-1.00,2.38,3.85,2.50
11.4370,0.07,0.12,-0.99,1.89,3.85,3.72
11.4530,0.07,0.12,-1.00,2.14,3.30,5.19
11.4680,0.07,0.10,-1.00,2.26,3.30,5.55
11.4830,0.07,0.10,-0.99,2.50,3.17,3.11
11.4980,0.07,0.11,-0.99,3.66,3.30,2.01
11.5140,0.07,0.11,-0.99,4.27,2.75,2.20
11.5290,0.07,0.11,-1.00,4.03,3.17,2.32
11.5370,0.07,0.11,-0.99,3.11,3.23,2.26
11.5530,0.07,0.11,-1.00,3.23,3.36,2.08
11.5740,0.07,0.11,-1.00,3.05,3.60,1.95
11.5890,0.07,0.12,-1.00,2.50,3.36,2.32
11.6040,0.06,0.13,-1.00,2.14,3.17,3.05
11.6200,0.09,0.14,-0.99,1.71,3.85,7.81
11.6360,0.06,0.10,-1.00,2.20,3.36,7.26
11.6510,0.07,0.08,-1.00,1.53,3.42,5.37
11.6660,0.06,0.09,-0.98,2.44,3.66,2.93
11.6750,0.07,0.10,-0.99,5.25,2.93,2.50
11.6900,0.07,0.11,-0.99,5.68,2.20,2.01
11.7120,0.07,0.12,-1.01,4.64,2.44,1.95
11.7280,0.07,0.12,-1.00,2.38,3.54,2.08
11.7440,0.07,0.11,-0.99,1.71,4.09,2.93
11.7480,0.07,0.11,-1.00,2.38,3.60,2.50
11.7740,0.07,0.11,-0.98,1.71,3.54,2.08
11.7800,0.07,0.11,-0.99,2.32,3.11,3.91
11.7980,0.07,0.11,-1.00,3.85,2.87,3.42
11.8200,0.07,0.11,-0.99,3.54,3.54,2.01
11.8300,0.07,0.12,-1.00,4.39,2.93,1.77
11.8460,0.07,0.12,-1.00,2.56,3.72,1.71
11.8630,0.07,0.11,-0.99,1.83,3.85,1.71
11.8810,0.07,0.11,-1.00,2.62,3.54,1.77
11.8960,0.06,0.10,-0.98,1.77,4.15,1.71
11.9120,0.07,0.11,-1.00,3.60,3.11,1.89
11.9270,0.07,0.11,-0.99,3.97,3.23,1.77
11.9420,0.07,0.11,-1.00,3.91,3.17,1.83
11.9560,0.07,0.11,-1.00,3.05,3.36,1.65
11.9680,0.07,0.11,-1.00,2.32,3.60,1.83
11.9840,0.06,0.10,-0.98,2.99,3.48,2.01
12.0000,0.07,0.11,-1.00,5.00,2.75,1.95
12.0170,0.07,0.12,-1.00,4.70,2.44,2.01
12.0230,0.07,0.11,-1.00,2.93,3.91,2.01
12.0390,0.07,0.11,-0.99,3.11,3.60,1.53
12.0630,0.07,0.11,-1.00,3.48,3.11,1.83
12.0740,0.07,0.10,-0.99,3.23,3.05,1.89
12.0910,0.07,0.11,-0.99,4.15,2.75,1.53
12.1090,0.07,0.11,-1.00,5.13,2.87,1.28
12.1120,0.07,0.12,-1.00,4.03,3.11,1.46
12.1380,0.07,0.11,-0.99,2.62,3.48,1.53
12.1530,0.07,0.11,-0.99,4.94,2.62,1.16
12.1620,0.07,0.11,-1.00,5.74,2.20,0.92
12.1780,0.07,0.12,-1.00,4.15,2.99,1.28
12.1990,0.08,0.12,-0.99,1.95,3.91,1.40
12.2140,0.07,0.12,-0.98,1.53,3.42,2.99
12.2170,0.06,0.10,-1.00,4.33,2.75,3.54
12.2460,0.07,0.12,-1.00,3.17,3.30,2.44
12.2620,0.08,0.14,-1.00,4.58,2.75,3.78
12.2680,0.07,0.11,-0.99,4.39,2.26,4.33
12.2950,0.05,0.10,-1.00,3.11,2.56,3.54
12.3100,0.07,0.10,-0.99,2.87,3.05,1.95
12.3250,0.07,0.11,-0.99,5.55,2.44,1.95
12.3340,0.08,0.12,-1.00,6.59,2.08,1.16
12.3570,0.07,0.12,-1.00,5.00,2.81,0.92
12.3680,0.06,0.12,-0.99,3.78,3.42,1.28
12.3840,0.07,0.11,-1.00,3.05,2.93,1.59
12.4000,0.07,0.12,-1.00,4.27,3.17,1.95
12.4180,0.07,0.12,-1.00,3.97,2.81,1.83
12.4330,0.07,0.12,-1.00,3.42,3.11,1.83
12.4480,0.07,0.12,-0.99,2.56,3.54,1.71
12.4650,0.07,0.12,-1.00,3.23,2.93,1.89
12.4800,0.07,0.13,-1.00,2.93,3.48,1.83
12.4880,0.07,0.11,-0.99,2.20,3.66,1.95
12.5100,0.07,0.11,-0.99,3.42,3.30,1.95
12.5210,0.07,0.12,-1.00,3.85,3.17,1.95
12.5380,0.07,0.12,-0.99,3.78,3.11,2.01
12.5540,0.07,0.12,-1.00,3.72,3.23,1.95
12.5720,0.07,0.12,-1.00,3.54,3.66,1.95
12.5720,0.07,0.12,-0.99,2.62,4.27,1.89
12.6020,0.07,0.11,-0.99,2.99,3.66,1.89
12.6170,0.07,0.11,-0.99,3.66,3.17,2.08
12.6250,0.07,0.12,-0.99,3.78,3.54,2.01
12.6420,0.07,0.12,-0.99,3.60,3.42,2.08
12.6630,0.07,0.11,-0.99,3.17,3.54,2.14
12.6790,0.07,0.11,-0.99,3.72,3.30,1.71
12.6950,0.07,0.12,-0.99,4.27,3.42,1.65
12.7120,0.07,0.12,-0.99,4.09,3.30,1.59
12.7140,0.07,0.11,-0.99,4.39,3.36,1.83
12.7300,0.07,0.12,-1.00,4.52,2.75,2.08
12.7520,0.07,0.12,-0.99,4.15,2.99,2.01
12.7690,0.07,0.12,-1.00,4.33,3.11,1.83
12.7860,0.07,0.12,-1.00,4.15,2.99,1.77
12.8020,0.07,0.11,-0.99,2.62,2.93,1.65
12.8170,0.07,0.12,-1.00,3.30,3.11,1.83
12.8320,0.07,0.11,-0.99,3.78,3.36,1.95
12.8470,0.07,0.13,-1.00,4.64,3.36,0.92
12.8630,0.07,0.12,-1.00,3.30,3.42,1.46
12.8790,0.07,0.12,-0.99,2.01,3.60,1.83
12.8960,0.07,0.12,-0.99,2.44,3.54,1.89
12.9120,0.07,0.12,-0.99,3.30,3.05,1.77
12.9270,0.07,0.12,-0.99,3.42,2.87,1.71
12.9420,0.07,0.12,-0.99,3.36,3.23,1.83
12.9530,0.07,0.12,-0.99,3.11,3.11,1.83
12.9690,0.07,0.12,-0.99,3.91,2.62,1.65
12.9880,0.07,0.12,-0.99,3.23,2.99,1.77
13.0030,0.07,0.12,-0.99,3.30,2.75,1.77
13.0180,0.07,0.12,-0.99,3.11,3.23,1.83
13.0330,0.07,0.12,-0.99,3.17,2.81,1.89
13.0480,0.07,0.12,-1.00,3.91,2.32,1.71
13.0630,0.07,0.12,-0.99,3.48,2.62,1.71
13.0730,0.07,0.12,-1.00,3.78,3.11,1.83
13.0890,0.07,0.13,-1.00,3.36,2.75,1.95
13.1110,0.07,0.12,-0.99,3.54,2.44,1.83
13.1220,0.07,0.12,-0.99,4.46,2.26,1.83
13.1400,0.07,0.12,-0.99,4.70,1.83,1.71
13.1560,0.07,0.12,-0.99,4.46,1.71,1.71
13.1730,0.07,0.12,-0.99,4.58,1.53,1.59
13.1890,0.08,0.12,-0.99,4.39,1.71,1.71
13.2040,0.08,0.12,-1.00,3.36,2.50,1.71
13.2200,0.08,0.12,-0.99,3.30,2.50,1.71
13.2260,0.08,0.12,-0.99,3.11,2.81,1.89
13.2430,0.08,0.12,-0.99,3.85,2.87,1.83
13.2600,0.06,0.13,-0.98,5.00,2.50,1.83
13.2760,0.08,0.12,-0.99,4.52,2.20,1.77
13.2970,0.08,0.12,-1.00,4.70,2.01,1.83
13.3140,0.08,0.13,-0.99,4.21,2.44,1.89
13.3290,0.08,0.12,-0.99,4.03,2.93,1.95
13.3450,0.08,0.13,-0.99,3.91,3.11,2.01
13.3610,0.08,0.13,-0.99,3.30,3.48,2.01
13.3770,0.08,0.13,-1.00,2.99,3.91,2.08
13.3820,0.08,0.12,-0.99,2.14,4.52,2.14
13.3980,0.08,0.12,-0.99,1.59,4.70,2.08
13.4200,0.08,0.12,-0.99,1.59,4.64,2.14
13.4360,0.08,0.12,-0.99,2.14,5.25,2.26
13.4520,0.07,0.12,-1.00,1.59,5.55,2.01
13.4690,0.07,0.13,-1.00,2.44,5.19,2.20
13.4710,0.07,0.12,-1.00,2.44,5.07,2.08
13.4980,0.07,0.12,-0.99,2.26,4.58,2.01
13.5110,0.07,0.12,-0.99,2.20,4.46,2.01
13.5190,0.07,0.12,-0.99,1.95,4.27,1.89
13.5430,0.07,0.12,-0.99,2.08,4.27,1.89
13.5590,0.07,0.12,-0.99,2.56,4.21,1.95
13.5740,0.07,0.11,-0.99,4.39,3.48,1.77
13.5900,0.07,0.13,-1.00,4.39,3.36,1.89
13.6050,0.07,0.12,-0.99,2.01,3.54,1.95
13.6110,0.07,0.11,-0.99,3.30,3.42,1.71
13.6250,0.07,0.12,-0.99,4.21,3.30,1.95
13.6430,0.07,0.12,-1.00,3.36,3.72,1.89
13.6590,0.07,0.12,-0.99,3.05,2.93,1.71
13.6750,0.07,0.12,-0.99,2.99,3.17,1.77
13.6970,0.07,0.12,-0.99,3.05,3.11,1.89
13.7130,0.07,0.12,-0.99,3.30,3.23,1.83
13.7280,0.07,0.12,-0.99,3.42,3.36,1.95
13.7330,0.07,0.12,-0.99,3.36,3.66,2.01
13.7610,0.07,0.12,-0.99,3.30,3.72,1.83
13.7650,0.07,0.12,-0.99,3.17,3.23,1.77
13.7810,0.07,0.12,-0.99,3.17,3.66,1.95
13.8040,0.07,0.12,-1.00,3.17,3.36,1.95
13.8200,0.07,0.12,-1.00,3.17,3.60,1.77
13.8370,0.07,0.12,-0.99,2.99,3.36,1.95
13.8540,0.07,0.12,-1.00,3.54,3.36,1.89
13.8700,0.07,0.12,-0.99,2.87,3.30,1.77
13.8860,0.07,0.12,-0.99,3.17,3.17,1.77
13.9010,0.07,0.12,-1.00,2.99,3.11,1.83
13.9120,0.07,0.12,-0.99,3.11,3.05,1.95
13.9230,0.07,0.12,-1.00,3.54,2.81,1.77
13.9400,0.07,0.12,-0.99,4.03,2.93,1.83
13.9570,0.07,0.12,-0.99,3.85,2.93,1.83
13.9790,0.07,0.12,-0.99,3.78,2.62,1.65
13.9950,0.07,0.12,-0.99,3.60,2.62,1.71
14.0110,0.07,0.12,-0.99,3.91,2.50,1.77
14.0250,0.07,0.12,-1.00,3.91,3.11,1.89
14.0290,0.07,0.12,-0.99,3.85,2.44,1.71
14.0450,0.08,0.12,-0.99,3.91,3.05,1.71
14.0680,0.14,0.13,-1.00,3.85,2.38,0.73
14.0850,0.05,0.12,-0.99,3.85,2.62,1.10
14.1020,0.08,0.12,-0.99,3.60,2.81,1.22
14.1180,0.06,0.13,-1.00,3.60,2.93,1.46
14.1190,0.07,0.12,-0.99,3.72,3.17,1.40
14.1350,0.06,0.12,-0.99,3.60,3.36,1.28
14.1640,0.07,0.12,-0.99,2.99,3.72,1.65
14.1750,0.07,0.12,-0.99,2.75,3.72,1.83
14.1900,0.07,0.12,-0.99,3.30,3.42,1.77
14.2090,0.07,0.12,-0.99,2.99,3.42,1.89
14.2240,0.07,0.12,-0.99,3.05,3.30,1.77
14.2320,0.07,0.12,-0.99,3.48,3.36,2.01
14.2550,0.07,0.13,-1.00,3.60,3.36,1.53
14.2650,0.06,0.12,-0.99,3.23,2.81,0.98
14.2820,0.08,0.12,-0.99,3.30,3.54,1.71
14.2980,0.08,0.12,-0.99,3.17,3.42,1.22
14.3150,0.07,0.12,-0.99,3.48,3.36,1.28
14.3300,0.07,0.12,-0.99,3.66,3.30,1.40
14.3450,0.07,0.12,-0.99,3.30,3.30,1.71
14.3600,0.07,0.12,-0.99,3.36,3.30,1.65
14.3750,0.07,0.12,-0.99,3.42,3.48,1.53
14.3860,0.06,0.12,-0.99,3.60,3.17,1.40
14.4020,0.08,0.12,-0.99,3.66,3.11,1.77
14.4170,0.07,0.12,-0.99,3.60,3.30,1.65
14.4350,0.07,0.12,-0.99,3.85,3.17,1.46
14.4420,0.07,0.12,-0.99,3.36,3.30,1.65
14.4580,0.07,0.12,-0.99,3.23,3.42,1.65
14.4820,0.07,0.12,-0.99,2.93,3.48,1.95
14.4920,0.07,0.12,-0.99,2.93,3.60,2.32
14.5130,0.07,0.12,-1.00,3.72,2.87,2.20
14.5290,0.07,0.12,-0.99,3.23,3.66,2.14
14.5460,0.07,0.12,-0.99,2.99,3.30,1.89
14.5470,0.07,0.12,-0.99,2.75,3.42,2.01
14.5630,0.07,0.12,-0.99,2.50,3.48,1.83
14.5800,0.07,0.12,-0.99,2.14,3.23,1.71
14.6090,0.07,0.12,-0.99,2.26,3.48,1.89
14.6140,0.07,0.12,-0.99,2.26,3.48,1.83
14.6290,0.07,0.12,-0.99,2.20,3.48,1.77
14.6490,0.07,0.12,-1.00,2.75,3.23,2.69
14.6660,0.07,0.12,-0.99,1.71,3.48,2.32
14.6830,0.07,0.12,-0.99,1.34,3.66,2.08
14.6980,0.07,0.11,-0.99,2.75,3.42,1.77
14.7130,0.07,0.12,-0.99,3.23,3.54,2.08
14.7150,0.07,0.12,-0.99,3.54,3.17,1.65
14.7380,0.07,0.15,-0.99,3.05,3.42,1.46
14.7540,0.08,0.12,-0.99,2.69,3.17,1.28
14.7700,0.07,0.12,-0.99,2.75,3.60,1.40
14.7900,0.07,0.12,-0.99,2.93,3.23,1.40
14.7920,0.07,0.12,-1.00,2.99,3.36,1.46
14.8130,0.08,0.12,-0.99,3.42,3.30,1.71
14.8370,0.07,0.12,-0.99,3.42,2.81,1.46
14.8420,0.07,0.12,-1.00,3.48,3.17,1.71
14.8690,0.07,0.12,-0.99,3.54,3.30,1.89
14.8760,0.07,0.12,-0.99,3.72,3.48,1.95
14.8920,0.09,0.14,-0.99,3.42,3.60,1.71
14.9130,0.06,0.12,-1.00,4.15,3.23,1.04
14.9250,0.09,0.13,-0.99,3.17,3.48,1.22
14.9450,0.07,0.11,-1.00,3.66,2.87,0.73
14.9610,0.08,0.12,-0.99,3.72,2.87,1.34
14.9750,0.07,0.12,-1.00,4.27,2.81,0.92
14.9910,0.09,0.14,-0.99,3.97,2.81,1.28
14.9990,0.06,0.12,-1.00,4.03,3.54,1.10
15.0150,0.08,0.12,-0.99,3.97,3.36,1.28
15.0320,0.07,0.12,-1.00,4.15,2.81,1.16
15.0490,0.07,0.12,-0.99,3.85,3.23,1.22
15.0650,0.08,0.12,-1.00,3.66,3.30,1.28
15.0810,0.06,0.11,-0.99,3.05,3.36,0.92
15.0950,0.07,0.12,-1.00,4.09,3.54,1.22
15.1100,0.07,0.13,-1.00,3.66,2.87,1.28
15.1260,0.08,0.12,-0.99,3.36,3.23,1.22
15.1410,0.07,0.12,-0.99,3.48,3.30,1.22
15.1560,0.09,0.13,-0.99,3.17,2.99,1.10
15.1710,0.07,0.12,-1.00,3.66,3.17,1.40
15.1810,0.08,0.13,-0.99,3.36,2.87,1.59
15.1980,0.07,0.12,-0.99,3.17,2.99,2.26
15.2160,0.07,0.12,-0.99,3.60,3.11,2.01
15.2310,0.07,0.12,-0.99,3.66,2.87,1.77
15.2310,0.07,0.12,-0.99,3.66,3.17,1.65
15.2620,0.09,0.13,-0.99,3.72,3.23,1.65
15.2720,0.07,0.12,-1.00,3.30,3.60,1.77
15.2870,0.07,0.12,-0.99,2.81,3.30,2.20
15.3070,0.07,0.12,-0.99,2.87,3.23,2.26
15.3140,0.07,0.12,-0.99,3.60,3.30,2.14
15.3370,0.07,0.12,-0.99,3.23,3.17,1.77
15.3430,0.08,0.12,-0.99,3.48,3.23,1.71
15.3590,0.08,0.12,-0.99,3.30,3.54,1.77
15.3750,0.08,0.12,-0.99,3.54,3.17,1.65
15.3920,0.09,0.12,-0.99,3.60,3.36,1.89
15.4130,0.07,0.12,-0.99,3.30,3.11,1.83
15.4260,0.07,0.12,-1.00,3.17,3.42,1.77
15.4420,0.07,0.12,-1.00,2.99,3.30,1.65
15.4610,0.07,0.12,-0.99,3.05,3.48,1.46
15.4750,0.06,0.12,-0.99,3.54,2.99,1.53
15.4800,0.06,0.12,-1.00,3.78,2.99,1.65
15.4950,0.07,0.12,-0.99,3.91,3.30,1.71
15.5170,0.08,0.12,-1.00,3.17,3.23,1.59
15.5340,0.08,0.12,-0.99,3.30,3.17,1.46
15.5500,0.07,0.12,-0.99,3.54,2.93,1.46
15.5670,0.07,0.11,-0.99,3.85,3.05,1.53
15.5820,0.08,0.12,-0.99,4.46,3.11,1.65
15.5970,0.07,0.13,-1.00,3.17,3.30,1.77
15.6130,0.09,0.12,-0.99,3.17,2.87,1.89
15.6300,0.07,0.12,-0.99,3.30,3.42,1.83
15.6450,0.08,0.12,-0.99,2.99,3.11,1.59
15.6600,0.07,0.12,-0.99,3.23,3.11,1.46
15.6750,0.07,0.12,-0.99,3.60,3.11,1.53
15.6890,0.08,0.13,-0.99,3.48,3.54,1.46
15.7010,0.08,0.13,-1.00,3.30,2.99,1.34
15.7170,0.07,0.12,-0.99,3.36,2.62,1.53
15.7340,0.07,0.13,-1.00,4.15,2.87,1.89
15.7510,0.07,0.12,-0.99,3.85,2.99,2.01
15.7670,0.08,0.12,-0.98,3.66,3.23,2.01
15.7820,0.08,0.12,-0.99,3.72,3.17,1.95
15.7970,0.08,0.13,-0.99,3.23,3.54,1.65
15.8120,0.08,0.12,-0.99,2.87,3.48,1.77
15.8270,0.08,0.12,-0.98,2.81,3.23,1.83
15.8420,0.07,0.12,-0.99,2.81,3.54,1.89
15.8560,0.07,0.13,-0.99,3.23,3.30,1.59
15.8680,0.07,0.12,-1.00,3.11,3.23,1.40
15.8840,0.08,0.12,-0.99,2.87,3.36,1.77
15.8990,0.07,0.12,-0.99,2.99,3.42,2.44
15.9170,0.07,0.12,-0.99,3.11,3.42,2.50
15.9320,0.07,0.13,-1.00,3.23,3.54,1.77
15.9470,0.07,0.12,-0.99,2.81,3.48,1.71
15.9620,0.07,0.12,-0.99,3.11,3.78,1.77
15.9770,0.08,0.12,-0.99,3.85,3.42,1.83
15.9920,0.07,0.12,-0.99,3.30,3.78,1.71
16.0070,0.07,0.12,-0.99,3.42,3.54,1.77
16.0180,0.07,0.12,-0.99,3.66,3.48,2.01
16.0350,0.09,0.12,-0.99,3.60,3.54,2.08
16.0520,0.07,0.13,-0.99,3.42,3.36,2.20
16.0680,0.08,0.12,-0.99,3.30,3.36,2.01
16.0830,0.07,0.12,-1.00,3.48,3.54,2.20
16.0850,0.08,0.12,-0.99,3.48,3.23,2.14
16.1150,0.08,0.12,-0.99,3.42,3.17,2.32
16.1320,0.07,0.13,-0.99,3.17,3.17,2.44
16.1360,0.09,0.12,-0.98,3.23,3.11,1.95
16.1520,0.07,0.12,-0.99,3.17,3.05,1.65
16.1740,0.09,0.12,-0.99,3.36,2.99,1.65
16.1890,0.07,0.12,-0.99,2.99,3.17,1.89
16.2050,0.07,0.13,-1.00,3.97,3.05,2.01
16.2220,0.07,0.13,-0.99,3.30,3.17,2.01
16.2240,0.07,0.13,-0.99,3.42,3.23,1.71
16.2530,0.07,0.12,-0.99,3.11,3.48,1.65
16.2670,0.07,0.12,-0.99,3.17,3.54,1.89
16.2830,0.08,0.13,-1.00,2.99,3.36,1.95
16.2980,0.09,0.12,-0.99,2.99,3.11,1.77
16.3130,0.07,0.12,-0.99,2.44,3.05,1.83
16.3280,0.07,0.12,-0.99,3.30,3.36,1.89
16.3390,0.07,0.13,-1.00,3.30,3.66,1.77
16.3560,0.07,0.13,-0.99,3.17,3.30,1.83
16.3720,0.08,0.13,-0.99,2.93,3.48,1.71
16.3880,0.08,0.13,-0.99,3.11,3.54,1.46
16.4040,0.08,0.12,-0.99,3.11,3.60,1.28
16.4190,0.07,0.12,-0.99,3.23,3.30,1.34
16.4270,0.08,0.12,-0.99,2.87,3.72,1.40
16.4430,0.07,0.12,-0.99,3.42,3.42,1.65
16.4630,0.08,0.12,-0.99,3.54,3.23,1.65
16.4800,0.09,0.12,-0.99,3.54,3.23,1.71
16.4950,0.07,0.12,-0.99,2.81,3.11,1.71
16.5100,0.07,0.13,-0.98,2.99,2.93,1.46
16.5260,0.07,0.13,-1.00,2.50,3.78,1.34
16.5410,0.07,0.12,-1.00,3.36,3.85,1.65
16.5470,0.08,0.13,-0.99,3.36,3.05,1.40
16.5720,0.07,0.12,-0.99,2.99,3.05,1.34
16.5800,0.07,0.13,-0.99,3.66,3.36,1.71
16.5960,0.09,0.12,-1.00,2.99,3.91,1.59
16.6150,0.07,0.12,-1.00,3.30,4.15,1.40
16.6290,0.05,0.12,-0.99,3.30,3.36,1.40
16.6490,0.08,0.12,-0.99,3.36,3.54,1.65
16.6640,0.07,0.12,-0.99,3.17,3.30,1.46
16.6800,0.08,0.13,-0.99,3.36,3.05,1.22
16.6960,0.08,0.12,-0.99,2.50,3.42,0.92
16.7110,0.07,0.11,-0.98,2.62,3.54,1.16
16.7260,0.08,0.14,-1.00,3.66,3.85,1.71
16.7410,0.06,0.13,-1.00,2.38,4.03,1.16
16.7530,0.06,0.13,-0.99,3.42,3.78,1.22
16.7700,0.08,0.12,-0.98,3.30,3.97,1.22
16.7860,0.08,0.12,-0.99,2.75,3.48,1.16
16.8020,0.08,0.13,-0.99,4.27,3.91,1.59
16.8180,0.09,0.12,-0.99,3.78,3.42,1.65
16.8340,0.07,0.12,-0.99,2.81,3.85,1.71
16.8490,0.07,0.13,-0.99,3.72,3.85,1.89
16.8650,0.08,0.13,-0.99,2.99,3.42,1.46
16.8800,0.08,0.12,-0.99,2.56,3.78,1.34
16.8960,0.07,0.12,-1.00,3.17,3.48,1.59
16.9120,0.06,0.13,-0.99,3.11,3.17,1.95
16.9270,0.07,0.12,-0.99,3.17,3.48,1.59
16.9420,0.06,0.12,-0.99,3.11,3.23,1.89
16.9520,0.06,0.12,-0.99,3.48,3.42,1.95
16.9690,0.07,0.13,-0.99,3.30,3.42,1.71
16.9860,0.07,0.12,-0.99,2.87,3.54,1.95
17.0020,0.07,0.13,-0.99,2.93,3.85,2.01
17.0180,0.08,0.12,-0.99,2.87,3.30,1.65
17.0330,0.09,0.12,-0.99,3.05,3.36,1.77
17.0490,0.07,0.13,-1.00,3.78,3.42,1.34
17.0640,0.08,0.12,-0.99,3.30,3.42,1.53
17.0720,0.10,0.13,-0.99,3.11,3.23,1.22
17.0890,0.06,0.12,-1.00,3.36,3.36,0.98
17.1060,0.09,0.12,-0.99,2.99,3.66,1.34
17.1220,0.08,0.12,-1.00,2.87,3.30,1.46
17.1390,0.08,0.12,-0.98,3.66,3.30,1.22
17.1550,0.09,0.12,-0.98,3.23,2.99,1.22
17.1560,0.07,0.12,-0.99,3.11,3.11,1.89
17.1860,0.06,0.12,-1.00,3.23,3.91,2.44
17.1890,0.09,0.12,-0.98,3.30,3.42,1.89
17.2180,0.05,0.12,-1.00,2.99,3.36,1.95
17.2330,0.07,0.12,-0.99,3.23,3.66,2.08
17.2400,0.07,0.12,-0.99,3.17,3.23,1.95
17.2560,0.08,0.12,-0.99,3.48,3.11,1.77
17.2730,0.07,0.12,-0.99,3.48,3.42,2.08
17.2890,0.08,0.12,-0.99,3.23,3.36,1.83
17.3110,0.07,0.12,-0.99,3.17,3.60,2.14
17.3270,0.08,0.12,-0.99,3.30,3.48,1.77
17.3430,0.07,0.12,-0.99,3.36,3.36,1.71
17.3440,0.09,0.12,-0.99,3.72,3.23,1.83
17.3760,0.07,0.12,-0.99,3.72,3.42,1.46
17.3920,0.10,0.12,-0.99,3.05,3.36,1.59
17.4080,0.07,0.13,-1.00,3.17,3.11,1.89
17.4230,0.08,0.13,-0.99,2.99,3.23,2.14
17.4260,0.09,0.12,-0.98,2.62,2.99,2.20
17.4440,0.06,0.12,-0.99,2.93,3.17,2.14
17.4610,0.06,0.13,-0.99,3.36,3.17,2.01
17.4880,0.06,0.12,-0.99,3.05,3.11,1.95
17.5040,0.07,0.13,-0.99,3.42,3.36,1.89
17.5150,0.07,0.12,-0.99,3.23,3.36,1.89
17.5260,0.08,0.12,-0.99,3.60,3.30,1.95
17.5420,0.09,0.12,-1.00,4.03,3.30,1.95
17.5650,0.08,0.12,-0.99,3.85,3.30,1.59
17.5810,0.08,0.12,-0.99,3.85,3.30,1.46
17.5810,0.08,0.13,-0.99,3.66,3.23,0.85
17.6110,0.08,0.13,-0.99,3.30,3.30,0.67
17.6190,0.08,0.13,-1.00,3.11,3.48,0.98
17.6410,0.07,0.13,-1.01,3.17,3.72,1.34
17.6520,0.07,0.13,-1.00,3.36,3.48,1.53
17.6690,0.07,0.12,-0.99,3.91,3.11,1.46
17.6850,0.06,0.12,-0.99,3.66,3.36,1.59
17.7010,0.06,0.13,-1.00,3.72,3.78,1.65
17.7170,0.07,0.12,-0.99,3.36,3.11,1.59
17.7330,0.08,0.13,-0.99,3.30,3.42,1.77
17.7480,0.08,0.12,-0.99,3.66,3.17,1.65
17.7640,0.07,0.13,-1.00,3.78,3.42,1.83
17.7800,0.08,0.13,-0.99,3.42,3.72,1.77
17.7960,0.07,0.13,-1.00,3.11,3.42,1.71
17.8030,0.08,0.13,-0.99,3.36,3.42,1.89
17.8280,0.08,0.13,-0.99,3.11,3.30,1.65
17.8430,0.09,0.13,-0.99,3.30,3.48,1.89
17.8580,0.08,0.13,-1.00,3.05,3.36,1.40
17.8690,0.08,0.12,-0.99,2.56,3.60,1.83
17.8860,0.08,0.13,-0.99,2.62,3.72,2.08
17.9030,0.06,0.13,-1.00,2.75,3.66,2.01
17.9190,0.08,0.12,-0.99,3.60,3.48,1.83
17.9360,0.08,0.13,-0.99,3.54,2.99,1.71
17.9510,0.06,0.12,-0.99,3.30,3.23,2.14
17.9510,0.09,0.12,-0.99,3.42,3.23,2.01
17.9760,0.07,0.13,-0.99,3.05,3.17,1.95
17.9930,0.08,0.12,-0.99,2.99,3.36,2.01
18.0080,0.08,0.13,-0.99,3.11,3.42,1.95
18.0300,0.06,0.13,-0.99,2.75,3.30,1.71
18.0460,0.10,0.13,-0.98,2.93,3.36,1.77
18.0620,0.06,0.12,-0.99,3.11,3.17,1.77
18.0640,0.08,0.12,-0.99,3.30,3.30,1.89
18.0800,0.06,0.12,-0.99,2.69,3.60,1.95
18.1010,0.06,0.12,-0.99,2.87,3.54,1.89
18.1240,0.08,0.13,-0.99,3.42,3.60,1.95
18.1340,0.08,0.13,-0.99,3.30,3.36,1.95
18.1520,0.08,0.13,-0.99,3.05,3.17,1.95
18.1680,0.07,0.13,-0.99,2.69,3.23,2.14
18.1830,0.07,0.13,-0.99,2.81,3.36,2.26
18.1930,0.08,0.13,-1.00,3.11,3.66,2.20
18.2090,0.07,0.13,-1.00,3.05,3.78,2.20
18.2250,0.07,0.13,-0.99,3.36,3.66,2.08
18.2440,0.08,0.13,-0.99,3.36,3.66,1.95
18.2590,0.08,0.13,-0.99,3.17,3.42,1.83
18.2740,0.07,0.13,-0.99,2.87,3.54,1.95
18.2910,0.08,0.13,-1.00,3.72,3.30,2.14
18.3070,0.08,0.13,-0.99,2.99,3.42,1.65
18.3170,0.06,0.12,-0.99,3.30,3.48,1.83
18.3390,0.08,0.13,-0.99,3.54,3.60,1.95
18.3550,0.08,0.12,-0.99,3.17,3.30,2.01
18.3710,0.07,0.13,-0.99,3.11,3.60,2.26
18.3860,0.06,0.13,-0.99,3.05,3.91,2.01
18.4010,0.08,0.12,-0.99,2.69,3.91,2.20
18.4100,0.06,0.13,-0.99,2.93,3.54,2.01
18.4270,0.07,0.12,-0.99,2.87,3.42,1.95
18.4430,0.08,0.13,-0.99,3.42,3.48,1.77
18.4630,0.09,0.13,-0.99,2.99,3.23,1.77
18.4800,0.07,0.13,-0.99,2.50,3.42,1.89
18.4940,0.08,0.12,-0.99,2.93,3.30,2.08
18.5090,0.10,0.12,-0.98,3.60,3.36,2.01
18.5250,0.07,0.12,-0.98,2.87,3.66,1.95
18.5400,0.07,0.13,-0.99,2.87,3.66,2.08
18.5550,0.07,0.13,-0.99,2.62,3.30,1.89
18.5700,0.09,0.12,-0.99,2.50,3.42,1.77
18.5820,0.07,0.12,-0.99,2.69,3.48,1.77
18.5970,0.09,0.13,-0.99,3.54,3.85,1.77
18.6150,0.07,0.13,-0.99,2.75,3.42,1.04
18.6310,0.06,0.15,-0.99,2.81,3.42,0.92
18.6390,0.09,0.13,-0.98,3.36,3.30,0.67
18.6550,0.08,0.12,-0.99,2.93,3.48,0.61
18.6770,0.07,0.12,-1.00,3.48,3.48,0.61
18.6930,0.06,0.12,-0.99,3.60,3.23,1.10
18.7080,0.08,0.12,-0.99,3.48,3.17,1.53
18.7240,0.07,0.13,-0.99,3.17,3.54,1.65
18.7390,0.07,0.12,-0.99,3.17,3.60,1.89
18.7550,0.08,0.12,-0.99,3.23,3.48,1.71
18.7700,0.07,0.12,-0.99,3.48,3.54,1.71
18.7860,0.08,0.12,-0.99,3.23,3.60,1.83
18.7930,0.07,0.12,-0.99,3.42,3.60,1.71
18.8080,0.09,0.13,-0.99,2.87,3.42,1.89
18.8310,0.06,0.12,-0.99,2.75,3.36,1.83
18.8460,0.08,0.12,-0.99,3.48,3.54,1.89
18.8610,0.08,0.13,-0.99,3.30,3.36,1.77
18.8770,0.09,0.12,-0.99,3.23,3.48,1.89
18.8930,0.08,0.12,-0.98,2.69,3.42,1.65
18.9080,0.07,0.13,-1.00,2.75,3.54,1.59
18.9190,0.07,0.13,-1.00,2.93,3.85,1.46
18.9350,0.06,0.13,-0.99,3.11,3.85,1.59
18.9520,0.08,0.13,-0.99,3.54,3.42,1.83
18.9680,0.06,0.12,-1.00,3.05,3.36,1.89
18.9840,0.08,0.12,-0.99,3.78,3.66,2.01
18.9920,0.10,0.13,-0.99,3.66,3.66,2.01
19.0080,0.06,0.13,-1.00,3.48,3.36,2.01
19.0250,0.07,0.13,-0.99,3.48,3.36,2.08
19.0430,0.08,0.12,-0.99,3.66,3.36,2.01
19.0580,0.09,0.12,-1.00,3.23,3.17,2.38
19.0750,0.09,0.12,-1.00,3.48,3.42,2.20
19.0900,0.07,0.14,-1.00,2.56,3.54,1.89
19.1050,0.08,0.13,-0.99,2.81,3.66,1.89
19.1190,0.06,0.13,-1.00,2.75,3.66,1.53
19.1300,0.06,0.13,-0.99,2.87,3.78,1.95
19.1480,0.07,0.12,-0.98,3.42,3.54,1.89
19.1640,0.07,0.13,-0.99,3.42,3.54,1.89
19.1800,0.07,0.13,-0.99,3.36,3.60,1.95
19.1960,0.07,0.13,-0.99,2.62,3.42,1.83
19.2030,0.07,0.13,-0.99,2.87,3.42,1.95
19.2200,0.08,0.12,-0.99,3.23,3.60,1.95
19.2370,0.08,0.12,-0.98,2.62,3.54,1.95
19.2520,0.07,0.12,-0.99,2.99,3.48,2.01
19.2690,0.08,0.13,-0.99,3.54,3.54,1.89
19.2850,0.07,0.13,-0.99,2.93,3.23,1.95
19.3010,0.07,0.13,-0.99,2.62,3.72,1.89
19.3150,0.08,0.12,-0.99,3.23,3.48,2.01
19.3190,0.08,0.13,-0.99,3.11,3.54,1.89
19.3350,0.09,0.12,-0.99,3.30,3.23,1.83
19.3580,0.09,0.13,-0.99,2.99,3.36,1.89
19.3740,0.08,0.13,-1.00,2.99,3.60,1.65
19.3910,0.07,0.13,-1.00,2.26,3.36,1.65
19.4080,0.08,0.13,-1.00,2.87,3.30,1.65
19.4230,0.10,0.13,-1.00,3.54,2.99,1.53
19.4390,0.05,0.12,-0.99,2.38,3.72,1.28
19.4540,0.07,0.13,-1.00,2.87,3.78,1.46
19.4700,0.08,0.13,-0.99,2.81,3.72,1.71
19.4860,0.09,0.12,-0.99,2.99,3.66,1.59
19.5020,0.10,0.13,-0.98,3.48,3.42,1.16
19.5180,0.06,0.12,-1.00,3.30,3.54,1.04
19.5330,0.07,0.12,-0.99,3.11,3.78,1.46
19.5410,0.09,0.16,-0.99,3.66,3.78,1.28
19.5570,0.09,0.13,-0.98,2.75,3.97,0.92
19.5780,0.07,0.12,-0.99,2.93,3.48,0.43
19.5950,0.08,0.12,-0.99,3.36,3.91,0.49
19.6110,0.07,0.12,-0.99,2.81,3.78,0.79
19.6270,0.08,0.12,-0.99,2.50,3.66,0.85
19.6420,0.07,0.12,-0.99,2.32,4.09,0.98
19.6580,0.07,0.13,-0.99,2.75,3.60,1.34
19.6730,0.06,0.12,-0.99,2.56,3.72,1.65
19.6870,0.07,0.12,-0.99,2.99,3.42,1.89
19.7030,0.08,0.12,-0.99,2.81,3.66,1.89
19.7170,0.08,0.13,-0.99,2.99,3.42,1.77
19.7310,0.08,0.12,-0.99,2.93,3.66,1.46
19.7470,0.10,0.12,-0.98,3.42,3.30,1.34
19.7630,0.07,0.12,-0.98,3.48,3.36,1.10
19.7790,0.09,0.13,-0.98,2.87,3.42,0.85
19.7950,0.09,0.12,-0.98,3.48,3.85,0.67
19.7980,0.07,0.12,-0.99,3.11,3.97,0.55
19.8260,0.09,0.12,-0.99,3.48,2.99,0.73
19.8420,0.08,0.13,-1.00,2.99,3.66,0.12
19.8570,0.07,0.12,-0.99,3.11,3.66,0.24
19.8720,0.06,0.12,-0.99,2.99,3.66,0.92
19.8870,0.06,0.12,-0.99,3.23,3.54,1.28
19.8980,0.06,0.12,-0.99,2.87,3.54,1.83
19.9170,0.07,0.13,-0.99,3.11,3.17,1.83
19.9300,0.08,0.12,-0.99,2.87,3.36,1.89
19.9490,0.08,0.12,-0.99,2.87,3.66,1.89
19.9640,0.08,0.12,-0.99,2.93,3.66,1.89
19.9800,0.08,0.13,-0.99,3.23,3.42,1.77
19.9950,0.08,0.12,-0.99,3.30,3.23,1.65
20.0110,0.08,0.12,-0.99,2.99,3.54,1.89
20.0280,0.07,0.12,-0.99,3.11,3.72,1.89
20.0440,0.07,0.13,-1.00,3.54,3.30,1.71
20.0590,0.07,0.12,-0.99,2.75,3.54,1.77
20.0730,0.08,0.12,-0.99,2.75,3.48,1.65
20.0860,0.09,0.13,-1.00,4.15,3.17,1.71
20.1010,0.08,0.13,-1.00,3.23,3.30,1.65
20.1180,0.07,0.11,-0.99,3.05,3.78,1.95
20.1340,0.08,0.13,-0.99,2.81,3.54,1.89
20.1490,0.08,0.13,-0.99,2.99,3.11,2.08
20.1640,0.07,0.12,-0.99,2.81,3.78,2.14
20.1790,0.06,0.12,-1.00,3.60,3.42,2.20
20.1940,0.07,0.12,-0.99,3.66,3.23,1.89
20.2100,0.08,0.12,-0.99,3.11,3.97,1.95
20.2250,0.07,0.12,-0.99,3.05,3.66,1.77
20.2350,0.07,0.12,-0.99,2.81,3.66,1.95
20.2510,0.08,0.12,-0.99,3.30,3.54,1.95
20.2680,0.08,0.12,-0.99,3.42,3.42,1.83
20.2850,0.07,0.12,-0.99,2.87,3.11,1.89
20.3000,0.09,0.12,-0.99,2.87,3.48,1.89
20.3140,0.06,0.12,-0.99,2.81,3.17,2.08
20.3300,0.07,0.12,-0.99,3.11,3.42,1.95
20.3470,0.08,0.12,-0.99,2.87,3.48,1.95
20.3620,0.07,0.13,-1.00,2.81,3.42,1.89
20.3770,0.07,0.12,-0.99,2.99,3.36,1.89
20.3920,0.07,0.12,-0.99,3.23,3.42,1.95
20.4070,0.08,0.12,-0.99,3.17,3.42,2.14
20.4180,0.08,0.12,-0.99,3.30,3.66,1.89
20.4340,0.08,0.12,-0.99,3.42,3.23,1.95
20.4510,0.08,0.12,-0.99,3.42,3.54,2.01
20.4670,0.07,0.12,-0.99,3.05,3.60,2.01
20.4740,0.07,0.12,-0.99,3.42,3.54,2.14
20.4900,0.07,0.12,-0.99,3.78,3.23,2.01
20.5140,0.08,0.12,-0.99,3.54,3.36,2.01
20.5310,0.08,0.12,-0.99,3.17,3.42,1.95
20.5460,0.08,0.12,-0.99,3.11,3.30,1.89
20.5620,0.07,0.12,-0.99,3.48,3.30,1.95
20.5790,0.08,0.12,-1.00,3.78,3.36,2.01
20.5940,0.07,0.13,-0.99,3.60,3.36,2.01
20.6100,0.08,0.12,-0.99,3.54,2.99,1.83
20.6250,0.08,0.13,-1.00,3.42,2.93,2.01
20.6300,0.08,0.12,-0.99,3.23,3.36,2.01
20.6460,0.08,0.12,-0.99,3.23,3.11,1.95
20.6680,0.08,0.12,-0.99,2.93,3.60,1.95
20.6850,0.08,0.12,-0.99,3.72,3.42,2.01
20.7020,0.08,0.12,-0.99,3.54,2.75,2.01
20.7170,0.08,0.12,-0.99,3.85,2.87,1.89
20.7330,0.08,0.12,-0.99,3.60,3.17,1.89
20.7350,0.07,0.12,-0.99,3.66,2.87,1.83
20.7650,0.08,0.12,-0.99,4.03,2.44,1.89
20.7800,0.08,0.12,-0.99,3.91,1.83,1.77
20.7960,0.08,0.12,-0.99,3.97,1.89,2.01
20.8120,0.08,0.13,-0.99,4.46,1.71,1.89
20.8280,0.09,0.13,-1.00,3.97,2.38,1.95
20.8450,0.08,0.13,-1.00,4.94,2.26,1.95
20.8600,0.08,0.13,-0.99,4.58,2.56,1.95
20.8680,0.08,0.13,-0.99,3.85,3.36,1.89
20.8920,0.08,0.13,-1.00,2.69,3.72,1.83
20.9070,0.07,0.12,-0.99,2.01,4.39,1.95
20.9180,0.09,0.14,-1.00,3.05,4.64,2.14
20.9350,0.08,0.13,-0.99,2.14,4.82,2.14
20.9520,0.08,0.12,-0.99,2.08,4.88,2.08
20.9680,0.08,0.13,-0.99,2.69,4.88,2.08
20.9840,0.07,0.13,-0.99,3.42,4.03,2.14
20.9990,0.08,0.12,-0.99,2.99,3.78,2.08
21.0150,0.08,0.13,-0.99,3.36,3.60,1.89
21.0210,0.07,0.13,-0.99,3.05,3.54,1.95
21.0370,0.08,0.12,-0.99,2.69,3.23,1.83
21.0530,0.08,0.13,-0.99,2.81,3.36,1.89
21.0720,0.08,0.13,-0.99,2.50,2.99,1.95
21.0890,0.08,0.12,-0.99,2.50,3.48,1.95
21.1060,0.08,0.12,-0.99,2.62,3.36,1.83
21.1190,0.08,0.12,-0.99,2.99,3.54,2.01
21.1360,0.08,0.12,-0.99,2.93,3.17,1.95
21.1510,0.08,0.12,-0.99,2.87,3.05,1.95
21.1660,0.08,0.12,-0.99,3.05,3.23,1.89
21.1740,0.08,0.12,-0.99,2.81,3.36,1.95
21.1900,0.08,0.12,-0.99,2.75,3.66,2.01
21.2070,0.08,0.12,-0.99,2.69,3.36,2.08
21.2230,0.08,0.12,-0.99,2.99,3.66,1.83
21.2440,0.08,0.12,-0.99,2.81,3.54,1.95
21.2460,0.08,0.12,-0.99,2.75,3.30,1.83
21.2770,0.08,0.13,-1.00,2.93,3.30,1.95
21.2940,0.08,0.12,-0.99,2.75,3.42,1.95
21.2960,0.08,0.12,-0.99,3.11,3.48,1.89
21.3190,0.08,0.12,-0.99,2.93,3.42,1.95
21.3410,0.08,0.12,-0.99,3.11,3.30,1.95
21.3570,0.08,0.12,-0.99,3.05,3.97,1.89
21.3630,0.08,0.12,-0.99,2.93,3.60,1.95
21.3790,0.07,0.12,-0.99,2.81,3.72,1.89
21.4020,0.08,0.12,-0.99,2.87,3.60,1.89
21.4040,0.08,0.12,-0.99,2.87,3.36,1.89
21.4320,0.08,0.13,-1.00,2.69,3.48,1.83
21.4470,0.08,0.13,-1.00,2.81,3.60,1.95
21.4640,0.08,0.12,-0.99,2.14,3.72,1.89
21.4790,0.07,0.12,-0.99,4.21,2.93,1.95
21.4950,0.08,0.13,-0.99,3.23,3.42,2.99
21.5110,0.08,0.13,-0.99,2.62,3.11,1.77
21.5280,0.08,0.12,-0.99,2.44,3.66,1.83
21.5430,0.08,0.12,-0.99,3.30,3.66,1.89
21.5580,0.08,0.12,-0.99,3.48,3.30,1.77
21.5690,0.08,0.12,-0.99,3.42,3.23,1.89
21.5850,0.08,0.12,-0.99,3.54,2.99,1.77
21.6020,0.08,0.12,-0.99,3.66,3.48,1.95
21.6190,0.08,0.12,-0.99,3.11,3.48,1.95
21.6360,0.08,0.12,-0.99,3.23,3.17,2.01
21.6520,0.08,0.12,-0.99,3.78,3.05,2.08
21.6680,0.08,0.11,-1.00,3.30,2.93,2.32
21.6700,0.08,0.12,-0.99,3.42,3.05,1.83
21.6990,0.08,0.13,-0.99,3.05,3.30,1.89
21.7140,0.08,0.13,-0.99,3.30,3.54,1.89
21.7300,0.08,0.12,-0.99,2.93,3.05,1.83
21.7460,0.08,0.12,-0.99,2.75,3.42,1.77
21.7620,0.08,0.12,-0.99,2.87,2.93,1.65
21.7780,0.08,0.12,-0.99,3.23,3.17,1.71
21.7850,0.08,0.12,-0.99,2.81,3.30,1.53
21.8100,0.09,0.11,-0.98,2.69,3.42,1.53
21.8250,0.07,0.11,-0.99,3.36,3.05,-0.73
21.8350,0.07,0.12,-0.99,3.85,3.66,0.06
21.8530,0.07,0.13,-1.00,3.42,3.42,0.37
21.8690,0.07,0.12,-0.99,2.75,3.78,1.16
21.8860,0.08,0.12,-0.99,3.54,3.36,1.83
21.9030,0.08,0.12,-0.99,3.66,3.42,2.08
21.9190,0.08,0.12,-0.99,3.66,3.66,2.08
21.9340,0.07,0.12,-0.99,3.30,3.11,1.89
21.9350,0.08,0.12,-0.99,3.78,3.30,2.20
21.9510,0.08,0.12,-0.99,3.05,3.72,1.77
21.9730,0.08,0.12,-0.99,2.62,3.05,1.89
21.9900,0.08,0.12,-0.99,2.69,3.23,1.83
22.0060,0.07,0.12,-0.99,2.87,3.36,2.01
22.0280,0.08,0.12,-0.99,2.81,3.42,2.01
22.0430,0.08,0.12,-0.99,2.93,3.36,2.08
22.0590,0.08,0.12,-0.99,3.11,3.66,1.95
22.0740,0.08,0.12,-0.99,2.93,4.15,2.01
22.0890,0.08,0.12,-0.99,3.42,3.42,1.89
22.1040,0.07,0.12,-0.99,3.23,3.36,1.89
22.1190,0.08,0.12,-0.99,3.60,3.36,2.01
22.1320,0.08,0.12,-0.99,3.17,3.36,1.83
22.1470,0.08,0.12,-0.99,3.66,3.17,1.95
22.1640,0.08,0.12,-0.99,3.72,3.23,1.83
22.1810,0.08,0.12,-0.99,3.85,3.17,1.95
22.1960,0.08,0.12,-0.99,3.97,3.30,2.01
22.1980,0.08,0.12,-0.99,3.60,3.30,1.95
22.2270,0.08,0.12,-0.99,3.60,3.42,1.95
22.2450,0.08,0.12,-0.99,3.48,3.48,1.95
22.2470,0.08,0.12,-1.01,3.60,3.23,2.14
22.2620,0.08,0.12,-0.99,2.75,3.54,2.08
22.2840,0.08,0.12,-1.00,3.78,2.99,2.26
22.3020,0.08,0.10,-1.00,2.87,3.36,2.32
22.3200,0.08,0.12,-1.00,3.66,3.23,2.20
22.3340,0.08,0.11,-1.00,4.15,3.54,0.49
22.3510,0.08,0.13,-0.99,3.60,4.03,0.24
22.3670,0.07,0.13,-0.99,3.72,3.97,0.06
22.3810,0.07,0.14,-0.99,3.60,3.60,0.24
22.3910,0.07,0.14,-0.99,3.36,3.97,0.98
22.4080,0.07,0.13,-0.99,2.93,3.72,1.40
22.4240,0.08,0.12,-0.99,2.69,3.60,1.77
22.4430,0.08,0.12,-0.99,2.75,4.03,1.16
22.4460,0.08,0.11,-1.00,3.23,3.48,0.43
22.4740,0.07,0.10,-0.99,2.87,3.23,0.43
22.4890,0.07,0.11,-0.99,3.23,3.42,0.37
22.5040,0.07,0.12,-1.00,2.69,3.48,0.98
22.5120,0.07,0.13,-1.00,3.11,3.85,2.08
22.5280,0.07,0.15,-0.99,3.11,3.48,2.99
22.5460,0.07,0.16,-0.99,3.17,3.42,2.32
22.5610,0.08,0.13,-0.99,3.17,3.42,1.83
22.5780,0.08,0.12,-0.99,2.44,3.48,1.95
22.5940,0.08,0.12,-0.99,3.48,3.48,2.01
22.6020,0.08,0.12,-1.00,3.72,3.36,1.95
22.6240,0.08,0.13,-1.01,3.97,3.66,0.98
22.6350,0.08,0.07,-1.00,3.42,3.85,-0.24
22.6520,0.07,0.13,-1.00,3.72,3.66,0.00
22.6680,0.07,0.12,-0.99,4.27,3.85,0.79
22.6830,0.08,0.14,-0.99,3.72,3.48,1.40
22.6980,0.07,0.14,-0.99,3.30,3.54,1.28
22.7140,0.08,0.13,-1.00,2.69,3.30,2.08
22.7290,0.08,0.12,-0.99,2.69,3.60,1.89
22.7450,0.08,0.12,-0.99,3.42,3.66,2.01
22.7610,0.08,0.12,-1.00,3.42,3.42,1.10
22.7770,0.07,0.09,-1.02,2.93,3.85,-0.79
22.7850,0.08,0.12,-0.99,1.71,4.21,0.49
22.8070,0.08,0.14,-0.98,3.17,3.72,-0.37
22.8200,0.08,0.13,-0.99,3.60,3.60,0.00
22.8350,0.08,0.14,-0.99,2.87,3.54,0.24
22.8510,0.08,0.14,-0.99,3.11,3.54,0.85
22.8690,0.08,0.12,-0.99,2.87,3.36,1.77
22.8850,0.08,0.12,-0.99,2.93,3.42,1.65
22.8850,0.08,0.12,-0.99,2.99,3.17,1.40
22.9080,0.08,0.12,-0.99,3.30,3.42,1.46
22.9260,0.08,0.12,-0.99,3.42,3.60,1.77
22.9410,0.08,0.11,-0.99,3.85,3.60,0.24
22.9610,0.08,0.10,-0.99,4.39,3.48,-0.24
22.9760,0.08,0.12,-1.00,3.91,3.54,-0.06
22.9920,0.08,0.12,-0.99,3.60,3.85,0.49
22.9970,0.08,0.13,-0.99,3.11,3.78,0.24
23.0210,0.08,0.14,-0.99,3.05,3.60,0.85
23.0330,0.08,0.14,-0.99,2.87,3.54,1.40
23.0500,0.08,0.12,-0.99,2.75,3.54,1.83
23.0660,0.08,0.12,-1.00,2.56,2.93,1.95
23.0830,0.08,0.12,-0.99,2.50,3.23,1.89
23.0980,0.07,0.12,-0.99,2.62,3.42,2.01
23.1130,0.06,0.12,-1.00,2.87,3.60,1.95
23.1280,0.04,0.08,-1.00,2.50,3.85,1.71
23.1370,0.09,0.12,-0.99,1.83,3.72,3.23
23.1590,0.08,0.12,-0.99,3.66,3.30,2.01
23.1690,0.08,0.12,-0.99,3.91,3.60,1.04
23.1860,0.08,0.13,-0.99,3.60,3.60,0.98
23.2020,0.09,0.14,-0.98,3.91,3.17,1.34
23.2190,0.08,0.13,-1.00,3.97,3.36,2.01
23.2210,0.08,0.12,-0.99,3.05,3.17,2.01
23.2350,0.08,0.12,-0.99,3.42,3.17,2.01
23.2580,0.08,0.12,-0.99,4.09,3.23,2.01
23.2740,0.08,0.12,-0.99,4.27,3.30,2.14
23.2910,0.08,0.12,-0.99,3.48,3.85,1.71
23.3070,0.08,0.12,-0.99,3.66,3.78,0.92
23.3250,0.08,0.12,-0.99,3.91,3.78,0.73
23.3300,0.07,0.09,-1.01,3.97,3.42,0.73
23.3550,0.09,0.10,-0.98,3.05,4.09,-0.12
23.3690,0.07,0.10,-0.99,4.33,4.46,-2.87
23.3800,0.07,0.12,-0.99,4.58,4.58,-3.17
23.3960,0.07,0.13,-0.99,4.09,4.46,-3.17
23.4130,0.08,0.14,-0.99,3.97,3.97,-3.11
23.4290,0.08,0.14,-0.99,4.21,4.21,-1.53
23.4300,0.08,0.13,-0.99,3.42,4.09,-1.10
23.4610,0.07,0.12,-0.99,3.17,3.85,-1.95
23.4770,0.08,0.13,-0.99,3.11,4.09,-2.26
23.4800,0.08,0.13,-0.99,3.54,3.85,-0.79
23.5090,0.08,0.13,-0.99,4.03,3.66,-0.31
23.5210,0.08,0.12,-1.00,3.97,3.60,-0.92
23.5400,0.08,0.13,-0.99,3.78,3.17,-1.59
23.5470,0.08,0.12,-0.99,3.60,3.85,-1.28
23.5700,0.08,0.13,-0.99,3.66,4.03,-2.14
23.5800,0.07,0.13,-0.99,3.30,3.54,-2.08
23.5970,0.07,0.12,-0.99,3.30,4.21,-0.92
23.6130,0.08,0.11,-0.99,3.30,3.66,-1.22
23.6290,0.07,0.12,-0.99,3.17,3.72,-1.89
23.6440,0.07,0.11,-0.99,3.97,3.42,-1.04
23.6590,0.07,0.12,-0.99,3.97,3.91,-0.92
23.6700,0.08,0.10,-0.99,3.30,3.66,-1.28
23.6870,0.08,0.12,-0.99,3.48,4.21,-1.40
23.7040,0.07,0.12,-1.00,3.78,4.03,-2.26
23.7200,0.07,0.12,-0.99,3.30,4.15,-1.89
23.7350,0.08,0.13,-0.99,4.21,4.58,-2.62
23.7500,0.08,0.14,-0.99,3.91,4.21,-3.42
23.7650,0.08,0.15,-0.99,3.60,4.76,-2.20
23.7800,0.08,0.15,-0.98,3.48,4.21,-1.46
23.7870,0.08,0.14,-0.99,3.36,3.97,-0.73
23.8110,0.07,0.13,-0.99,3.17,3.78,-0.49
23.8260,0.08,0.14,-0.99,2.87,3.54,0.06
23.8370,0.07,0.12,-0.99,3.05,3.66,0.98
23.8530,0.07,0.10,-1.00,2.93,4.46,-1.28
23.8710,0.07,0.11,-1.00,3.42,4.39,-2.75
23.8870,0.07,0.11,-1.00,4.09,4.33,-2.32
23.8880,0.08,0.13,-0.99,3.23,4.09,-2.38
23.9170,0.08,0.14,-0.99,2.81,4.15,-0.85
23.9210,0.08,0.13,-0.99,3.23,3.23,-0.55
23.9470,0.08,0.14,-0.99,3.05,3.54,-0.49
23.9630,0.08,0.14,-0.99,2.50,3.36,0.49
23.9770,0.08,0.13,-0.99,2.50,3.66,1.46
23.9870,0.07,0.12,-0.99,2.44,3.54,1.95
24.0030,0.07,0.12,-0.99,2.56,3.66,2.14
24.0240,0.07,0.10,-0.99,2.32,3.78,2.20
24.0400,0.04,0.10,-1.00,2.75,3.91,3.42
24.0430,0.09,0.13,-0.98,1.59,3.66,3.66
24.0700,0.07,0.13,-1.00,2.69,3.54,2.99
24.0850,0.06,0.12,-0.99,2.20,3.48,3.72
24.0920,0.09,0.13,-0.99,2.50,3.17,3.78
24.1090,0.06,0.12,-0.99,2.62,3.23,3.05
24.1330,0.07,0.12,-1.00,2.32,3.05,4.27
24.1420,0.08,0.12,-0.99,2.32,3.17,4.33
24.1580,0.08,0.12,-0.99,2.93,3.05,3.48
24.1800,0.07,0.12,-0.99,3.23,3.17,2.99
24.1960,0.07,0.12,-1.00,2.50,3.60,3.11
24.2100,0.07,0.12,-0.99,2.32,3.48,3.17
24.2220,0.08,0.12,-0.99,2.81,3.91,2.38
24.2420,0.08,0.12,-0.99,3.54,3.66,0.79
24.2570,0.09,0.12,-0.99,3.42,3.66,0.67
24.2720,0.09,0.13,-0.99,3.78,3.05,1.40
24.2870,0.08,0.12,-1.00,3.30,3.36,2.08
24.2980,0.07,0.12,-0.99,2.87,3.91,1.95
24.3140,0.08,0.12,-1.00,2.93,3.78,1.71
24.3340,0.07,0.12,-0.99,2.44,4.03,0.61
24.3490,0.07,0.11,-1.00,3.30,3.91,0.98
24.3530,0.07,0.11,-1.00,4.46,3.91,-1.16
24.3790,0.07,0.12,-0.99,4.33,4.21,-2.20
24.3940,0.07,0.12,-0.99,4.76,3.48,-1.89
24.4030,0.07,0.11,-1.00,4.76,3.48,-2.44
24.4220,0.08,0.12,-0.99,4.21,3.97,-2.38
24.4370,0.07,0.14,-0.99,4.39,3.78,-1.89
24.4540,0.07,0.13,-1.00,4.09,3.85,-0.12
24.4700,0.08,0.12,-0.99,3.48,3.60,-0.12
24.4870,0.08,0.12,-1.00,3.60,3.54,-0.43
24.5030,0.07,0.11,-0.99,3.72,3.54,-1.46
24.5190,0.08,0.12,-1.00,3.85,3.78,-1.83
24.5230,0.08,0.13,-0.99,4.15,3.97,-1.83
24.5490,0.07,0.13,-0.99,3.78,3.66,-0.98
24.5640,0.08,0.12,-0.99,4.27,3.72,-0.79
24.5800,0.07,0.12,-0.99,4.70,4.39,-2.14
24.5950,0.07,0.14,-0.99,4.82,4.33,-2.38
24.6040,0.07,0.13,-0.99,4.03,3.78,-0.79
24.6230,0.07,0.12,-0.99,3.78,3.72,-0.12
24.6360,0.08,0.13,-0.99,4.27,3.36,0.37
24.6520,0.07,0.13,-0.99,3.78,3.72,0.12
24.6680,0.08,0.13,-0.99,3.42,3.30,-0.37
24.6860,0.08,0.12,-1.00,3.72,3.78,-0.31
24.6940,0.08,0.12,-0.99,3.66,3.85,-0.61
24.7100,0.07,0.13,-0.99,3.72,3.78,-0.85
24.7270,0.08,0.13,-0.99,3.42,4.09,-0.31
24.7440,0.08,0.13,-0.99,3.42,4.09,-0.12
24.7620,0.08,0.13,-0.99,3.17,3.72,-0.31
24.7770,0.08,0.12,-0.99,3.54,3.42,-0.18
24.7920,0.07,0.13,-0.99,3.60,3.30,-0.18
24.8080,0.08,0.12,-0.99,3.48,3.42,0.12
24.8230,0.07,0.13,-0.99,3.78,3.60,-0.73
24.8390,0.07,0.13,-0.99,3.42,3.48,-0.37
24.8490,0.08,0.12,-0.99,3.48,3.48,-0.31
24.8660,0.07,0.12,-0.99,3.72,3.66,-0.49
24.8830,0.07,0.12,-1.00,4.15,3.54,-0.18
24.9000,0.07,0.13,-0.99,3.54,3.23,-0.43
24.9160,0.08,0.14,-0.99,3.36,3.42,0.49
24.9320,0.08,0.13,-0.99,3.42,3.42,0.85
24.9470,0.08,0.12,-0.99,3.23,3.54,0.92
24.9550,0.07,0.12,-0.99,3.05,3.85,0.18
24.9770,0.07,0.11,-0.99,3.11,4.15,-0.37
24.9890,0.07,0.12,-0.99,2.99,3.66,-0.85
25.0050,0.07,0.12,-0.99,3.17,3.78,-1.71
25.0230,0.08,0.14,-0.99,3.42,3.91,-1.46
25.0300,0.08,0.14,-0.99,3.48,3.85,-0.43
25.0450,0.08,0.13,-0.99,3.36,3.85,0.49
25.0610,0.07,0.12,-0.99,2.87,3.78,-0.43
25.0820,0.07,0.13,-0.99,2.93,4.09,-0.49
25.0970,0.07,0.11,-1.00,3.11,3.91,-0.49
25.1130,0.07,0.12,-0.99,3.05,4.27,-1.71
25.1240,0.07,0.13,-0.99,3.11,3.91,-1.34
25.1440,0.08,0.14,-0.99,3.42,3.60,-0.98
25.1580,0.08,0.15,-0.99,3.48,3.72,0.18
25.1740,0.08,0.14,-0.99,3.05,3.72,1.10
25.1840,0.08,0.11,-0.99,2.56,3.66,1.34
25.2010,0.07,0.10,-0.99,3.48,3.91,-1.34
25.2180,0.07,0.10,-0.99,3.66,4.21,-2.14
25.2330,0.07,0.11,-0.99,4.09,4.27,-2.62
25.2490,0.07,0.13,-0.99,3.97,4.09,-2.75
25.2680,0.08,0.13,-0.99,4.33,3.91,-2.01
25.2820,0.08,0.15,-0.99,3.54,4.03,-1.40
25.2920,0.08,0.15,-0.99,3.42,3.54,0.37
25.3070,0.08,0.14,-0.99,3.05,3.78,1.46
25.3300,0.08,0.13,-0.99,2.20,3.36,1.71
25.3460,0.08,0.12,-0.99,2.08,3.72,1.89
25.3620,0.07,0.12,-0.99,2.50,4.03,1.59
25.3640,0.06,0.10,-1.01,3.42,3.97,-0.49
25.3940,0.08,0.11,-0.99,2.69,4.09,-0.61
25.3970,0.08,0.13,-0.99,3.78,3.72,-0.61
25.4240,0.08,0.13,-0.99,3.60,4.27,-1.34
25.4400,0.08,0.14,-0.99,3.42,3.78,-0.37
25.4550,0.08,0.15,-0.99,3.60,3.85,0.43
25.4700,0.07,0.13,-0.99,3.48,3.72,1.71
25.4800,0.08,0.13,-0.99,3.11,3.17,2.01
25.4960,0.07,0.12,-0.99,3.54,3.17,1.89
25.5120,0.07,0.13,-0.99,3.36,3.17,1.59
25.5310,0.07,0.12,-1.00,2.87,3.48,1.65
25.5460,0.07,0.12,-0.99,3.05,3.42,1.34
25.5500,0.07,0.11,-1.00,3.42,3.66,0.61
25.5790,0.07,0.12,-0.99,2.75,3.60,-0.24
25.5940,0.07,0.12,-0.99,3.60,3.23,-0.18
25.6110,0.07,0.13,-0.99,3.60,3.54,0.12
25.6250,0.07,0.13,-0.99,3.17,3.97,-0.06
25.6400,0.08,0.12,-0.99,3.05,4.09,0.79
25.6560,0.07,0.13,-0.99,2.62,3.78,0.18
25.6670,0.07,0.11,-0.99,2.14,3.91,0.37
25.6830,0.08,0.14,-0.99,2.99,3.17,2.01
25.7010,0.08,0.13,-0.99,3.30,2.56,1.83
25.7170,0.07,0.13,-0.99,3.36,3.54,1.89
25.7330,0.07,0.11,-1.00,2.81,3.60,1.89
25.7500,0.07,0.10,-1.00,3.11,3.17,1.59
25.7650,0.07,0.11,-1.00,2.75,3.30,0.00
25.7800,0.07,0.12,-1.00,3.30,3.60,0.31
25.7940,0.08,0.13,-0.99,3.54,3.85,0.61
25.8090,0.08,0.13,-0.99,3.30,3.48,0.49
25.8250,0.08,0.13,-0.99,3.36,3.97,-0.37
25.8370,0.08,0.13,-0.99,3.23,4.15,-0.85
25.8540,0.07,0.13,-0.99,3.72,3.85,-0.85
25.8700,0.07,0.13,-0.99,3.78,3.72,-0.49
25.8860,0.08,0.14,-0.99,3.48,3.60,0.00
25.9020,0.07,0.13,-0.99,3.78,3.17,1.95
25.9180,0.08,0.13,-0.99,2.93,3.30,1.28
25.9320,0.08,0.12,-0.99,2.93,3.42,1.34
25.9470,0.08,0.12,-0.99,3.42,3.78,1.16
25.9530,0.07,0.12,-0.99,4.27,3.30,0.18
25.9690,0.07,0.11,-0.99,4.33,3.72,-0.49
25.9910,0.07,0.12,-0.99,4.21,3.54,-1.46
26.0070,0.07,0.13,-0.99,4.03,3.85,-1.34
26.0220,0.08,0.14,-0.99,4.27,3.66,-0.61
26.0370,0.08,0.14,-0.99,3.78,3.66,-0.06
26.0420,0.08,0.12,-0.99,3.54,3.85,0.49
26.0700,0.07,0.13,-0.99,3.97,3.72,-0.43
26.0850,0.07,0.12,-0.99,3.60,3.60,-0.43
26.1010,0.07,0.12,-0.99,3.72,3.54,-0.18
26.1080,0.07,0.12,-0.99,3.48,3.66,-0.18
26.1260,0.08,0.12,-0.99,3.85,3.60,-0.85
26.1410,0.07,0.12,-1.00,4.09,3.66,-1.04
26.1610,0.08,0.13,-0.99,3.54,4.03,-1.71
26.1770,0.08,0.14,-0.99,3.42,4.21,-0.92
26.1940,0.07,0.12,-0.99,2.99,3.78,-0.43
26.2100,0.07,0.13,-0.99,3.05,3.60,-0.61
26.2250,0.08,0.14,-0.99,3.05,3.36,0.12
26.2270,0.08,0.13,-0.99,3.42,3.48,1.28
26.2570,0.08,0.12,-0.99,2.99,3.85,0.61
26.2710,0.08,0.12,-0.99,4.21,3.72,0.06
26.2870,0.08,0.11,-0.99,3.91,4.09,-1.22
26.2940,0.07,0.13,-0.99,4.09,3.97,-1.71
26.3120,0.07,0.13,-0.99,4.21,3.36,-1.04
26.3260,0.08,0.12,-0.99,4.09,3.54,-0.92
26.3440,0.07,0.12,-0.99,3.66,4.03,-2.81
26.3600,0.08,0.14,-0.99,4.09,3.66,-1.77
26.3790,0.07,0.13,-0.99,3.85,3.42,-0.73
26.3940,0.07,0.13,-0.99,3.54,3.17,-0.55
26.3970,0.08,0.13,-0.99,3.54,3.11,0.31
26.4250,0.08,0.12,-0.99,3.60,3.48,0.06
26.4400,0.08,0.12,-1.00,3.48,3.78,-1.95
26.4560,0.08,0.13,-0.99,4.21,3.97,-1.89
26.4710,0.07,0.13,-0.99,4.15,3.78,-1.89
26.4810,0.07,0.13,-0.99,3.91,4.09,-1.59
26.4980,0.08,0.12,-0.99,4.15,4.09,-2.20
26.5150,0.08,0.13,-0.99,3.78,4.21,-3.78
26.5310,0.08,0.14,-0.99,4.27,4.09,-2.75
26.5320,0.07,0.14,-0.99,4.21,3.85,-1.53
26.5630,0.07,0.14,-0.99,3.91,3.48,-0.79
26.5790,0.08,0.13,-1.00,3.85,3.78,-0.61
26.5820,0.07,0.13,-0.99,3.54,3.91,-0.61
26.6100,0.08,0.12,-0.99,3.42,3.66,-0.79
26.6150,0.07,0.13,-0.99,3.78,4.15,-1.65
26.6400,0.07,0.14,-0.99,3.60,3.85,-0.85
26.6490,0.08,0.13,-0.99,3.17,3.66,-0.24
26.6650,0.08,0.13,-0.99,3.78,4.03,-0.24
26.6810,0.08,0.13,-0.99,3.60,3.78,-0.67
26.6970,0.07,0.12,-0.99,3.54,4.03,-1.46
26.7140,0.08,0.13,-0.99,3.78,3.72,-2.01
26.7290,0.07,0.15,-0.99,4.03,3.60,-1.16
26.7460,0.08,0.13,-0.99,3.97,3.36,1.53
26.7610,0.08,0.13,-0.99,3.11,3.42,1.40
26.7650,0.08,0.12,-1.00,3.78,3.91,-0.24
26.7810,0.07,0.13,-0.99,3.78,3.78,-1.77
26.8040,0.07,0.13,-1.00,4.09,3.36,-1.46
26.8200,0.07,0.13,-0.99,3.91,3.54,-1.22
26.8370,0.08,0.13,-0.99,3.66,4.03,-1.28
26.8530,0.08,0.13,-1.00,4.15,3.66,-1.95
26.8680,0.07,0.13,-0.99,4.09,4.15,-2.01
26.8840,0.07,0.13,-0.99,3.78,3.42,-2.32
26.8990,0.07,0.13,-1.00,3.85,3.42,-2.08
26.9150,0.07,0.13,-0.99,3.54,3.54,-2.01
26.9290,0.07,0.14,-0.99,3.72,3.60,-1.65
26.9440,0.08,0.14,-0.99,3.60,3.72,-1.59
26.9590,0.08,0.13,-1.00,3.78,4.33,-1.04
26.9700,0.07,0.14,-0.99,3.97,3.66,-1.22
26.9870,0.08,0.15,-0.99,3.23,3.60,-0.79
27.0030,0.08,0.14,-0.99,3.48,3.48,0.49
27.0200,0.08,0.14,-0.99,3.05,3.48,0.92
27.0370,0.07,0.12,-0.99,2.93,3.54,0.92
27.0570,0.07,0.13,-0.99,2.93,4.15,0.67
27.0580,0.07,0.13,-0.99,3.36,3.54,0.31
27.0740,0.07,0.13,-0.99,3.60,3.91,-0.61
27.1010,0.08,0.13,-0.99,2.99,3.66,-1.34
27.1140,0.07,0.13,-0.99,3.30,4.09,-1.95
27.1300,0.08,0.13,-0.99,3.36,3.66,-1.77
27.1480,0.08,0.14,-0.99,3.42,3.78,-0.92
27.1620,0.08,0.14,-0.99,2.87,3.30,0.06
27.1720,0.08,0.14,-0.99,2.75,3.60,0.49
27.1930,0.08,0.13,-0.99,3.11,3.54,0.43
27.2090,0.08,0.13,-0.99,3.42,3.66,0.85
27.2240,0.08,0.13,-0.99,3.17,3.54,1.65
27.2400,0.07,0.13,-0.99,3.60,3.11,1.89
27.2560,0.07,0.12,-0.99,2.81,3.60,1.95
27.2720,0.08,0.13,-0.99,2.81,3.72,1.28
27.2790,0.08,0.13,-0.99,2.81,3.54,0.49
27.2950,0.07,0.13,-0.99,3.05,3.72,0.49
27.3180,0.08,0.14,-0.99,2.62,3.66,1.40
27.3330,0.07,0.12,-0.99,2.62,3.72,0.61
27.3490,0.07,0.13,-0.99,2.38,3.72,-0.06
27.3650,0.07,0.13,-0.99,3.11,3.72,-0.61
27.3800,0.07,0.13,-0.99,3.11,3.78,-0.49
27.3950,0.08,0.14,-0.99,3.85,3.66,0.37
27.4100,0.08,0.15,-0.99,3.42,3.48,1.10
27.4250,0.09,0.14,-0.99,2.87,3.42,1.89
27.4400,0.07,0.13,-0.99,3.17,3.78,1.95
27.4510,0.07,0.13,-0.99,2.62,4.03,1.71
27.4680,0.08,0.13,-0.99,3.17,3.91,1.22
27.4850,0.08,0.13,-0.99,3.54,3.72,0.79
27.5010,0.07,0.13,-0.99,3.36,3.48,-0.06
27.5160,0.07,0.13,-0.99,3.17,3.48,-0.37
27.5280,0.08,0.13,-0.99,3.48,3.91,-0.67
27.5420,0.08,0.13,-0.99,3.42,3.60,-0.61
27.5590,0.07,0.13,-0.99,3.66,3.60,-0.79
27.5760,0.07,0.14,-0.99,3.30,3.36,0.24
27.5930,0.08,0.13,-0.99,3.60,3.36,1.71
27.6090,0.08,0.11,-1.00,3.85,3.36,1.16
27.6100,0.08,0.12,-0.99,3.85,4.09,-0.92
27.6410,0.07,0.12,-0.99,4.03,3.85,-1.89
27.6430,0.07,0.13,-0.99,3.54,3.91,-1.53
27.6590,0.08,0.13,-0.99,4.21,3.23,-1.04
27.6870,0.07,0.13,-0.99,4.27,3.97,-1.46
27.6970,0.07,0.14,-0.99,3.97,3.85,-2.56
27.7140,0.07,0.14,-0.99,3.42,4.03,-1.95
27.7300,0.07,0.14,-0.99,3.36,3.30,-1.04
27.7470,0.08,0.14,-0.99,3.36,3.97,0.06
27.7630,0.08,0.13,-0.99,3.91,4.27,0.49
27.7790,0.07,0.13,-0.99,3.54,3.91,-0.31
27.7840,0.07,0.13,-0.99,3.85,3.85,-1.40
27.8090,0.07,0.14,-0.99,3.97,4.15,-1.77
27.8180,0.08,0.14,-0.99,3.36,3.85,-1.59
27.8340,0.08,0.14,-0.99,3.42,3.91,-0.37
27.8510,0.07,0.14,-0.99,3.30,3.60,0.31
27.8680,0.08,0.13,-0.99,2.87,3.42,1.46
27.8840,0.07,0.13,-0.99,3.05,3.42,1.59
27.9010,0.08,0.11,-0.99,2.99,3.60,1.22
27.9170,0.07,0.12,-0.99,2.81,3.72,0.18
27.9310,0.07,0.13,-0.99,3.60,3.78,-1.46
27.9470,0.08,0.14,-0.99,3.23,3.66,-0.73
27.9550,0.08,0.13,-0.99,3.60,3.91,0.31
27.9770,0.08,0.13,-0.99,3.23,4.15,-0.24
27.9880,0.08,0.15,-0.99,2.87,4.15,0.00
28.0040,0.07,0.13,-0.99,3.54,3.60,1.71
28.0200,0.08,0.12,-0.99,2.99,3.60,1.40
28.0380,0.08,0.13,-0.99,3.60,3.66,0.73
28.0530,0.08,0.12,-0.99,3.54,3.91,0.61
28.0690,0.08,0.12,-0.99,3.60,3.85,-1.77
28.0790,0.08,0.13,-0.99,3.42,4.21,-1.71
28.0960,0.07,0.12,-0.99,3.78,3.48,-2.08
28.1110,0.07,0.14,-0.99,2.75,4.03,-2.50
28.1300,0.08,0.14,-0.99,3.66,3.60,-0.85
28.1450,0.08,0.13,-0.99,2.93,3.66,-0.43
28.1620,0.08,0.13,-0.99,2.93,3.66,-0.06
28.1780,0.08,0.14,-0.99,3.05,3.72,0.43
28.1940,0.07,0.15,-0.99,3.11,3.72,1.89
28.2090,0.08,0.13,-0.99,3.30,3.60,2.08
28.2140,0.08,0.13,-0.99,3.36,3.66,2.01
28.2300,0.08,0.11,-0.98,2.87,3.48,2.14
28.2490,0.08,0.12,-1.00,3.42,3.48,0.49
28.2650,0.07,0.13,-0.99,3.72,3.54,0.31
28.2820,0.08,0.13,-0.99,3.48,3.66,0.67
28.2990,0.08,0.13,-0.99,3.36,3.66,-0.12
28.3150,0.07,0.13,-0.99,3.30,3.60,-1.10
28.3310,0.07,0.14,-0.99,2.69,3.66,-0.79
28.3490,0.08,0.14,-0.99,3.17,3.17,1.04
28.3530,0.08,0.14,-0.99,3.60,3.36,1.77
28.3800,0.08,0.13,-0.99,3.17,3.48,1.59
28.3960,0.08,0.13,-0.99,3.11,3.72,1.28
28.4110,0.07,0.12,-1.00,2.81,3.85,-0.67
28.4190,0.08,0.12,-0.99,2.69,4.21,-2.01
28.4420,0.07,0.13,-0.99,3.30,4.03,-1.83
28.4570,0.08,0.13,-0.99,2.93,3.72,-1.16
28.4690,0.07,0.14,-0.99,3.23,3.42,-0.73
28.4850,0.07,0.11,-0.99,3.54,3.17,-0.31
28.5030,0.08,0.14,-0.99,3.23,4.15,-1.89
28.5070,0.08,0.14,-0.99,4.46,3.85,-1.16
28.5360,0.08,0.15,-0.99,2.93,3.85,-1.16
28.5510,0.08,0.15,-0.99,2.87,4.21,0.12
28.5560,0.08,0.15,-0.99,2.69,3.42,1.59
28.5810,0.08,0.13,-0.99,2.56,3.36,1.83
28.5960,0.08,0.12,-0.99,3.42,3.66,1.71
28.6070,0.08,0.10,-0.99,3.60,3.72,0.73
28.6230,0.07,0.12,-0.99,3.17,4.09,-1.59
28.6430,0.07,0.13,-0.99,3.85,3.72,-2.01
28.6570,0.07,0.14,-0.99,3.66,3.72,-1.59
28.6720,0.08,0.14,-0.99,3.91,3.78,-0.79
28.6870,0.08,0.15,-0.99,3.54,3.66,0.85
28.7020,0.08,0.13,-0.99,3.05,3.48,2.14
28.7130,0.08,0.13,-0.99,2.87,3.23,2.01
28.7290,0.07,0.13,-0.99,2.87,3.48,2.08
28.7450,0.08,0.13,-0.99,2.93,3.66,1.65
28.7620,0.07,0.11,-1.00,3.36,3.23,1.22
28.7780,0.07,0.14,-0.99,3.23,3.30,0.61
28.7940,0.07,0.13,-0.99,4.27,3.42,0.85
28.8100,0.07,0.13,-1.00,4.21,3.36,1.40
28.8240,0.08,0.15,-0.99,3.36,3.36,2.38
28.8340,0.08,0.13,-0.99,3.78,3.23,2.14
28.8500,0.07,0.13,-0.99,3.05,3.48,2.50
28.8690,0.07,0.13,-0.98,2.62,3.17,2.38
28.8840,0.08,0.13,-0.99,2.56,3.23,2.01
28.9000,0.07,0.11,-1.00,2.75,3.48,0.92
28.9080,0.08,0.13,-0.99,3.17,4.27,-0.79
28.9290,0.08,0.14,-0.99,3.72,3.91,-0.43
28.9410,0.08,0.14,-0.99,3.91,3.48,-0.61
28.9580,0.08,0.14,-0.99,3.23,3.54,-0.73
28.9740,0.08,0.13,-0.99,3.54,3.91,0.37
28.9750,0.07,0.13,-0.99,3.66,3.66,0.43
28.9910,0.08,0.13,-0.99,3.48,3.72,0.37
29.0080,0.08,0.12,-0.99,3.72,3.11,-0.18
29.0290,0.08,0.13,-0.99,3.91,3.60,-0.92
29.0520,0.08,0.13,-0.99,3.48,3.36,-0.92
29.0580,0.07,0.14,-0.99,3.48,3.97,-0.67
29.0750,0.07,0.14,-0.99,2.87,2.99,0.73
29.0910,0.08,0.13,-0.99,3.17,2.93,1.65
29.1070,0.08,0.12,-0.99,3.23,3.42,1.65
29.1300,0.08,0.12,-0.99,3.30,3.66,1.22
29.1470,0.08,0.11,-0.98,3.66,3.11,0.98
29.1630,0.08,0.13,-0.99,3.23,3.66,-1.83
29.1790,0.08,0.12,-0.99,4.09,3.97,-3.11
29.1940,0.07,0.13,-0.99,3.66,4.15,-3.36
29.2000,0.08,0.14,-0.99,3.48,4.52,-3.42
29.2150,0.07,0.15,-0.98,3.30,3.85,-1.53
29.2390,0.08,0.15,-0.99,2.99,3.66,0.73
29.2540,0.08,0.12,-0.99,2.93,3.36,1.16
29.2650,0.07,0.14,-0.99,2.87,3.54,0.00
29.2820,0.08,0.12,-0.99,3.30,3.36,0.43
29.2990,0.07,0.13,-0.99,3.66,4.09,0.67
29.3150,0.07,0.13,-0.99,3.78,3.42,1.04
29.3300,0.07,0.14,-0.99,3.05,3.30,1.10
29.3450,0.08,0.13,-0.99,3.11,3.60,1.28
29.3480,0.08,0.13,-0.99,3.05,3.36,1.40
29.3770,0.08,0.11,-0.99,3.23,3.72,0.24
29.3910,0.07,0.12,-0.99,3.60,3.78,-1.53
29.4060,0.07,0.13,-0.99,3.36,3.91,-1.04
29.4210,0.07,0.14,-0.99,3.72,3.48,0.24
29.4320,0.08,0.14,-0.99,3.17,3.60,0.37
29.4480,0.07,0.13,-0.99,3.30,3.66,0.06
29.4650,0.08,0.14,-0.99,2.62,3.48,0.43
29.4810,0.07,0.14,-0.99,3.17,3.23,1.10
29.4970,0.07,0.12,-1.00,2.93,3.42,1.53
29.5050,0.07,0.13,-0.99,3.11,3.48,0.79
29.5270,0.07,0.13,-0.99,3.05,3.60,1.10
29.5380,0.08,0.14,-0.99,3.30,3.17,2.14
29.5550,0.07,0.12,-1.00,3.60,3.30,1.89
29.5710,0.07,0.13,-0.99,2.93,4.03,1.04
29.5890,0.07,0.13,-0.99,3.36,4.33,-0.67
29.6040,0.07,0.13,-0.99,3.42,4.03,-0.85
29.6110,0.08,0.14,-0.99,3.05,3.66,-0.18
29.6290,0.07,0.12,-0.99,2.81,3.85,1.10
29.6440,0.09,0.15,-0.98,2.62,3.48,0.61
29.6610,0.08,0.13,-0.99,3.72,3.48,0.55
29.6780,0.08,0.13,-0.99,3.48,3.91,-1.22
29.6970,0.08,0.14,-0.99,3.23,4.33,-0.43
29.7120,0.08,0.13,-0.99,3.23,3.23,0.67
29.7150,0.08,0.13,-0.99,2.93,3.36,1.04
29.7310,0.08,0.13,-0.99,2.81,4.03,1.04
29.7590,0.08,0.13,-0.99,3.48,3.48,1.04
29.7700,0.08,0.12,-0.99,3.36,3.72,0.73
29.7860,0.07,0.12,-0.99,3.85,3.78,-0.79
29.8060,0.08,0.13,-0.99,3.85,3.78,-1.53
29.8220,0.07,0.13,-0.99,4.21,4.27,-2.81
29.8300,0.07,0.14,-0.99,3.72,4.21,-2.75
29.8390,0.07,0.14,-0.99,3.78,4.15,-2.56
29.8670,0.08,0.14,-0.99,3.66,3.78,-0.85
29.8770,0.08,0.14,-0.99,3.48,3.72,-0.06
29.8930,0.08,0.14,-0.99,3.30,3.48,0.79
29.9120,0.07,0.13,-0.99,3.23,3.48,1.65
29.9300,0.08,0.11,-0.99,2.99,3.48,0.85
29.9440,0.08,0.12,-1.00,3.11,3.97,-0.92
29.9600,0.07,0.12,-0.99,3.42,4.15,-1.46
29.9760,0.07,0.14,-0.99,3.48,3.97,-2.01
29.9910,0.08,0.14,-0.99,3.36,3.66,-0.98
30.0010,0.07,0.13,-1.00,3.54,3.48,0.24
30.0180,0.07,0.14,-0.99,1.83,3.78,0.24
30.0350,0.08,0.15,-0.99,3.17,2.93,-0.06
30.0500,0.08,0.14,-0.99,3.23,3.42,1.34
30.0680,0.08,0.14,-0.99,2.93,3.60,1.83
30.0840,0.07,0.12,-1.00,2.62,3.78,1.28
30.0990,0.08,0.12,-0.99,2.32,4.27,0.37
30.1150,0.07,0.13,-0.99,2.75,3.60,-0.43
30.1310,0.08,0.13,-0.99,3.11,3.66,15.38
30.1450,0.08,0.13,-0.99,3.05,3.72,0.12
30.1520,0.08,0.13,-0.99,2.50,4.09,-0.61
30.1680,0.07,0.12,-0.99,3.11,3.72,-1.53
30.1910,0.07,0.13,-0.99,3.17,4.15,-1.83
30.2070,0.08,0.14,-0.99,3.30,3.54,0.18
30.2220,0.08,0.16,-0.99,3.54,3.36,1.34
30.2370,0.08,0.13,-0.99,3.11,3.17,1.83
30.2530,0.08,0.13,-0.99,2.93,3.17,1.77
30.2670,0.08,0.12,-0.99,2.81,3.42,1.46
30.2820,0.08,0.11,-1.00,3.66,3.42,0.24
30.2920,0.08,0.11,-0.99,3.66,3.48,-0.37
30.3070,0.07,0.11,-0.99,3.78,4.39,-2.26
30.3260,0.07,0.14,-0.99,3.48,3.85,-2.62
30.3410,0.08,0.15,-0.99,3.72,3.85,-1.59
30.3570,0.08,0.15,-0.99,4.03,3.36,0.31
30.3730,0.08,0.14,-0.99,3.48,3.17,2.20
30.3920,0.08,0.13,-0.99,3.23,3.23,2.01
30.4070,0.08,0.13,-0.99,2.26,3.48,1.89
30.4220,0.08,0.13,-0.99,2.62,3.23,2.01
30.4370,0.08,0.13,-0.99,4.09,3.30,2.01
30.4450,0.08,0.13,-0.99,3.97,3.42,1.71
30.4610,0.08,0.12,-1.00,2.69,3.78,1.10
30.4820,0.08,0.13,-0.98,2.93,3.17,1.04
30.4980,0.08,0.12,-1.00,3.66,3.48,-0.43
30.5130,0.07,0.13,-0.99,4.09,3.66,-0.49
30.5290,0.08,0.14,-0.99,3.72,3.60,0.55
30.5370,0.08,0.14,-0.99,3.48,3.36,1.28
30.5580,0.08,0.12,-1.00,2.99,3.42,0.92
30.5700,0.07,0.13,-0.99,2.99,3.85,-0.85
30.5860,0.08,0.14,-0.99,3.60,4.09,-0.06
30.6010,0.08,0.13,-0.99,4.15,3.36,1.04
30.6190,0.07,0.13,-0.99,3.48,3.85,0.67
30.6340,0.08,0.14,-0.99,2.99,3.72,0.85
30.6490,0.08,0.13,-0.99,3.54,3.36,1.89
30.6640,0.08,0.13,-0.99,3.48,3.17,1.95
30.6790,0.08,0.14,-0.99,3.48,3.11,1.95
30.6880,0.07,0.13,-0.99,3.05,3.60,1.95
30.7030,0.07,0.13,-0.99,2.75,3.42,2.01
30.7250,0.07,0.13,-0.99,3.23,3.23,2.50
30.7420,0.08,0.14,-1.00,3.54,3.23,2.14
30.7580,0.08,0.13,-0.99,3.23,3.36,2.01
30.7740,0.07,0.13,-0.99,2.87,3.23,1.83
30.7900,0.08,0.13,-0.99,2.62,3.54,1.53
30.7920,0.07,0.13,-0.99,3.05,3.42,1.89
30.8210,0.08,0.13,-0.99,2.87,3.30,1.77
30.8380,0.08,0.13,-0.99,3.05,3.05,1.89
30.8540,0.08,0.13,-0.99,3.36,3.11,1.77
30.8700,0.07,0.13,-0.99,2.87,3.48,0.98
30.8860,0.08,0.14,-0.99,3.23,3.36,1.28
30.8930,0.08,0.13,-0.99,3.05,3.42,1.89
30.9100,0.08,0.13,-0.99,2.93,3.30,1.89
30.9310,0.08,0.13,-0.99,2.87,3.36,2.01
30.9420,0.08,0.13,-0.99,2.56,3.54,1.89
30.9620,0.07,0.13,-0.99,2.20,3.97,1.77
30.9780,0.07,0.14,-0.99,2.50,3.60,2.08
30.9950,0.08,0.13,-0.99,3.60,3.23,3.05
31.0100,0.08,0.12,-0.99,3.11,3.78,3.48
31.0260,0.08,0.13,-0.99,3.48,3.72,3.23
31.0420,0.08,0.13,-0.99,3.23,3.30,2.32
31.0560,0.08,0.13,-0.99,2.93,3.42,1.83
31.0640,0.08,0.13,-1.00,2.44,3.60,1.89
31.0800,0.08,0.13,-0.99,1.28,3.54,1.89
31.1020,0.07,0.13,-1.00,0.55,3.30,1.59
31.1180,0.08,0.13,-0.99,0.98,3.23,1.77
31.1330,0.07,0.12,-0.99,0.67,3.17,1.65
31.1360,0.08,0.12,-1.00,1.53,3.23,1.83
31.1650,0.07,0.12,-0.99,3.36,3.42,2.01
31.1810,0.07,0.13,-0.99,3.60,3.17,1.95
31.1860,0.08,0.13,-0.99,3.23,3.42,2.01
31.2030,0.08,0.12,-0.99,3.05,3.60,1.89
31.2200,0.07,0.12,-0.99,3.05,3.17,2.20
31.2370,0.08,0.12,-0.99,3.91,3.11,2.14
31.2530,0.06,0.10,-1.00,3.05,3.11,4.52
31.2690,0.08,0.15,-0.99,3.78,2.93,3.78
31.2860,0.08,0.13,-0.99,3.91,3.42,2.14
31.3030,0.08,0.13,-0.99,2.99,3.36,2.14
31.3190,0.07,0.13,-0.99,3.11,3.23,2.01
31.3350,0.07,0.12,-0.99,3.54,3.11,2.01
31.3520,0.08,0.15,-0.99,4.15,2.81,1.95
31.3680,0.08,0.13,-0.99,4.09,3.05,2.08
31.3830,0.08,0.13,-0.99,3.60,3.66,2.08
31.3980,0.08,0.13,-0.99,3.30,3.30,2.08
31.4020,0.08,0.13,-0.99,3.23,3.54,1.95
31.4300,0.08,0.13,-0.99,2.75,3.60,2.08
31.4460,0.08,0.12,-0.99,2.56,4.09,1.89
31.4530,0.07,0.13,-0.99,3.23,3.66,2.20
31.4680,0.08,0.10,-0.99,0.98,3.05,2.93
31.4910,0.08,0.13,-0.99,4.21,2.87,3.91
31.4920,0.08,0.14,-0.99,3.66,2.99,2.81
31.5080,0.08,0.12,-0.99,2.20,3.17,2.32
31.5380,0.07,0.12,-0.99,3.85,3.11,2.62
31.5540,0.07,0.13,-0.99,3.91,3.17,2.32
31.5700,0.07,0.13,-0.99,3.48,2.93,2.32
31.5850,0.07,0.13,-0.99,3.23,3.23,2.20
31.6010,0.08,0.13,-0.99,3.11,2.99,2.01
31.6160,0.08,0.12,-1.00,2.75,3.42,2.01
31.6330,0.07,0.13,-0.99,2.32,3.36,3.11
31.6410,0.08,0.13,-0.99,3.60,3.23,2.20
31.6580,0.08,0.12,-0.99,2.75,3.11,2.75
31.6740,0.07,0.13,-0.99,1.95,3.60,2.87
31.6910,0.08,0.13,-0.99,3.11,3.36,1.95
31.7070,0.08,0.12,-0.99,3.48,3.30,2.01
31.7230,0.08,0.12,-0.99,3.11,2.99,2.32
31.7330,0.10,0.18,-1.00,1.10,3.48,4.33
31.7480,0.08,0.12,-0.97,2.75,2.93,2.38
31.7660,0.08,0.13,-0.99,3.97,2.87,1.83
31.7820,0.08,0.13,-0.99,3.66,2.75,1.89
31.7980,0.08,0.13,-0.99,3.60,2.75,1.83
31.8130,0.08,0.12,-0.99,3.11,2.81,1.83
31.8200,0.07,0.13,-0.99,3.66,2.99,1.89
31.8440,0.07,0.13,-0.99,2.99,2.69,1.95
31.8590,0.08,0.13,-1.00,2.81,2.14,1.71
31.8700,0.08,0.13,-0.99,2.87,2.14,1.83
31.8850,0.08,0.13,-0.99,2.56,2.50,1.83
31.9050,0.08,0.13,-0.99,2.75,2.69,1.77
31.9070,0.08,0.13,-0.99,2.81,2.93,1.89
31.9350,0.08,0.11,-0.99,2.75,2.93,1.83
31.9400,0.08,0.12,-0.99,2.93,2.81,1.95
31.9570,0.08,0.13,-0.99,3.72,2.75,2.01
31.9740,0.08,0.13,-0.99,3.48,3.05,1.95
31.9890,0.08,0.13,-0.99,3.54,2.81,1.89
32.0100,0.08,0.13,-0.99,3.36,2.69,1.89
32.0270,0.09,0.13,-0.99,3.60,2.26,2.87
32.0430,0.07,0.13,-1.00,2.93,2.01,3.66
32.0580,0.08,0.13,-0.99,2.87,2.81,2.44
32.0660,0.08,0.13,-1.00,3.11,2.87,2.69
32.0830,0.08,0.12,-1.00,3.05,3.05,2.32
32.0990,0.08,0.12,-0.99,3.23,3.17,2.01
32.1160,0.08,0.13,-0.99,3.66,3.30,2.08
32.1330,0.08,0.13,-0.99,3.72,3.30,2.08
32.1490,0.08,0.13,-0.99,3.60,3.42,2.14
32.1650,0.08,0.13,-0.99,3.11,4.52,2.14
32.1790,0.08,0.13,-0.99,2.99,4.27,2.08
32.1940,0.07,0.13,-0.99,2.93,4.52,2.20
32.2020,0.09,0.13,-0.99,2.87,4.09,2.01
32.2240,0.08,0.13,-0.99,2.87,4.39,2.08
32.2350,0.08,0.13,-0.99,2.08,4.64,2.20
32.2520,0.08,0.13,-0.99,1.77,4.39,2.14
32.2680,0.08,0.13,-0.99,2.38,3.78,2.32
32.2840,0.08,0.12,-0.99,2.44,3.97,2.50
32.2990,0.08,0.12,-0.99,2.69,3.48,2.56
32.3150,0.08,0.12,-0.99,3.11,3.60,2.14
32.3300,0.08,0.13,-0.99,3.11,3.54,2.01
32.3450,0.08,0.13,-0.99,2.87,3.48,1.89
32.3600,0.08,0.12,-0.99,2.75,3.36,1.83
32.3740,0.08,0.12,-0.99,2.81,3.60,1.95
32.3860,0.08,0.12,-0.99,2.99,3.85,2.08
32.4020,0.08,0.12,-0.99,3.11,3.91,2.14
32.4190,0.07,0.13,-1.00,4.21,4.09,2.14
32.4340,0.08,0.13,-1.00,3.48,3.17,2.14
32.4500,0.08,0.13,-0.99,3.30,3.23,1.95
32.4650,0.08,0.13,-0.99,3.36,3.23,1.95
32.4730,0.08,0.13,-0.99,2.81,2.87,1.89
32.4890,0.08,0.12,-0.99,2.93,3.60,1.95
32.5110,0.08,0.12,-0.99,2.93,3.17,1.95
32.5280,0.08,0.12,-0.99,2.93,3.23,1.83
32.5330,0.08,0.12,-1.00,3.05,3.23,2.08
32.5580,0.08,0.12,-0.99,2.56,3.54,2.56
32.5630,0.08,0.12,-0.99,2.81,3.42,2.32
32.5790,0.08,0.12,-0.99,2.87,3.66,2.50
32.5950,0.08,0.13,-0.99,3.17,3.23,2.44
32.6120,0.08,0.13,-0.99,3.17,3.54,2.38
32.6330,0.08,0.12,-0.99,2.87,3.42,2.32
32.6470,0.08,0.12,-0.99,2.69,3.36,2.14
32.6630,0.08,0.12,-0.99,3.11,3.05,2.38
32.6780,0.08,0.13,-0.99,2.99,3.30,2.26
32.6920,0.08,0.12,-0.99,3.42,3.48,2.20
32.6960,0.07,0.11,-1.00,3.42,3.30,2.50
32.7230,0.08,0.13,-0.99,2.87,2.93,3.05
32.7330,0.08,0.13,-0.99,2.99,3.42,2.38
32.7460,0.08,0.12,-0.99,2.81,3.42,2.08
32.7620,0.08,0.12,-0.99,3.17,3.48,2.01
32.7790,0.08,0.12,-0.99,3.36,2.99,2.01
32.7960,0.08,0.12,-0.99,3.42,3.11,2.01
32.8120,0.08,0.12,-1.00,2.93,3.36,2.50
32.8280,0.08,0.13,-0.99,3.42,3.42,2.50
32.8330,0.08,0.12,-0.99,2.93,3.54,2.01
32.8600,0.08,0.12,-0.99,2.93,3.54,1.83
32.8760,0.07,0.12,-0.99,3.48,3.60,2.14
32.8920,0.08,0.12,-0.99,3.60,3.17,2.14
32.9080,0.07,0.12,-0.99,2.87,3.42,2.50
32.9120,0.08,0.13,-0.99,2.93,3.30,2.38
32.9400,0.08,0.13,-0.99,2.81,3.48,2.08
32.9550,0.08,0.12,-0.99,2.75,3.17,1.95
32.9700,0.08,0.12,-0.99,3.54,3.36,2.01
32.9850,0.07,0.12,-0.99,3.36,3.17,2.08
32.9960,0.08,0.13,-0.99,3.23,3.30,2.26
33.0130,0.07,0.12,-1.00,3.36,2.99,2.32
33.0290,0.08,0.12,-0.99,2.99,2.69,2.87
33.0470,0.07,0.12,-0.99,3.11,2.99,2.81
33.0620,0.06,0.12,-0.99,2.75,3.48,3.36
33.0780,0.07,0.13,-0.99,3.11,3.42,3.97
33.0930,0.10,0.13,-0.99,2.81,2.93,3.85
33.1090,0.08,0.12,-0.99,2.81,3.11,3.17
33.1230,0.08,0.12,-0.99,3.05,3.48,2.87
33.1330,0.07,0.12,-0.99,2.20,3.78,2.75
33.1500,0.07,0.12,-0.99,2.81,3.17,2.62
33.1660,0.07,0.13,-0.99,2.93,3.23,2.87
33.1830,0.08,0.12,-1.00,3.23,2.99,2.50
33.1990,0.07,0.12,-0.99,3.36,3.11,2.01
33.2150,0.07,0.12,-0.99,2.81,3.66,2.26
33.2300,0.08,0.13,-0.99,2.93,3.17,2.50
33.2340,0.08,0.12,-1.00,3.17,3.60,2.38
33.2600,0.05,0.12,-0.99,2.93,3.30,3.05
33.2670,0.06,0.13,-0.99,2.87,3.66,3.91
33.2900,0.11,0.12,-1.00,2.93,2.93,3.11
33.3050,0.08,0.12,-0.99,2.93,3.23,1.89
33.3160,0.08,0.12,-1.00,2.93,3.54,2.01
33.3330,0.08,0.12,-0.99,2.62,2.93,2.08
33.3510,0.08,0.12,-1.00,2.93,3.23,2.01
33.3670,0.07,0.12,-0.99,2.93,3.36,2.26
33.3830,0.08,0.12,-1.00,3.36,3.78,2.56
33.3980,0.07,0.11,-0.99,2.81,3.48,2.56
33.4130,0.08,0.13,-0.99,4.15,3.54,2.81
33.4210,0.07,0.11,-0.99,2.75,3.23,2.50
33.4360,0.08,0.13,-0.99,2.38,3.42,2.56
33.4580,0.07,0.12,-1.00,3.42,3.42,2.38
33.4740,0.09,0.13,-0.99,2.75,3.85,2.62
33.4760,0.08,0.12,-0.99,2.56,3.66,2.08
33.5040,0.07,0.12,-0.99,2.81,3.17,2.50
33.5090,0.07,0.12,-0.99,3.36,3.11,2.69
33.5350,0.07,0.12,-1.00,3.54,3.48,2.44
33.5510,0.07,0.12,-0.99,4.03,3.17,2.56
33.5590,0.08,0.13,-0.99,3.54,3.48,2.56
33.5760,0.08,0.13,-0.99,3.36,3.30,2.50
33.5930,0.07,0.13,-0.99,3.11,3.36,2.38
33.6090,0.08,0.12,-0.99,2.62,2.99,2.69
33.6260,0.08,0.12,-0.99,2.50,2.87,2.26
33.6420,0.06,0.12,-0.99,3.11,3.60,2.44
33.6580,0.08,0.13,-0.99,3.11,3.11,2.38
33.6730,0.08,0.12,-0.99,3.05,3.48,2.44
33.6810,0.08,0.13,-0.99,3.36,3.36,2.26
33.7030,0.07,0.12,-0.99,2.87,3.78,2.01
33.7140,0.06,0.11,-0.99,2.56,3.66,2.14
33.7340,0.08,0.12,-0.99,2.56,3.60,2.26
33.7490,0.09,0.13,-1.00,3.05,3.30,2.14
33.7640,0.08,0.12,-0.99,2.81,3.23,2.08
33.7800,0.08,0.13,-0.99,3.30,3.17,1.89
33.7960,0.07,0.12,-0.99,2.50,3.23,1.95
33.8110,0.07,0.12,-0.99,2.62,3.91,2.75
33.8190,0.08,0.13,-1.00,3.36,3.11,2.50
33.8360,0.07,0.12,-1.00,3.30,3.05,2.75
33.8580,0.08,0.13,-0.99,2.93,3.30,2.69
33.8680,0.09,0.12,-0.99,3.11,2.99,2.50
33.8860,0.08,0.12,-0.99,3.30,3.48,2.14
33.9020,0.07,0.12,-1.00,3.11,3.48,1.95
33.9170,0.07,0.13,-0.99,3.23,3.42,2.50
33.9340,0.09,0.12,-0.99,2.99,3.48,2.44
33.9490,0.08,0.12,-1.00,3.30,3.42,2.38
33.9630,0.08,0.12,-0.99,3.05,3.78,2.20
33.9780,0.08,0.12,-0.99,2.81,3.36,1.89
33.9960,0.06,0.12,-0.99,3.11,3.48,2.14
34.0110,0.06,0.11,-0.99,3.05,3.60,1.95
34.0260,0.06,0.12,-0.99,3.48,3.66,1.71
34.0420,0.08,0.12,-0.99,3.85,3.48,1.71
34.0570,0.10,0.12,-0.98,2.99,3.17,1.28
34.0720,0.09,0.13,-0.99,3.23,3.60,1.71
34.0870,0.08,0.12,-0.99,2.69,3.42,2.01
34.0980,0.07,0.12,-0.99,2.62,3.11,1.95
34.1150,0.06,0.12,-1.00,2.75,3.23,3.17
34.1340,0.09,0.12,-1.00,3.05,3.23,2.75
34.1490,0.08,0.12,-0.99,3.30,3.54,1.89
34.1640,0.07,0.12,-0.99,3.36,3.30,1.95
34.1800,0.07,0.12,-0.99,3.42,3.54,2.26
34.1960,0.06,0.13,-0.99,3.66,3.36,2.56
34.2110,0.08,0.12,-0.99,2.62,3.54,2.62
34.2260,0.08,0.12,-0.99,2.56,3.30,2.50
34.2350,0.09,0.12,-0.99,2.75,3.48,2.26
34.2510,0.07,0.12,-0.99,2.81,3.66,2.01
34.2680,0.07,0.12,-0.99,2.62,3.17,1.83
34.2830,0.07,0.12,-0.99,2.69,3.48,1.95
34.3020,0.07,0.12,-0.99,2.75,3.30,2.44
34.3070,0.08,0.12,-0.99,2.56,3.36,2.38
34.3330,0.08,0.12,-0.99,2.44,3.48,2.93
34.3390,0.07,0.12,-0.99,2.32,3.48,2.69
34.3560,0.07,0.12,-0.99,2.62,3.48,2.81
34.3720,0.07,0.12,-0.99,2.81,3.23,2.93
34.3940,0.07,0.12,-1.00,3.42,3.11,2.81
34.4100,0.07,0.13,-0.99,3.36,3.05,2.50
34.4260,0.08,0.12,-0.99,3.30,3.36,2.01
34.4340,0.07,0.12,-0.99,3.54,3.60,1.34
34.4450,0.08,0.12,-1.00,3.91,3.23,1.22
34.4600,0.08,0.12,-0.99,3.54,2.99,1.59
34.4860,0.08,0.12,-0.99,3.91,3.42,1.95
34.5010,0.07,0.12,-1.00,3.60,3.48,1.77
34.5160,0.07,0.12,-0.99,2.87,3.54,1.77
34.5270,0.07,0.12,-0.99,3.48,3.36,1.95
34.5440,0.07,0.12,-0.99,3.48,3.42,1.89
34.5610,0.07,0.12,-0.99,3.11,3.66,1.65
34.5760,0.07,0.12,-0.99,3.05,3.72,1.95
34.5920,0.06,0.12,-1.00,3.30,3.30,1.95
34.6080,0.06,0.12,-0.99,3.30,3.23,1.83
34.6230,0.06,0.13,-1.00,4.39,3.72,0.49
34.6340,0.08,0.12,-0.99,3.66,3.05,0.98
34.6540,0.07,0.13,-1.00,4.27,3.36,1.34
34.6690,0.08,0.13,-0.99,3.36,4.03,1.04
34.6810,0.09,0.13,-0.99,3.23,3.54,1.65
34.6970,0.08,0.12,-0.99,2.93,3.78,1.71
34.7130,0.07,0.13,-1.00,3.17,3.11,1.77
34.7300,0.08,0.12,-0.99,3.17,3.30,1.77
34.7460,0.08,0.13,-1.00,3.36,3.60,1.95
34.7610,0.08,0.12,-0.99,2.62,3.36,2.14
34.7770,0.07,0.12,-0.99,2.75,3.66,2.14
34.7930,0.07,0.13,-1.00,2.87,3.72,2.32
34.8000,0.07,0.12,-0.99,2.87,3.72,2.87
34.8150,0.07,0.12,-0.99,3.36,3.42,2.69
34.8380,0.09,0.11,-0.99,3.48,3.11,1.65
34.8530,0.07,0.12,-0.99,3.11,3.36,1.89
34.8680,0.07,0.13,-0.99,2.75,3.85,2.08
34.8840,0.07,0.13,-0.99,2.20,3.66,2.14
34.8990,0.07,0.12,-0.99,2.56,3.60,2.50
34.9140,0.08,0.12,-0.99,2.81,3.48,2.50
34.9210,0.07,0.12,-1.00,2.99,3.30,2.14
34.9370,0.08,0.12,-0.99,2.81,3.60,2.26
34.9600,0.07,0.12,-0.99,2.81,3.42,2.14
34.9760,0.07,0.12,-1.00,2.87,3.66,2.20
34.9920,0.07,0.12,-0.99,2.93,4.03,2.38
35.0080,0.06,0.13,-1.00,4.58,3.91,1.16
35.0100,0.07,0.12,-1.00,4.03,3.78,0.55
35.0380,0.07,0.12,-0.99,3.72,3.54,0.98
35.0530,0.08,0.11,-0.99,3.78,3.48,0.61
35.0610,0.09,0.12,-1.00,3.97,3.48,0.85
35.0780,0.08,0.12,-0.99,3.11,3.30,1.46
35.0930,0.08,0.12,-0.99,2.93,3.30,2.01
35.1130,0.07,0.12,-0.99,3.54,3.30,2.01
35.1280,0.08,0.13,-0.99,3.36,3.54,2.08
35.1440,0.08,0.13,-0.99,2.81,3.36,1.95
35.1600,0.07,0.12,-0.99,2.50,3.66,1.95
35.1750,0.07,0.12,-0.99,3.05,3.60,2.08
35.1900,0.07,0.12,-0.99,3.05,3.54,2.14
35.2050,0.07,0.12,-0.99,3.05,3.72,1.89
35.2140,0.06,0.12,-0.99,3.11,3.60,2.08
35.2350,0.06,0.12,-0.99,2.81,4.21,2.87
35.2500,0.05,0.14,-0.99,3.97,3.72,1.95
35.2650,0.09,0.12,-1.00,3.66,3.66,0.85
35.2790,0.09,0.11,-0.99,3.66,3.30,1.71
35.2950,0.09,0.12,-0.99,3.30,3.54,2.01
35.3100,0.08,0.12,-0.99,3.05,3.17,2.08
35.3190,0.08,0.12,-0.99,2.93,3.54,1.95
35.3360,0.07,0.12,-1.00,2.93,3.11,1.83
35.3530,0.07,0.12,-0.99,2.93,3.17,1.95
35.3700,0.07,0.13,-0.99,2.81,3.05,2.01
35.3850,0.08,0.12,-0.99,2.99,3.36,2.01
35.4000,0.06,0.12,-0.99,2.99,3.72,2.20
35.4150,0.08,0.13,-1.00,3.66,3.23,2.20
35.4300,0.07,0.12,-0.99,3.36,3.05,1.95
35.4450,0.08,0.12,-0.99,2.87,3.42,2.14
35.4540,0.07,0.12,-0.99,3.05,3.36,2.44
35.4700,0.05,0.13,-1.00,4.70,3.30,2.14
35.4860,0.07,0.13,-0.99,3.97,3.60,0.61
35.5070,0.07,0.12,-0.99,3.48,3.48,0.79
35.5240,0.08,0.13,-1.00,3.91,3.54,1.22
35.5400,0.08,0.12,-0.99,2.69,3.72,1.34
35.5550,0.09,0.12,-0.99,2.81,3.66,1.95
35.5600,0.07,0.13,-0.99,3.17,3.36,1.95
35.5860,0.08,0.12,-0.99,3.54,3.42,1.77
35.5940,0.07,0.11,-0.99,3.23,3.48,1.28
35.6100,0.07,0.12,-0.99,3.78,3.72,0.98
35.6310,0.07,0.12,-0.99,3.66,3.66,1.10
35.6470,0.07,0.12,-0.99,2.99,3.54,0.24
35.6630,0.07,0.12,-0.99,3.17,3.66,0.43
35.6650,0.06,0.13,-1.00,3.48,3.54,0.79
35.6930,0.07,0.12,-0.99,2.56,3.97,0.73
35.7080,0.07,0.12,-0.99,2.87,3.91,0.37
35.7230,0.08,0.12,-0.99,3.36,3.85,-0.12
35.7380,0.07,0.12,-0.99,3.11,3.54,0.24
35.7480,0.09,0.13,-0.99,3.17,3.36,-0.31
35.7640,0.09,0.13,-0.99,2.26,3.60,1.65
35.7810,0.08,0.12,-0.99,2.26,3.60,1.95
35.7980,0.08,0.12,-0.99,2.14,3.48,2.08
35.7980,0.08,0.12,-0.99,2.50,3.66,1.89
35.8280,0.07,0.13,-0.99,2.69,3.54,1.83
35.8350,0.08,0.12,-0.99,3.23,3.23,1.77
35.8610,0.07,0.12,-1.00,3.60,2.75,1.89
35.8760,0.07,0.12,-0.99,3.30,2.87,2.08
35.8920,0.08,0.11,-0.99,3.54,3.23,2.01
35.9080,0.07,0.12,-0.99,2.93,3.66,2.01
35.9230,0.07,0.12,-0.99,3.05,3.17,2.01
35.9380,0.08,0.12,-0.99,3.17,3.54,1.89
35.9470,0.07,0.13,-0.99,3.42,3.78,1.71
35.9640,0.07,0.12,-0.99,3.54,3.60,1.77
35.9840,0.07,0.12,-0.99,3.78,2.87,1.83
35.9990,0.07,0.12,-0.99,3.66,3.23,1.65
36.0140,0.08,0.12,-0.99,3.23,3.42,1.59
36.0290,0.08,0.12,-1.00,2.93,4.21,1.04
36.0430,0.09,0.11,-0.99,2.62,3.54,1.22
36.0530,0.07,0.12,-0.99,3.30,3.36,2.01
36.0700,0.08,0.12,-0.99,3.23,3.42,1.04
36.0870,0.07,0.13,-0.99,2.99,3.42,1.22
36.1030,0.07,0.12,-0.99,2.81,3.97,1.40
36.1200,0.07,0.12,-0.99,3.42,3.36,0.92
36.1350,0.07,0.12,-0.99,3.36,3.48,0.55
36.1530,0.07,0.12,-1.00,3.17,3.48,0.55
36.1690,0.07,0.13,-0.99,2.75,3.66,1.46
36.1750,0.08,0.12,-0.99,2.87,3.30,1.34
36.1990,0.08,0.11,-0.99,3.42,2.99,1.28
36.2100,0.09,0.12,-0.99,3.72,3.11,1.22
36.2260,0.08,0.12,-0.99,3.42,3.36,1.46
36.2420,0.07,0.12,-0.99,3.11,3.36,1.71
36.2580,0.07,0.12,-0.99,2.93,3.60,1.34
36.2740,0.08,0.12,-0.99,3.48,3.48,1.40
36.2930,0.08,0.12,-0.99,3.42,3.42,1.89
36.3090,0.07,0.12,-0.99,3.11,3.42,1.77
36.3250,0.07,0.12,-0.99,3.30,3.17,1.71
36.3420,0.07,0.11,-0.99,3.05,3.54,1.59
36.3570,0.05,0.10,-0.99,3.42,3.85,0.24
36.3720,0.07,0.12,-0.99,4.09,3.60,0.31
36.3860,0.07,0.12,-0.99,3.97,3.36,1.10
36.3970,0.07,0.12,-1.00,3.97,3.48,1.77
36.4130,0.07,0.11,-1.00,4.21,3.23,1.46
36.4290,0.04,0.11,-0.99,4.46,4.46,0.43
36.4470,0.11,0.12,-0.98,3.91,2.93,0.06
36.4550,0.08,0.12,-0.99,4.09,3.48,-0.24
36.4710,0.09,0.13,-0.99,3.78,4.15,0.31
36.4920,0.08,0.13,-0.99,3.11,3.66,0.85
36.4940,0.07,0.13,-1.00,2.99,3.42,1.10
36.5110,0.07,0.12,-0.99,2.81,3.54,1.65
36.5370,0.07,0.12,-0.99,3.05,3.05,2.01
36.5440,0.07,0.12,-0.99,3.54,3.36,2.08
36.5600,0.07,0.12,-0.99,3.42,3.17,1.83
36.5760,0.08,0.13,-0.99,2.93,3.36,1.59
36.5970,0.06,0.13,-0.99,2.62,3.85,2.14
36.6120,0.08,0.12,-0.99,3.42,3.11,2.32
36.6270,0.07,0.12,-1.00,3.72,3.11,1.89
36.6420,0.07,0.12,-0.99,3.85,3.54,1.83
36.6500,0.09,0.12,-0.99,3.23,3.48,1.89
36.6650,0.07,0.13,-0.99,2.87,3.54,1.89
36.6880,0.08,0.12,-0.99,2.69,3.78,1.77
36.7040,0.07,0.12,-0.99,3.05,3.36,2.08
36.7200,0.07,0.12,-0.99,3.05,3.48,1.95
36.7350,0.07,0.12,-0.99,3.30,3.30,1.95
36.7440,0.07,0.12,-1.00,3.17,3.48,1.95
36.7610,0.07,0.12,-0.99,2.20,4.15,2.08
36.7780,0.06,0.12,-1.00,2.93,3.54,1.71
36.7930,0.08,0.12,-0.99,3.42,3.17,1.71
36.8110,0.07,0.12,-1.00,3.23,3.30,1.65
36.8270,0.08,0.12,-0.99,2.75,3.36,1.22
36.8350,0.09,0.12,-0.99,2.81,3.42,1.22
36.8500,0.08,0.12,-0.99,3.17,3.54,1.65
36.8670,0.08,0.12,-0.99,3.42,2.99,1.89
36.8840,0.06,0.16,-1.00,3.36,3.91,1.65
36.8990,0.06,0.13,-0.99,3.30,3.85,1.40
36.9150,0.07,0.12,-0.99,2.99,3.72,1.04
36.9230,0.08,0.12,-0.99,3.72,3.78,1.10
36.9410,0.08,0.12,-0.99,3.85,3.72,1.04
36.9560,0.09,0.12,-0.99,3.85,3.11,1.53
36.9720,0.08,0.13,-0.99,3.54,3.42,1.59
36.9930,0.07,0.12,-0.99,2.81,3.42,1.95
37.0080,0.07,0.12,-0.99,2.56,4.09,2.32
37.0120,0.07,0.12,-0.99,3.30,3.54,1.89
37.0350,0.07,0.13,-0.99,3.05,3.30,1.95
37.0540,0.07,0.12,-0.99,2.81,3.54,1.89
37.0690,0.07,0.12,-0.99,3.23,3.60,1.83
37.0840,0.07,0.12,-0.99,3.30,3.66,1.89
37.0950,0.07,0.12,-0.99,3.36,3.36,1.65
37.1110,0.07,0.12,-0.99,3.42,3.48,2.01
37.1270,0.07,0.12,-0.99,2.99,3.48,2.01
37.1460,0.07,0.12,-0.99,3.17,3.54,2.14
37.1630,0.06,0.12,-1.00,3.30,3.78,1.65
37.1790,0.08,0.12,-0.99,3.54,3.54,1.77
37.1810,0.07,0.12,-1.00,2.99,3.54,1.95
37.2090,0.07,0.11,-0.99,2.69,3.97,2.32
37.2240,0.09,0.14,-1.00,5.62,2.81,1.83
37.2400,0.09,0.12,-0.99,2.99,3.66,1.95
37.2550,0.08,0.13,-0.99,3.23,3.36,1.95
37.2650,0.07,0.12,-0.99,2.08,3.48,1.77
37.2820,0.07,0.12,-0.99,2.69,3.30,2.01
37.2980,0.07,0.12,-0.99,3.05,3.05,2.08
37.3130,0.08,0.12,-0.99,3.11,3.17,2.01
37.3290,0.07,0.12,-0.99,2.62,3.48,1.95
37.3370,0.07,0.12,-0.99,2.87,3.11,1.95
37.3530,0.06,0.13,-0.99,3.42,3.17,2.08
37.3690,0.07,0.12,-0.99,3.30,3.30,1.89
37.3890,0.08,0.12,-0.99,2.99,3.54,1.83
37.4050,0.07,0.12,-0.99,3.36,3.78,1.95
37.4210,0.08,0.12,-0.99,3.72,3.54,1.71
37.4370,0.08,0.12,-1.00,3.30,3.42,1.71
37.4410,0.08,0.12,-0.99,3.17,3.54,1.77
37.4670,0.08,0.12,-0.99,2.99,3.11,1.83
37.4830,0.08,0.12,-0.99,3.17,3.42,1.95
37.4980,0.07,0.12,-0.99,3.42,3.48,1.95
37.5080,0.07,0.13,-1.00,3.05,3.66,1.95
37.5240,0.07,0.12,-0.99,2.38,3.36,1.95
37.5440,0.05,0.13,-0.99,2.26,3.60,1.83
37.5600,0.05,0.13,-0.99,2.62,3.97,2.56
37.5770,0.08,0.12,-0.99,2.62,4.03,2.08
37.5790,0.08,0.12,-1.00,2.56,3.42,2.26
37.6090,0.08,0.12,-0.99,2.56,3.48,1.95
37.6250,0.08,0.12,-0.99,2.56,3.60,1.59
37.6400,0.07,0.12,-0.99,2.56,3.72,1.77
37.6560,0.08,0.11,-0.99,3.36,3.23,1.65
37.6710,0.07,0.12,-0.99,3.60,3.05,1.83
37.6860,0.08,0.12,-0.99,3.78,2.56,1.89
37.6960,0.07,0.13,-1.00,3.66,3.36,1.89
37.7120,0.07,0.12,-0.99,3.11,3.17,1.83
37.7320,0.08,0.12,-0.99,3.30,3.66,0.67
37.7480,0.08,0.12,-0.99,3.60,3.36,1.22
37.7630,0.06,0.13,-0.99,3.42,3.54,1.46
37.7780,0.07,0.12,-0.99,3.48,3.36,1.40
37.7930,0.07,0.13,-0.99,3.72,3.23,1.40
37.8080,0.06,0.13,-1.00,2.75,3.60,1.40
37.8230,0.04,0.11,-1.00,2.69,3.66,1.22
37.8360,0.10,0.11,-0.98,2.81,3.66,0.85
37.8500,0.09,0.12,-1.00,5.55,2.56,1.04
37.8680,0.06,0.11,-0.99,2.69,3.48,1.16
37.8840,0.08,0.13,-1.00,5.19,2.93,0.85
37.9000,0.08,0.12,-0.99,1.46,4.27,1.65
37.9160,0.09,0.13,-1.00,3.97,3.05,1.83
37.9310,0.08,0.12,-0.99,2.38,3.42,1.53
37.9360,0.09,0.12,-0.99,2.56,3.05,1.59
37.9620,0.07,0.12,-0.99,2.26,3.97,1.83
37.9770,0.07,0.12,-0.99,2.75,3.48,1.89
37.9920,0.07,0.12,-0.99,2.99,3.30,1.89
38.0070,0.07,0.12,-1.00,3.30,3.17,1.95
38.0180,0.07,0.12,-0.99,3.23,3.11,1.71
38.0360,0.07,0.13,-0.99,2.93,3.11,1.65
38.0520,0.07,0.12,-0.99,2.20,3.36,1.89
38.0680,0.05,0.13,-0.99,2.32,3.23,1.89
38.0680,0.09,0.11,-0.99,2.93,3.42,2.56
38.0980,0.06,0.13,-1.00,3.48,3.48,1.71
38.1080,0.07,0.12,-0.99,2.81,3.42,1.95
38.1240,0.07,0.12,-0.99,2.99,3.60,1.83
38.1400,0.08,0.12,-1.00,2.75,3.48,2.01
38.1590,0.07,0.12,-0.99,2.32,3.42,1.89
38.1750,0.06,0.14,-0.99,2.20,3.66,1.34
38.1910,0.08,0.11,-1.00,3.30,3.42,0.67
38.1960,0.07,0.12,-0.99,2.56,3.30,0.98
38.2220,0.07,0.12,-0.99,2.62,3.17,1.22
38.2370,0.07,0.12,-0.99,2.99,3.54,1.16
38.2520,0.07,0.12,-0.99,2.93,3.60,0.79
38.2630,0.08,0.11,-0.99,2.81,3.30,1.10
38.2810,0.08,0.11,-0.99,3.23,3.11,1.46
38.2970,0.08,0.12,-0.99,3.66,2.93,1.65
38.3120,0.07,0.12,-0.99,3.36,3.23,1.89
38.3140,0.07,0.12,-0.99,3.23,3.42,1.77
38.3370,0.07,0.12,-0.99,3.54,2.87,1.83
38.3520,0.07,0.12,-0.99,3.85,3.30,1.71
38.3690,0.07,0.12,-0.99,4.64,3.36,1.53
38.3850,0.08,0.12,-0.99,4.64,3.17,1.46
38.4040,0.08,0.12,-1.00,3.85,3.54,1.53
38.4060,0.07,0.12,-0.99,3.54,3.42,1.34
38.4350,0.07,0.12,-1.00,3.66,3.17,1.40
38.4400,0.05,0.12,-1.00,3.60,3.91,-1.10
38.4670,0.06,0.13,-0.99,4.27,3.97,-1.22
38.4730,0.07,0.12,-0.99,4.88,3.91,-1.22
38.4890,0.07,0.12,-0.99,4.70,3.48,-0.85
38.5130,0.07,0.13,-1.00,3.36,3.91,0.24
38.5280,0.01,0.11,-0.98,2.14,4.15,0.98
38.5430,0.09,0.12,-0.99,1.46,4.46,1.28
38.5570,0.05,0.12,-0.98,4.94,3.66,0.98
38.5640,0.09,0.13,-1.00,3.54,3.30,0.43
38.5880,0.11,0.13,-1.00,2.20,3.42,1.89
38.6030,0.10,0.14,-0.99,2.69,2.99,2.87
38.6140,0.11,0.12,-1.00,0.85,3.23,3.17
38.6300,0.09,0.12,-1.00,2.32,3.60,3.23
38.6490,0.08,0.11,-0.99,1.53,3.85,2.44
38.6650,0.07,0.12,-0.99,2.01,3.66,1.95
38.6810,0.08,0.13,-0.99,2.93,3.17,1.46
38.6960,0.07,0.13,-1.00,2.44,4.21,0.98
38.7050,0.08,0.12,-1.00,2.08,4.15,1.10
38.7200,0.08,0.12,-0.99,1.59,4.15,1.04
38.7420,0.07,0.12,-1.00,1.53,4.33,0.67
38.7580,0.07,0.11,-0.99,1.65,3.97,1.10
38.7750,0.07,0.11,-0.99,2.20,3.78,1.34
38.7910,0.07,0.12,-0.99,2.56,3.30,1.59
38.7920,0.07,0.12,-0.99,2.93,3.42,1.71
38.8230,0.07,0.11,-0.99,2.69,3.72,1.77
38.8360,0.07,0.11,-0.99,2.99,3.54,1.77
38.8560,0.07,0.11,-1.00,3.23,3.05,1.95
38.8710,0.07,0.12,-1.00,3.42,3.23,2.14
38.8860,0.07,0.11,-0.99,3.11,3.48,2.20
38.8930,0.07,0.12,-1.00,3.17,3.36,2.20
38.9100,0.07,0.11,-0.99,3.05,3.17,2.14
38.9250,0.07,0.12,-0.99,3.17,3.30,2.01
38.9460,0.07,0.12,-0.99,3.23,3.23,2.01
38.9610,0.08,0.12,-1.00,3.85,3.11,1.77
38.9760,0.07,0.12,-1.00,3.05,3.72,1.83
38.9920,0.07,0.12,-0.99,2.38,3.85,1.95
39.0070,0.07,0.11,-0.99,2.93,3.78,2.26
39.0220,0.06,0.12,-0.99,3.30,3.60,2.38
39.0370,0.07,0.11,-0.99,4.52,2.69,2.44
39.0500,0.07,0.12,-1.00,5.00,2.81,2.26
39.0670,0.07,0.12,-1.00,3.66,3.17,2.38
39.0840,0.07,0.12,-0.99,2.44,3.42,2.50
39.1000,0.06,0.12,-0.99,2.93,3.42,2.69
39.1170,0.07,0.12,-0.99,4.33,2.62,2.62
39.1320,0.07,0.12,-1.00,4.64,2.81,2.01
39.1490,0.07,0.12,-1.00,4.39,3.05,1.77
39.1640,0.10,0.12,-0.99,4.09,2.93,1.53
39.1780,0.09,0.12,-1.00,2.99,3.36,2.01
39.1940,0.04,0.11,-0.98,2.69,3.36,2.14
39.2020,0.09,0.13,-1.00,5.00,2.56,1.77
39.2180,0.08,0.12,-1.00,2.69,3.36,1.65
39.2400,0.08,0.12,-1.00,2.81,3.54,1.83
39.2580,0.07,0.12,-0.99,2.32,3.54,1.83
39.2740,0.07,0.12,-0.99,3.11,3.48,1.89
39.2750,0.07,0.12,-0.99,3.42,3.05,1.89
39.2910,0.07,0.12,-0.99,3.36,3.48,2.01
39.3190,0.07,0.12,-0.99,3.11,3.05,1.95
39.3340,0.07,0.12,-0.99,3.17,3.36,1.95
39.3490,0.07,0.12,-0.99,2.81,3.48,1.89
39.3570,0.04,0.13,-0.99,2.81,4.15,2.26
39.3730,0.07,0.12,-0.99,3.17,3.54,2.01
39.3940,0.05,0.12,-0.99,3.72,3.36,1.28
39.4100,0.08,0.12,-0.99,3.97,3.17,1.34
39.4260,0.04,0.12,-0.98,3.78,2.87,1.65
39.4410,0.09,0.12,-1.00,4.46,2.87,1.59
39.4560,0.08,0.10,-0.98,3.17,3.85,0.55
39.4630,0.11,0.14,-0.99,5.31,2.62,0.73
39.4860,0.09,0.13,-0.99,4.76,2.99,1.16
39.4960,0.07,0.12,-1.00,2.20,3.48,1.83
39.5120,0.07,0.12,-1.00,1.59,3.54,1.77
39.5310,0.07,0.11,-0.99,2.01,3.78,1.83
39.5460,0.07,0.12,-0.99,3.11,2.87,1.83
39.5610,0.07,0.12,-0.99,2.99,2.87,1.95
39.5760,0.08,0.12,-0.99,2.56,3.30,1.77
39.5830,0.07,0.12,-0.99,3.30,3.42,1.83
39.5990,0.07,0.12,-0.99,2.75,3.23,1.95
39.6220,0.07,0.12,-0.99,2.75,3.30,1.95
39.6390,0.07,0.12,-0.99,2.93,2.93,2.01
39.6400,0.06,0.13,-0.99,3.42,3.23,1.65
39.6560,0.07,0.12,-0.99,3.54,3.23,1.83
39.6720,0.07,0.12,-0.99,3.78,2.99,2.08
39.6890,0.08,0.12,-1.00,3.97,3.23,1.59
39.7060,0.08,0.12,-0.99,3.30,3.36,1.65
39.7230,0.07,0.11,-0.99,2.93,3.72,1.89
39.7460,0.07,0.12,-0.99,3.30,3.36,1.89
39.7550,0.07,0.12,-0.99,4.15,3.30,2.08
39.7730,0.07,0.12,-1.00,4.46,3.30,1.89
39.7890,0.07,0.12,-0.99,3.97,3.66,1.53
39.8080,0.05,0.12,-0.99,3.60,3.48,1.83
39.8110,0.10,0.12,-0.99,4.33,3.05,2.01
39.8390,0.09,0.12,-1.00,3.48,3.23,2.08
39.8550,0.07,0.13,-0.99,3.11,3.42,2.20
39.8610,0.07,0.12,-0.99,2.26,3.17,2.50
39.8760,0.07,0.12,-0.99,2.75,3.36,2.99
39.9030,0.06,0.12,-0.99,2.56,3.36,2.69
39.9180,0.06,0.12,-1.00,3.23,3.11,2.87
39.9270,0.05,0.12,-0.99,2.44,3.91,2.75
39.9430,0.09,0.12,-0.99,3.85,2.81,2.01
39.9600,0.05,0.12,-0.98,2.87,3.30,0.98
39.9770,0.09,0.12,-1.00,3.72,2.99,0.67
39.9940,0.10,0.11,-0.99,2.56,4.03,0.98
40.0090,0.10,0.12,-0.99,4.03,2.87,1.40
40.0250,0.09,0.12,-0.99,2.87,3.42,1.65
40.0370,0.08,0.12,-0.99,2.99,3.54,1.89
40.0420,0.07,0.12,-0.99,2.75,3.66,2.01
40.0710,0.07,0.12,-0.99,3.60,3.54,1.89
40.0820,0.07,0.12,-0.99,3.54,3.48,2.01
40.0980,0.07,0.12,-0.99,3.54,3.23,1.40
40.1150,0.07,0.12,-0.99,4.21,2.87,1.53
40.1310,0.07,0.12,-0.99,4.39,3.05,1.46
40.1370,0.07,0.12,-0.99,4.46,3.17,1.46
40.1620,0.07,0.12,-0.99,3.97,3.60,0.37
40.1770,0.07,0.12,-1.00,4.76,3.60,-0.24
40.1940,0.06,0.12,-0.99,3.97,3.66,-0.55
40.2090,0.08,0.13,-0.99,3.97,3.48,0.12
40.2250,0.07,0.13,-0.99,3.23,3.23,1.95
40.2400,0.07,0.12,-0.99,3.54,3.66,2.08
40.2510,0.07,0.13,-1.00,2.87,3.66,2.14
40.2660,0.07,0.12,-0.99,2.50,3.60,2.50
40.2850,0.06,0.12,-0.99,2.81,3.54,2.93
40.2910,0.08,0.12,-0.99,3.05,3.17,3.66
40.3160,0.06,0.13,-1.00,2.38,3.11,2.81
40.3320,0.07,0.13,-0.99,2.81,3.30,2.56
40.3410,0.05,0.12,-1.01,2.81,3.36,2.44
40.3570,0.08,0.11,-0.99,2.93,3.97,2.44
40.3780,0.08,0.13,-1.00,3.85,3.36,1.95
40.3940,0.06,0.12,-0.99,2.69,2.81,2.08
40.4070,0.10,0.12,-1.00,3.60,2.75,2.14
40.4260,0.07,0.12,-0.99,2.81,3.54,1.40
40.4380,0.09,0.13,-0.99,3.42,3.60,0.98
40.4450,0.09,0.12,-1.00,1.95,3.60,1.40
40.4680,0.07,0.12,-0.99,1.89,3.72,1.89
40.4850,0.07,0.12,-0.99,1.89,3.72,1.89
40.5010,0.07,0.12,-0.99,3.42,3.36,1.95
40.5180,0.07,0.12,-0.99,4.27,2.93,1.89
40.5340,0.07,0.12,-0.99,3.42,3.30,1.89
40.5490,0.07,0.12,-0.99,3.72,3.36,1.83
40.5640,0.07,0.12,-0.99,4.52,3.48,1.71
40.5790,0.07,0.12,-0.99,4.58,3.54,1.71
40.5940,0.06,0.12,-1.00,4.21,3.11,1.53
40.6020,0.05,0.12,-1.00,4.27,3.72,0.61
40.6180,0.07,0.13,-0.99,4.58,3.78,-0.31
40.6410,0.05,0.11,-1.00,3.97,3.36,0.55
40.6510,0.03,0.11,-0.99,3.36,4.33,0.43
40.6680,0.09,0.12,-0.99,3.48,3.72,0.12
40.6860,0.05,0.11,-0.98,4.39,3.78,-1.04
40.7010,0.11,0.14,-0.99,2.38,3.42,-0.55
40.7180,0.05,0.13,-0.98,3.17,3.11,2.14
40.7340,0.09,0.14,-0.99,2.26,2.93,2.69
40.7500,0.08,0.12,-0.98,1.89,2.56,4.21
40.7660,0.07,0.13,-0.99,2.38,2.81,3.66
40.7820,0.08,0.13,-0.99,2.75,2.87,3.17
40.7970,0.09,0.10,-0.99,2.50,3.17,2.62
40.8120,0.07,0.12,-0.99,3.05,3.36,1.83
40.8270,0.07,0.12,-0.99,2.87,3.48,1.89
40.8380,0.07,0.12,-0.99,2.01,3.72,1.89
40.8600,0.07,0.12,-0.99,2.56,3.66,1.53
40.8750,0.08,0.11,-0.99,2.32,3.78,1.53
40.8850,0.07,0.13,-0.99,2.14,3.60,1.65
40.9010,0.07,0.12,-0.99,2.20,3.78,1.46
40.9210,0.07,0.13,-0.99,3.05,3.11,2.20
40.9370,0.06,0.14,-0.99,2.56,3.48,2.32
40.9530,0.07,0.12,-0.99,2.50,3.78,1.95
40.9570,0.07,0.12,-0.99,2.20,3.60,2.32
40.9840,0.07,0.11,-0.99,3.36,3.23,2.75
40.9990,0.08,0.11,-1.00,3.72,2.93,2.62
41.0140,0.06,0.12,-1.00,4.09,2.99,2.20
41.0240,0.09,0.11,-0.99,3.66,2.99,2.26
41.0410,0.07,0.12,-0.99,3.42,3.17,1.95
41.0570,0.07,0.12,-0.99,2.99,3.66,1.65
41.0720,0.07,0.11,-0.99,2.93,3.54,1.59
41.0830,0.07,0.12,-1.00,4.21,3.36,1.53
41.1000,0.08,0.12,-1.00,4.46,3.23,0.67
41.1160,0.07,0.12,-0.99,4.15,3.48,0.92
41.1330,0.04,0.13,-1.00,4.64,3.36,1.28
41.1490,0.03,0.11,-0.98,4.39,3.72,1.22
41.1660,0.08,0.13,-1.00,5.86,2.75,1.04
41.1680,0.09,0.12,-1.00,4.64,3.30,1.04
41.1960,0.07,0.12,-0.99,3.17,3.91,1.40
41.2120,0.10,0.13,-0.99,4.33,3.36,1.46
41.2170,0.08,0.13,-0.99,3.36,3.42,1.71
41.2440,0.07,0.12,-0.99,1.95,4.09,2.08
41.2590,0.07,0.12,-0.99,2.50,3.85,2.08
41.2750,0.07,0.12,-0.99,3.36,3.60,2.26
41.2830,0.07,0.12,-1.00,3.78,3.48,2.01
41.3050,0.06,0.12,-0.99,3.85,3.78,1.77
41.3170,0.06,0.12,-0.99,3.60,4.03,1.71
41.3330,0.07,0.12,-0.99,3.72,3.78,1.53
41.3490,0.07,0.13,-0.99,3.66,3.60,1.65
41.3670,0.07,0.12,-0.99,3.17,3.60,1.71
41.3820,0.07,0.13,-0.99,3.85,3.72,1.59
41.3980,0.08,0.12,-0.99,2.26,3.48,1.77
41.4030,0.07,0.12,-1.00,4.03,3.72,1.89
41.4180,0.07,0.12,-0.99,3.97,3.11,1.40
41.4400,0.08,0.13,-0.99,3.48,3.23,1.53
41.4560,0.07,0.12,-0.99,2.08,3.36,2.01
41.4720,0.07,0.12,-0.99,2.69,3.17,1.95
41.4880,0.07,0.12,-0.99,3.23,3.48,2.01
41.5040,0.07,0.12,-0.99,3.30,2.99,1.95
41.5070,0.07,0.12,-0.99,3.36,3.05,2.01
41.5360,0.05,0.13,-1.00,3.17,3.23,2.44
41.5400,0.08,0.13,-1.00,3.42,2.99,3.05
41.5550,0.06,0.12,-1.00,3.66,3.05,2.75
41.5810,0.04,0.12,-1.01,4.15,3.17,1.95
41.5900,0.07,0.12,-0.99,3.11,4.03,2.20
41.6070,0.04,0.13,-0.99,4.46,3.23,2.01
41.6230,0.11,0.12,-0.99,2.44,3.85,1.28
41.6400,0.06,0.13,-0.97,4.39,3.36,1.22
41.6560,0.10,0.14,-1.00,2.62,2.93,1.28
41.6720,0.05,0.14,-0.98,2.32,3.54,2.93
41.6870,0.11,0.12,-0.99,1.77,3.11,2.44
41.6970,0.08,0.13,-1.00,2.50,3.60,2.14
41.7140,0.08,0.12,-0.99,2.01,3.48,2.14
41.7300,0.08,0.12,-0.99,2.75,3.42,2.26
41.7460,0.08,0.11,-0.99,2.87,3.60,2.26
41.7640,0.07,0.13,-0.99,3.72,3.54,2.20
41.7790,0.07,0.12,-0.99,2.81,3.42,1.95
41.7840,0.07,0.12,-0.99,2.81,3.17,1.83
41.7990,0.07,0.13,-0.99,3.17,2.81,1.83
41.8250,0.07,0.13,-0.99,3.17,3.78,1.16
41.8390,0.08,0.11,-0.99,3.17,3.17,1.10
41.8530,0.07,0.12,-0.99,3.66,3.42,1.53
41.8710,0.08,0.12,-0.99,3.97,3.54,1.22
41.8870,0.07,0.12,-0.99,4.03,2.99,1.22
41.9020,0.07,0.12,-0.99,4.09,3.54,0.85
41.9070,0.05,0.13,-1.01,3.11,3.54,1.04
41.9340,0.06,0.11,-0.99,2.93,4.27,0.98
41.9410,0.06,0.11,-1.00,5.68,3.72,1.34
41.9580,0.08,0.13,-0.99,3.72,4.27,1.83
41.9750,0.07,0.14,-1.00,5.00,3.23,1.28
41.9910,0.06,0.14,-0.99,2.08,4.15,2.08
42.0070,0.11,0.15,-1.00,2.81,3.42,2.26
42.0250,0.08,0.12,-0.99,1.83,3.36,2.62
42.0420,0.08,0.12,-0.99,1.95,3.48,2.44
42.0570,0.07,0.12,-0.99,1.89,3.85,2.44
42.0720,0.07,0.12,-0.99,2.38,3.36,2.38
42.0870,0.07,0.12,-0.99,3.05,3.23,1.83
42.1030,0.07,0.12,-0.99,3.23,2.87,1.71
42.1180,0.07,0.12,-0.99,3.17,2.87,1.89
42.1270,0.07,0.12,-0.99,2.75,3.54,2.08
42.1440,0.07,0.12,-0.99,2.44,3.54,1.83
42.1610,0.07,0.12,-1.00,3.17,3.54,1.40
42.1770,0.07,0.12,-0.99,2.75,3.42,1.95
42.1770,0.07,0.12,-1.00,4.33,3.54,1.71
42.2080,0.07,0.12,-1.00,3.54,3.54,1.65
42.2230,0.04,0.12,-0.99,3.11,3.54,1.77
42.2330,0.04,0.12,-0.99,3.11,3.17,1.83
42.2500,0.06,0.13,-1.00,4.33,3.30,1.71
42.2670,0.06,0.12,-0.99,4.39,3.97,1.28
42.2830,0.07,0.13,-1.00,4.33,2.93,1.95
42.2840,0.11,0.12,-1.00,3.36,3.78,3.17
42.3150,0.08,0.12,-0.98,3.30,3.11,2.01
42.3170,0.10,0.13,-1.00,2.08,3.17,2.01
42.3450,0.08,0.13,-1.00,2.62,3.60,2.01
42.3600,0.07,0.12,-0.99,1.77,4.15,1.95
42.3670,0.07,0.12,-0.99,2.50,3.85,1.89
42.3920,0.07,0.12,-1.00,2.62,3.23,1.95
42.4070,0.07,0.12,-0.99,2.99,3.36,2.08
42.4160,0.07,0.12,-0.99,2.99,3.11,2.01
42.4330,0.07,0.12,-0.99,3.48,3.11,1.95
42.4540,0.07,0.12,-0.99,3.91,3.48,1.95
42.4700,0.07,0.12,-0.99,3.66,3.54,1.95
42.4850,0.07,0.12,-0.99,3.42,3.54,1.89
42.5000,0.07,0.12,-0.99,4.03,3.66,2.08
42.5150,0.07,0.13,-0.99,4.33,3.30,2.01
42.5300,0.07,0.12,-0.99,4.15,3.54,2.01
42.5450,0.08,0.13,-1.00,4.21,3.23,2.14
42.5600,0.07,0.12,-0.99,3.36,3.72,1.89
42.5710,0.07,0.12,-0.99,3.23,3.85,1.59
42.5870,0.07,0.13,-0.99,3.30,3.66,1.71
42.6030,0.07,0.12,-0.99,3.23,3.42,2.08
42.6210,0.07,0.12,-0.99,3.48,3.42,1.89
42.6360,0.07,0.12,-0.99,2.87,3.42,1.77
42.6520,0.07,0.12,-0.99,2.75,3.48,2.08
42.6610,0.07,0.12,-0.99,2.56,3.54,1.83
42.6770,0.07,0.12,-0.99,2.14,3.54,2.01
42.6970,0.07,0.12,-0.99,2.20,3.91,1.71
42.7120,0.07,0.13,-0.99,3.36,3.36,1.83
42.7270,0.07,0.12,-0.99,2.75,3.30,1.77
42.7430,0.07,0.12,-1.00,2.93,3.42,1.95
42.7590,0.07,0.13,-0.99,1.95,3.42,1.77
42.7740,0.08,0.12,-0.99,1.53,3.66,1.83
42.7900,0.07,0.11,-0.98,2.14,3.66,1.95
42.7990,0.07,0.13,-0.99,3.30,3.23,2.01
42.8150,0.07,0.12,-0.99,2.81,3.17,1.89
42.8360,0.07,0.12,-0.99,3.72,2.69,1.77
42.8410,0.07,0.12,-0.99,3.23,3.11,1.83
42.8560,0.07,0.12,-0.99,2.99,2.87,1.95
42.8720,0.07,0.12,-0.99,2.69,3.48,1.95
42.8870,0.07,0.13,-1.00,3.78,2.99,1.95
42.9120,0.07,0.12,-0.99,3.30,2.44,1.77
42.9280,0.07,0.12,-0.99,3.11,2.75,1.89
42.9430,0.07,0.12,-0.99,3.30,2.56,1.95
42.9590,0.08,0.13,-0.99,3.36,2.01,1.71
42.9740,0.08,0.12,-0.99,2.75,1.83,1.65
42.9900,0.07,0.12,-0.99,3.60,1.16,1.46
43.0050,0.07,0.12,-1.00,3.36,1.22,1.40
43.0120,0.08,0.12,-0.99,2.93,1.83,1.53
43.0370,0.07,0.13,-0.98,3.54,1.77,1.59
43.0520,0.08,0.12,-0.99,3.36,2.44,1.65
43.0670,0.07,0.12,-0.99,3.85,2.93,1.65
43.0790,0.08,0.12,-1.00,3.85,3.36,1.89
43.0950,0.08,0.12,-0.99,3.48,3.54,2.01
43.1130,0.08,0.12,-1.00,2.93,4.03,1.95
43.1270,0.08,0.13,-0.99,2.75,4.27,1.83
43.1420,0.08,0.12,-0.99,2.62,4.82,2.08
43.1520,0.07,0.12,-0.99,2.56,4.94,2.08
43.1690,0.08,0.12,-0.99,2.08,5.43,2.20
43.1850,0.07,0.12,-0.99,2.32,4.88,2.14
43.2020,0.08,0.12,-0.99,2.38,5.07,2.26
43.2170,0.08,0.12,-1.00,2.08,4.82,2.20
43.2320,0.07,0.11,-0.98,1.04,5.19,2.14
43.2480,0.07,0.13,-1.00,2.08,4.52,2.01
43.2530,0.07,0.11,-0.98,1.65,4.52,2.01
43.2720,0.07,0.11,-0.99,2.14,4.27,2.08
43.2850,0.07,0.12,-0.99,2.75,4.09,2.01
43.3030,0.06,0.13,-1.01,3.72,3.66,1.83
43.3190,0.08,0.12,-1.00,2.56,3.30,1.77
43.3360,0.07,0.12,-0.99,2.50,3.54,1.89
43.3530,0.07,0.12,-0.99,2.56,3.72,1.77
43.3670,0.07,0.12,-0.99,2.87,3.42,2.01
43.3830,0.07,0.12,-0.99,2.93,3.60,1.71
43.3980,0.07,0.12,-0.99,2.81,3.66,2.08
43.4130,0.07,0.12,-0.99,3.30,3.60,2.01
43.4280,0.07,0.12,-1.00,3.48,3.23,2.14
43.4420,0.07,0.12,-0.99,3.05,3.54,2.01
43.4530,0.07,0.12,-0.99,2.81,3.36,1.83
43.4680,0.07,0.12,-0.99,2.75,3.54,1.83
43.4880,0.07,0.12,-0.99,3.11,3.60,2.01
43.4930,0.07,0.12,-0.99,3.30,3.85,1.95
43.5190,0.07,0.12,-1.00,3.48,3.72,1.95
43.5270,0.07,0.12,-1.00,3.48,3.97,1.83
43.5450,0.07,0.12,-0.99,3.17,3.60,1.95
43.5600,0.07,0.12,-0.99,3.48,3.30,2.01
43.5790,0.07,0.12,-0.99,3.23,3.60,1.89
43.5810,0.07,0.12,-0.99,3.60,3.48,2.01
43.6100,0.07,0.12,-0.99,3.11,3.78,1.95
43.6150,0.07,0.12,-0.99,3.60,3.54,1.89
43.6410,0.07,0.12,-0.99,3.30,3.42,1.95
43.6570,0.07,0.12,-0.99,2.99,3.36,1.89
43.6720,0.07,0.12,-0.99,3.30,3.05,1.83
43.6870,0.07,0.12,-0.99,3.36,3.54,1.89
43.6970,0.07,0.12,-0.99,3.23,3.11,1.89
43.7130,0.07,0.12,-0.99,3.85,3.42,2.01
43.7340,0.07,0.12,-1.00,4.27,3.30,1.89
43.7490,0.07,0.12,-0.99,3.72,3.23,1.89
43.7640,0.07,0.12,-0.99,3.05,3.48,1.83
43.7790,0.07,0.12,-0.99,3.60,3.23,1.95
43.7870,0.07,0.12,-0.99,3.30,3.42,1.83
43.8040,0.07,0.12,-0.99,3.48,3.30,1.95
43.8190,0.07,0.12,-0.99,3.97,3.54,2.01
43.8400,0.07,0.12,-0.99,3.23,3.48,1.95
43.8440,0.07,0.12,-0.99,3.30,3.66,1.89
43.8600,0.07,0.12,-0.99,3.11,3.78,1.95
43.8780,0.07,0.12,-0.99,3.66,3.42,2.01
43.9020,0.07,0.12,-0.99,4.03,3.60,1.95
43.9130,0.07,0.11,-0.98,3.42,3.23,2.14
43.9290,0.07,0.12,-0.99,4.09,2.99,1.95
43.9450,0.07,0.12,-0.99,3.54,3.60,2.01
43.9620,0.07,0.12,-0.99,3.54,3.17,1.89
43.9770,0.08,0.12,-0.99,3.30,2.99,2.01
43.9940,0.07,0.12,-0.99,3.60,3.05,1.71
44.0090,0.07,0.12,-0.99,3.60,3.48,1.95
44.0250,0.08,0.13,-0.99,3.54,3.36,1.95
44.0400,0.07,0.12,-0.99,2.99,3.97,2.01
44.0500,0.07,0.12,-0.99,2.87,3.60,2.01
44.0670,0.07,0.12,-0.99,2.69,3.72,2.14
44.0820,0.07,0.12,-0.99,2.69,3.30,2.01
44.0980,0.07,0.12,-0.99,3.42,3.30,1.77
44.1160,0.07,0.13,-0.99,3.30,3.54,1.89
44.1320,0.07,0.12,-0.99,2.93,3.17,1.83
44.1480,0.08,0.12,-0.99,2.75,3.05,1.89
44.1630,0.08,0.12,-0.99,2.56,3.30,1.83
44.1690,0.08,0.12,-0.99,2.87,3.60,1.89
44.1860,0.07,0.12,-0.99,2.81,3.91,2.01
44.2020,0.07,0.12,-0.99,3.17,3.78,1.95
44.2180,0.07,0.12,-0.99,2.38,4.15,1.95
44.2390,0.08,0.12,-0.99,2.44,4.03,1.89
44.2410,0.07,0.12,-0.99,2.01,3.97,2.14
44.2580,0.08,0.13,-0.99,1.95,3.60,1.95
44.2870,0.07,0.13,-1.00,3.11,3.78,0.92
44.2910,0.10,0.15,-0.97,1.95,4.33,1.28
44.3170,0.04,0.10,-1.01,4.64,3.72,-1.53
44.3320,0.05,0.10,-0.99,3.85,3.48,0.79
44.3410,0.05,0.11,-1.00,3.60,3.23,1.10
44.3580,0.07,0.12,-0.99,3.72,3.17,1.65
44.3740,0.07,0.12,-0.99,3.66,3.48,1.95
44.3900,0.07,0.12,-0.99,4.21,3.48,2.08
44.4060,0.07,0.12,-1.00,4.03,3.30,1.95
44.4160,0.07,0.13,-1.00,3.85,3.23,1.83
44.4320,0.07,0.12,-1.00,3.05,3.78,1.95
44.4490,0.07,0.12,-0.99,2.81,3.54,2.01
44.4650,0.07,0.12,-0.99,2.99,3.48,2.01
44.4820,0.07,0.12,-0.99,3.17,3.60,2.08
44.4980,0.07,0.12,-0.99,3.17,3.48,2.01
44.5140,0.07,0.13,-0.99,3.05,3.36,1.95
44.5230,0.07,0.12,-1.00,2.20,3.60,1.89
44.5410,0.07,0.12,-0.99,1.95,3.66,1.89
44.5600,0.09,0.12,-0.99,3.17,3.23,1.46
44.5760,0.07,0.12,-0.99,3.85,3.36,0.85
44.5930,0.09,0.14,-0.99,3.66,3.42,0.49
44.5930,0.07,0.12,-0.99,3.66,3.42,-1.89
44.6080,0.07,0.12,-0.99,3.05,3.72,-0.73
44.6350,0.06,0.11,-0.99,3.48,3.48,-0.49
44.6510,0.07,0.11,-0.99,4.21,3.23,-0.24
44.6690,0.07,0.12,-0.99,4.21,2.87,0.12
44.6840,0.09,0.13,-0.99,3.91,3.23,-0.37
44.7000,0.08,0.13,-1.00,4.09,3.60,-0.98
44.7020,0.05,0.11,-1.00,3.42,3.30,-0.18
44.7320,0.07,0.11,-0.99,3.05,3.60,1.53
44.7420,0.07,0.12,-0.99,3.23,3.78,2.08
44.7510,0.07,0.13,-0.99,2.56,3.66,1.71
44.7780,0.08,0.13,-0.99,2.62,3.54,1.71
44.7840,0.09,0.13,-0.99,2.20,4.21,1.40
44.8000,0.06,0.11,-1.00,3.78,3.60,1.46
44.8230,0.07,0.11,-1.00,3.36,3.30,1.46
44.8380,0.07,0.12,-0.99,3.72,3.30,1.83
44.8540,0.07,0.12,-0.99,3.30,3.48,1.95
44.8540,0.07,0.13,-0.99,3.11,3.42,2.01
44.8800,0.07,0.12,-0.99,2.38,3.66,1.83
44.8970,0.07,0.12,-0.99,2.50,3.48,1.95
44.9120,0.07,0.12,-0.99,2.44,3.66,2.01
44.9310,0.07,0.12,-0.99,2.69,3.36,2.01
44.9420,0.08,0.12,-0.99,2.69,3.42,1.83
44.9520,0.08,0.12,-0.99,2.87,3.48,1.89
44.9750,0.07,0.12,-0.99,2.81,3.36,1.95
44.9850,0.07,0.12,-0.99,3.11,2.93,2.08
45.0010,0.07,0.12,-0.99,3.11,2.99,1.89
45.0170,0.07,0.12,-0.99,3.17,3.30,2.08
45.0360,0.07,0.12,-0.99,2.99,3.42,1.95
45.0440,0.07,0.12,-1.00,3.23,3.11,1.89
45.0590,0.07,0.12,-0.99,2.99,3.30,1.95
45.0800,0.06,0.12,-0.99,2.75,3.60,2.01
45.0970,0.08,0.12,-0.99,2.62,3.48,2.08
45.0970,0.08,0.12,-0.99,2.99,3.72,2.08
45.1270,0.07,0.12,-0.99,3.66,3.30,2.01
45.1410,0.08,0.12,-0.99,2.99,3.72,1.89
45.1580,0.07,0.12,-0.99,2.38,3.54,1.95
45.1640,0.07,0.12,-0.99,2.01,3.72,1.89
45.1880,0.07,0.12,-0.99,1.95,3.54,1.95
45.2030,0.08,0.11,-0.99,2.99,3.30,2.38
45.2140,0.08,0.13,-0.99,4.09,3.48,2.08
45.2320,0.07,0.12,-0.99,2.81,3.60,2.08
45.2470,0.07,0.12,-0.99,2.56,3.48,1.89
45.2630,0.07,0.12,-0.99,2.56,3.54,1.89
45.2810,0.07,0.12,-0.99,2.01,3.36,1.83
45.2960,0.07,0.12,-0.99,2.44,3.42,1.83
45.3010,0.08,0.12,-0.99,2.38,3.36,1.83
45.3170,0.07,0.12,-0.99,2.56,3.42,1.95
45.3400,0.07,0.12,-0.99,2.50,3.48,1.83
45.3420,0.07,0.13,-0.99,1.95,3.60,1.71
45.3580,0.08,0.11,-0.99,1.16,3.66,1.53
45.3870,0.07,0.11,-0.99,2.08,3.78,1.95
45.4030,0.07,0.11,-0.99,3.30,3.17,2.01
45.4080,0.07,0.12,-1.00,4.09,3.11,1.89
45.4360,0.08,0.12,-1.00,3.30,3.36,1.95
45.4430,0.07,0.12,-0.99,3.11,3.30,1.89
45.4580,0.07,0.12,-0.99,3.11,3.42,2.01
45.4740,0.07,0.12,-1.00,2.81,3.42,1.89
45.4960,0.08,0.11,-1.00,4.09,3.23,1.10
45.5110,0.07,0.12,-1.00,3.23,3.11,1.71
45.5260,0.07,0.12,-0.99,2.93,3.23,1.59
45.5420,0.08,0.12,-0.99,2.87,3.05,1.46
45.5580,0.08,0.10,-1.00,5.19,3.78,-0.79
45.5740,0.08,0.12,-1.00,3.48,3.17,1.59
45.5820,0.07,0.12,-1.00,4.33,3.60,1.34
45.5980,0.07,0.12,-0.99,3.78,3.23,1.77
45.6150,0.08,0.12,-0.99,4.27,3.11,1.65
45.6310,0.07,0.12,-1.00,4.52,3.17,1.77
45.6470,0.08,0.12,-0.99,3.91,2.75,1.77
45.6550,0.08,0.12,-1.00,4.64,2.44,2.08
45.6720,0.08,0.12,-1.00,3.91,2.87,2.01
45.6880,0.08,0.12,-0.99,2.87,3.60,2.14
45.7080,0.08,0.12,-0.99,2.69,3.72,2.08
45.7260,0.07,0.12,-0.99,2.69,3.48,1.89
45.7420,0.07,0.12,-0.99,2.93,3.78,1.89
45.7580,0.07,0.12,-1.00,2.81,3.23,1.89
45.7580,0.07,0.12,-1.00,2.44,3.91,2.08
45.7790,0.08,0.12,-0.99,2.81,3.54,2.08
45.7950,0.08,0.12,-1.00,3.17,3.66,1.34
45.8130,0.08,0.12,-0.99,2.44,3.97,1.77
45.8300,0.07,0.12,-0.99,2.44,3.72,1.53
45.8450,0.07,0.11,-1.00,3.11,3.30,1.89
45.8630,0.07,0.12,-0.99,2.62,3.30,2.01
45.8680,0.07,0.12,-0.99,2.87,3.72,1.89
45.8930,0.08,0.12,-0.99,2.87,3.42,1.89
45.9010,0.08,0.12,-1.00,3.05,3.66,1.04
45.9180,0.06,0.09,-0.99,2.99,3.78,1.34
45.9340,0.08,0.12,-1.00,2.81,3.48,1.59
45.9510,0.09,0.14,-0.99,2.99,3.54,1.34
45.9670,0.06,0.10,-1.00,3.42,3.66,0.43
45.9840,0.07,0.11,-0.99,3.17,3.42,1.46
45.9990,0.07,0.11,-0.99,3.17,3.54,1.71
46.0140,0.07,0.12,-0.99,3.17,3.72,1.77
46.0190,0.07,0.11,-0.99,3.54,3.48,1.65
46.0440,0.09,0.14,-0.99,4.15,3.17,1.77
46.0590,0.07,0.11,-1.00,4.09,3.78,0.98
46.0750,0.07,0.11,-0.99,2.87,3.72,1.95
46.0760,0.08,0.12,-0.99,3.78,3.54,1.65
46.1060,0.09,0.14,-0.99,3.78,3.60,1.16
46.1210,0.07,0.11,-0.99,4.39,3.42,-0.06
46.1360,0.08,0.12,-0.99,3.85,3.60,0.61
46.1460,0.07,0.12,-0.99,3.97,3.23,0.49
46.1630,0.07,0.13,-1.00,4.03,3.30,0.43
46.1810,0.07,0.11,-1.00,3.97,3.60,-0.92
46.1950,0.07,0.12,-1.00,3.66,3.85,0.00
46.1970,0.08,0.12,-0.99,3.36,3.66,0.37
46.2260,0.07,0.11,-1.00,3.48,3.85,-0.12
46.2410,0.07,0.13,-1.00,3.91,3.23,1.04
46.2480,0.07,0.11,-0.99,3.42,3.42,1.40
46.2710,0.07,0.12,-0.99,3.30,2.87,1.77
46.2870,0.07,0.12,-1.00,2.75,3.42,2.08
46.2980,0.07,0.12,-0.99,2.99,3.54,1.95
46.3140,0.07,0.12,-0.99,4.15,3.48,2.14
46.3330,0.08,0.13,-0.99,4.15,3.36,1.89
46.3490,0.07,0.12,-0.99,3.48,3.60,1.16
46.3660,0.08,0.13,-0.99,2.50,3.72,1.04
46.3810,0.08,0.12,-0.99,3.23,3.48,0.98
46.3960,0.06,0.11,-0.99,3.85,3.66,1.22
46.4110,0.07,0.12,-0.99,4.09,3.11,1.95
46.4180,0.08,0.13,-1.00,4.15,3.42,1.95
46.4410,0.08,0.12,-0.99,2.81,3.11,1.77
46.4510,0.08,0.12,-0.99,2.93,3.78,1.34
46.4680,0.07,0.11,-0.99,2.93,3.78,1.59
46.4850,0.07,0.11,-0.99,3.54,3.36,1.65
46.5020,0.07,0.11,-1.00,3.72,2.87,1.83
46.5170,0.08,0.12,-1.00,3.36,3.42,2.01
46.5340,0.08,0.13,-0.99,3.17,3.66,2.01
46.5510,0.08,0.13,-0.99,3.36,3.66,2.01
46.5660,0.08,0.13,-0.99,2.81,3.72,2.01
46.5690,0.08,0.12,-0.99,2.50,3.54,2.14
46.5970,0.07,0.11,-1.00,2.93,3.42,2.26
46.6020,0.07,0.12,-1.00,2.32,3.54,2.01
46.6180,0.07,0.11,-1.00,2.81,3.60,2.20
46.6340,0.07,0.12,-1.00,2.20,3.54,1.83
46.6500,0.07,0.12,-0.99,2.56,3.42,2.08
46.6650,0.07,0.12,-1.00,3.11,3.36,2.08
46.6810,0.08,0.12,-0.99,2.99,3.78,2.01
46.7020,0.07,0.12,-0.99,2.44,3.54,1.89
46.7170,0.07,0.12,-0.99,2.62,3.72,2.14
46.7330,0.07,0.12,-1.00,3.11,3.48,2.26
46.7440,0.07,0.12,-0.99,2.69,3.54,2.44
46.7660,0.08,0.11,-0.99,2.56,3.54,2.44
46.7810,0.07,0.12,-1.00,2.38,3.72,2.01
46.7970,0.07,0.12,-1.00,1.65,3.78,2.32
46.8120,0.07,0.11,-0.99,1.04,3.97,2.75
46.8270,0.07,0.11,-0.99,1.83,3.66,3.17
46.8360,0.07,0.11,-0.99,2.38,3.54,2.75
46.8530,0.07,0.12,-1.00,3.05,3.42,2.14
46.8680,0.07,0.12,-0.99,2.62,3.30,2.87
46.8840,0.08,0.12,-1.00,2.93,3.36,2.75
46.8940,0.07,0.12,-0.99,2.75,3.30,2.62
46.9180,0.07,0.11,-0.99,2.62,3.85,2.56
46.9290,0.07,0.11,-0.99,3.91,3.11,2.81
46.9440,0.08,0.11,-0.99,4.46,2.75,2.93
46.9630,0.07,0.12,-1.00,4.39,2.99,2.01
46.9780,0.07,0.12,-0.99,3.42,3.36,1.95
46.9930,0.07,0.12,-0.99,2.69,3.60,1.89
47.0090,0.07,0.11,-0.99,2.81,3.72,2.26
47.0250,0.07,0.11,-0.99,3.48,3.78,2.20
47.0400,0.07,0.12,-0.99,3.97,3.36,2.14
47.0490,0.07,0.12,-0.99,4.27,3.17,2.26
47.0670,0.07,0.11,-1.00,3.97,3.17,2.20
47.0830,0.08,0.13,-1.00,4.15,3.42,2.38
47.0980,0.08,0.12,-1.00,3.36,3.66,2.14
47.1180,0.08,0.12,-0.99,3.48,3.42,1.89
47.1220,0.08,0.13,-0.99,3.66,3.30,1.77
47.1500,0.06,0.11,-1.00,4.64,3.05,1.95
47.1540,0.07,0.11,-0.99,3.78,3.17,2.01
47.1710,0.07,0.12,-0.99,3.91,3.11,1.95
47.1880,0.08,0.12,-0.99,2.99,3.36,1.95
47.2030,0.08,0.12,-0.99,2.44,3.66,1.83
47.2250,0.09,0.14,-0.98,2.56,3.72,1.71
47.2410,0.07,0.12,-0.99,3.97,3.60,1.40
47.2570,0.07,0.11,-1.00,4.09,3.42,2.08
47.2720,0.07,0.11,-0.99,2.87,3.48,1.77
47.2870,0.08,0.12,-0.99,3.11,3.54,2.01
47.3010,0.08,0.12,-0.99,3.54,3.23,2.26
47.3120,0.07,0.12,-0.99,3.23,3.11,2.56
47.3290,0.07,0.11,-0.99,3.54,3.48,3.05
47.3450,0.07,0.11,-1.00,3.11,3.66,2.62
47.3630,0.07,0.11,-0.99,2.69,3.66,2.01
