Timestamp, AccX, AccY, AccZ, GyroX, GyroY, GyroZ
0.0110,0.08,0.12,-0.99,2.87,4.21,2.32
0.0260,0.08,0.12,-0.99,3.05,4.03,2.26
0.0410,0.08,0.12,-1.00,2.99,3.97,2.20
0.0570,0.08,0.12,-0.99,3.05,4.21,2.20
0.0720,0.08,0.11,-0.99,2.99,4.03,2.26
0.0830,0.08,0.11,-0.99,2.93,3.85,2.14
0.1010,0.08,0.11,-0.99,3.11,4.03,2.26
0.1170,0.08,0.12,-0.99,3.05,4.03,2.44
0.1260,0.08,0.12,-0.99,3.30,3.91,2.32
0.1460,0.08,0.12,-0.99,2.99,3.91,2.26
0.1620,0.08,0.12,-0.99,2.87,3.97,2.32
0.1770,0.08,0.12,-0.99,3.11,4.03,2.14
0.1910,0.08,0.12,-1.00,3.23,4.46,2.26
0.2070,0.08,0.12,-0.99,3.23,4.46,2.32
0.2210,0.08,0.12,-0.99,2.75,4.15,2.14
0.2340,0.08,0.12,-1.00,3.05,4.21,2.32
0.2500,0.08,0.12,-0.99,3.11,3.97,2.32
0.2670,0.08,0.11,-0.99,2.87,3.97,2.14
0.2820,0.08,0.11,-1.00,3.30,3.85,2.26
0.2970,0.08,0.11,-1.00,2.87,3.97,2.14
0.3110,0.08,0.11,-0.99,2.93,3.85,2.26
0.3260,0.08,0.12,-0.99,3.11,4.09,2.26
0.3420,0.08,0.12,-1.00,3.11,3.97,2.14
0.3560,0.08,0.12,-1.00,2.99,4.09,2.14
0.3720,0.08,0.12,-0.99,2.81,3.78,2.14
0.3830,0.08,0.12,-0.99,2.99,3.91,2.20
0.4000,0.08,0.12,-0.99,3.05,4.15,2.20
0.4170,0.08,0.12,-0.99,3.30,3.85,2.20
0.4330,0.08,0.12,-0.99,2.93,4.15,2.20
0.4490,0.08,0.11,-0.99,3.05,3.85,2.20
0.4630,0.08,0.11,-1.00,2.93,3.97,2.14
0.4780,0.08,0.11,-1.00,2.81,3.97,2.14
0.4930,0.08,0.11,-1.00,2.93,4.27,2.38
0.5080,0.08,0.11,-0.99,2.99,4.03,2.20
0.5240,0.08,0.11,-0.99,3.05,4.15,2.20
0.5390,0.08,0.12,-1.00,3.17,3.97,2.26
0.5500,0.08,0.12,-0.99,2.99,3.91,2.26
0.5660,0.08,0.12,-0.99,2.99,4.15,2.26
0.5830,0.08,0.12,-0.99,2.87,3.97,2.50
0.6000,0.08,0.13,-0.99,3.11,3.91,3.17
0.6170,0.10,0.12,-0.99,2.56,3.36,6.16
0.6330,0.08,0.12,-0.99,2.62,3.54,4.21
0.6490,0.08,0.11,-0.99,2.93,3.48,3.36
0.6640,0.08,0.11,-1.00,3.11,3.78,3.11
0.6790,0.08,0.11,-1.00,3.17,3.85,3.17
0.6940,0.07,0.11,-1.00,2.93,3.97,2.99
0.7090,0.08,0.11,-0.99,3.11,3.91,2.81
0.7250,0.08,0.11,-0.99,3.11,4.03,2.69
0.7340,0.08,0.12,-1.00,3.05,3.91,2.62
0.7490,0.08,0.12,-1.00,2.99,4.09,2.81
0.7690,0.08,0.12,-0.99,2.93,3.66,2.75
0.7860,0.08,0.12,-0.99,2.99,3.91,2.56
0.8020,0.08,0.12,-1.00,3.11,4.21,2.69
0.8180,0.08,0.12,-0.99,3.11,3.85,2.50
0.8270,0.08,0.12,-0.99,3.11,3.97,2.69
0.8360,0.08,0.12,-0.99,2.75,3.78,3.91
0.8650,0.08,0.11,-0.99,2.93,3.72,3.91
0.8800,0.08,0.11,-1.00,2.75,3.78,2.93
0.8900,0.08,0.12,-0.99,3.17,3.60,2.93
0.9070,0.08,0.11,-1.00,2.75,3.72,2.93
0.9230,0.08,0.12,-0.99,2.62,4.03,2.93
0.9400,0.08,0.12,-0.99,2.75,3.60,3.54
0.9560,0.08,0.12,-0.99,3.11,3.66,4.70
0.9720,0.08,0.11,-1.00,2.87,3.85,4.82
0.9880,0.08,0.12,-1.00,2.75,3.91,3.48
1.0040,0.08,0.12,-0.99,2.93,3.66,2.99
1.0060,0.08,0.12,-0.99,2.87,3.85,3.05
1.0340,0.08,0.12,-0.99,2.81,3.85,3.72
1.0500,0.08,0.12,-0.99,2.62,3.78,3.97
1.0590,0.08,0.11,-0.99,2.81,3.60,4.27
1.0740,0.08,0.11,-1.00,2.69,3.72,3.23
1.0910,0.08,0.11,-0.99,2.87,3.72,2.50
1.1080,0.08,0.12,-1.00,3.11,4.09,2.32
1.1250,0.08,0.11,-1.00,3.11,3.60,3.97
1.1410,0.08,0.12,-1.00,2.81,3.60,4.94
1.1580,0.08,0.12,-0.99,2.62,3.72,5.13
1.1740,0.09,0.11,-0.99,2.75,3.48,4.76
1.1900,0.08,0.12,-0.99,2.99,3.85,3.05
1.2060,0.08,0.12,-0.99,2.87,3.78,3.11
1.2220,0.08,0.13,-0.99,2.81,3.72,4.09
1.2380,0.08,0.12,-0.99,2.50,3.72,4.33
1.2420,0.08,0.12,-0.99,2.75,3.42,4.33
1.2570,0.08,0.12,-0.99,2.81,3.54,4.58
1.2790,0.08,0.11,-1.00,2.62,3.60,4.52
1.2960,0.08,0.11,-0.99,2.93,3.97,3.91
1.3120,0.08,0.13,-0.99,2.93,3.60,4.64
1.3290,0.08,0.12,-1.00,2.56,3.36,5.92
1.3450,0.08,0.10,-1.00,2.50,3.30,5.86
1.3600,0.08,0.10,-1.00,3.05,3.78,3.54
1.3750,0.08,0.11,-1.00,2.87,4.03,2.93
1.3910,0.08,0.12,-0.99,2.93,4.15,2.26
1.4060,0.08,0.12,-0.99,2.99,4.27,2.20
1.4220,0.08,0.12,-0.99,3.05,3.97,2.20
1.4370,0.08,0.12,-0.99,2.99,4.03,2.32
1.4530,0.08,0.12,-0.99,2.87,3.91,2.32
1.4670,0.08,0.11,-0.99,2.99,3.85,2.20
1.4790,0.08,0.11,-1.00,2.99,4.15,2.20
1.4950,0.08,0.11,-0.99,2.93,4.03,2.32
1.5100,0.08,0.11,-1.00,3.11,3.85,2.20
1.5310,0.08,0.11,-1.00,3.05,3.91,2.20
1.5460,0.08,0.11,-0.99,3.17,3.97,2.20
1.5610,0.08,0.12,-0.99,3.11,3.85,2.20
1.5770,0.08,0.12,-1.00,3.17,4.33,2.32
1.5930,0.08,0.12,-0.99,3.05,4.03,2.26
1.6100,0.08,0.12,-0.99,2.93,4.09,2.08
1.6250,0.08,0.12,-0.99,2.99,3.91,2.38
1.6400,0.05,0.12,-1.00,3.11,3.91,2.20
1.6550,0.07,0.12,-1.00,3.23,3.97,2.26
1.6660,0.09,0.12,-0.99,2.99,4.03,2.14
1.6820,0.09,0.11,-0.99,3.17,3.91,2.20
1.6980,0.08,0.11,-0.99,2.93,4.09,2.26
1.7150,0.08,0.11,-1.00,2.99,4.03,2.38
1.7310,0.08,0.11,-1.00,2.87,4.03,2.20
1.7460,0.08,0.11,-1.00,3.17,3.85,2.20
1.7620,0.08,0.12,-0.99,3.11,4.33,2.26
1.7650,0.08,0.12,-0.99,2.99,3.91,2.14
1.7810,0.08,0.12,-1.00,2.99,4.27,2.20
1.8030,0.08,0.12,-0.99,2.87,4.03,2.26
1.8230,0.08,0.12,-0.99,2.87,3.97,2.20
1.8350,0.08,0.12,-0.99,3.05,3.91,2.26
1.8510,0.08,0.12,-0.99,2.87,4.03,2.20
1.8670,0.08,0.12,-0.99,2.99,3.97,2.32
1.8840,0.08,0.11,-0.99,2.75,3.48,4.76
1.9010,0.08,0.11,-0.99,2.62,3.66,4.58
1.9160,0.08,0.11,-0.99,2.62,3.78,3.85
1.9310,0.08,0.11,-0.99,2.93,3.66,3.66
1.9470,0.08,0.11,-0.99,2.87,3.85,3.30
1.9520,0.08,0.11,-1.00,2.87,3.78,2.93
1.9770,0.08,0.12,-0.99,2.99,3.97,2.56
1.9920,0.08,0.12,-1.00,3.05,3.78,2.32
2.0070,0.08,0.12,-0.99,2.93,3.85,2.26
2.0180,0.08,0.12,-0.99,3.11,3.85,2.26
2.0350,0.08,0.12,-0.99,3.05,3.60,2.26
2.0510,0.08,0.12,-0.99,2.93,3.97,2.26
2.0680,0.08,0.12,-0.99,2.93,4.03,2.26
2.0850,0.08,0.12,-1.00,2.99,3.91,2.38
2.1010,0.08,0.12,-0.99,3.05,4.03,2.32
2.1180,0.08,0.12,-0.99,2.99,3.72,3.36
2.1330,0.08,0.11,-1.00,3.05,3.72,4.27
2.1500,0.08,0.12,-0.99,2.81,3.66,3.72
2.1650,0.08,0.12,-0.99,3.05,3.97,3.23
2.1800,0.08,0.11,-1.00,3.23,3.60,3.36
2.1950,0.08,0.12,-1.00,3.11,3.85,3.05
2.2090,0.08,0.12,-0.99,2.93,4.03,3.05
2.2250,0.08,0.12,-0.99,2.93,3.72,3.05
2.2350,0.08,0.12,-0.99,2.87,3.78,3.05
2.2510,0.08,0.12,-0.99,2.75,3.91,3.97
2.2680,0.08,0.12,-0.99,2.69,3.72,4.70
2.2840,0.08,0.11,-1.00,2.62,3.36,4.27
2.3030,0.08,0.11,-0.99,2.99,3.60,3.97
2.3180,0.08,0.11,-1.00,2.87,3.78,3.85
2.3350,0.08,0.11,-1.00,3.11,3.85,3.42
2.3500,0.08,0.11,-0.99,3.11,4.03,3.30
2.3660,0.08,0.12,-0.99,3.11,3.91,3.42
2.3820,0.08,0.12,-1.00,2.93,3.48,3.72
2.3840,0.08,0.12,-0.99,2.81,3.72,3.91
2.4140,0.08,0.12,-0.99,2.81,3.60,4.03
2.4280,0.08,0.12,-0.99,2.87,3.66,4.03
2.4440,0.08,0.12,-0.99,2.87,3.72,4.03
2.4600,0.08,0.12,-0.99,2.81,3.97,3.78
2.4750,0.08,0.12,-0.99,3.11,3.78,3.54
2.4860,0.08,0.12,-1.00,2.87,3.97,3.48
2.5030,0.08,0.12,-0.99,2.81,3.85,4.21
2.5190,0.08,0.10,-1.00,2.99,3.85,4.33
2.5350,0.08,0.11,-0.99,2.99,3.97,3.48
2.5510,0.08,0.11,-1.00,2.99,3.91,3.17
2.5670,0.08,0.12,-1.00,3.05,3.85,2.69
2.5690,0.08,0.12,-0.99,3.11,4.03,2.75
2.5980,0.08,0.12,-0.99,2.93,3.60,3.30
2.6130,0.08,0.12,-0.99,2.81,3.48,3.54
2.6210,0.08,0.12,-0.99,2.81,3.60,3.36
2.6370,0.08,0.12,-0.99,2.99,3.66,3.30
2.6540,0.08,0.12,-0.99,3.11,3.91,3.54
2.6710,0.08,0.12,-0.99,3.11,3.66,3.48
2.6880,0.08,0.12,-0.99,3.05,3.85,3.42
2.7030,0.08,0.12,-0.99,2.93,3.72,3.72
2.7190,0.08,0.11,-1.00,2.87,3.60,4.03
2.7350,0.08,0.11,-0.99,2.99,3.36,3.66
2.7380,0.08,0.11,-1.00,2.87,3.66,3.54
2.7530,0.08,0.11,-1.00,2.93,4.03,2.99
2.7810,0.08,0.12,-1.00,2.99,4.15,2.56
2.7910,0.08,0.12,-0.99,3.11,3.72,3.42
2.8080,0.08,0.12,-0.99,2.99,3.85,3.48
2.8240,0.08,0.12,-0.99,2.87,3.97,3.97
2.8400,0.08,0.12,-1.00,3.11,3.78,4.21
2.8570,0.08,0.12,-1.00,2.99,3.72,3.97
2.8730,0.08,0.11,-0.99,2.81,3.72,3.36
2.8900,0.08,0.11,-0.99,2.99,3.91,3.05
2.9050,0.08,0.11,-0.99,2.87,3.60,3.36
2.9080,0.08,0.11,-0.99,3.11,3.78,3.54
2.9300,0.08,0.12,-0.99,2.87,3.78,3.78
2.9520,0.08,0.12,-0.99,2.87,3.72,4.15
2.9630,0.08,0.12,-0.99,2.81,3.66,4.27
2.9790,0.08,0.11,-0.99,3.05,3.72,4.03
2.9950,0.08,0.11,-1.00,2.87,3.78,3.54
3.0120,0.08,0.12,-0.99,3.23,3.85,2.75
3.0160,0.08,0.12,-0.99,3.30,3.97,2.75
3.0430,0.08,0.12,-0.99,3.17,3.91,2.69
3.0570,0.08,0.12,-0.99,2.99,3.85,2.69
3.0730,0.08,0.12,-0.99,3.17,4.03,2.50
3.0830,0.08,0.11,-0.99,2.99,3.85,2.75
3.1000,0.08,0.11,-0.99,3.30,4.09,2.69
3.1170,0.08,0.11,-1.00,2.99,3.85,2.75
3.1330,0.08,0.11,-0.99,3.17,3.91,2.44
3.1500,0.08,0.12,-0.99,2.93,3.42,2.56
3.1660,0.08,0.11,-1.00,3.05,3.78,2.50
3.1810,0.08,0.12,-0.99,3.05,3.91,2.56
3.1950,0.08,0.12,-0.99,3.11,3.85,2.69
3.2120,0.08,0.12,-0.99,2.93,3.97,2.69
3.2270,0.08,0.12,-0.99,2.87,3.72,2.81
3.2420,0.08,0.12,-0.99,3.11,3.97,3.17
3.2580,0.08,0.12,-0.99,2.99,4.27,3.66
3.2730,0.08,0.12,-0.99,2.99,3.48,3.66
3.2830,0.08,0.12,-0.99,3.11,3.91,4.21
3.3000,0.08,0.12,-0.99,3.17,3.72,4.27
3.3170,0.08,0.11,-1.00,2.75,3.78,3.72
3.3330,0.08,0.11,-0.99,3.05,3.91,3.48
3.3500,0.08,0.12,-0.99,2.87,3.66,3.72
3.3660,0.08,0.12,-0.99,2.93,3.85,3.85
3.3830,0.08,0.12,-0.99,2.62,3.72,4.46
3.3990,0.08,0.12,-0.99,2.69,3.54,4.52
3.4150,0.08,0.12,-0.99,2.75,3.48,5.07
3.4300,0.08,0.12,-0.99,2.87,3.42,5.07
3.4450,0.08,0.11,-0.99,2.81,3.48,4.64
3.4620,0.08,0.11,-1.00,2.99,3.97,3.72
3.4760,0.08,0.12,-0.99,2.87,3.72,3.60
3.4920,0.08,0.11,-1.00,2.93,3.72,3.97
3.5060,0.08,0.12,-0.99,2.87,3.97,3.54
3.5170,0.08,0.11,-1.00,3.05,3.97,3.36
3.5330,0.08,0.11,-0.99,3.05,3.66,2.81
3.5490,0.08,0.11,-0.99,3.17,3.78,2.75
3.5660,0.08,0.11,-0.99,2.99,4.09,2.26
3.5830,0.08,0.12,-0.99,2.93,3.72,2.26
3.5990,0.08,0.12,-0.99,3.17,3.91,2.56
3.6150,0.08,0.12,-0.99,2.87,3.97,2.81
3.6300,0.08,0.11,-0.99,2.93,3.85,3.05
3.6450,0.08,0.12,-0.99,2.99,4.03,2.81
3.6510,0.08,0.12,-0.99,3.05,3.91,3.11
3.6670,0.08,0.11,-1.00,3.11,4.03,2.81
3.6900,0.08,0.12,-0.99,3.23,3.78,2.69
3.7060,0.08,0.12,-0.99,3.17,3.60,2.99
3.7220,0.08,0.12,-0.99,3.11,3.72,3.30
3.7390,0.08,0.12,-0.99,2.99,3.36,3.78
3.7550,0.08,0.11,-0.99,2.81,3.48,4.39
3.7710,0.08,0.12,-0.99,2.93,3.48,4.03
3.7870,0.08,0.11,-1.00,2.75,3.78,4.27
3.8030,0.08,0.12,-0.99,2.99,3.60,4.46
3.8180,0.08,0.12,-0.99,2.87,3.36,4.82
3.8300,0.08,0.11,-0.99,2.69,3.54,4.46
3.8490,0.08,0.11,-1.00,3.05,3.66,3.72
3.8640,0.08,0.11,-0.99,2.87,3.85,3.42
3.8730,0.08,0.12,-0.99,3.05,3.78,3.48
3.8950,0.08,0.13,-0.99,2.93,3.85,3.72
3.9060,0.08,0.12,-0.99,2.81,3.97,4.27
3.9220,0.08,0.13,-0.99,2.93,3.60,4.46
3.9400,0.08,0.12,-0.99,2.75,3.48,4.82
3.9560,0.08,0.11,-0.99,2.81,3.66,4.33
3.9730,0.08,0.11,-1.00,2.81,3.54,3.91
3.9880,0.08,0.12,-0.99,2.81,3.78,3.05
4.0030,0.08,0.11,-0.99,2.81,3.78,3.36
4.0190,0.08,0.12,-0.99,2.87,3.91,3.30
4.0340,0.08,0.12,-0.99,2.99,3.85,3.42
4.0500,0.08,0.12,-1.00,2.93,3.66,4.09
4.0650,0.08,0.12,-0.99,2.87,3.78,3.78
4.0800,0.08,0.11,-0.99,3.05,3.66,3.66
4.0900,0.08,0.11,-0.99,3.05,3.78,3.54
4.1060,0.08,0.12,-0.99,2.93,3.85,3.05
4.1230,0.08,0.11,-0.99,3.05,4.21,2.87
4.1390,0.08,0.11,-0.99,3.05,4.27,2.81
4.1550,0.08,0.11,-0.99,2.75,3.97,2.81
4.1700,0.08,0.12,-0.99,2.87,3.97,2.81
4.1860,0.08,0.12,-0.99,3.11,3.97,2.93
4.2010,0.08,0.12,-0.99,2.99,3.72,2.99
4.2070,0.08,0.12,-0.99,3.17,3.72,3.17
4.2310,0.08,0.12,-0.99,2.87,3.78,3.30
4.2430,0.08,0.12,-0.99,2.69,3.97,3.36
4.2590,0.08,0.12,-0.99,2.81,3.72,3.48
4.2770,0.08,0.12,-1.00,2.81,3.97,3.72
4.2930,0.08,0.12,-0.99,2.93,3.72,3.85
4.3070,0.08,0.12,-0.99,2.99,3.72,3.78
4.3140,0.08,0.11,-0.99,2.81,3.78,3.66
4.3310,0.08,0.11,-1.00,2.87,3.60,3.54
4.3480,0.08,0.12,-0.99,2.99,3.78,3.23
4.3640,0.08,0.12,-0.99,2.87,3.66,3.23
4.3810,0.08,0.11,-0.99,2.93,3.54,3.30
4.3980,0.08,0.12,-0.99,2.87,4.03,3.23
4.4140,0.08,0.11,-0.99,2.93,3.85,2.75
4.4300,0.08,0.12,-0.99,2.81,4.15,2.50
4.4460,0.08,0.11,-0.99,3.30,4.09,2.62
4.4610,0.08,0.12,-1.00,3.11,4.21,2.81
4.4770,0.08,0.12,-0.99,3.05,3.78,3.11
4.4930,0.08,0.12,-0.99,2.62,3.85,3.97
4.4970,0.08,0.12,-1.00,3.05,3.60,3.97
4.5130,0.08,0.11,-0.99,2.99,3.91,3.78
4.5390,0.08,0.12,-1.00,2.87,3.91,3.11
4.5510,0.08,0.12,-0.99,3.05,3.60,3.11
4.5660,0.08,0.12,-0.99,2.81,3.54,3.48
4.5830,0.08,0.13,-0.99,2.93,3.85,4.46
4.5860,0.08,0.12,-0.99,2.99,3.60,4.64
4.6150,0.08,0.12,-0.99,2.69,3.91,4.70
4.6300,0.08,0.11,-0.99,2.81,3.54,4.88
4.6450,0.08,0.11,-0.99,2.99,3.54,4.33
4.6600,0.08,0.11,-0.99,2.99,3.85,3.85
4.6750,0.08,0.11,-0.99,2.87,3.72,3.91
4.6870,0.08,0.12,-0.99,2.99,3.66,4.09
4.7030,0.08,0.12,-1.00,2.99,3.66,4.15
4.7190,0.08,0.12,-0.99,2.87,3.60,4.76
4.7360,0.09,0.11,-1.00,3.17,3.97,3.97
4.7510,0.09,0.11,-0.99,2.99,3.85,3.72
4.7670,0.08,0.11,-0.99,2.93,3.85,3.23
4.7840,0.08,0.11,-0.99,3.05,3.78,2.87
4.7990,0.08,0.12,-0.99,3.05,3.97,2.87
4.8150,0.08,0.12,-1.00,2.93,3.97,3.30
4.8300,0.08,0.12,-0.99,3.05,3.66,3.05
4.8460,0.08,0.12,-0.99,3.05,3.97,2.81
4.8600,0.08,0.12,-0.99,3.05,3.78,2.87
4.8750,0.08,0.11,-1.00,2.99,3.60,2.81
4.8860,0.08,0.12,-0.99,3.05,3.97,2.99
4.9030,0.08,0.12,-0.99,2.99,4.03,2.99
4.9200,0.08,0.12,-0.99,3.11,3.78,3.72
4.9360,0.08,0.12,-0.99,2.99,3.66,3.85
4.9530,0.08,0.11,-0.99,2.87,3.85,3.72
4.9690,0.08,0.12,-0.99,2.93,3.78,3.23
4.9850,0.08,0.12,-0.99,3.05,4.09,3.42
5.0010,0.08,0.12,-1.00,2.81,3.66,3.72
5.0170,0.08,0.12,-0.99,2.87,3.72,3.66
5.0330,0.08,0.12,-0.99,2.75,3.78,3.60
5.0490,0.08,0.11,-0.99,2.93,3.72,3.54
5.0640,0.08,0.12,-0.99,2.81,3.91,3.36
5.0790,0.08,0.12,-1.00,2.99,3.78,3.23
5.0930,0.08,0.12,-1.00,2.99,3.48,3.42
5.1030,0.08,0.12,-0.99,3.05,3.85,3.85
5.1200,0.08,0.12,-0.99,2.81,3.66,4.64
5.1360,0.08,0.12,-0.99,2.87,3.48,4.70
5.1530,0.08,0.12,-1.00,3.05,3.54,4.76
5.1680,0.08,0.12,-0.99,2.93,3.17,4.52
5.1840,0.08,0.12,-0.99,2.81,3.36,5.25
5.2000,0.08,0.12,-0.99,2.99,3.11,5.68
5.2160,0.08,0.11,-0.99,2.81,3.23,5.43
5.2320,0.08,0.12,-0.99,2.75,3.54,5.49
5.2470,0.08,0.11,-1.00,2.87,3.78,5.25
5.2620,0.08,0.11,-1.00,2.69,3.78,4.09
5.2770,0.08,0.11,-1.00,2.87,4.09,3.78
5.2910,0.08,0.11,-1.00,2.87,3.78,2.93
5.3030,0.08,0.11,-0.99,2.87,3.91,2.38
5.3190,0.09,0.12,-0.99,2.87,3.60,2.14
5.3350,0.08,0.12,-0.99,3.11,4.09,2.38
5.3510,0.08,0.12,-0.99,2.93,4.09,2.32
5.3660,0.08,0.12,-0.99,2.99,4.21,2.44
5.3770,0.08,0.12,-0.99,2.99,4.27,2.38
5.3940,0.08,0.12,-1.00,3.05,4.09,2.75
5.4110,0.09,0.12,-0.99,3.17,3.66,3.36
5.4270,0.09,0.12,-0.99,2.93,4.09,3.54
5.4430,0.08,0.12,-1.00,2.93,3.78,3.85
5.4590,0.08,0.11,-1.00,2.81,3.72,3.85
5.4750,0.08,0.11,-0.99,2.81,3.48,3.91
5.4910,0.08,0.11,-0.99,2.81,3.72,4.09
5.5070,0.08,0.12,-0.99,2.75,3.91,4.39
5.5230,0.09,0.11,-0.99,2.99,3.54,3.97
5.5390,0.08,0.12,-0.99,2.99,3.78,3.23
5.5440,0.08,0.12,-0.99,2.99,3.91,2.93
5.5590,0.08,0.12,-0.99,3.11,4.09,2.62
5.5820,0.08,0.13,-0.99,2.87,3.91,2.69
5.5990,0.08,0.13,-0.99,2.99,3.91,2.81
5.6160,0.08,0.12,-0.99,2.87,3.91,3.60
5.6320,0.08,0.12,-0.99,2.75,4.09,3.91
5.6490,0.08,0.12,-0.99,2.87,3.72,3.78
5.6640,0.08,0.11,-1.00,2.81,3.48,4.27
5.6800,0.08,0.11,-0.99,2.75,3.78,4.15
5.6950,0.08,0.11,-0.99,2.93,3.30,3.85
5.6990,0.08,0.11,-0.99,2.93,3.85,3.72
5.7150,0.08,0.12,-0.99,2.81,3.72,3.66
5.7380,0.08,0.12,-1.00,2.81,3.91,3.72
5.7560,0.08,0.12,-0.99,2.87,3.66,4.15
5.7710,0.08,0.12,-0.99,2.81,3.78,4.88
5.7870,0.08,0.12,-0.99,2.69,3.72,4.64
5.8030,0.08,0.12,-0.99,2.93,3.66,4.03
5.8200,0.08,0.12,-0.99,2.99,3.97,3.30
5.8350,0.08,0.12,-0.99,2.87,3.85,3.11
5.8380,0.08,0.11,-0.99,3.11,3.54,3.36
5.8540,0.08,0.11,-1.00,2.87,3.78,3.36
5.8810,0.08,0.11,-1.00,2.93,3.78,2.75
5.8930,0.08,0.12,-0.99,2.87,3.78,2.75
5.9090,0.08,0.12,-0.99,3.05,3.97,2.75
5.9260,0.08,0.12,-1.00,2.99,3.85,3.17
5.9410,0.08,0.14,-0.99,2.99,3.91,3.17
5.9570,0.08,0.11,-1.00,3.05,3.60,3.97
5.9730,0.08,0.13,-0.99,2.75,3.91,3.91
5.9890,0.09,0.11,-0.99,2.81,3.78,3.54
5.9920,0.08,0.12,-0.99,2.87,3.72,2.62
6.0080,0.08,0.12,-0.99,3.23,3.97,2.81
6.0330,0.08,0.12,-0.99,3.05,3.97,2.87
6.0470,0.08,0.11,-0.99,2.87,4.09,3.30
6.0640,0.08,0.12,-0.99,3.11,3.42,3.30
6.0790,0.08,0.12,-0.99,2.93,3.78,3.36
6.0950,0.08,0.12,-0.99,3.05,3.78,3.54
6.1090,0.08,0.12,-0.99,2.81,3.78,3.66
6.1250,0.08,0.12,-0.99,2.93,3.54,3.48
6.1400,0.08,0.12,-0.99,2.93,3.72,3.54
6.1540,0.08,0.12,-0.99,2.87,3.91,3.60
6.1690,0.08,0.12,-0.99,2.81,3.60,4.09
6.1840,0.08,0.12,-0.99,3.05,3.60,4.09
6.1970,0.08,0.12,-0.99,2.87,3.72,3.85
6.2130,0.08,0.11,-0.99,2.87,3.78,3.60
6.2300,0.08,0.11,-0.99,3.05,3.97,3.54
6.2460,0.08,0.11,-0.99,2.69,3.85,3.11
6.2620,0.08,0.11,-1.00,3.05,4.15,2.93
6.2640,0.08,0.12,-1.00,2.99,3.72,3.05
6.2790,0.08,0.11,-1.00,2.87,3.97,2.93
6.3080,0.08,0.12,-0.99,2.99,3.91,2.93
6.3220,0.08,0.12,-0.99,2.99,4.03,3.11
6.3350,0.08,0.12,-0.99,2.75,4.09,3.17
6.3510,0.08,0.12,-0.99,2.99,3.91,3.48
6.3680,0.08,0.12,-0.99,3.05,3.60,3.42
6.3840,0.08,0.12,-0.99,2.93,3.85,3.42
6.4010,0.08,0.12,-0.99,2.81,4.03,3.05
6.4170,0.08,0.12,-0.99,3.05,3.97,2.87
6.4320,0.08,0.12,-0.99,2.93,3.91,2.69
6.4490,0.08,0.12,-0.99,2.99,4.03,3.17
6.4650,0.08,0.12,-0.99,2.75,3.54,3.54
6.4680,0.08,0.12,-0.99,2.93,3.85,4.33
6.4840,0.08,0.12,-0.99,2.75,3.97,4.21
6.5060,0.08,0.12,-0.99,2.81,3.85,4.39
6.5220,0.08,0.12,-0.99,2.87,3.54,4.58
6.5390,0.09,0.11,-0.99,2.81,3.66,4.58
6.5560,0.09,0.12,-0.99,2.87,3.85,4.21
6.5720,0.08,0.12,-0.99,3.11,3.72,3.54
6.5880,0.08,0.12,-0.99,3.05,3.66,3.60
6.6030,0.08,0.12,-1.00,2.93,3.66,3.36
6.6190,0.08,0.12,-1.00,2.87,3.72,3.17
6.6350,0.08,0.12,-0.99,2.93,3.97,2.99
6.6490,0.08,0.12,-0.99,2.75,3.85,2.81
6.6650,0.08,0.11,-0.99,2.99,4.03,2.81
6.6720,0.08,0.11,-1.00,2.99,3.78,2.75
6.6880,0.09,0.12,-0.99,2.99,3.78,2.44
6.7100,0.09,0.13,-1.00,3.11,3.85,2.69
6.7270,0.08,0.12,-0.99,3.05,3.78,2.69
6.7430,0.08,0.11,-0.99,2.99,3.66,2.38
6.7590,0.08,0.12,-0.99,2.87,3.91,2.56
6.7750,0.09,0.12,-0.99,3.23,3.85,2.69
6.7910,0.08,0.12,-0.99,3.17,4.03,2.75
6.8070,0.08,0.12,-0.99,3.05,3.66,3.05
6.8230,0.08,0.12,-0.99,2.87,3.97,3.23
6.8390,0.08,0.12,-0.99,2.81,3.78,3.66
6.8550,0.08,0.10,-1.00,2.93,4.15,3.30
6.8600,0.09,0.12,-0.99,2.75,4.21,3.17
6.8760,0.08,0.11,-1.00,3.05,3.85,3.48
6.9000,0.08,0.12,-0.99,3.23,3.66,3.23
6.9130,0.08,0.11,-1.00,2.99,3.85,3.60
6.9290,0.08,0.11,-1.00,2.99,4.27,2.81
6.9450,0.08,0.12,-0.99,2.93,4.21,2.69
6.9610,0.08,0.12,-0.99,3.05,4.09,2.87
6.9770,0.08,0.11,-0.99,3.11,3.78,2.81
6.9930,0.08,0.12,-0.99,3.05,3.60,2.62
7.0100,0.08,0.12,-0.99,2.87,3.97,2.62
7.0260,0.08,0.12,-0.99,2.81,3.91,2.93
7.0410,0.08,0.12,-0.99,2.93,3.72,2.75
7.0580,0.08,0.12,-0.99,2.93,3.91,2.38
7.0730,0.08,0.12,-0.99,3.05,4.09,2.38
7.0890,0.08,0.12,-0.99,2.87,3.91,2.50
7.1030,0.08,0.12,-0.99,2.99,3.97,2.75
7.1130,0.08,0.12,-0.99,3.17,4.15,2.75
7.1340,0.08,0.12,-0.99,2.93,3.72,2.69
7.1490,0.08,0.12,-0.99,2.81,4.03,2.93
7.1650,0.08,0.12,-0.99,2.93,3.78,3.05
7.1800,0.08,0.12,-0.99,2.87,3.72,3.78
7.1950,0.08,0.12,-0.99,2.75,3.66,4.52
7.2110,0.08,0.12,-0.99,2.75,3.54,5.25
7.2270,0.08,0.12,-0.99,2.75,3.72,5.62
7.2430,0.08,0.11,-0.99,2.44,3.54,5.74
7.2590,0.08,0.12,-0.99,2.75,3.54,5.49
7.2750,0.08,0.12,-0.99,2.50,3.42,5.37
7.2900,0.08,0.12,-0.99,2.75,3.66,5.19
7.3050,0.08,0.12,-0.99,2.69,3.42,4.76
7.3160,0.08,0.10,-1.00,2.56,3.23,5.00
7.3340,0.08,0.12,-0.99,2.99,3.48,4.03
7.3510,0.08,0.12,-0.99,2.93,3.72,3.78
7.3660,0.09,0.12,-1.00,2.93,3.54,4.03
7.3700,0.08,0.11,-0.99,2.75,3.85,3.54
7.3860,0.08,0.12,-0.99,2.99,3.97,3.30
7.4140,0.08,0.11,-1.00,3.11,3.91,3.48
7.4260,0.08,0.12,-0.99,2.87,3.72,2.99
7.4410,0.08,0.11,-0.99,2.93,3.97,3.11
7.4590,0.08,0.12,-0.99,2.93,3.97,2.81
7.4750,0.08,0.12,-0.99,2.99,3.97,2.93
7.4910,0.08,0.12,-0.99,2.75,3.91,3.17
7.5070,0.08,0.12,-0.99,2.99,3.85,3.23
7.5230,0.08,0.12,-0.99,2.87,4.03,3.36
7.5390,0.08,0.12,-0.99,2.87,3.78,3.48
7.5560,0.08,0.12,-0.99,2.99,3.85,3.54
7.5710,0.08,0.12,-1.00,2.81,3.91,3.66
7.5780,0.08,0.12,-0.99,2.93,3.66,3.36
7.5950,0.08,0.11,-0.99,2.81,3.66,3.36
7.6100,0.08,0.11,-0.99,2.93,3.78,3.60
7.6320,0.08,0.12,-0.99,2.93,3.78,3.23
7.6480,0.08,0.13,-0.99,2.99,3.97,3.72
7.6640,0.08,0.12,-0.99,3.05,3.60,4.03
7.6790,0.08,0.12,-0.99,3.05,3.60,3.78
7.6820,0.08,0.12,-0.99,2.99,3.72,3.05
7.6970,0.09,0.11,-1.00,3.17,3.72,2.75
7.7250,0.08,0.12,-0.99,2.93,3.91,2.38
7.7360,0.08,0.12,-0.99,3.36,3.97,2.26
7.7520,0.08,0.12,-0.99,3.17,4.09,2.44
7.7680,0.08,0.12,-0.99,3.17,3.91,2.87
7.7850,0.08,0.12,-0.99,2.87,3.97,3.05
7.8010,0.08,0.12,-0.99,2.87,3.85,2.99
7.8180,0.08,0.12,-0.99,3.23,3.85,3.11
7.8340,0.08,0.12,-0.99,2.87,3.78,3.42
7.8500,0.08,0.12,-0.99,2.87,3.91,3.66
7.8520,0.08,0.12,-0.99,2.81,4.09,3.36
7.8820,0.09,0.12,-0.99,3.11,4.03,2.75
7.8970,0.09,0.12,-0.99,2.99,4.21,2.93
7.9120,0.08,0.12,-0.99,2.99,4.03,2.75
7.9230,0.08,0.12,-0.99,2.93,3.60,2.62
7.9400,0.08,0.12,-0.99,2.93,3.91,2.93
7.9560,0.08,0.11,-0.99,2.87,3.91,3.23
7.9720,0.08,0.12,-0.99,3.05,3.60,3.23
7.9890,0.08,0.12,-0.99,3.11,3.66,3.23
8.0050,0.08,0.11,-1.00,3.05,3.97,2.69
8.0220,0.08,0.12,-0.99,2.99,3.78,2.93
8.0370,0.08,0.12,-0.99,3.05,3.91,2.99
8.0530,0.08,0.12,-0.99,3.05,3.97,2.87
8.0690,0.08,0.12,-0.99,2.99,3.91,2.99
8.0840,0.08,0.12,-0.99,2.87,3.85,3.23
8.1000,0.08,0.12,-0.99,2.75,3.97,2.99
8.1150,0.08,0.11,-0.99,2.93,3.91,2.75
8.1230,0.08,0.12,-0.99,3.17,3.85,2.38
8.1390,0.08,0.12,-0.99,3.11,3.72,2.14
8.1600,0.08,0.12,-0.99,2.87,3.97,2.38
8.1630,0.09,0.12,-0.99,2.99,3.85,2.69
8.1810,0.08,0.11,-1.00,3.05,3.97,2.69
8.1960,0.08,0.12,-0.99,2.99,4.15,2.38
8.2210,0.08,0.12,-0.99,3.17,4.15,2.38
8.2350,0.08,0.12,-0.99,3.11,3.78,2.44
8.2490,0.08,0.12,-0.99,2.81,3.97,2.44
8.2650,0.08,0.12,-1.00,3.11,3.72,2.32
8.2820,0.08,0.12,-0.99,3.05,3.97,2.44
8.2980,0.08,0.12,-0.99,3.05,3.85,2.20
8.3150,0.08,0.12,-0.99,3.05,3.85,2.50
8.3320,0.08,0.12,-0.99,3.05,3.66,2.93
8.3470,0.08,0.11,-0.99,2.93,3.78,2.99
8.3640,0.08,0.12,-0.99,2.99,4.09,2.75
8.3780,0.08,0.12,-0.99,2.99,4.21,2.50
8.3940,0.08,0.12,-0.99,3.05,3.85,2.50
8.4100,0.08,0.12,-0.99,2.99,3.97,2.93
8.4240,0.08,0.12,-0.99,2.93,3.85,3.54
8.4410,0.09,0.12,-0.99,2.81,4.15,3.66
8.4550,0.08,0.12,-0.99,2.87,3.85,3.23
8.4650,0.08,0.12,-0.99,2.93,3.85,3.11
8.4810,0.08,0.12,-0.99,2.87,3.78,2.99
8.5000,0.08,0.12,-0.99,2.81,3.72,3.85
8.5160,0.08,0.12,-0.99,2.69,3.66,4.15
8.5310,0.08,0.11,-0.99,2.87,3.78,3.54
8.5470,0.08,0.12,-0.99,2.99,3.78,3.05
8.5630,0.08,0.12,-0.99,2.99,4.09,3.11
8.5800,0.08,0.12,-0.99,2.93,3.97,3.05
8.5840,0.08,0.12,-0.99,2.81,4.03,2.93
8.6000,0.08,0.11,-0.99,2.93,3.66,3.11
8.6220,0.08,0.12,-0.99,2.93,4.15,2.50
8.6380,0.08,0.12,-0.99,2.87,3.91,2.87
8.6550,0.09,0.12,-0.99,2.81,3.85,2.81
8.6720,0.08,0.12,-0.99,2.93,3.85,2.99
8.6880,0.08,0.11,-0.99,3.05,3.85,2.81
8.7050,0.08,0.11,-0.99,3.05,3.85,2.69
8.7050,0.08,0.12,-0.99,3.42,3.91,2.44
8.7360,0.08,0.12,-0.99,3.05,4.15,2.56
8.7390,0.08,0.12,-0.99,2.87,3.85,2.69
8.7550,0.08,0.12,-0.99,2.93,3.78,2.38
8.7720,0.08,0.12,-0.99,2.99,3.97,2.38
8.7880,0.08,0.12,-0.99,2.87,3.78,2.50
8.8030,0.08,0.12,-0.99,2.93,3.85,2.32
8.8260,0.08,0.12,-0.99,2.93,3.97,2.44
8.8440,0.08,0.12,-0.99,2.81,3.66,2.69
8.8600,0.08,0.12,-0.99,2.81,4.46,2.56
8.8760,0.08,0.12,-0.99,2.93,4.09,2.62
8.8930,0.08,0.12,-0.99,3.05,3.78,2.69
8.9090,0.08,0.12,-0.99,2.87,3.85,3.23
8.9240,0.08,0.11,-0.99,2.99,3.78,3.11
8.9360,0.08,0.12,-0.99,3.05,3.91,2.93
8.9420,0.08,0.11,-0.99,3.11,3.72,2.75
8.9640,0.08,0.12,-0.99,2.93,3.97,2.62
8.9810,0.08,0.12,-0.99,3.05,3.54,2.75
8.9970,0.08,0.12,-0.99,2.93,4.09,3.05
9.0150,0.08,0.12,-0.99,2.99,3.85,3.11
9.0300,0.08,0.12,-0.99,3.05,3.72,3.17
9.0460,0.08,0.11,-0.99,2.87,3.72,2.75
9.0610,0.08,0.12,-0.99,3.17,3.48,2.62
9.0770,0.08,0.12,-0.99,3.36,3.60,2.81
9.0810,0.08,0.12,-0.99,2.87,3.78,2.87
9.0960,0.08,0.12,-0.99,2.87,3.48,3.11
9.1200,0.08,0.12,-0.99,2.81,3.85,3.17
9.1360,0.08,0.12,-0.99,2.87,3.78,3.42
9.1540,0.08,0.12,-0.99,2.93,3.72,3.11
9.1700,0.08,0.12,-0.99,3.11,3.78,3.05
9.1850,0.08,0.12,-0.99,3.05,3.97,2.93
9.2010,0.08,0.12,-0.99,2.87,3.97,3.17
9.2180,0.08,0.12,-0.99,3.05,3.78,2.99
9.2350,0.08,0.12,-0.99,2.81,3.85,2.81
9.2510,0.08,0.12,-0.99,2.99,3.78,2.87
9.2660,0.08,0.12,-0.99,2.93,4.09,2.87
9.2700,0.08,0.12,-0.99,2.75,3.78,2.87
9.2850,0.08,0.11,-0.99,3.05,3.66,3.05
9.3130,0.09,0.11,-0.99,2.81,4.03,2.50
9.3240,0.09,0.12,-0.99,3.11,3.97,2.44
9.3390,0.08,0.12,-0.99,2.87,3.97,2.69
9.3590,0.08,0.12,-0.99,3.05,3.66,2.99
9.3760,0.08,0.11,-0.99,2.93,3.48,3.36
9.3920,0.08,0.12,-0.99,2.81,3.54,3.48
9.4080,0.09,0.12,-0.99,2.93,3.60,3.23
9.4230,0.08,0.12,-0.99,2.87,3.91,2.87
9.4400,0.08,0.12,-0.99,3.23,3.85,2.75
9.4560,0.08,0.12,-0.99,2.87,3.85,2.56
9.4720,0.08,0.12,-0.99,3.05,3.91,2.56
9.4880,0.08,0.12,-0.99,2.87,3.78,2.50
9.5030,0.08,0.12,-0.99,2.87,3.97,2.62
9.5180,0.08,0.12,-0.99,2.87,3.66,2.75
9.5330,0.08,0.12,-0.99,3.05,3.97,2.62
9.5440,0.08,0.12,-0.99,2.93,3.85,2.81
9.5590,0.08,0.11,-0.99,2.93,3.78,2.87
9.5750,0.08,0.12,-0.99,2.87,3.85,2.69
9.5950,0.08,0.12,-0.99,3.05,3.97,2.75
9.6110,0.08,0.12,-0.99,3.05,4.03,2.62
9.6270,0.08,0.12,-0.99,2.93,4.03,2.75
9.6430,0.08,0.12,-1.00,2.99,3.91,3.05
9.6570,0.08,0.11,-0.99,2.87,3.78,2.93
9.6730,0.09,0.12,-0.99,2.99,3.85,2.81
9.6800,0.08,0.11,-0.99,2.62,4.09,3.72
9.6960,0.08,0.12,-0.99,3.11,3.66,3.48
9.7190,0.08,0.11,-0.99,2.56,3.42,3.91
9.7350,0.08,0.11,-0.99,3.11,3.66,3.42
9.7520,0.08,0.12,-0.99,2.93,3.85,2.87
9.7680,0.08,0.12,-0.99,3.11,3.66,2.75
9.7840,0.08,0.12,-0.99,3.05,3.72,2.93
9.8000,0.08,0.12,-1.00,2.87,3.72,2.99
9.8160,0.08,0.11,-0.99,2.87,3.66,3.05
9.8320,0.08,0.12,-0.99,3.11,4.03,2.81
9.8480,0.08,0.12,-0.99,2.87,3.85,2.69
9.8630,0.08,0.12,-0.99,2.99,3.91,2.81
9.8780,0.08,0.12,-0.99,2.93,3.91,2.75
9.8920,0.08,0.12,-0.99,2.81,3.60,2.62
9.9030,0.09,0.12,-0.99,3.11,3.78,2.56
9.9180,0.09,0.12,-0.99,2.99,3.66,2.50
9.9390,0.08,0.11,-0.99,3.11,4.03,2.69
9.9550,0.09,0.12,-0.99,3.11,3.66,2.26
9.9710,0.09,0.12,-0.99,2.99,3.85,2.38
9.9870,0.08,0.12,-0.99,3.11,3.97,2.38
10.0030,0.09,0.12,-0.99,2.99,3.85,2.44
10.0190,0.08,0.12,-0.99,2.75,3.78,2.50
10.0340,0.09,0.12,-0.99,2.93,3.60,2.44
10.0500,0.08,0.12,-0.99,2.87,3.85,2.44
10.0650,0.08,0.12,-1.00,3.17,3.85,2.50
10.0790,0.08,0.12,-0.99,2.99,3.85,2.62
10.0890,0.08,0.12,-0.99,2.81,3.78,2.69
10.1040,0.08,0.12,-0.99,2.81,3.85,3.11
10.1260,0.08,0.12,-0.99,2.75,3.54,3.42
10.1410,0.08,0.11,-1.00,2.87,3.66,3.54
10.1570,0.08,0.12,-0.99,3.11,3.85,3.05
10.1720,0.08,0.12,-0.99,3.17,4.09,2.69
10.1880,0.08,0.12,-0.99,3.05,3.78,2.93
10.2040,0.08,0.12,-1.00,2.75,4.03,2.99
10.2190,0.08,0.12,-0.99,2.99,3.60,2.93
10.2270,0.08,0.12,-0.99,2.81,3.85,2.99
10.2420,0.08,0.12,-0.99,2.99,3.97,2.87
10.2640,0.08,0.12,-0.99,2.93,4.03,2.81
10.2800,0.08,0.12,-0.99,2.81,3.60,2.87
10.2950,0.08,0.12,-0.99,2.81,3.72,3.05
10.3110,0.08,0.12,-0.99,2.93,3.42,3.11
10.3270,0.08,0.12,-0.99,2.93,3.78,3.11
10.3410,0.08,0.12,-0.99,2.81,3.72,3.23
10.3570,0.08,0.12,-0.99,2.99,3.91,3.05
10.3720,0.09,0.11,-0.99,2.69,3.66,3.11
10.3880,0.08,0.12,-0.99,2.87,3.78,2.75
10.4020,0.09,0.12,-0.99,2.93,3.97,2.69
10.4140,0.08,0.12,-0.99,2.81,3.91,2.62
10.4310,0.08,0.12,-0.99,2.99,4.09,2.75
10.4480,0.08,0.12,-0.99,3.17,3.66,2.99
10.4650,0.08,0.12,-0.99,2.93,3.85,2.81
10.4810,0.08,0.12,-0.99,3.11,3.97,2.62
10.4980,0.08,0.12,-0.99,3.05,4.03,2.50
10.5130,0.08,0.12,-0.99,2.99,3.85,2.75
10.5290,0.08,0.12,-0.99,3.17,3.85,2.75
10.5440,0.08,0.12,-0.99,2.81,3.85,3.05
10.5600,0.09,0.11,-0.99,2.87,3.54,2.87
10.5640,0.08,0.12,-0.99,2.99,3.54,2.50
10.5800,0.08,0.12,-0.99,2.87,3.48,2.81
10.6030,0.08,0.12,-0.99,2.93,3.36,2.81
10.6190,0.08,0.11,-0.99,3.05,4.09,2.99
10.6350,0.09,0.12,-0.99,3.05,3.97,2.56
10.6520,0.09,0.12,-0.99,2.93,3.66,2.44
10.6690,0.08,0.12,-0.99,3.11,3.85,2.44
10.6850,0.08,0.12,-0.99,3.17,3.60,2.62
10.7010,0.08,0.12,-0.99,2.87,3.66,2.81
10.7030,0.09,0.12,-0.99,2.81,3.78,2.87
10.7320,0.08,0.12,-0.99,3.17,3.48,2.69
10.7430,0.08,0.12,-0.99,3.05,3.91,2.81
10.7590,0.08,0.12,-0.99,2.81,3.97,2.99
10.7750,0.09,0.12,-0.99,2.87,3.66,2.81
10.7920,0.08,0.12,-0.99,3.11,3.72,2.69
10.8070,0.09,0.12,-0.99,2.87,3.78,2.62
10.8240,0.08,0.12,-0.99,3.11,3.72,2.75
10.8400,0.08,0.12,-0.99,2.93,3.85,2.81
10.8560,0.08,0.12,-0.99,2.87,3.97,2.75
10.8720,0.08,0.12,-0.99,3.05,3.78,2.75
10.8750,0.08,0.12,-0.99,2.87,3.66,2.81
10.8910,0.08,0.12,-0.99,2.93,3.72,2.62
10.9130,0.08,0.12,-0.99,2.87,3.78,2.93
10.9300,0.08,0.12,-0.99,2.69,3.72,3.30
10.9470,0.08,0.12,-0.99,2.93,3.48,3.54
10.9630,0.09,0.11,-0.99,2.75,3.60,3.54
10.9780,0.08,0.12,-0.99,2.93,3.72,2.87
10.9940,0.08,0.12,-0.99,3.11,3.66,2.75
11.0100,0.08,0.12,-0.99,2.69,4.21,2.87
11.0130,0.08,0.12,-0.99,3.05,4.03,3.11
11.0390,0.08,0.11,-0.99,3.05,3.48,3.17
11.0560,0.08,0.12,-0.99,2.75,3.78,2.62
11.0670,0.08,0.12,-0.99,2.69,3.72,2.99
11.0830,0.08,0.12,-0.99,2.81,3.85,2.93
11.1000,0.08,0.12,-0.99,2.87,3.97,2.75
11.1170,0.08,0.12,-0.99,2.87,3.85,2.87
11.1320,0.08,0.12,-0.99,3.05,4.09,2.75
11.1470,0.08,0.11,-1.00,3.23,3.66,2.81
11.1500,0.09,0.12,-0.99,3.23,4.15,2.32
11.1660,0.08,0.12,-0.99,2.99,4.03,2.26
11.1880,0.08,0.12,-0.99,3.11,4.27,2.62
11.2070,0.08,0.12,-0.99,3.11,4.09,2.38
11.2210,0.08,0.12,-0.99,3.05,4.21,2.44
11.2380,0.08,0.12,-0.99,3.05,3.85,2.75
11.2530,0.08,0.12,-0.99,2.93,3.78,2.75
11.2690,0.09,0.12,-0.99,2.93,3.97,2.56
11.2860,0.08,0.12,-0.99,3.11,3.91,2.56
11.3020,0.08,0.12,-0.99,2.99,4.09,2.44
11.3180,0.08,0.12,-0.99,3.17,3.78,2.62
11.3330,0.08,0.12,-0.99,2.99,4.21,2.69
11.3400,0.08,0.12,-0.99,3.05,3.72,2.69
11.3550,0.08,0.12,-1.00,2.87,3.91,2.69
11.3780,0.09,0.12,-0.99,2.87,3.97,2.69
11.3880,0.09,0.12,-0.99,2.81,4.09,2.75
11.4040,0.08,0.12,-0.99,2.99,3.78,3.05
11.4230,0.09,0.12,-0.99,2.93,3.97,2.99
11.4270,0.08,0.12,-0.99,2.93,3.97,3.11
11.4550,0.09,0.12,-0.99,2.93,3.85,3.30
11.4600,0.08,0.12,-0.99,2.81,3.85,3.11
11.4870,0.09,0.12,-0.99,2.87,3.85,2.81
11.5020,0.08,0.12,-0.99,2.87,4.03,2.99
11.5180,0.08,0.12,-0.99,3.17,3.66,3.05
11.5330,0.08,0.12,-0.99,3.05,3.72,3.42
11.5440,0.08,0.12,-0.99,2.81,3.72,3.23
11.5610,0.08,0.12,-0.99,3.17,3.91,2.99
11.5780,0.08,0.12,-0.99,3.11,3.91,3.17
11.5940,0.08,0.12,-0.99,3.11,3.60,2.93
11.6090,0.08,0.12,-0.99,2.99,3.72,3.17
11.6260,0.08,0.12,-0.99,2.99,4.03,3.23
11.6400,0.08,0.12,-0.99,2.81,3.85,3.23
11.6440,0.08,0.12,-0.99,2.87,3.91,3.11
11.6720,0.09,0.12,-0.99,2.87,3.78,3.17
11.6870,0.09,0.11,-0.99,2.75,3.85,3.42
11.6990,0.08,0.12,-1.00,2.99,3.97,2.87
11.7160,0.08,0.12,-0.99,3.05,3.72,2.99
11.7310,0.08,0.12,-0.99,3.17,3.42,2.93
11.7490,0.09,0.12,-0.99,2.99,3.78,2.56
11.7660,0.09,0.12,-0.99,2.87,4.03,2.50
11.7810,0.08,0.12,-0.99,2.99,3.60,2.81
11.7980,0.08,0.12,-0.99,2.87,3.85,2.93
11.8120,0.08,0.11,-0.99,2.93,3.85,2.93
11.8270,0.08,0.11,-0.99,2.99,3.85,2.62
11.8430,0.08,0.12,-0.99,3.05,3.85,2.69
11.8570,0.08,0.11,-0.99,2.87,3.85,2.56
11.8710,0.08,0.12,-0.99,2.99,3.91,2.32
11.8870,0.08,0.11,-0.99,3.05,3.85,2.62
11.8990,0.08,0.12,-1.00,3.42,3.97,2.56
11.9150,0.08,0.12,-0.99,2.93,3.97,2.50
11.9320,0.09,0.11,-0.99,2.99,4.09,2.50
11.9490,0.08,0.12,-0.99,3.23,4.33,2.20
11.9650,0.08,0.12,-0.99,2.93,3.72,2.26
11.9820,0.08,0.12,-0.99,3.05,4.03,2.32
11.9970,0.09,0.12,-0.99,2.93,3.85,2.26
12.0120,0.09,0.12,-0.99,3.11,3.66,2.32
12.0270,0.08,0.12,-0.99,2.87,3.66,2.50
12.0430,0.08,0.11,-0.99,2.99,4.03,2.69
12.0570,0.09,0.13,-1.00,2.87,3.78,2.32
12.0720,0.08,0.12,-1.00,2.93,3.78,2.56
12.0870,0.08,0.12,-0.99,2.87,3.91,2.38
12.0990,0.08,0.12,-0.99,3.05,3.78,2.56
12.1150,0.08,0.11,-0.99,2.87,3.91,2.56
12.1320,0.08,0.12,-0.99,3.05,4.09,2.32
12.1480,0.08,0.12,-0.99,2.93,3.78,2.32
12.1650,0.09,0.12,-0.99,2.99,3.72,2.20
12.1820,0.09,0.12,-0.99,2.99,3.66,2.26
12.1970,0.09,0.12,-0.99,2.87,3.72,2.81
12.2120,0.08,0.12,-0.99,2.87,3.91,3.05
12.2280,0.08,0.12,-0.99,3.05,3.97,2.87
12.2420,0.08,0.12,-0.99,3.05,3.85,2.87
12.2580,0.08,0.12,-0.99,2.99,3.60,3.17
12.2660,0.08,0.12,-0.99,2.87,3.91,2.93
12.2880,0.09,0.12,-0.99,2.99,3.72,2.99
12.2990,0.08,0.12,-0.99,2.81,3.78,3.30
12.3150,0.08,0.12,-0.99,3.05,3.91,3.23
12.3310,0.08,0.11,-0.99,3.05,3.97,3.30
12.3490,0.09,0.12,-0.99,2.93,4.03,2.81
12.3650,0.09,0.12,-0.99,2.99,3.91,2.62
12.3820,0.08,0.12,-0.99,2.99,3.85,2.62
12.3970,0.09,0.12,-0.99,2.99,3.72,2.56
12.4130,0.08,0.12,-0.99,3.11,3.72,2.50
12.4270,0.08,0.12,-0.99,3.05,3.72,2.62
12.4420,0.08,0.12,-0.99,2.87,3.60,3.11
12.4570,0.08,0.12,-0.99,2.81,3.66,3.30
12.4740,0.09,0.12,-0.99,3.17,3.72,3.54
12.4820,0.09,0.12,-0.99,2.99,3.72,3.36
12.4970,0.09,0.12,-0.99,2.99,3.66,3.36
12.5190,0.08,0.12,-0.99,2.93,3.72,3.11
12.5350,0.08,0.12,-0.99,2.93,3.78,2.69
12.5510,0.08,0.11,-0.99,2.93,3.91,2.56
12.5530,0.08,0.12,-0.99,2.87,3.97,2.75
12.5680,0.08,0.12,-0.99,2.87,3.91,2.75
12.5910,0.08,0.12,-0.99,2.93,3.91,2.93
12.6090,0.08,0.12,-0.99,2.87,3.85,3.23
12.6250,0.08,0.12,-1.00,2.99,3.85,2.99
12.6410,0.08,0.12,-0.99,2.87,3.91,3.05
12.6580,0.08,0.12,-0.99,2.69,4.09,2.81
12.6730,0.08,0.12,-0.99,2.99,3.85,2.56
12.6900,0.08,0.12,-0.99,2.81,4.09,2.50
12.6930,0.09,0.12,-0.99,3.11,4.09,2.81
12.7220,0.08,0.12,-0.99,3.11,3.91,2.81
12.7380,0.08,0.12,-0.99,3.05,3.97,2.75
12.7540,0.09,0.12,-0.99,2.99,3.97,2.56
12.7600,0.09,0.12,-0.99,2.87,3.85,2.38
12.7760,0.09,0.12,-0.99,3.05,4.15,2.44
12.7980,0.08,0.12,-0.99,2.75,4.03,2.81
12.8150,0.09,0.12,-0.99,2.93,3.85,2.69
12.8310,0.09,0.11,-0.99,2.93,3.78,2.81
12.8470,0.08,0.12,-0.99,2.93,3.60,2.56
12.8640,0.08,0.12,-0.99,3.17,3.48,2.44
12.8790,0.08,0.12,-0.99,2.99,3.85,2.56
12.8940,0.08,0.12,-0.99,2.93,3.72,2.87
12.9090,0.08,0.12,-0.99,2.93,3.78,3.17
12.9240,0.08,0.12,-0.99,2.75,3.85,3.17
12.9310,0.08,0.12,-0.99,2.75,4.09,3.30
12.9530,0.08,0.12,-0.99,2.99,3.85,2.93
12.9650,0.09,0.12,-0.99,2.87,3.97,2.93
12.9810,0.08,0.12,-0.99,2.93,3.85,2.87
12.9980,0.08,0.12,-0.99,2.99,3.85,2.81
13.0140,0.08,0.12,-0.99,3.23,3.91,2.99
13.0290,0.08,0.12,-0.99,3.11,3.85,3.05
13.0440,0.09,0.12,-0.99,2.99,4.03,2.75
13.0480,0.08,0.12,-0.99,2.81,3.66,2.75
13.0750,0.08,0.12,-0.99,3.23,3.60,2.81
13.0870,0.09,0.12,-0.99,2.87,3.78,2.75
13.1040,0.09,0.12,-0.99,2.93,3.60,2.81
13.1200,0.08,0.12,-0.99,2.75,3.48,2.99
13.1350,0.09,0.12,-0.99,2.93,3.78,3.23
13.1520,0.08,0.12,-0.99,2.93,4.03,3.05
13.1680,0.08,0.12,-0.99,2.99,3.78,2.93
13.1830,0.08,0.12,-0.99,2.99,3.54,2.99
13.1990,0.08,0.12,-0.99,3.05,3.91,3.17
13.2130,0.09,0.12,-0.99,2.81,4.09,3.11
13.2200,0.09,0.12,-0.99,2.99,3.85,2.99
13.2410,0.09,0.12,-0.99,2.87,3.97,3.05
13.2580,0.08,0.12,-0.99,3.05,3.54,2.75
13.2740,0.08,0.12,-0.99,2.93,3.48,2.87
13.2920,0.08,0.12,-0.99,2.75,3.91,2.93
13.2930,0.08,0.12,-0.99,2.87,3.85,2.75
13.3240,0.08,0.12,-0.99,2.99,3.78,2.75
13.3400,0.08,0.12,-0.99,2.93,4.09,2.99
13.3560,0.08,0.12,-1.00,3.05,4.09,3.11
13.3720,0.09,0.12,-0.99,2.99,3.91,2.87
13.3880,0.08,0.12,-0.99,2.62,4.15,3.05
13.3930,0.09,0.12,-0.99,2.99,3.97,2.93
13.4090,0.08,0.12,-0.99,3.11,3.97,2.87
13.4350,0.08,0.12,-0.99,3.17,3.78,2.81
13.4470,0.09,0.12,-0.99,2.93,4.09,2.99
13.4630,0.08,0.12,-0.99,3.11,3.72,3.42
13.4790,0.08,0.12,-0.99,2.69,3.72,3.60
13.4950,0.09,0.12,-0.99,2.69,3.85,3.48
13.5020,0.09,0.12,-0.99,2.81,3.72,3.11
13.5190,0.09,0.12,-0.99,2.69,3.91,2.87
13.5410,0.09,0.13,-0.99,2.81,3.23,2.93
13.5570,0.08,0.11,-1.00,3.17,3.66,3.11
13.5730,0.08,0.12,-0.99,2.99,3.66,2.69
13.5880,0.09,0.12,-0.99,2.93,4.09,2.81
13.5910,0.08,0.12,-0.99,2.99,3.72,2.99
13.6060,0.09,0.12,-0.99,2.93,4.03,2.75
13.6350,0.09,0.12,-0.99,2.75,3.91,2.75
13.6500,0.08,0.12,-0.99,3.11,3.72,3.11
13.6620,0.08,0.12,-0.99,2.69,3.54,3.66
13.6780,0.09,0.12,-0.99,2.99,3.60,3.42
13.6950,0.09,0.12,-0.99,2.81,3.78,3.42
13.7100,0.09,0.12,-0.99,2.87,3.66,3.36
13.7270,0.08,0.12,-1.00,2.87,3.97,3.11
13.7430,0.08,0.12,-0.99,2.93,3.91,3.05
13.7460,0.09,0.12,-0.99,2.99,3.78,2.62
13.7610,0.08,0.12,-0.99,2.99,4.09,2.50
13.7880,0.09,0.12,-0.99,2.93,3.85,2.32
13.8000,0.09,0.12,-0.99,2.93,3.54,2.50
13.8160,0.09,0.12,-0.99,2.81,3.85,2.50
13.8330,0.08,0.12,-1.00,3.23,3.60,2.62
13.8480,0.08,0.11,-0.99,2.99,3.91,2.81
13.8640,0.09,0.12,-0.99,3.05,3.42,2.69
13.8790,0.08,0.12,-0.99,3.11,3.60,2.93
13.8940,0.08,0.12,-0.99,2.87,3.85,2.56
13.9100,0.08,0.12,-0.99,2.93,3.72,2.56
13.9160,0.08,0.12,-0.99,2.93,3.85,2.56
13.9320,0.08,0.12,-0.99,2.93,3.78,2.62
13.9480,0.08,0.12,-0.99,3.05,3.66,2.44
13.9710,0.08,0.12,-0.99,3.05,4.09,2.62
13.9860,0.08,0.12,-0.99,3.05,3.60,2.75
13.9870,0.08,0.12,-0.99,3.05,3.85,2.69
14.0050,0.08,0.12,-0.99,2.93,3.91,2.69
14.0210,0.08,0.12,-0.99,2.99,3.85,2.62
14.0410,0.08,0.12,-0.99,2.93,3.97,2.50
14.0630,0.09,0.12,-0.99,3.05,3.91,2.62
14.0740,0.08,0.12,-0.99,2.81,3.54,2.93
14.0910,0.08,0.12,-0.99,2.99,4.21,2.81
14.1080,0.08,0.12,-0.99,2.93,4.15,2.44
14.1260,0.08,0.12,-0.99,3.05,3.91,2.75
14.1260,0.08,0.12,-0.99,2.81,3.91,2.69
14.1570,0.08,0.12,-0.99,2.99,3.85,2.69
14.1730,0.08,0.12,-0.99,2.93,3.91,2.44
14.1900,0.09,0.12,-0.99,2.99,3.78,2.38
14.2060,0.09,0.12,-0.99,2.99,4.09,2.44
14.2220,0.08,0.12,-0.99,2.75,3.72,2.75
14.2370,0.09,0.12,-0.99,2.99,3.48,3.11
14.2520,0.09,0.12,-0.99,3.05,3.91,3.23
14.2580,0.08,0.12,-0.99,2.93,3.72,3.42
14.2740,0.09,0.12,-0.99,2.87,3.42,3.36
14.2980,0.08,0.12,-0.99,2.87,3.85,2.81
14.2980,0.08,0.12,-0.99,3.05,3.91,3.11
14.3280,0.08,0.12,-1.00,2.99,4.03,3.78
14.3430,0.08,0.12,-0.99,2.75,3.72,3.60
14.3480,0.09,0.12,-0.99,2.93,3.85,3.05
14.3740,0.09,0.11,-1.00,2.87,3.91,3.11
14.3810,0.08,0.12,-0.99,2.99,4.03,2.87
14.4040,0.09,0.12,-0.99,2.62,3.85,2.69
14.4150,0.09,0.12,-0.99,3.05,3.97,2.99
14.4310,0.09,0.12,-0.99,2.99,3.66,2.93
14.4490,0.08,0.12,-0.99,2.99,3.36,2.75
14.4650,0.09,0.12,-0.99,2.87,4.03,2.62
14.4810,0.08,0.12,-0.99,2.93,3.91,2.56
14.4980,0.08,0.12,-0.99,3.05,3.66,2.56
14.5130,0.08,0.12,-0.99,2.93,3.78,2.32
14.5280,0.08,0.12,-0.99,3.11,3.91,2.38
14.5440,0.09,0.12,-0.99,3.30,3.66,2.38
14.5480,0.08,0.12,-0.99,2.93,3.85,2.38
14.5640,0.09,0.12,-0.99,3.11,3.66,2.38
14.5870,0.08,0.12,-0.99,2.93,3.72,2.62
14.6040,0.09,0.12,-0.99,2.93,3.78,2.56
14.6200,0.08,0.12,-0.99,2.75,3.91,2.75
14.6210,0.09,0.12,-0.99,2.87,3.91,2.75
14.6420,0.09,0.12,-0.99,3.17,4.03,2.44
14.6550,0.09,0.12,-0.99,3.23,3.78,2.32
14.6710,0.08,0.12,-0.99,2.81,3.85,2.50
14.6920,0.08,0.12,-0.99,3.23,3.72,2.69
14.7090,0.08,0.11,-1.00,2.99,3.85,2.69
14.7240,0.09,0.12,-0.99,3.05,4.03,2.50
14.7420,0.08,0.12,-0.99,3.17,3.72,2.50
14.7570,0.08,0.12,-0.99,2.87,3.78,2.93
14.7730,0.08,0.12,-0.99,2.93,3.36,3.66
14.7880,0.09,0.12,-0.99,2.69,3.72,4.09
14.8040,0.09,0.13,-0.99,2.93,3.78,3.05
14.8120,0.09,0.12,-0.99,3.11,3.72,2.99
14.8280,0.08,0.10,-1.00,3.11,3.97,2.75
14.8490,0.09,0.12,-0.99,3.11,3.72,2.75
14.8650,0.08,0.12,-0.99,3.23,3.66,2.62
14.8820,0.08,0.12,-1.00,3.17,3.66,2.99
14.8990,0.08,0.12,-0.99,3.05,3.78,2.93
14.9140,0.09,0.12,-0.99,3.11,4.03,2.99
14.9300,0.09,0.12,-0.99,2.87,3.85,3.36
14.9450,0.09,0.12,-0.99,2.99,3.66,2.93
14.9600,0.09,0.12,-0.99,3.05,3.72,2.62
14.9760,0.08,0.12,-0.99,3.05,3.97,2.69
14.9920,0.08,0.12,-0.99,3.05,3.97,2.56
14.9990,0.09,0.12,-0.99,3.17,3.72,2.75
15.0150,0.09,0.12,-0.99,3.17,4.03,2.75
15.0370,0.09,0.12,-0.99,3.17,3.85,2.81
15.0550,0.09,0.12,-0.99,3.05,3.60,2.50
15.0700,0.09,0.11,-0.99,3.17,3.60,2.56
15.0860,0.08,0.12,-1.00,3.17,3.72,2.44
15.0880,0.09,0.12,-1.00,3.23,3.66,2.26
15.1040,0.08,0.12,-0.99,2.81,4.03,2.26
15.1210,0.09,0.12,-0.99,2.81,4.15,2.38
15.1420,0.08,0.12,-0.99,2.93,3.97,2.38
15.1580,0.08,0.12,-0.99,2.87,3.97,2.38
15.1750,0.08,0.12,-0.99,2.99,4.21,2.38
15.1910,0.08,0.12,-0.99,2.93,3.78,2.32
15.2080,0.09,0.12,-0.99,2.99,3.66,2.44
15.2250,0.08,0.12,-0.99,2.99,3.85,2.62
15.2410,0.09,0.12,-0.99,2.99,3.91,2.81
15.2420,0.08,0.12,-0.99,2.99,3.54,2.81
15.2710,0.08,0.12,-0.99,2.99,3.97,2.93
15.2860,0.08,0.12,-0.99,3.05,3.78,3.05
15.3000,0.08,0.12,-0.99,3.05,4.03,3.30
15.3150,0.09,0.12,-0.99,2.99,3.48,3.72
15.3310,0.09,0.12,-0.99,2.87,3.66,3.54
15.3420,0.09,0.12,-0.99,2.81,3.66,3.42
15.3580,0.08,0.12,-0.99,3.05,3.72,3.36
15.3740,0.08,0.12,-0.99,2.93,3.91,3.60
15.3910,0.08,0.12,-0.99,2.99,3.54,3.54
15.4060,0.08,0.12,-0.99,2.69,4.03,3.54
15.4220,0.08,0.12,-0.99,2.87,3.72,3.78
15.4370,0.08,0.12,-0.99,2.81,3.66,4.27
15.4530,0.08,0.12,-0.99,2.69,3.60,4.09
15.4680,0.09,0.11,-1.00,2.93,3.78,3.91
15.4830,0.08,0.11,-0.99,2.62,3.60,2.99
15.4990,0.09,0.12,-0.99,2.81,3.42,3.42
15.5100,0.09,0.11,-0.99,2.93,3.78,3.36
15.5250,0.09,0.12,-0.99,2.81,3.60,2.93
15.5450,0.08,0.12,-0.99,2.93,3.60,2.93
15.5610,0.09,0.12,-0.99,2.99,3.78,3.05
15.5770,0.09,0.12,-0.99,2.99,3.72,2.62
15.5930,0.08,0.12,-0.99,3.11,3.91,2.93
15.6090,0.09,0.11,-0.99,2.69,4.03,2.93
15.6240,0.08,0.12,-0.99,3.17,3.85,2.69
15.6390,0.08,0.12,-0.99,3.05,3.78,2.81
15.6540,0.08,0.12,-0.99,3.23,3.42,2.99
15.6620,0.09,0.12,-0.99,2.93,4.15,3.36
15.6780,0.09,0.12,-0.99,3.05,3.78,3.11
15.7000,0.09,0.12,-0.99,3.05,3.72,2.62
15.7010,0.09,0.12,-0.99,2.81,3.48,2.87
15.7310,0.09,0.12,-0.99,2.87,3.30,3.23
15.7420,0.09,0.12,-0.99,2.99,3.54,3.54
15.7630,0.09,0.12,-0.99,2.99,3.91,3.23
15.7780,0.09,0.12,-0.99,2.93,3.54,3.17
15.7930,0.09,0.12,-0.99,2.99,3.91,2.75
15.8010,0.08,0.12,-0.99,3.05,3.85,2.62
15.8170,0.09,0.12,-0.99,2.87,3.97,2.87
15.8380,0.09,0.12,-0.99,2.75,3.60,2.69
15.8540,0.09,0.12,-0.99,3.05,3.54,2.50
15.8710,0.09,0.12,-1.00,3.23,3.66,2.81
15.8860,0.08,0.12,-0.99,2.75,3.78,2.75
15.8870,0.09,0.12,-0.99,2.87,3.72,2.44
15.9050,0.09,0.11,-0.99,2.99,3.78,2.32
15.9200,0.09,0.12,-0.99,3.23,3.97,2.20
15.9500,0.09,0.12,-0.99,3.05,3.85,2.14
15.9540,0.09,0.12,-0.99,2.75,4.09,2.01
15.9690,0.08,0.12,-0.99,2.99,3.91,2.08
15.9850,0.09,0.12,-0.99,3.11,3.48,2.20
16.0080,0.09,0.13,-0.99,2.81,3.72,2.44
16.0250,0.08,0.12,-0.99,2.87,3.66,2.81
16.0400,0.09,0.14,-0.99,2.69,3.48,2.93
16.0560,0.08,0.12,-0.99,2.87,3.60,4.27
16.0710,0.09,0.12,-0.99,2.87,3.66,3.97
16.0860,0.09,0.12,-0.99,2.81,3.91,3.36
16.0930,0.09,0.14,-0.99,2.81,3.78,3.60
16.1080,0.08,0.12,-0.99,2.69,3.36,3.97
16.1300,0.08,0.11,-0.99,2.62,3.72,4.39
16.1450,0.08,0.10,-1.00,2.87,3.54,3.78
16.1610,0.08,0.10,-1.00,2.75,3.66,2.93
16.1780,0.08,0.11,-0.99,2.99,4.03,2.69
16.1930,0.08,0.11,-0.99,2.93,3.97,2.81
16.2080,0.08,0.12,-0.99,2.75,3.66,2.87
16.2230,0.09,0.12,-0.99,2.87,3.72,2.69
16.2290,0.09,0.12,-0.99,3.05,3.48,2.81
16.2450,0.09,0.12,-0.99,3.05,3.85,2.56
16.2660,0.08,0.12,-0.99,2.93,4.09,2.44
16.2850,0.09,0.12,-0.99,3.05,3.91,2.50
16.2850,0.09,0.12,-0.99,2.93,3.78,2.44
16.3160,0.08,0.12,-0.99,2.81,4.15,2.01
16.3310,0.09,0.12,-0.99,2.87,3.97,2.14
16.3480,0.08,0.12,-0.99,2.81,3.91,2.01
16.3500,0.09,0.12,-0.99,3.11,3.78,2.56
16.3800,0.08,0.12,-0.99,3.05,3.91,2.50
16.3950,0.09,0.12,-0.99,2.99,3.97,2.62
16.4040,0.09,0.12,-0.99,3.11,3.78,2.44
16.4210,0.08,0.12,-0.99,2.87,4.15,2.20
16.4370,0.09,0.12,-0.99,2.99,3.91,2.08
16.4550,0.09,0.12,-0.99,2.99,3.97,2.14
16.4710,0.09,0.12,-0.99,3.05,3.91,2.14
16.4870,0.08,0.12,-0.99,2.81,3.72,2.14
16.4880,0.09,0.12,-0.99,3.05,3.91,2.14
16.5180,0.09,0.12,-0.99,2.81,3.72,2.14
16.5210,0.09,0.12,-0.99,2.93,4.09,2.32
16.5430,0.08,0.12,-0.99,2.99,3.72,2.01
16.5580,0.08,0.12,-0.99,2.99,3.78,2.14
16.5750,0.08,0.12,-0.99,2.99,4.03,2.38
16.5920,0.08,0.12,-0.99,3.11,3.91,2.81
16.6080,0.08,0.12,-0.99,2.87,3.91,3.48
16.6230,0.08,0.12,-0.99,2.75,3.72,3.91
16.6390,0.09,0.12,-0.99,2.81,3.66,3.72
16.6550,0.08,0.12,-0.99,2.93,3.60,3.48
16.6590,0.09,0.12,-0.99,2.81,3.54,4.21
16.6750,0.09,0.12,-1.00,2.75,3.36,3.72
16.6980,0.08,0.12,-0.99,2.87,3.48,3.60
16.7140,0.09,0.12,-0.99,2.87,3.54,4.33
16.7310,0.09,0.12,-0.99,2.81,3.78,3.17
16.7470,0.09,0.12,-0.99,2.87,3.72,2.69
16.7630,0.08,0.12,-1.00,3.23,3.72,2.56
16.7780,0.09,0.12,-0.99,2.75,3.78,2.62
16.7940,0.09,0.12,-0.99,2.93,3.85,3.11
16.7980,0.09,0.12,-0.99,2.81,4.03,3.48
16.8130,0.09,0.12,-0.99,2.99,3.97,3.48
16.8350,0.09,0.11,-0.99,2.99,4.03,3.05
16.8520,0.08,0.12,-1.00,2.81,3.42,2.81
16.8680,0.08,0.12,-0.99,2.81,3.78,3.66
16.8850,0.09,0.12,-0.99,2.93,3.36,3.97
16.9010,0.09,0.12,-0.99,2.99,3.60,3.66
16.9160,0.09,0.12,-0.99,2.56,3.72,3.72
16.9320,0.09,0.12,-0.99,2.93,3.97,3.23
16.9470,0.08,0.12,-0.99,2.87,3.66,2.99
16.9620,0.09,0.12,-0.99,2.69,3.66,3.17
16.9770,0.09,0.12,-0.99,2.75,3.78,2.93
16.9920,0.09,0.12,-0.99,2.69,3.72,2.87
17.0020,0.09,0.12,-0.99,2.93,3.66,2.62
17.0180,0.09,0.12,-0.99,3.17,4.03,2.75
17.0390,0.08,0.12,-0.99,2.99,3.78,2.87
17.0550,0.09,0.12,-0.99,2.93,3.66,2.81
17.0700,0.09,0.12,-0.99,2.81,3.97,2.81
17.0870,0.09,0.12,-0.99,3.05,3.72,2.99
17.1020,0.08,0.12,-0.99,2.87,3.91,2.87
17.1070,0.08,0.12,-0.99,2.81,3.78,3.05
17.1230,0.09,0.11,-0.99,2.75,3.66,2.99
17.1450,0.09,0.12,-0.99,2.87,3.85,2.81
17.1610,0.08,0.12,-0.99,2.99,3.91,2.87
17.1780,0.08,0.12,-0.99,2.93,3.72,3.05
17.1930,0.08,0.12,-0.99,2.81,3.60,3.17
17.2090,0.09,0.12,-0.99,2.93,3.60,3.17
17.2240,0.08,0.11,-0.99,2.81,3.60,3.11
17.2390,0.09,0.12,-0.99,2.87,3.78,2.99
17.2540,0.09,0.12,-0.99,2.75,3.85,2.99
17.2610,0.09,0.12,-0.99,2.99,3.97,3.23
17.2770,0.09,0.12,-0.99,3.11,3.66,3.23
17.2990,0.09,0.12,-0.99,3.17,3.48,3.17
17.3160,0.08,0.12,-0.99,2.93,3.72,2.99
17.3320,0.08,0.11,-0.99,2.81,3.66,3.23
17.3490,0.08,0.12,-0.99,3.17,3.85,2.99
17.3650,0.09,0.12,-0.99,3.11,3.72,2.81
17.3810,0.09,0.12,-0.99,2.99,3.72,2.81
17.3960,0.08,0.12,-0.99,2.87,3.66,2.87
17.4110,0.08,0.12,-0.99,2.93,3.78,3.05
17.4270,0.09,0.12,-0.99,2.87,3.42,2.62
17.4420,0.09,0.12,-0.99,2.99,3.54,2.38
17.4580,0.09,0.12,-0.99,2.99,3.97,2.26
17.4750,0.09,0.12,-0.99,3.05,3.97,2.26
17.4900,0.09,0.12,-0.99,2.99,4.03,2.32
17.4990,0.08,0.12,-0.99,2.99,3.78,2.32
17.5210,0.09,0.12,-0.99,3.05,3.72,2.44
17.5330,0.09,0.12,-0.99,3.05,3.66,2.08
17.5490,0.09,0.12,-0.99,3.17,3.97,1.59
17.5650,0.08,0.12,-1.00,3.11,3.72,1.77
17.5820,0.08,0.12,-0.99,2.81,3.78,2.14
17.5980,0.09,0.12,-0.99,2.87,3.91,2.20
17.6140,0.09,0.12,-0.99,3.05,3.42,2.20
17.6310,0.09,0.12,-0.99,3.05,3.78,2.38
17.6460,0.08,0.12,-0.99,2.93,3.78,2.50
17.6630,0.09,0.12,-0.99,2.99,3.91,2.75
17.6780,0.09,0.12,-0.99,2.99,3.78,3.11
17.6820,0.08,0.12,-0.99,2.69,3.85,3.17
17.6980,0.08,0.12,-0.99,2.81,3.72,3.48
17.7240,0.09,0.12,-0.99,2.87,3.48,3.66
17.7360,0.08,0.12,-0.99,2.56,3.72,3.54
17.7520,0.09,0.12,-0.99,2.75,3.54,3.48
17.7690,0.09,0.12,-0.99,2.93,3.60,3.60
17.7850,0.09,0.12,-0.99,2.99,3.72,3.42
17.8000,0.09,0.12,-1.00,2.93,3.78,3.42
17.8160,0.08,0.12,-0.99,3.17,3.66,3.30
17.8190,0.09,0.12,-0.99,2.87,3.72,3.11
17.8440,0.09,0.12,-0.99,2.81,3.54,3.48
17.8630,0.09,0.12,-0.99,2.99,3.78,2.75
17.8730,0.09,0.12,-0.99,3.05,3.66,2.93
17.8900,0.08,0.12,-0.99,3.11,3.85,2.75
17.9070,0.08,0.12,-0.99,3.05,3.54,2.69
17.9250,0.09,0.12,-0.99,3.05,3.85,3.05
17.9400,0.09,0.12,-0.99,3.11,3.91,2.87
17.9570,0.09,0.11,-0.99,2.99,3.78,2.99
17.9720,0.09,0.12,-0.99,2.75,4.09,2.38
17.9880,0.08,0.12,-0.99,2.81,3.85,2.14
18.0040,0.09,0.12,-0.99,3.05,3.72,2.20
18.0210,0.09,0.12,-0.99,3.05,3.97,2.20
18.0240,0.08,0.12,-0.99,2.99,3.85,2.56
18.0440,0.09,0.12,-0.99,3.17,3.91,2.69
18.0610,0.09,0.12,-0.99,2.81,3.78,2.56
18.0780,0.08,0.12,-0.99,3.11,3.60,2.50
18.0940,0.09,0.12,-1.00,3.05,3.54,2.87
18.1120,0.09,0.12,-0.99,3.17,4.09,3.23
18.1270,0.09,0.12,-0.99,3.11,3.85,3.23
18.1320,0.09,0.12,-0.99,2.93,4.09,3.05
18.1490,0.09,0.12,-0.99,2.87,3.85,3.17
18.1720,0.08,0.12,-0.99,2.99,3.66,3.30
18.1830,0.09,0.12,-0.99,2.75,3.42,3.23
18.1990,0.09,0.12,-1.00,3.23,3.66,3.60
18.2150,0.08,0.12,-0.99,3.05,4.03,2.99
18.2330,0.08,0.11,-0.99,3.05,3.60,2.62
18.2480,0.09,0.12,-0.99,2.75,4.03,2.44
18.2640,0.09,0.12,-0.99,2.81,4.15,2.81
18.2700,0.08,0.12,-0.99,2.69,3.60,3.23
18.2940,0.09,0.12,-1.00,2.75,3.78,3.48
18.3040,0.09,0.12,-0.99,3.05,4.09,2.87
18.3210,0.09,0.12,-0.99,2.99,4.15,2.56
18.3360,0.08,0.12,-0.99,2.69,3.60,2.44
18.3560,0.08,0.12,-0.99,2.81,3.66,2.75
18.3730,0.09,0.12,-0.99,2.75,3.66,2.81
18.3880,0.09,0.12,-0.99,2.62,3.97,2.99
18.4030,0.09,0.12,-0.99,3.11,4.03,2.75
18.4100,0.09,0.12,-0.99,2.87,3.72,2.87
18.4250,0.09,0.12,-0.99,2.99,3.72,3.05
18.4480,0.08,0.12,-0.99,2.87,3.54,3.05
18.4630,0.09,0.12,-0.99,2.81,3.48,3.30
18.4780,0.09,0.12,-0.99,2.99,3.78,3.36
18.4930,0.09,0.12,-0.99,3.05,3.72,3.36
18.5090,0.09,0.12,-0.99,2.87,3.78,3.17
18.5230,0.09,0.12,-0.99,2.87,3.72,2.93
18.5380,0.09,0.12,-0.99,3.05,3.91,3.11
18.5540,0.09,0.12,-0.99,2.93,3.48,3.23
18.5640,0.09,0.12,-0.99,2.81,3.72,3.23
18.5800,0.09,0.11,-1.00,2.81,3.48,3.48
18.6000,0.09,0.12,-0.99,2.81,3.66,2.69
18.6160,0.09,0.11,-0.99,2.75,3.48,2.81
18.6320,0.09,0.12,-0.99,3.17,3.85,2.56
18.6470,0.09,0.12,-0.99,3.05,4.09,2.87
18.6630,0.09,0.12,-0.99,2.87,3.54,3.48
18.6800,0.09,0.12,-0.99,2.99,3.85,3.48
18.6950,0.09,0.12,-0.99,3.17,3.66,3.23
18.7100,0.09,0.12,-0.99,2.99,3.91,3.05
18.7250,0.09,0.12,-0.99,3.05,3.97,3.11
18.7350,0.09,0.13,-0.99,2.81,3.78,3.23
18.7510,0.09,0.12,-0.99,2.69,3.54,3.54
18.7730,0.09,0.12,-0.99,2.81,3.72,3.36
18.7740,0.08,0.11,-0.99,2.99,3.78,2.87
18.8040,0.09,0.11,-0.99,3.17,3.60,2.50
18.8210,0.09,0.12,-0.99,3.05,3.97,2.14
18.8230,0.09,0.12,-0.99,2.75,3.85,2.08
18.8450,0.09,0.12,-0.99,3.05,3.91,2.20
18.8660,0.09,0.12,-0.99,3.05,4.03,2.56
18.8770,0.09,0.12,-0.99,3.05,3.97,2.56
18.8950,0.09,0.12,-0.99,2.99,3.54,2.75
18.9110,0.09,0.12,-0.99,2.99,3.48,3.05
18.9260,0.09,0.12,-0.99,3.05,3.60,2.81
18.9420,0.09,0.12,-0.99,2.93,3.54,2.62
18.9590,0.09,0.12,-0.99,2.93,3.66,2.50
18.9740,0.09,0.12,-0.99,2.75,3.66,2.38
18.9900,0.09,0.12,-0.99,2.75,3.66,2.44
19.0050,0.08,0.12,-0.99,2.99,3.85,2.38
19.0200,0.08,0.12,-0.99,2.99,3.72,2.56
19.0270,0.09,0.12,-0.99,3.05,3.97,2.50
19.0450,0.09,0.12,-0.99,3.17,3.91,2.62
19.0650,0.09,0.12,-0.99,2.87,3.54,2.50
19.0830,0.08,0.12,-0.99,2.87,3.72,2.75
19.0830,0.08,0.12,-0.99,2.75,3.78,3.23
19.1130,0.09,0.12,-0.99,2.75,3.48,3.54
19.1290,0.09,0.12,-0.99,2.81,3.30,3.48
19.1440,0.09,0.12,-0.99,2.62,3.78,3.36
19.1590,0.09,0.12,-0.99,2.81,3.66,3.05
19.1740,0.09,0.12,-0.99,2.87,3.42,2.69
19.1900,0.09,0.13,-0.99,2.75,4.15,2.50
19.2060,0.09,0.12,-0.99,2.69,3.85,2.69
19.2210,0.09,0.12,-0.99,2.81,3.85,2.44
19.2320,0.09,0.12,-0.99,3.11,3.72,2.38
19.2490,0.09,0.13,-0.99,3.11,4.21,2.44
19.2650,0.08,0.11,-1.00,3.05,3.78,2.44
19.2810,0.10,0.13,-0.99,3.05,3.85,2.20
19.2990,0.08,0.11,-0.99,3.17,3.72,2.56
19.3150,0.09,0.13,-0.99,3.05,3.48,2.32
19.3310,0.08,0.12,-1.00,2.99,3.23,2.62
19.3460,0.10,0.13,-0.99,3.05,3.85,1.89
19.3610,0.08,0.11,-1.00,3.11,3.91,1.10
19.3770,0.08,0.11,-0.99,2.99,3.66,1.59
19.3920,0.09,0.12,-0.99,3.30,4.03,1.89
19.3980,0.09,0.12,-0.99,2.81,3.97,2.08
19.4140,0.08,0.12,-0.99,2.93,4.03,2.01
19.4360,0.09,0.12,-0.99,2.81,3.85,2.26
19.4530,0.08,0.12,-0.99,2.93,3.91,2.50
19.4700,0.09,0.12,-0.99,3.17,3.42,2.50
19.4850,0.09,0.12,-0.99,3.05,3.66,2.50
19.4860,0.09,0.12,-0.99,2.93,3.78,2.50
19.5040,0.09,0.12,-0.99,3.05,3.60,2.69
19.5190,0.08,0.12,-0.99,3.05,3.66,2.75
19.5470,0.09,0.12,-0.99,2.69,3.91,2.62
19.5580,0.09,0.12,-0.99,2.87,3.85,2.75
19.5750,0.08,0.12,-0.99,2.69,3.36,3.11
19.5920,0.09,0.12,-0.99,2.99,3.48,3.23
19.6080,0.09,0.12,-0.99,2.75,3.54,3.17
19.6240,0.09,0.12,-0.99,2.93,3.97,2.81
19.6390,0.09,0.12,-0.99,3.23,3.97,2.50
19.6550,0.09,0.12,-0.99,2.87,3.54,2.62
19.6580,0.08,0.12,-0.99,2.87,3.78,3.60
19.6730,0.09,0.12,-0.99,2.69,3.48,3.48
19.6960,0.09,0.12,-0.99,2.99,3.42,3.36
19.7140,0.09,0.12,-0.99,3.17,3.66,3.23
19.7290,0.09,0.12,-0.99,2.87,3.60,3.48
19.7440,0.08,0.12,-0.99,2.56,3.78,3.60
19.7600,0.09,0.12,-0.99,2.99,3.78,3.66
19.7750,0.09,0.12,-0.99,2.62,3.54,3.54
19.7910,0.09,0.12,-0.99,2.99,3.91,2.81
19.8060,0.08,0.12,-0.99,2.93,3.48,2.99
19.8230,0.09,0.13,-0.99,2.99,3.85,3.36
19.8380,0.09,0.12,-0.99,2.93,3.48,3.97
19.8530,0.09,0.12,-0.99,3.05,3.72,3.91
19.8670,0.09,0.11,-0.99,3.05,3.60,3.60
19.8790,0.09,0.12,-0.99,3.11,3.72,2.99
19.8960,0.09,0.12,-0.99,2.99,3.60,2.99
19.9130,0.09,0.11,-1.00,2.93,3.60,2.99
19.9290,0.09,0.12,-0.99,2.93,4.09,2.81
19.9440,0.09,0.12,-0.99,2.87,3.78,2.99
19.9600,0.09,0.12,-0.99,2.93,3.48,3.11
19.9630,0.09,0.12,-0.99,3.11,3.72,2.81
19.9780,0.09,0.12,-0.99,3.17,3.91,2.56
20.0010,0.09,0.12,-0.99,2.93,3.85,2.44
20.0180,0.09,0.12,-0.99,2.87,3.72,2.44
20.0340,0.09,0.12,-0.99,2.93,3.85,2.62
20.0500,0.09,0.12,-0.99,2.99,3.91,2.38
20.0670,0.08,0.12,-0.99,2.93,3.72,2.81
20.0840,0.09,0.12,-0.99,2.93,3.78,3.17
20.1000,0.09,0.12,-0.99,3.05,3.54,2.56
20.1160,0.09,0.13,-0.99,2.99,3.54,2.87
20.1320,0.08,0.12,-0.99,3.05,3.91,3.72
20.1490,0.09,0.11,-1.00,2.69,3.85,3.54
20.1640,0.09,0.12,-0.99,2.93,3.91,3.17
20.1800,0.09,0.12,-0.99,3.11,3.72,3.05
20.1950,0.09,0.12,-0.99,2.99,3.91,2.99
20.2100,0.08,0.13,-0.99,3.05,3.48,3.42
20.2170,0.09,0.12,-0.99,2.75,3.54,4.09
20.2330,0.08,0.12,-0.99,2.87,3.48,3.97
20.2550,0.09,0.11,-1.00,2.62,3.72,3.42
20.2700,0.09,0.12,-0.99,3.05,4.15,2.26
20.2870,0.09,0.13,-0.99,2.87,3.78,2.26
20.3020,0.09,0.13,-0.99,2.93,3.78,2.93
20.3170,0.09,0.12,-0.99,2.93,3.54,4.03
20.3320,0.09,0.12,-0.99,2.93,3.66,4.27
20.3470,0.08,0.10,-0.99,2.93,3.91,3.72
20.3620,0.09,0.12,-0.99,2.75,3.85,2.38
20.3720,0.09,0.12,-0.99,3.05,4.03,2.26
20.3880,0.09,0.12,-0.99,3.11,3.54,2.20
20.4060,0.09,0.12,-0.99,3.17,4.15,2.08
20.4220,0.09,0.12,-0.99,2.99,4.21,2.14
20.4370,0.09,0.12,-0.99,3.05,3.78,2.14
20.4520,0.09,0.12,-0.99,3.30,4.03,2.20
20.4670,0.09,0.12,-0.99,3.30,3.97,2.14
20.4790,0.09,0.12,-0.99,3.30,3.91,2.08
20.4940,0.09,0.12,-0.99,3.23,4.09,2.20
20.5110,0.08,0.11,-0.99,2.99,4.15,2.08
20.5280,0.09,0.12,-0.99,3.05,3.72,2.38
20.5440,0.09,0.12,-0.99,3.11,4.03,2.08
20.5600,0.09,0.13,-0.99,3.05,3.66,2.01
20.5750,0.09,0.12,-0.99,3.17,3.91,2.14
20.5910,0.09,0.12,-0.99,3.05,4.03,2.01
20.5950,0.08,0.12,-0.99,3.11,4.09,2.14
20.6110,0.09,0.12,-0.99,3.05,4.15,2.14
20.6350,0.09,0.12,-0.99,2.99,3.91,2.26
20.6520,0.09,0.12,-0.99,3.11,4.09,2.14
20.6680,0.09,0.12,-0.99,3.36,4.15,2.14
20.6840,0.09,0.12,-0.99,2.87,3.91,2.14
20.7000,0.09,0.12,-0.99,3.05,3.78,2.14
20.7170,0.09,0.12,-0.99,3.11,3.97,1.95
20.7190,0.09,0.12,-0.99,2.99,4.15,1.83
20.7350,0.09,0.12,-0.99,3.05,4.15,1.95
20.7620,0.09,0.12,-0.99,2.93,4.15,2.20
20.7740,0.08,0.12,-0.99,3.30,4.15,2.26
20.7900,0.09,0.12,-0.99,3.23,3.66,2.08
20.8070,0.09,0.12,-0.99,2.99,3.85,2.20
20.8230,0.09,0.12,-0.99,3.23,4.03,2.26
20.8400,0.09,0.12,-0.99,3.17,3.91,2.26
20.8550,0.09,0.12,-0.99,3.05,4.09,2.26
20.8710,0.09,0.12,-0.99,3.05,4.15,2.26
20.8870,0.08,0.12,-0.99,2.99,3.91,2.14
20.9030,0.09,0.12,-0.99,3.05,3.85,1.95
20.9180,0.09,0.12,-0.99,3.11,3.66,2.20
20.9350,0.09,0.12,-0.99,2.99,3.85,2.26
20.9500,0.09,0.12,-0.99,2.93,4.03,2.20
20.9650,0.09,0.12,-0.99,3.05,3.60,2.20
20.9730,0.09,0.12,-0.99,3.17,4.03,2.14
20.9950,0.09,0.12,-0.99,3.05,3.97,2.26
21.0070,0.09,0.12,-0.99,3.17,4.09,2.14
21.0230,0.09,0.12,-0.99,3.05,3.91,2.14
21.0400,0.09,0.12,-0.99,2.87,3.85,2.26
21.0560,0.09,0.12,-0.99,3.11,4.03,2.14
21.0730,0.09,0.12,-0.99,3.17,4.15,2.32
21.0890,0.09,0.12,-0.99,2.87,3.91,2.08
21.1050,0.09,0.12,-0.99,2.99,3.85,2.14
21.1220,0.09,0.12,-0.99,2.93,3.72,2.32
21.1370,0.09,0.12,-0.99,3.11,3.91,2.26
21.1530,0.09,0.12,-0.99,2.93,3.60,2.26
21.1680,0.09,0.12,-0.99,3.23,3.97,2.26
21.1840,0.09,0.12,-0.99,3.11,3.91,2.14
21.2000,0.09,0.12,-0.99,3.05,3.91,2.01
21.2150,0.09,0.12,-0.99,2.99,4.15,2.20
21.2300,0.09,0.12,-0.99,2.81,3.85,2.14
21.2410,0.09,0.12,-0.99,3.30,4.27,2.26
21.2560,0.09,0.12,-0.99,2.99,3.91,2.08
21.2730,0.09,0.12,-0.99,3.05,3.78,2.08
21.2890,0.09,0.12,-0.99,2.87,3.78,2.14
21.3060,0.09,0.12,-0.99,2.99,4.15,2.26
21.3220,0.09,0.12,-1.00,2.93,3.78,2.20
21.3390,0.09,0.12,-0.99,2.75,3.72,2.32
21.3540,0.09,0.12,-0.99,2.93,4.09,2.20
21.3700,0.09,0.12,-0.99,3.05,4.21,2.20
21.3870,0.09,0.12,-0.99,2.75,4.21,2.20
21.4030,0.09,0.12,-0.99,3.17,3.97,2.20
21.4180,0.09,0.12,-0.99,3.30,4.09,2.14
21.4230,0.09,0.12,-0.99,3.36,4.15,2.20
21.4390,0.09,0.12,-0.99,3.42,4.09,2.26
21.4620,0.09,0.12,-0.99,3.54,4.33,2.20
21.4790,0.09,0.12,-0.99,2.93,4.21,2.14
21.4940,0.09,0.11,-1.00,3.23,4.27,0.55
21.5100,0.08,0.12,-0.99,2.99,4.27,-0.98
21.5120,0.08,0.13,-0.99,3.23,4.09,0.73
21.5280,0.08,0.11,-1.00,2.99,3.78,2.20
21.5520,0.10,0.13,-0.99,2.69,3.60,2.87
21.5680,0.09,0.12,-0.99,3.23,4.09,2.32
21.5850,0.08,0.12,-1.00,3.36,3.72,2.14
21.6000,0.09,0.12,-0.99,3.17,3.78,2.20
21.6160,0.09,0.12,-0.99,3.11,3.91,2.26
21.6310,0.09,0.12,-0.99,2.99,4.03,2.20
21.6450,0.09,0.12,-0.99,3.23,4.03,2.20
21.6600,0.09,0.12,-0.99,3.17,3.78,2.32
21.6760,0.09,0.12,-0.99,3.30,3.97,2.14
21.6910,0.09,0.12,-0.99,2.87,4.09,2.14
21.7020,0.09,0.12,-0.99,3.17,3.97,2.20
21.7180,0.09,0.12,-0.99,2.99,3.78,2.32
21.7350,0.09,0.12,-0.99,3.11,4.21,2.26
21.7500,0.08,0.12,-0.99,2.87,4.09,2.32
21.7650,0.09,0.12,-0.99,3.17,4.21,2.26
21.7810,0.09,0.12,-0.99,2.99,3.91,2.26
21.7960,0.09,0.12,-0.99,3.05,3.91,2.38
21.8110,0.09,0.12,-0.99,3.05,4.09,2.01
21.8250,0.09,0.12,-0.99,2.87,4.21,2.14
21.8350,0.09,0.12,-0.99,3.17,3.97,2.20
21.8520,0.09,0.12,-0.99,2.99,3.78,2.20
21.8690,0.09,0.12,-0.99,2.87,3.54,2.14
21.8850,0.09,0.12,-0.99,3.05,4.09,2.14
21.9010,0.09,0.12,-0.99,2.81,4.21,1.95
21.9170,0.09,0.12,-0.99,3.17,4.03,2.20
21.9200,0.09,0.12,-0.99,3.23,3.97,2.26
21.9350,0.09,0.12,-0.99,3.23,4.15,2.26
21.9600,0.09,0.12,-0.99,2.99,3.85,2.26
21.9770,0.09,0.12,-0.99,2.99,3.97,2.14
21.9930,0.09,0.12,-0.99,2.75,4.27,2.32
22.0080,0.09,0.12,-0.99,2.93,3.60,2.14
22.0250,0.09,0.12,-0.99,3.05,3.66,2.08
22.0400,0.09,0.12,-0.99,3.17,3.85,2.26
22.0560,0.09,0.12,-0.99,3.05,4.09,2.26
22.0730,0.09,0.12,-0.99,3.11,3.78,2.14
22.0890,0.09,0.12,-0.99,2.93,4.27,2.26
22.1050,0.09,0.12,-0.99,3.11,4.03,2.08
22.1200,0.09,0.12,-0.99,3.05,3.91,2.26
22.1270,0.09,0.12,-1.00,2.99,4.15,2.26
22.1500,0.09,0.12,-0.99,3.30,3.85,2.26
22.1650,0.09,0.12,-0.99,3.17,3.85,2.26
22.1770,0.09,0.12,-0.99,3.30,3.91,2.08
22.1940,0.08,0.12,-0.99,3.17,4.09,2.26
22.2090,0.09,0.12,-0.99,3.23,3.97,2.14
22.2250,0.09,0.12,-0.99,3.05,3.91,2.20
22.2410,0.09,0.12,-0.99,2.99,3.97,2.14
22.2580,0.09,0.12,-0.99,2.99,4.03,2.32
22.2730,0.09,0.12,-0.99,3.11,4.03,2.26
22.2890,0.09,0.12,-0.99,2.93,3.97,2.20
22.3050,0.09,0.12,-0.99,3.11,3.91,2.26
22.3210,0.09,0.12,-0.99,3.11,3.91,2.08
22.3370,0.09,0.12,-0.99,3.05,4.09,2.20
22.3540,0.09,0.12,-0.99,3.17,3.60,2.32
22.3690,0.09,0.12,-0.99,2.93,3.78,2.20
22.3860,0.09,0.12,-1.00,3.30,3.78,2.08
22.4010,0.09,0.12,-0.99,3.17,3.91,2.20
22.4150,0.09,0.12,-0.99,3.42,4.33,2.14
22.4270,0.14,0.09,-0.99,3.36,4.70,-3.42
22.4430,0.04,0.17,-0.99,4.88,5.86,-9.52
22.4600,0.06,0.15,-0.99,3.78,4.70,-3.17
22.4760,0.09,0.12,-0.99,3.11,3.72,2.14
22.4910,0.08,0.12,-0.99,3.36,3.97,2.26
22.5080,0.08,0.12,-0.99,3.17,3.97,2.38
22.5240,0.08,0.12,-1.00,3.11,3.78,2.32
22.5390,0.09,0.12,-0.99,3.23,3.85,2.14
22.5550,0.09,0.12,-0.99,2.99,4.03,2.14
22.5710,0.09,0.12,-0.99,3.11,4.27,2.20
22.5880,0.08,0.12,-0.99,2.99,3.97,2.20
22.6040,0.08,0.12,-0.99,2.99,3.97,2.32
22.6200,0.08,0.12,-0.99,3.05,3.97,2.14
22.6350,0.09,0.12,-0.99,2.99,3.60,2.26
22.6500,0.09,0.12,-0.99,3.11,4.09,2.08
22.6600,0.09,0.12,-0.99,3.11,3.78,2.20
22.6760,0.09,0.12,-0.99,3.11,3.78,2.14
22.6930,0.08,0.12,-0.99,2.75,3.91,2.26
22.7100,0.09,0.12,-1.00,3.05,4.03,2.26
22.7260,0.09,0.12,-0.99,3.11,3.78,2.26
22.7410,0.09,0.12,-1.00,3.23,4.03,2.14
22.7570,0.09,0.12,-0.99,3.17,3.78,2.01
22.7730,0.09,0.12,-0.99,2.93,3.97,2.20
22.7770,0.08,0.12,-0.99,2.81,3.78,2.14
22.7920,0.08,0.12,-0.99,2.99,4.15,2.14
22.8200,0.09,0.12,-0.99,2.87,3.72,2.26
22.8310,0.09,0.12,-0.99,3.11,4.09,2.32
22.8500,0.09,0.12,-0.99,3.05,3.78,2.32
22.8640,0.09,0.12,-0.99,2.99,3.72,2.20
22.8810,0.09,0.12,-0.99,2.99,3.78,2.14
22.8970,0.08,0.12,-0.99,2.87,3.91,2.26
22.9140,0.09,0.12,-0.99,3.05,3.91,2.26
22.9300,0.09,0.12,-0.99,2.93,3.91,2.20
22.9460,0.09,0.12,-0.99,2.93,3.97,2.14
22.9620,0.09,0.12,-0.99,3.17,4.15,2.14
22.9770,0.08,0.12,-0.99,3.05,4.03,2.20
22.9930,0.08,0.12,-0.99,3.23,4.09,2.20
22.9970,0.08,0.12,-0.99,3.05,3.97,2.14
23.0130,0.08,0.12,-0.99,2.99,3.91,2.26
23.0360,0.09,0.12,-0.99,3.17,4.03,2.20
23.0540,0.09,0.12,-0.99,3.11,3.97,2.32
23.0690,0.09,0.12,-0.99,2.93,4.03,2.14
23.0860,0.09,0.12,-0.99,2.87,3.78,2.08
23.1020,0.09,0.12,-0.99,2.87,3.91,2.14
23.1040,0.09,0.12,-0.99,2.99,3.85,2.14
23.1190,0.09,0.12,-0.99,3.05,3.85,1.89
23.1510,0.09,0.12,-0.99,3.17,3.91,2.08
23.1670,0.08,0.12,-0.99,2.99,4.03,2.14
23.1700,0.09,0.12,-0.99,3.23,4.03,2.20
23.1850,0.10,0.15,-0.99,3.30,4.15,1.22
23.2070,0.07,0.10,-1.00,3.48,4.52,-1.34
23.2230,0.08,0.11,-1.00,3.23,4.15,1.89
23.2410,0.09,0.12,-0.99,2.81,3.91,2.08
23.2580,0.09,0.12,-0.99,2.81,3.85,2.14
23.2740,0.09,0.12,-1.00,2.93,4.03,2.14
23.2900,0.09,0.12,-0.99,3.05,3.78,1.83
23.3080,0.09,0.12,-0.99,3.11,3.91,1.53
23.3240,0.08,0.12,-0.99,3.11,3.97,1.46
23.3400,0.09,0.12,-0.99,3.05,4.09,1.77
23.3510,0.09,0.12,-0.99,2.99,4.27,2.14
23.3720,0.08,0.12,-0.99,2.93,4.03,2.26
23.3880,0.08,0.12,-0.99,3.11,4.39,2.20
23.4040,0.09,0.12,-0.99,3.17,3.78,2.08
23.4200,0.09,0.12,-0.99,2.93,3.54,2.26
23.4360,0.08,0.12,-0.99,3.05,3.85,2.20
23.4490,0.09,0.12,-0.99,3.11,4.03,2.26
23.4580,0.09,0.12,-0.99,2.99,3.85,2.14
23.4800,0.09,0.12,-0.99,2.99,3.54,2.20
23.4920,0.09,0.12,-0.99,3.17,3.72,2.14
23.5080,0.09,0.12,-0.99,2.87,4.03,2.20
23.5240,0.09,0.12,-1.00,2.93,3.78,2.14
23.5410,0.08,0.18,-0.98,2.69,3.97,1.46
23.5570,0.09,0.15,-0.99,3.66,4.64,-4.76
23.5740,0.10,0.09,-1.00,3.91,5.31,-4.27
23.5890,0.08,0.08,-1.00,3.66,4.39,0.43
23.6050,0.09,0.12,-0.99,3.42,4.27,1.34
23.6220,0.08,0.12,-0.99,2.93,3.85,1.71
23.6250,0.09,0.12,-0.99,3.05,3.60,2.50
23.6530,0.08,0.11,-0.99,2.93,4.09,3.36
23.6590,0.09,0.13,-0.99,3.17,3.78,2.69
23.6740,0.09,0.12,-0.99,2.87,3.85,3.23
23.6990,0.08,0.12,-0.99,2.87,3.85,3.23
23.7140,0.08,0.12,-0.99,2.99,3.97,2.81
23.7290,0.09,0.12,-0.99,2.87,3.72,2.44
23.7460,0.08,0.12,-0.99,2.99,3.72,2.32
23.7620,0.09,0.12,-0.99,2.87,3.72,2.69
23.7770,0.08,0.12,-0.99,2.93,3.91,2.99
23.7920,0.08,0.12,-0.99,2.81,3.78,2.87
23.8090,0.08,0.12,-0.99,2.87,3.85,2.38
23.8240,0.09,0.12,-0.99,3.05,4.03,2.20
23.8400,0.09,0.12,-0.99,2.99,4.03,2.14
23.8560,0.09,0.12,-0.99,2.87,3.91,1.89
23.8730,0.08,0.12,-0.99,2.75,3.91,1.77
23.8880,0.09,0.12,-0.99,3.11,3.66,2.01
23.9030,0.09,0.12,-0.99,3.11,3.78,2.14
23.9140,0.10,0.12,-0.99,3.11,3.66,1.59
23.9310,0.09,0.12,-0.99,3.11,3.91,1.53
23.9470,0.08,0.12,-0.99,2.87,3.72,1.34
23.9640,0.08,0.12,-0.99,2.99,4.39,1.04
23.9800,0.08,0.12,-0.99,3.05,4.21,0.61
23.9950,0.08,0.12,-0.99,3.05,4.15,1.65
24.0100,0.09,0.12,-0.99,3.05,3.91,1.83
24.0250,0.09,0.12,-0.99,2.87,3.97,1.34
24.0400,0.09,0.12,-0.99,3.17,4.21,0.43
24.0560,0.08,0.12,-0.99,3.11,4.46,0.43
24.0720,0.08,0.12,-0.99,3.23,3.97,1.28
24.0810,0.08,0.12,-0.99,3.05,3.91,1.77
24.0960,0.09,0.12,-0.99,3.17,3.91,1.83
24.1170,0.09,0.12,-0.99,2.99,3.66,1.71
24.1190,0.09,0.12,-0.99,2.93,4.03,1.46
24.1360,0.08,0.12,-0.99,3.11,4.21,1.04
24.1530,0.09,0.12,-0.99,2.99,4.15,1.22
24.1700,0.08,0.12,-0.99,3.17,4.03,1.65
24.1860,0.08,0.12,-0.99,3.17,3.97,1.89
24.2110,0.08,0.12,-0.99,3.11,4.03,1.77
24.2210,0.08,0.12,-0.99,2.87,4.15,1.59
24.2380,0.09,0.12,-0.99,3.05,4.15,1.65
24.2550,0.09,0.12,-0.99,3.11,3.91,1.65
24.2710,0.09,0.12,-0.99,3.17,4.03,1.40
24.2880,0.08,0.12,-0.99,3.11,3.97,1.53
24.3050,0.08,0.12,-0.99,2.99,3.97,1.83
24.3210,0.08,0.12,-0.99,3.11,3.85,1.95
24.3370,0.09,0.12,-0.99,2.87,3.72,1.89
24.3520,0.09,0.12,-0.99,3.05,3.91,1.89
24.3690,0.09,0.12,-0.99,3.17,3.78,1.71
24.3840,0.09,0.12,-0.99,3.11,4.03,1.65
24.3990,0.09,0.12,-0.99,3.05,3.97,1.22
24.4040,0.09,0.12,-0.99,2.99,4.09,1.10
24.4200,0.08,0.12,-0.99,3.23,4.03,1.04
24.4420,0.09,0.12,-0.99,3.42,4.03,1.22
24.4590,0.09,0.12,-0.99,3.11,4.33,1.28
24.4740,0.09,0.12,-0.99,3.17,3.97,1.28
24.4900,0.08,0.12,-0.99,3.23,3.97,1.28
24.5060,0.09,0.12,-0.99,3.11,4.09,1.46
24.5230,0.09,0.12,-0.99,2.99,4.39,1.40
24.5380,0.09,0.12,-0.99,3.05,4.09,1.28
24.5540,0.08,0.12,-0.99,3.05,4.21,1.10
24.5690,0.08,0.12,-0.99,3.23,3.97,1.40
24.5840,0.08,0.12,-0.99,2.99,3.97,1.59
24.5950,0.08,0.12,-0.99,2.93,3.97,1.77
24.6110,0.08,0.12,-0.99,2.87,4.09,1.89
24.6280,0.09,0.12,-0.99,3.23,4.09,2.01
24.6450,0.09,0.12,-0.99,3.36,4.03,2.01
24.6610,0.09,0.12,-0.99,3.05,4.09,1.89
24.6760,0.09,0.12,-0.99,2.75,4.09,2.01
24.6920,0.08,0.12,-0.99,2.93,3.91,2.08
24.7070,0.08,0.12,-0.99,3.30,3.72,2.14
24.7120,0.09,0.12,-0.99,3.11,3.48,2.01
24.7280,0.09,0.12,-0.99,2.93,4.15,1.77
24.7520,0.09,0.12,-0.99,2.99,3.85,1.89
24.7660,0.08,0.12,-0.99,2.87,4.09,2.20
24.7830,0.09,0.12,-0.99,2.81,3.97,2.32
24.7990,0.09,0.12,-0.99,2.93,3.60,2.38
24.8170,0.08,0.12,-0.99,3.23,3.91,2.44
24.8330,0.09,0.12,-0.99,3.11,3.97,2.32
24.8480,0.08,0.12,-0.99,2.93,3.91,2.26
24.8640,0.08,0.12,-0.99,2.93,3.91,2.20
24.8810,0.08,0.12,-0.99,2.99,3.91,2.20
24.8970,0.09,0.12,-0.99,3.05,3.97,2.08
24.9130,0.09,0.12,-0.99,2.99,3.91,2.08
24.9280,0.09,0.12,-0.99,3.05,3.97,2.08
24.9440,0.09,0.12,-0.99,3.11,3.85,2.08
24.9600,0.09,0.12,-0.99,2.93,3.91,2.08
24.9750,0.08,0.12,-1.00,2.99,3.85,2.01
24.9890,0.08,0.12,-0.99,2.99,3.85,2.08
24.9990,0.09,0.12,-0.99,3.11,3.78,2.01
25.0150,0.09,0.12,-0.99,3.36,3.91,1.89
25.0360,0.09,0.12,-0.99,3.30,3.97,1.89
25.0370,0.08,0.12,-0.99,3.05,4.15,1.77
25.0650,0.08,0.12,-0.99,2.87,3.97,1.95
25.0810,0.09,0.12,-0.99,2.93,4.03,1.95
25.0950,0.09,0.12,-0.99,3.11,3.72,1.95
25.1110,0.09,0.12,-0.99,2.87,4.09,2.01
25.1210,0.08,0.12,-0.99,3.05,4.27,2.08
25.1380,0.09,0.12,-0.99,3.36,4.09,2.08
25.1540,0.08,0.12,-0.99,3.23,3.97,1.83
25.1710,0.09,0.12,-0.99,2.93,3.91,2.08
25.1860,0.09,0.12,-0.99,2.93,3.91,1.89
25.2010,0.09,0.12,-0.99,3.17,3.97,1.83
25.2170,0.09,0.12,-0.99,3.11,3.85,2.01
25.2330,0.08,0.12,-0.99,3.05,4.09,1.59
25.2490,0.08,0.12,-0.99,3.05,3.78,1.28
25.2640,0.09,0.12,-0.99,3.36,4.15,1.40
25.2800,0.08,0.12,-0.99,3.42,3.91,1.65
25.2950,0.09,0.12,-0.99,3.36,3.85,1.53
25.3100,0.09,0.12,-0.99,2.99,3.78,1.22
25.3210,0.08,0.12,-0.99,3.30,4.09,1.16
25.3370,0.08,0.12,-0.99,3.36,3.85,1.28
25.3540,0.08,0.12,-0.99,3.11,4.03,1.46
25.3710,0.08,0.12,-0.99,3.17,3.97,1.65
25.3780,0.09,0.12,-0.99,3.36,3.91,1.71
25.4010,0.08,0.12,-0.99,3.05,4.09,1.83
25.4110,0.08,0.12,-0.99,3.11,4.09,2.01
25.4270,0.09,0.12,-0.99,3.17,3.91,1.95
25.4430,0.09,0.12,-0.99,2.87,4.09,1.95
25.4630,0.10,0.12,-0.99,2.99,4.15,1.65
25.4780,0.09,0.12,-0.99,3.17,4.03,1.22
25.4930,0.08,0.12,-0.99,3.05,4.03,1.10
25.4990,0.08,0.12,-0.99,2.87,4.03,1.34
25.5150,0.08,0.12,-0.99,2.87,4.15,1.28
25.5380,0.09,0.12,-0.99,3.11,4.15,1.34
25.5530,0.08,0.12,-0.99,3.11,3.91,1.16
25.5690,0.08,0.12,-0.99,3.11,4.09,1.46
25.5860,0.09,0.12,-0.99,3.23,4.39,1.59
25.5890,0.08,0.12,-0.99,3.11,3.97,1.59
25.6040,0.08,0.12,-0.99,3.23,4.15,1.59
25.6270,0.08,0.12,-0.99,3.30,4.33,1.65
25.6440,0.09,0.12,-0.99,3.17,3.85,1.71
25.6610,0.08,0.12,-0.99,3.05,3.78,1.83
25.6770,0.08,0.12,-0.99,3.17,4.03,2.01
25.6920,0.09,0.12,-0.99,2.99,4.03,2.14
25.7080,0.09,0.12,-0.99,3.17,3.97,2.08
25.7110,0.09,0.12,-0.99,3.05,3.78,1.89
25.7390,0.08,0.12,-0.99,2.75,4.09,2.14
25.7550,0.09,0.12,-0.99,3.05,3.97,2.20
25.7710,0.09,0.12,-0.99,3.05,4.21,1.95
25.7860,0.08,0.12,-0.99,3.11,3.97,1.89
25.7960,0.08,0.12,-0.99,2.93,3.72,1.95
25.8130,0.08,0.12,-0.99,2.87,4.09,1.95
25.8300,0.08,0.12,-0.99,3.23,3.78,1.95
25.8460,0.09,0.12,-0.99,3.05,3.85,2.01
25.8630,0.09,0.12,-0.99,3.23,3.85,2.01
25.8800,0.09,0.12,-0.99,3.17,4.03,1.83
25.8950,0.08,0.12,-0.99,2.99,3.97,1.71
25.9120,0.08,0.12,-0.99,3.05,3.97,2.08
25.9270,0.09,0.12,-0.99,3.05,4.33,1.95
25.9430,0.08,0.12,-0.99,3.23,4.15,1.95
25.9580,0.09,0.12,-0.99,3.30,4.03,1.89
25.9740,0.08,0.12,-0.99,3.30,3.97,1.77
25.9800,0.09,0.12,-0.99,3.05,3.78,2.01
26.0000,0.09,0.12,-0.99,2.93,3.91,2.14
26.0220,0.08,0.12,-0.99,3.11,3.78,2.08
26.0330,0.08,0.12,-0.99,2.99,3.72,1.95
26.0500,0.08,0.12,-0.99,3.36,3.91,2.08
26.0660,0.09,0.12,-0.99,3.11,3.78,2.20
26.0830,0.09,0.12,-0.99,2.99,3.91,2.08
26.0990,0.09,0.12,-0.99,3.05,4.09,2.20
26.1150,0.08,0.12,-0.99,2.93,4.09,2.08
26.1310,0.08,0.12,-0.99,3.05,4.03,1.95
26.1470,0.08,0.12,-0.99,2.99,3.97,2.20
26.1620,0.09,0.12,-0.99,3.17,4.15,2.14
26.1770,0.09,0.12,-0.99,2.99,3.78,1.89
26.1920,0.08,0.12,-0.99,3.11,3.91,1.89
26.2080,0.09,0.12,-0.99,3.23,3.91,2.01
26.2160,0.09,0.12,-0.99,2.99,4.03,1.83
26.2380,0.09,0.12,-0.99,3.11,3.72,1.83
26.2490,0.09,0.12,-0.99,2.99,3.85,1.89
26.2660,0.09,0.12,-0.99,3.05,3.91,1.95
26.2830,0.09,0.12,-0.99,3.30,4.27,2.08
26.2990,0.08,0.12,-0.99,2.99,4.15,1.95
26.3150,0.08,0.12,-0.99,2.99,3.85,2.08
26.3320,0.08,0.12,-0.99,2.99,3.60,2.08
26.3480,0.09,0.12,-0.99,2.99,3.85,2.08
26.3640,0.09,0.12,-0.99,3.11,3.60,1.77
26.3800,0.08,0.12,-0.99,2.99,3.85,1.89
26.3830,0.08,0.12,-0.99,3.05,3.91,2.08
26.3980,0.09,0.12,-0.99,3.05,3.97,2.08
26.4210,0.09,0.12,-0.99,3.17,4.09,2.14
26.4390,0.09,0.12,-0.99,3.30,4.03,2.01
26.4550,0.09,0.12,-0.99,3.11,3.97,2.14
26.4730,0.09,0.12,-0.99,3.23,3.85,1.95
26.4880,0.09,0.12,-0.99,3.11,3.91,1.95
26.5040,0.10,0.12,-0.99,2.93,3.66,1.77
26.5210,0.09,0.12,-0.99,3.11,4.09,1.83
26.5370,0.08,0.12,-0.99,3.36,4.15,1.65
26.5530,0.08,0.12,-0.99,2.99,4.09,2.08
26.5680,0.08,0.12,-0.99,3.11,3.97,2.38
26.5710,0.08,0.12,-0.99,2.99,3.85,2.38
26.5870,0.08,0.12,-1.00,3.05,3.60,2.26
26.6090,0.08,0.12,-0.99,3.23,3.85,2.20
26.6260,0.08,0.12,-0.99,3.05,3.85,2.32
26.6420,0.09,0.12,-0.99,2.99,3.78,2.14
26.6580,0.09,0.12,-0.99,3.23,3.97,2.14
26.6760,0.09,0.12,-0.99,3.11,3.66,2.20
26.6900,0.08,0.12,-0.99,2.93,4.03,2.26
26.7070,0.09,0.12,-0.99,2.99,3.91,2.14
26.7220,0.09,0.12,-0.99,3.23,3.97,2.14
26.7380,0.08,0.12,-0.99,3.23,3.78,2.14
26.7540,0.09,0.12,-0.99,2.99,3.72,2.20
26.7700,0.09,0.12,-0.99,3.11,3.97,2.14
26.7860,0.09,0.12,-0.99,3.17,3.97,2.08
26.7930,0.09,0.12,-0.99,3.17,3.72,2.08
26.8160,0.08,0.12,-0.99,2.93,3.78,2.01
26.8310,0.08,0.12,-0.99,2.93,3.54,2.20
26.8430,0.09,0.12,-0.99,2.87,4.09,2.14
26.8590,0.09,0.12,-0.99,2.93,3.97,1.83
26.8750,0.08,0.12,-0.99,2.99,3.72,1.95
26.8920,0.08,0.12,-0.99,3.05,3.78,2.08
26.9080,0.09,0.12,-0.99,3.05,3.97,2.08
26.9240,0.09,0.12,-0.99,3.17,3.97,2.20
26.9400,0.09,0.12,-0.99,2.93,3.78,2.14
26.9560,0.09,0.12,-0.99,2.99,3.91,2.08
26.9580,0.09,0.12,-0.99,3.17,3.85,2.14
26.9860,0.09,0.12,-0.99,3.05,3.85,2.14
27.0010,0.08,0.12,-0.99,2.99,3.78,2.38
27.0130,0.09,0.12,-0.99,2.99,3.85,2.20
27.0290,0.09,0.12,-0.99,3.05,3.66,2.08
27.0460,0.09,0.12,-0.99,3.05,4.03,2.14
27.0620,0.09,0.12,-0.99,3.11,3.78,2.01
27.0790,0.08,0.12,-0.99,2.75,3.54,2.01
27.0960,0.09,0.12,-0.99,2.93,3.85,2.26
27.1120,0.08,0.12,-0.99,3.11,3.85,2.20
27.1270,0.09,0.12,-0.99,3.17,4.09,2.01
27.1410,0.09,0.12,-0.99,2.99,3.97,2.32
27.1570,0.08,0.12,-0.99,2.99,3.85,2.56
27.1720,0.08,0.12,-0.99,2.81,3.60,2.62
27.1870,0.09,0.12,-0.99,3.23,3.36,2.50
27.1970,0.08,0.12,-0.99,3.23,3.97,2.38
27.2120,0.09,0.12,-0.99,2.99,3.91,2.38
27.2330,0.08,0.12,-0.99,2.87,3.78,2.38
27.2500,0.09,0.12,-0.99,2.93,3.72,2.32
27.2650,0.08,0.12,-1.00,2.87,3.91,2.14
27.2810,0.08,0.12,-0.99,3.17,3.85,2.08
27.2970,0.09,0.12,-0.99,2.87,3.66,2.26
27.3010,0.09,0.12,-0.99,3.36,3.60,2.20
27.3300,0.08,0.12,-0.99,3.05,4.15,2.20
27.3450,0.08,0.12,-0.99,3.23,4.03,2.20
27.3600,0.09,0.12,-0.99,2.81,3.91,2.26
27.3710,0.09,0.12,-0.99,2.81,3.72,2.26
27.3870,0.08,0.12,-0.99,2.93,3.78,2.26
27.4040,0.09,0.12,-0.99,3.11,4.21,2.32
27.4200,0.09,0.12,-0.99,3.17,4.03,2.14
27.4370,0.09,0.12,-0.99,2.87,3.78,2.32
27.4440,0.08,0.12,-0.99,2.99,3.85,2.08
27.4610,0.09,0.12,-0.99,3.11,4.03,2.08
27.4770,0.09,0.12,-0.99,3.05,3.72,2.26
27.4940,0.08,0.12,-0.99,3.36,3.66,2.26
27.5100,0.09,0.12,-0.99,3.17,3.78,2.20
27.5260,0.09,0.12,-0.99,2.93,3.72,2.01
27.5420,0.08,0.12,-0.99,2.93,3.78,1.95
27.5560,0.08,0.12,-0.99,3.17,3.85,2.08
27.5600,0.08,0.12,-0.99,3.11,3.60,2.14
27.5890,0.09,0.12,-0.99,2.99,4.09,2.32
27.5990,0.08,0.12,-0.99,3.11,3.72,1.83
27.6160,0.08,0.12,-0.99,2.93,3.91,2.14
27.6320,0.09,0.12,-0.99,3.23,3.85,2.08
27.6490,0.09,0.12,-0.99,2.87,3.66,1.89
27.6650,0.08,0.12,-0.99,3.17,3.60,1.83
27.6820,0.09,0.12,-0.99,3.11,3.78,1.83
27.6990,0.08,0.12,-0.99,2.87,3.85,1.89
27.7150,0.09,0.12,-0.99,2.87,3.78,2.01
27.7310,0.09,0.12,-0.99,2.81,4.33,2.01
27.7480,0.09,0.12,-0.99,3.05,3.66,1.89
27.7640,0.09,0.12,-0.99,3.11,4.27,1.71
27.7660,0.09,0.12,-0.99,3.05,3.66,1.77
27.7950,0.09,0.12,-0.99,2.99,4.03,1.83
27.8100,0.09,0.12,-0.99,2.99,3.72,1.95
27.8190,0.09,0.12,-0.99,2.81,3.85,1.89
27.8350,0.09,0.12,-0.99,3.17,3.78,1.77
27.8550,0.09,0.12,-0.99,3.05,3.97,1.65
27.8700,0.09,0.12,-0.99,3.05,3.78,1.65
27.8860,0.09,0.12,-0.99,3.17,3.91,1.77
27.9020,0.08,0.12,-0.99,2.87,3.97,1.65
27.9180,0.08,0.12,-0.99,3.23,4.03,1.53
27.9340,0.08,0.12,-0.99,3.05,3.78,1.46
27.9510,0.08,0.12,-0.99,2.99,4.15,1.83
27.9660,0.09,0.12,-0.99,2.87,4.09,1.95
27.9830,0.09,0.12,-0.99,3.11,3.97,2.08
27.9990,0.09,0.12,-0.99,3.30,3.72,2.08
28.0140,0.09,0.12,-0.99,3.30,3.66,2.20
28.0290,0.09,0.12,-0.99,2.99,3.72,1.95
28.0390,0.09,0.12,-0.99,3.30,4.15,2.08
28.0560,0.09,0.12,-0.99,2.87,3.60,2.14
28.0720,0.09,0.12,-0.99,3.30,3.97,2.14
28.0890,0.09,0.12,-0.99,3.30,3.85,1.95
28.1050,0.08,0.12,-0.99,2.81,3.97,1.77
28.1220,0.09,0.12,-0.99,2.69,4.03,1.95
28.1380,0.09,0.12,-0.99,2.87,4.27,1.83
28.1530,0.09,0.12,-0.99,3.11,4.09,1.71
28.1570,0.09,0.12,-0.99,3.30,3.78,1.71
28.1730,0.09,0.12,-0.99,3.30,4.03,1.46
28.1950,0.09,0.12,-0.99,2.99,3.85,1.59
28.2120,0.09,0.12,-1.00,3.05,3.91,1.04
28.2280,0.08,0.12,-0.99,3.42,4.27,1.16
28.2440,0.08,0.12,-0.99,2.93,4.03,1.53
28.2600,0.08,0.12,-0.99,2.87,3.97,1.83
28.2750,0.08,0.12,-0.99,2.93,3.78,1.95
28.2920,0.09,0.12,-0.99,3.17,3.78,2.08
28.3070,0.09,0.12,-0.99,3.05,3.91,2.20
28.3220,0.09,0.12,-0.99,3.17,3.91,2.14
28.3380,0.08,0.12,-0.99,2.99,3.78,1.77
28.3540,0.09,0.12,-0.99,3.17,4.03,2.08
28.3700,0.09,0.12,-0.99,3.23,4.21,2.01
28.3850,0.09,0.12,-0.99,3.42,3.72,1.95
28.3960,0.09,0.12,-0.99,2.93,3.85,2.01
28.4120,0.09,0.12,-0.99,2.99,3.78,2.26
28.4280,0.09,0.12,-0.99,2.99,4.03,2.20
28.4450,0.09,0.12,-0.99,2.93,4.21,2.08
28.4620,0.09,0.12,-0.99,2.99,4.09,2.20
28.4770,0.09,0.12,-0.99,3.05,3.91,2.26
28.4920,0.09,0.12,-0.99,3.11,4.03,2.20
28.5070,0.09,0.12,-0.99,3.05,4.03,2.20
28.5230,0.10,0.12,-0.99,3.23,4.09,1.71
28.5390,0.08,0.12,-0.99,3.11,3.85,1.71
28.5550,0.08,0.12,-0.99,3.17,4.21,1.71
28.5720,0.09,0.12,-0.99,3.05,4.33,1.89
28.5880,0.09,0.12,-0.99,2.99,4.27,1.83
28.6030,0.08,0.12,-0.99,2.81,4.09,1.89
28.6180,0.08,0.12,-0.99,2.99,3.72,2.01
28.6290,0.08,0.12,-0.99,3.05,3.91,2.08
28.6450,0.09,0.12,-0.99,3.11,3.97,2.20
28.6610,0.09,0.12,-0.99,3.11,4.21,2.14
28.6780,0.09,0.12,-0.99,3.23,4.15,1.89
28.6950,0.09,0.12,-0.99,3.11,4.15,1.95
28.7110,0.08,0.12,-0.99,3.17,3.85,1.95
28.7270,0.08,0.12,-0.99,3.11,3.97,1.95
28.7430,0.09,0.12,-0.99,3.05,3.85,1.95
28.7580,0.09,0.12,-0.99,2.87,4.27,1.95
28.7620,0.09,0.12,-0.99,2.99,4.03,1.89
28.7780,0.09,0.12,-0.99,3.11,3.97,1.89
28.8050,0.09,0.12,-0.99,2.81,3.97,1.77
28.8160,0.09,0.12,-0.99,2.87,4.03,1.83
28.8320,0.11,0.13,-0.99,2.75,4.03,1.59
28.8490,0.11,0.12,-0.99,3.23,4.03,1.46
28.8650,0.09,0.12,-0.99,2.99,3.78,1.65
28.8830,0.07,0.12,-0.99,3.05,3.85,2.20
28.8980,0.08,0.12,-1.00,2.99,4.09,1.89
28.9150,0.07,0.11,-1.00,3.11,4.15,1.83
28.9320,0.07,0.12,-1.00,3.30,4.15,1.95
28.9470,0.07,0.11,-0.99,2.99,3.97,2.32
28.9640,0.07,0.12,-1.00,2.99,4.03,2.38
28.9800,0.08,0.12,-0.99,2.93,4.09,2.26
28.9830,0.09,0.12,-0.99,3.23,4.15,2.20
29.0120,0.08,0.12,-0.99,3.23,3.78,2.20
29.0270,0.09,0.12,-0.99,3.05,3.78,2.14
29.0360,0.09,0.12,-0.99,2.81,3.66,2.08
29.0560,0.09,0.12,-0.99,3.11,3.85,2.14
29.0690,0.09,0.12,-0.99,2.93,3.66,2.20
29.0860,0.09,0.12,-0.99,3.11,3.91,2.14
29.1030,0.09,0.12,-0.99,2.99,3.97,2.14
29.1190,0.09,0.12,-0.99,3.23,4.09,2.26
29.1360,0.09,0.12,-0.99,3.36,4.15,2.01
29.1510,0.09,0.12,-0.99,3.42,4.03,2.14
29.1670,0.09,0.12,-0.99,3.17,3.72,2.14
29.1830,0.09,0.12,-0.99,3.05,3.97,2.26
29.1980,0.09,0.12,-0.99,3.17,4.21,2.14
29.2140,0.08,0.10,-1.00,2.87,3.66,2.62
29.2300,0.09,0.12,-0.99,2.69,3.54,3.05
29.2360,0.09,0.11,-1.00,2.99,3.97,1.28
29.2570,0.08,0.14,-0.99,3.11,3.91,0.79
29.2720,0.08,0.13,-0.99,3.30,4.03,1.53
29.2890,0.09,0.12,-0.99,2.99,4.33,1.59
29.3070,0.09,0.12,-0.99,2.99,4.03,1.22
29.3220,0.09,0.12,-0.99,3.05,3.85,1.34
29.3390,0.09,0.12,-0.99,3.17,4.21,1.65
29.3560,0.09,0.12,-0.99,2.99,3.91,1.65
29.3710,0.09,0.12,-0.99,2.99,4.21,1.34
29.3870,0.09,0.12,-0.99,3.17,4.15,1.04
29.4040,0.08,0.12,-0.99,3.11,4.03,1.40
29.4190,0.08,0.12,-0.99,2.93,4.09,1.53
29.4340,0.09,0.12,-0.99,2.93,3.85,1.77
29.4400,0.09,0.12,-0.99,3.17,4.27,1.53
29.4570,0.09,0.12,-0.99,3.05,4.03,0.92
29.4730,0.09,0.11,-0.99,3.42,4.39,0.06
29.4910,0.08,0.12,-0.99,3.42,4.33,-0.12
29.5060,0.09,0.12,-0.99,3.05,4.15,0.06
29.5220,0.08,0.13,-0.99,2.93,4.21,0.98
29.5400,0.08,0.12,-0.99,2.93,3.85,2.01
29.5550,0.09,0.12,-0.99,3.05,4.15,2.14
29.5710,0.09,0.12,-0.99,3.11,4.21,1.89
29.5730,0.09,0.12,-0.99,3.11,4.39,1.10
29.6030,0.08,0.12,-0.99,3.05,4.09,0.98
29.6190,0.08,0.12,-0.99,2.99,4.21,1.83
29.6350,0.08,0.12,-0.99,2.93,4.21,2.01
29.6510,0.09,0.12,-0.99,2.81,3.97,2.08
29.6570,0.09,0.12,-0.99,2.93,4.03,2.01
29.6720,0.09,0.12,-0.99,3.05,3.85,2.26
29.6940,0.09,0.12,-0.99,3.11,4.15,2.08
29.7130,0.09,0.12,-0.99,2.99,3.85,1.89
29.7270,0.09,0.12,-0.99,2.99,4.33,1.95
29.7430,0.09,0.12,-0.99,2.87,3.85,2.14
29.7590,0.09,0.12,-0.99,3.23,3.91,2.14
29.7740,0.09,0.12,-0.99,3.11,3.78,2.20
29.7770,0.09,0.12,-0.99,3.23,3.91,1.83
29.7930,0.09,0.12,-0.99,2.87,3.78,2.14
29.8150,0.09,0.12,-0.99,3.05,3.85,2.14
29.8310,0.09,0.12,-0.99,3.05,3.78,2.14
29.8480,0.09,0.12,-0.99,3.05,4.03,1.71
29.8640,0.08,0.12,-0.99,3.05,3.85,1.65
29.8810,0.08,0.12,-0.99,2.93,4.27,1.89
29.8980,0.09,0.12,-0.99,2.99,3.72,2.01
29.9140,0.09,0.12,-0.99,2.93,3.85,1.95
29.9300,0.09,0.12,-0.99,2.87,3.85,1.89
29.9470,0.08,0.12,-0.99,2.81,4.27,1.89
29.9630,0.09,0.12,-0.99,2.93,4.09,1.95
29.9800,0.09,0.12,-0.99,2.81,3.66,2.01
29.9950,0.08,0.12,-0.99,3.11,3.72,1.77
30.0100,0.09,0.12,-0.99,3.23,3.97,2.08
30.0250,0.08,0.12,-0.99,2.99,3.91,2.14
30.0410,0.09,0.12,-0.99,2.87,3.72,2.08
30.0480,0.09,0.12,-0.99,2.93,3.85,2.08
30.0630,0.09,0.12,-0.99,3.05,3.85,1.95
30.0860,0.08,0.12,-0.99,2.99,4.09,2.08
30.1030,0.09,0.12,-0.99,2.93,3.72,2.20
30.1190,0.09,0.12,-0.99,2.93,3.85,1.95
30.1360,0.09,0.12,-0.99,2.87,3.91,2.14
30.1510,0.09,0.12,-0.99,2.99,3.85,2.32
30.1680,0.09,0.12,-0.99,2.93,4.09,2.14
30.1830,0.09,0.12,-0.99,3.05,4.03,2.20
30.1980,0.08,0.12,-0.99,3.11,3.85,1.95
30.2130,0.09,0.12,-0.99,2.99,4.03,2.20
30.2200,0.09,0.12,-0.99,2.81,3.91,1.95
30.2350,0.09,0.12,-0.99,3.11,3.78,2.01
30.2580,0.08,0.12,-0.99,3.17,4.03,2.01
30.2740,0.08,0.12,-0.99,3.05,3.66,2.01
30.2900,0.09,0.12,-0.99,3.05,3.97,2.01
30.3050,0.09,0.12,-0.99,3.17,3.48,2.08
30.3220,0.08,0.12,-0.99,3.11,3.91,2.14
30.3380,0.09,0.12,-0.99,2.99,3.78,2.32
30.3540,0.09,0.12,-0.99,2.99,3.78,2.20
30.3700,0.09,0.12,-0.99,2.81,4.03,2.26
30.3860,0.08,0.12,-0.99,2.93,3.91,2.08
30.4020,0.09,0.12,-0.99,3.05,4.09,2.08
30.4090,0.09,0.12,-0.99,3.17,4.03,2.08
30.4250,0.09,0.12,-0.99,3.11,4.09,2.26
30.4470,0.09,0.12,-0.99,3.11,3.78,2.14
30.4640,0.09,0.12,-0.99,2.99,3.78,2.20
30.4810,0.09,0.12,-0.99,3.11,4.03,2.08
30.4970,0.09,0.12,-0.99,3.05,3.85,2.01
30.5130,0.08,0.12,-0.99,3.11,3.66,2.01
30.5290,0.08,0.12,-1.00,3.23,4.09,2.14
30.5450,0.09,0.12,-0.99,2.87,3.91,2.01
30.5600,0.09,0.12,-0.99,2.99,3.85,2.01
30.5750,0.09,0.12,-0.99,3.11,3.78,2.08
30.5920,0.09,0.12,-0.99,2.87,3.66,2.08
30.5970,0.09,0.12,-0.99,3.05,4.03,2.14
30.6130,0.09,0.12,-0.99,3.23,3.85,2.01
30.6360,0.09,0.12,-0.99,3.30,3.78,2.08
30.6520,0.09,0.12,-0.99,3.05,3.78,2.08
30.6690,0.09,0.12,-0.99,2.81,4.09,1.95
30.6850,0.08,0.12,-0.99,2.81,3.97,1.83
30.7010,0.09,0.12,-0.99,3.42,4.09,2.01
30.7180,0.09,0.12,-0.99,2.81,3.60,2.01
30.7330,0.09,0.12,-0.99,3.05,3.91,2.14
30.7490,0.09,0.12,-0.99,2.93,3.72,2.20
30.7590,0.08,0.12,-0.99,2.81,3.97,2.14
30.7680,0.08,0.12,-0.99,3.05,3.78,2.08
30.7890,0.09,0.12,-0.99,3.17,3.85,2.08
30.8060,0.08,0.12,-0.99,3.11,3.66,1.95
30.8230,0.09,0.12,-0.99,3.05,3.91,2.08
30.8390,0.09,0.12,-0.99,2.81,3.78,2.38
30.8560,0.09,0.12,-0.99,2.93,3.78,2.01
30.8720,0.08,0.12,-0.99,2.99,3.85,2.26
30.8880,0.09,0.12,-0.99,2.99,3.78,2.20
30.9040,0.09,0.12,-0.99,3.11,3.91,2.14
30.9200,0.09,0.12,-0.99,3.11,4.03,2.26
30.9360,0.09,0.12,-0.99,2.81,3.66,2.14
30.9520,0.09,0.12,-0.99,2.75,3.66,2.01
30.9680,0.09,0.12,-0.99,2.56,3.97,2.20
30.9740,0.09,0.12,-0.99,2.87,3.72,2.26
30.9900,0.09,0.12,-0.99,3.30,3.85,2.20
31.0140,0.09,0.12,-0.99,3.11,4.09,2.26
31.0300,0.09,0.12,-0.99,2.99,3.85,2.20
31.0450,0.09,0.12,-0.99,2.99,3.85,2.14
31.0610,0.09,0.12,-0.99,3.05,3.91,2.14
31.0760,0.09,0.12,-0.99,3.11,3.72,2.26
31.0800,0.09,0.12,-0.99,3.30,3.78,2.26
31.0950,0.09,0.12,-0.99,3.17,3.97,2.08
31.1180,0.09,0.12,-0.99,3.05,4.03,2.08
31.1340,0.09,0.12,-0.99,2.87,3.66,2.20
31.1510,0.09,0.12,-0.99,3.23,3.72,2.08
31.1670,0.09,0.12,-1.00,3.17,4.21,2.20
31.1840,0.09,0.12,-0.99,3.17,4.03,2.20
31.2000,0.09,0.12,-0.99,3.05,3.85,2.08
31.2160,0.09,0.12,-0.99,3.05,3.85,2.32
31.2320,0.08,0.12,-0.99,2.99,3.66,2.20
31.2480,0.09,0.12,-0.99,3.05,3.91,2.08
31.2580,0.09,0.12,-0.99,3.17,3.72,2.14
31.2660,0.09,0.12,-0.99,2.99,3.60,2.20
31.2910,0.09,0.12,-0.99,3.23,3.91,2.26
31.3070,0.09,0.12,-0.99,2.87,3.97,2.20
31.3240,0.09,0.12,-0.99,3.05,3.91,2.26
31.3390,0.09,0.12,-0.99,3.05,4.03,2.26
31.3550,0.09,0.12,-0.99,2.99,3.91,2.26
31.3590,0.09,0.12,-0.99,3.11,3.97,2.14
31.3730,0.08,0.12,-0.99,3.05,3.97,2.20
31.3950,0.08,0.12,-0.99,3.11,3.60,2.08
31.4130,0.09,0.12,-0.99,3.17,3.78,2.14
31.4280,0.09,0.12,-0.99,2.93,3.85,2.14
31.4440,0.09,0.12,-0.99,3.11,4.09,1.95
31.4580,0.08,0.12,-1.00,2.99,3.85,2.14
31.4700,0.08,0.12,-0.99,2.93,4.15,2.14
31.4860,0.08,0.12,-0.99,2.99,4.03,2.26
31.5010,0.09,0.12,-1.00,3.11,3.85,2.26
31.5220,0.09,0.12,-0.99,3.05,4.09,2.14
31.5390,0.09,0.12,-0.99,2.93,3.97,2.14
31.5550,0.08,0.12,-0.99,3.05,3.85,2.20
31.5710,0.08,0.12,-0.99,2.87,3.72,1.95
31.5870,0.09,0.12,-0.99,2.99,3.78,2.14
31.6030,0.08,0.12,-0.99,3.23,3.78,2.20
31.6190,0.09,0.12,-0.99,3.05,3.60,2.14
31.6360,0.08,0.12,-0.99,2.93,3.91,2.38
31.6410,0.09,0.12,-0.99,2.99,3.78,2.20
31.6590,0.09,0.12,-0.99,3.11,3.91,2.20
31.6800,0.09,0.12,-1.00,2.93,4.03,2.26
31.6950,0.09,0.12,-1.00,2.87,3.78,2.14
31.7110,0.09,0.12,-0.99,2.87,3.60,2.14
31.7260,0.09,0.12,-0.99,3.05,3.85,2.01
31.7300,0.09,0.12,-0.99,2.93,3.54,2.14
31.7460,0.09,0.12,-0.99,2.93,3.72,2.26
31.7670,0.09,0.12,-0.99,3.11,3.85,2.20
31.7830,0.08,0.12,-1.00,2.75,4.15,2.01
31.8010,0.09,0.12,-0.99,2.99,3.85,2.32
31.8170,0.09,0.12,-0.99,3.05,3.91,2.14
31.8330,0.09,0.12,-0.99,3.23,3.97,2.26
31.8490,0.09,0.12,-0.99,3.30,4.09,2.32
31.8650,0.09,0.12,-0.99,3.05,3.97,2.20
31.8810,0.09,0.12,-0.99,2.99,4.09,2.26
31.8960,0.09,0.12,-0.99,3.17,3.91,2.20
31.9000,0.09,0.12,-0.99,3.05,3.85,2.26
31.9160,0.09,0.12,-0.99,3.23,4.15,2.26
31.9410,0.09,0.12,-1.00,3.30,4.03,2.08
31.9570,0.09,0.12,-0.99,2.99,4.15,2.08
31.9730,0.08,0.12,-0.99,3.11,3.91,2.26
31.9890,0.08,0.12,-1.00,2.99,4.03,2.14
32.0060,0.08,0.12,-0.99,3.23,3.48,2.20
32.0220,0.09,0.12,-1.00,3.05,4.03,2.26
32.0380,0.09,0.12,-0.99,2.87,4.15,2.14
32.0550,0.09,0.12,-0.99,2.87,3.97,2.32
32.0710,0.09,0.12,-0.99,3.11,3.78,2.32
32.0870,0.09,0.12,-1.00,3.05,3.78,2.26
32.1030,0.09,0.12,-0.99,2.99,4.03,2.20
32.1210,0.09,0.12,-0.99,3.23,4.03,2.01
32.1360,0.09,0.12,-0.99,3.17,3.97,2.08
32.1520,0.09,0.12,-0.99,3.11,3.78,2.20
32.1680,0.09,0.12,-0.99,3.11,4.33,2.32
32.1830,0.08,0.12,-0.99,2.87,4.09,2.14
32.1970,0.09,0.12,-0.99,2.93,3.85,2.32
32.2120,0.09,0.12,-0.99,2.87,3.85,2.14
32.2240,0.09,0.12,-1.00,2.87,4.15,2.20
32.2400,0.08,0.12,-1.00,2.99,4.21,2.26
32.2570,0.08,0.12,-0.99,2.93,4.03,2.32
32.2740,0.09,0.12,-1.00,2.93,4.21,2.20
32.2900,0.09,0.12,-1.00,3.05,4.03,2.20
32.3060,0.09,0.12,-0.99,2.93,3.85,2.26
32.3220,0.08,0.12,-1.00,2.87,3.97,2.14
32.3380,0.08,0.12,-0.99,2.75,3.91,2.26
32.3530,0.08,0.12,-0.99,2.87,4.03,2.20
32.3700,0.09,0.12,-0.98,2.99,3.78,2.26
32.3860,0.09,0.13,-0.99,3.11,4.15,2.26
32.4020,0.09,0.12,-0.99,3.05,3.97,2.44
32.4080,0.08,0.12,-1.00,2.99,4.03,2.26
32.4310,0.08,0.12,-0.99,3.05,4.03,2.32
32.4410,0.08,0.11,-1.00,2.93,3.78,2.32
32.4590,0.09,0.12,-0.99,3.05,3.60,2.14
32.4780,0.09,0.12,-0.99,2.99,3.97,2.14
32.4940,0.09,0.12,-0.99,2.99,4.09,2.01
32.5090,0.08,0.12,-1.00,2.93,4.03,2.26
32.5140,0.08,0.12,-1.00,2.87,3.85,2.26
32.5290,0.08,0.12,-0.99,2.87,3.72,2.20
32.5530,0.09,0.13,-0.99,3.11,4.03,2.20
32.5690,0.09,0.12,-0.99,2.87,3.72,2.32
32.5870,0.09,0.12,-0.99,2.87,3.91,2.32
32.6020,0.08,0.12,-0.99,2.93,3.91,2.20
32.6190,0.09,0.12,-0.99,3.05,3.85,2.14
32.6340,0.09,0.12,-1.00,2.87,3.91,2.14
32.6370,0.09,0.11,-0.99,3.05,4.03,1.95
32.6670,0.09,0.11,-0.99,3.05,3.97,2.20
32.6840,0.09,0.12,-1.00,2.99,4.03,2.08
32.7000,0.08,0.12,-0.99,3.05,4.03,2.14
32.7150,0.08,0.12,-0.99,2.87,4.03,2.14
32.7320,0.08,0.12,-0.99,2.87,3.91,2.20
32.7460,0.08,0.12,-0.99,2.75,3.85,2.20
32.7600,0.08,0.13,-0.99,2.81,3.97,2.14
32.7690,0.08,0.12,-0.99,2.99,3.85,1.95
32.7920,0.08,0.12,-0.99,2.99,3.85,1.95
32.8090,0.08,0.12,-0.99,2.99,3.66,2.26
32.8240,0.09,0.12,-0.99,2.99,4.03,2.32
32.8390,0.09,0.12,-0.99,2.87,3.85,2.20
32.8550,0.09,0.12,-1.00,3.11,3.91,2.26
32.8710,0.09,0.11,-0.99,3.17,3.78,2.26
32.8860,0.09,0.11,-0.99,3.05,3.78,2.20
32.9020,0.09,0.12,-0.99,2.93,3.72,2.20
32.9180,0.09,0.12,-0.99,3.17,3.97,2.08
32.9260,0.09,0.12,-0.99,3.17,3.72,2.26
32.9410,0.08,0.12,-0.99,3.05,3.97,2.14
32.9640,0.08,0.12,-0.99,3.05,3.78,2.14
32.9800,0.08,0.12,-0.99,3.11,3.97,2.32
32.9820,0.09,0.12,-0.99,2.81,3.91,2.08
33.0120,0.09,0.12,-0.99,2.62,3.91,2.14
33.0280,0.09,0.12,-1.00,2.87,3.91,2.26
33.0340,0.09,0.12,-0.99,2.62,3.72,2.20
33.0500,0.09,0.12,-1.00,2.93,3.66,2.26
33.0730,0.09,0.12,-0.99,2.93,3.66,2.01
33.0900,0.09,0.12,-0.99,2.99,3.66,2.20
33.1060,0.09,0.12,-1.00,3.05,4.03,2.20
33.1220,0.09,0.12,-1.00,3.17,3.72,2.20
33.1380,0.08,0.12,-0.99,3.11,3.72,2.08
33.1540,0.08,0.12,-0.99,3.11,4.03,2.14
33.1700,0.08,0.12,-1.00,3.05,4.15,2.38
33.1850,0.09,0.12,-0.99,2.99,3.85,2.20
33.1920,0.09,0.12,-0.99,2.81,3.78,2.32
33.2080,0.09,0.12,-1.00,2.99,3.85,2.20
33.2300,0.08,0.12,-0.99,2.99,3.97,2.32
33.2470,0.08,0.12,-0.99,2.99,3.66,2.20
33.2630,0.09,0.12,-0.99,2.99,3.78,2.26
33.2800,0.09,0.12,-0.99,2.93,4.33,2.32
33.2960,0.09,0.12,-0.99,2.81,3.85,2.14
33.3110,0.09,0.12,-0.99,2.93,4.15,2.20
33.3260,0.08,0.12,-0.99,2.99,4.09,2.20
33.3410,0.09,0.12,-0.99,2.81,3.85,2.20
33.3470,0.08,0.12,-0.99,2.99,3.72,2.14
33.3630,0.09,0.12,-0.99,3.05,3.85,2.08
33.3860,0.09,0.12,-0.99,3.05,3.85,2.01
33.4030,0.09,0.12,-0.99,2.87,3.72,2.14
33.4190,0.09,0.12,-0.99,2.93,3.66,2.26
33.4360,0.11,0.12,-0.99,2.99,3.97,2.01
33.4510,0.08,0.12,-0.99,3.05,4.33,0.24
33.4670,0.06,0.11,-1.00,2.87,4.09,0.49
33.4840,0.08,0.12,-0.99,2.93,3.91,1.10
33.4860,0.09,0.12,-0.99,2.87,4.21,1.59
33.5010,0.09,0.12,-0.99,2.87,4.27,1.65
33.5300,0.09,0.12,-0.99,2.93,4.03,1.53
33.5430,0.09,0.12,-0.99,3.11,4.15,1.65
33.5590,0.08,0.12,-0.99,3.11,3.91,1.53
33.5750,0.08,0.12,-0.99,3.05,3.97,1.71
33.5910,0.08,0.12,-0.99,3.05,3.91,1.83
33.6070,0.08,0.12,-0.99,3.30,3.85,1.83
33.6210,0.09,0.12,-0.99,3.11,3.97,1.83
33.6380,0.09,0.12,-0.99,3.05,3.91,1.53
33.6530,0.08,0.12,-0.99,3.05,3.97,1.71
33.6690,0.08,0.12,-1.00,2.93,3.85,2.08
33.6840,0.09,0.12,-0.99,3.05,3.97,2.14
33.6930,0.08,0.12,-0.99,3.11,3.97,2.14
33.7090,0.09,0.12,-0.99,3.17,3.97,2.08
33.7260,0.09,0.12,-0.99,2.81,3.85,1.71
33.7420,0.09,0.12,-0.99,3.11,4.15,1.40
33.7580,0.08,0.12,-0.99,2.99,4.09,1.65
33.7740,0.09,0.12,-0.99,3.05,4.21,1.83
33.7810,0.10,0.12,-0.99,3.11,4.09,1.65
33.8040,0.10,0.12,-0.99,3.36,3.85,0.92
33.8140,0.10,0.12,-0.99,2.87,3.97,0.06
33.8300,0.08,0.12,-0.99,3.30,4.52,-0.18
33.8510,0.08,0.12,-0.99,3.23,4.03,0.12
33.8680,0.08,0.12,-0.99,3.17,4.33,0.24
33.8840,0.09,0.12,-0.99,3.11,4.09,0.00
33.8980,0.08,0.12,-0.99,3.17,4.52,0.00
33.9140,0.08,0.12,-0.99,3.05,4.09,0.67
33.9180,0.09,0.12,-0.99,3.23,3.72,0.98
33.9350,0.09,0.12,-0.99,3.11,4.15,0.73
33.9510,0.08,0.12,-0.99,3.23,4.09,0.06
33.9690,0.08,0.12,-0.99,2.99,4.33,0.43
33.9850,0.08,0.12,-0.99,3.11,4.03,1.16
34.0020,0.08,0.12,-0.99,3.17,3.97,1.40
34.0190,0.08,0.12,-0.99,2.99,3.97,1.59
34.0340,0.09,0.12,-0.99,2.87,3.78,1.65
34.0520,0.09,0.12,-0.99,3.11,3.91,1.10
34.0680,0.08,0.12,-0.99,3.23,4.15,0.98
34.0840,0.08,0.12,-0.99,3.36,3.97,1.65
34.0850,0.09,0.12,-0.99,2.93,3.91,1.59
34.1010,0.09,0.12,-0.99,3.17,3.91,1.22
34.1180,0.08,0.12,-0.99,3.17,4.03,1.04
34.1350,0.09,0.12,-0.99,3.05,3.97,1.04
34.1620,0.08,0.12,-0.99,3.05,3.60,1.46
34.1730,0.09,0.12,-0.99,3.36,3.91,1.40
34.1890,0.09,0.12,-0.99,3.11,3.97,1.04
34.2060,0.09,0.12,-0.99,3.23,3.85,0.55
34.2220,0.09,0.12,-0.99,3.11,3.66,0.18
34.2390,0.09,0.12,-0.99,3.36,4.03,0.18
34.2540,0.08,0.12,-0.99,3.23,4.15,0.18
34.2700,0.09,0.12,-0.99,3.23,4.09,0.61
34.2730,0.09,0.12,-0.99,3.30,4.27,0.79
34.3000,0.09,0.12,-0.99,3.30,3.97,0.67
34.3120,0.09,0.12,-0.99,3.17,4.09,0.49
34.3310,0.08,0.12,-0.99,2.99,4.09,0.24
34.3310,0.08,0.12,-0.99,3.11,3.78,0.92
34.3600,0.09,0.12,-0.99,2.99,3.97,0.98
34.3770,0.09,0.12,-0.99,3.30,4.33,0.43
34.3910,0.08,0.12,-0.99,3.36,4.21,0.37
34.3960,0.08,0.12,-0.99,3.17,4.27,0.31
34.4110,0.08,0.12,-0.99,3.23,4.21,0.49
34.4340,0.08,0.12,-0.99,3.23,4.03,1.22
34.4510,0.09,0.12,-0.99,3.05,3.97,1.53
34.4680,0.09,0.12,-0.99,2.99,4.03,1.46
34.4830,0.09,0.12,-0.99,3.48,3.97,1.40
34.4990,0.08,0.12,-0.99,3.11,4.15,0.85
34.5150,0.08,0.12,-0.99,3.11,4.21,1.16
34.5320,0.09,0.12,-0.99,3.05,3.97,1.65
34.5470,0.09,0.12,-0.99,3.17,3.91,1.53
34.5500,0.09,0.12,-0.99,3.11,3.72,1.10
34.5650,0.08,0.12,-0.99,3.30,3.97,0.79
34.5930,0.09,0.12,-0.99,3.05,4.39,0.85
34.6040,0.09,0.12,-0.99,3.17,4.03,1.34
34.6210,0.08,0.12,-0.99,3.30,3.91,1.16
34.6370,0.09,0.12,-0.99,2.99,3.97,1.34
34.6540,0.09,0.12,-0.99,3.11,3.72,1.34
34.6700,0.09,0.12,-0.99,3.30,3.72,1.16
34.6870,0.09,0.12,-0.99,3.11,3.91,0.85
34.7030,0.08,0.12,-0.99,3.17,4.09,0.79
34.7190,0.09,0.12,-0.99,3.05,4.03,1.10
34.7350,0.09,0.12,-0.99,2.99,4.39,1.16
34.7510,0.09,0.12,-0.99,3.23,3.91,1.10
34.7670,0.09,0.12,-0.99,3.17,4.21,0.18
34.7710,0.09,0.12,-0.99,3.11,4.39,-0.18
34.7990,0.08,0.12,-0.99,3.17,4.39,-0.18
34.8150,0.08,0.12,-0.99,3.11,4.39,0.06
34.8300,0.09,0.12,-0.99,2.99,3.91,0.79
34.8370,0.09,0.12,-0.99,2.99,4.03,0.79
34.8520,0.09,0.12,-0.99,3.17,4.15,0.18
34.8690,0.08,0.12,-0.99,3.11,4.27,-0.06
34.8920,0.08,0.12,-0.99,2.81,4.09,0.49
34.9080,0.09,0.12,-0.99,3.11,4.15,0.98
34.9100,0.08,0.12,-0.99,2.99,4.27,0.85
34.9260,0.08,0.12,-0.99,3.36,4.03,1.16
34.9490,0.08,0.12,-0.99,3.36,3.97,0.98
34.9650,0.08,0.12,-0.99,2.99,3.97,1.10
34.9810,0.08,0.12,-0.99,2.99,4.09,1.22
34.9980,0.08,0.12,-0.99,3.11,3.91,1.34
35.0140,0.08,0.12,-0.99,2.99,4.15,1.40
35.0300,0.08,0.12,-0.99,3.11,3.97,1.53
35.0450,0.09,0.12,-0.99,2.99,3.66,1.59
35.0620,0.09,0.12,-0.99,2.93,4.33,1.59
35.0770,0.09,0.12,-0.99,2.93,4.09,1.53
35.0930,0.08,0.12,-0.99,3.17,4.09,1.46
35.1080,0.08,0.12,-0.99,2.87,4.03,1.77
35.1220,0.08,0.12,-0.99,3.17,3.91,1.53
35.1370,0.08,0.12,-0.99,3.30,3.97,1.89
35.1490,0.08,0.12,-0.99,3.23,3.85,1.89
35.1650,0.09,0.12,-0.99,3.11,4.21,2.14
35.1810,0.09,0.12,-0.99,3.23,3.78,2.14
35.1980,0.09,0.12,-0.99,2.99,3.85,2.01
35.2150,0.09,0.12,-0.99,3.05,3.91,1.77
35.2300,0.08,0.12,-0.99,2.99,4.03,1.71
35.2460,0.08,0.12,-0.99,2.75,3.54,1.83
35.2620,0.08,0.12,-0.99,3.11,3.91,1.71
35.2650,0.09,0.12,-0.99,2.99,3.72,1.89
35.2810,0.09,0.12,-0.99,3.05,4.15,1.95
35.3030,0.09,0.12,-0.99,2.93,3.97,1.65
35.3200,0.08,0.12,-0.99,2.99,3.85,1.34
35.3360,0.09,0.12,-0.99,2.87,3.78,1.46
35.3530,0.08,0.12,-0.99,2.99,3.97,1.46
35.3700,0.09,0.12,-0.99,3.11,4.15,1.77
35.3860,0.09,0.12,-1.00,2.93,3.91,1.65
35.4020,0.09,0.12,-0.99,2.87,3.91,1.71
35.4180,0.09,0.12,-0.99,2.87,3.72,1.71
35.4340,0.09,0.12,-0.99,3.23,4.15,1.59
35.4370,0.08,0.12,-0.99,3.11,4.09,1.59
35.4640,0.08,0.12,-0.99,2.99,4.03,1.83
35.4750,0.08,0.12,-0.99,2.87,3.66,1.77
35.4910,0.09,0.12,-0.99,3.05,3.66,1.95
35.5090,0.09,0.12,-0.99,3.17,3.85,1.83
35.5250,0.09,0.12,-0.99,2.99,4.03,1.65
35.5400,0.08,0.12,-0.99,3.11,3.97,1.53
35.5550,0.09,0.12,-0.99,3.11,3.78,1.77
35.5710,0.09,0.12,-0.99,3.11,3.78,1.65
35.5870,0.09,0.12,-0.99,3.11,3.36,1.71
35.6020,0.08,0.12,-0.99,2.93,3.85,1.77
35.6180,0.09,0.12,-0.99,3.11,4.21,1.83
35.6320,0.09,0.12,-0.99,3.05,3.48,1.65
35.6410,0.09,0.12,-0.99,3.05,3.85,1.83
35.6630,0.09,0.12,-0.99,3.11,3.85,1.77
35.6750,0.09,0.12,-0.99,3.05,3.97,1.71
35.6910,0.08,0.12,-0.99,3.11,3.72,1.71
35.7080,0.09,0.12,-0.99,3.05,4.09,1.59
35.7230,0.09,0.12,-0.99,3.05,4.09,1.71
35.7390,0.08,0.12,-0.99,2.93,3.78,1.71
35.7540,0.08,0.12,-0.99,2.93,3.78,1.95
35.7710,0.09,0.12,-0.99,2.99,3.97,1.95
35.7740,0.08,0.12,-0.99,3.11,3.97,2.01
35.7900,0.08,0.12,-0.99,2.99,3.78,2.26
35.8120,0.08,0.12,-0.99,2.87,3.91,2.20
35.8290,0.08,0.12,-0.99,2.93,3.85,2.26
35.8470,0.09,0.12,-0.99,2.69,3.97,2.32
35.8630,0.08,0.12,-0.99,2.75,3.72,2.32
35.8790,0.08,0.12,-0.99,2.93,3.91,2.32
35.8950,0.09,0.12,-0.99,2.75,3.85,2.44
35.9120,0.09,0.12,-0.99,2.87,3.97,2.32
35.9280,0.08,0.12,-0.99,3.05,3.72,2.14
35.9440,0.08,0.12,-0.99,3.11,4.09,2.14
35.9590,0.09,0.12,-0.99,3.17,3.78,2.26
35.9650,0.09,0.12,-0.99,3.23,3.85,2.32
35.9780,0.08,0.12,-0.99,2.93,3.97,2.20
35.9990,0.08,0.12,-0.99,3.11,3.97,2.20
36.0160,0.08,0.12,-0.99,3.23,4.03,1.95
36.0340,0.08,0.12,-0.99,3.11,3.78,2.38
36.0500,0.08,0.12,-0.99,3.17,3.66,2.50
36.0650,0.09,0.12,-1.00,2.99,3.97,2.32
36.0820,0.08,0.12,-0.99,2.93,3.78,2.20
36.0980,0.08,0.12,-1.00,3.17,3.78,2.32
36.1140,0.09,0.11,-0.99,2.87,4.03,2.26
36.1300,0.09,0.11,-0.99,3.11,4.03,2.26
36.1330,0.09,0.11,-0.99,2.99,4.03,2.20
36.1490,0.09,0.11,-0.99,3.11,3.85,2.20
36.1770,0.08,0.11,-1.00,3.17,3.91,2.20
36.1880,0.08,0.11,-0.99,3.05,3.97,2.08
36.2030,0.08,0.12,-1.00,3.17,3.91,2.08
36.2230,0.08,0.12,-1.00,2.99,3.97,2.08
36.2390,0.09,0.12,-0.99,3.05,3.78,2.26
36.2540,0.09,0.12,-0.99,3.23,3.78,2.01
36.2700,0.09,0.12,-0.99,3.23,3.48,1.83
36.2860,0.09,0.12,-0.99,3.11,3.91,1.89
36.3030,0.08,0.12,-0.99,3.05,3.66,1.95
36.3180,0.08,0.12,-0.99,3.05,4.03,1.95
36.3330,0.09,0.12,-0.99,3.17,3.78,2.01
36.3400,0.09,0.12,-0.99,3.23,3.78,1.83
36.3560,0.09,0.12,-0.99,3.30,3.91,1.59
36.3780,0.08,0.12,-0.99,2.81,3.85,1.83
36.3940,0.09,0.12,-0.99,2.93,3.97,1.95
36.4090,0.08,0.12,-0.99,3.30,3.91,2.01
36.4240,0.09,0.12,-0.99,3.17,3.66,1.89
36.4390,0.08,0.12,-0.99,3.36,3.78,1.83
36.4540,0.09,0.12,-1.00,3.11,3.78,1.95
36.4690,0.08,0.12,-0.99,3.17,3.66,1.89
36.4810,0.09,0.12,-0.99,3.11,3.78,1.83
36.4970,0.08,0.12,-0.99,3.30,3.91,1.89
36.5130,0.09,0.12,-0.99,3.05,4.09,2.08
36.5310,0.08,0.12,-0.99,3.30,3.48,2.08
36.5470,0.09,0.12,-0.99,2.99,4.03,2.08
36.5640,0.08,0.12,-0.99,3.23,3.42,2.26
36.5800,0.09,0.12,-0.99,2.93,3.91,2.32
36.5960,0.08,0.12,-0.99,2.93,4.09,2.14
36.6120,0.09,0.12,-0.99,3.23,3.60,2.14
36.6270,0.09,0.12,-0.99,3.17,4.09,2.20
36.6430,0.09,0.12,-0.99,2.99,3.97,2.20
36.6470,0.09,0.12,-1.00,2.93,3.66,2.20
36.6650,0.08,0.12,-0.99,2.99,3.97,2.26
36.6850,0.08,0.12,-0.99,2.93,3.66,2.26
36.7010,0.09,0.12,-0.99,3.11,3.78,2.20
36.7190,0.09,0.12,-0.99,3.17,3.54,2.01
36.7350,0.08,0.12,-0.99,2.93,3.48,2.14
36.7500,0.09,0.12,-0.99,2.93,4.03,2.08
36.7650,0.09,0.12,-0.99,3.11,3.60,2.01
36.7680,0.09,0.12,-0.99,3.17,4.03,1.89
36.7840,0.09,0.12,-0.99,3.17,3.97,1.77
36.8120,0.08,0.12,-0.99,2.75,3.97,1.95
36.8230,0.08,0.12,-0.99,3.11,3.60,1.83
36.8400,0.09,0.12,-0.99,3.11,3.85,1.77
36.8560,0.08,0.12,-0.99,2.99,3.72,1.95
36.8720,0.09,0.12,-0.99,2.93,3.85,1.95
36.8870,0.09,0.12,-0.99,3.05,4.15,2.01
36.9040,0.09,0.12,-0.99,3.11,3.72,2.01
36.9200,0.08,0.12,-0.99,2.93,3.97,1.89
36.9230,0.09,0.12,-0.99,3.11,3.60,1.95
36.9390,0.09,0.12,-0.99,3.17,3.66,2.08
36.9630,0.08,0.12,-0.99,3.11,3.72,2.01
36.9790,0.09,0.12,-0.99,2.99,3.60,1.89
36.9960,0.08,0.12,-0.99,2.81,3.72,2.08
37.0130,0.09,0.12,-0.99,3.05,3.54,2.01
37.0280,0.09,0.12,-0.99,3.11,3.42,2.01
37.0430,0.09,0.12,-0.99,3.05,3.85,2.08
37.0590,0.08,0.12,-0.99,2.75,3.91,2.14
37.0740,0.09,0.12,-0.99,2.87,4.27,2.32
37.0900,0.09,0.12,-0.99,3.05,3.72,2.56
37.1060,0.09,0.12,-0.99,3.11,3.48,2.32
37.1220,0.09,0.12,-0.99,2.93,3.91,2.44
37.1370,0.08,0.12,-0.99,2.81,3.66,2.62
37.1520,0.08,0.12,-0.99,2.99,3.42,2.81
37.1670,0.08,0.12,-0.99,3.17,3.54,2.56
37.1800,0.09,0.12,-0.99,3.05,3.78,2.44
37.1960,0.08,0.12,-0.99,2.99,3.85,2.44
37.2120,0.09,0.12,-0.99,3.05,3.78,2.20
37.2280,0.08,0.12,-0.99,3.11,3.54,2.56
37.2440,0.08,0.12,-0.99,3.17,3.91,2.44
37.2580,0.08,0.12,-0.99,3.11,3.54,2.38
37.2660,0.09,0.12,-0.99,3.23,4.21,2.20
37.2770,0.09,0.12,-0.99,3.11,3.91,2.14
37.3040,0.08,0.12,-0.99,2.99,4.03,2.50
37.3160,0.08,0.12,-0.99,3.11,3.72,2.26
37.3330,0.09,0.12,-0.99,3.23,3.97,2.08
37.3490,0.08,0.12,-0.99,3.05,3.54,2.32
37.3660,0.08,0.12,-0.99,2.99,3.91,2.08
37.3820,0.08,0.12,-0.99,3.05,3.91,2.20
37.3970,0.09,0.12,-1.00,2.99,3.72,2.14
37.4140,0.09,0.12,-0.99,2.99,4.09,2.26
37.4160,0.09,0.12,-0.99,2.93,4.09,2.08
37.4320,0.09,0.12,-0.99,2.99,3.78,2.20
37.4560,0.09,0.12,-0.99,3.05,3.60,2.20
37.4730,0.09,0.12,-0.99,3.17,4.03,2.08
37.4890,0.08,0.12,-0.99,3.17,3.85,2.14
37.5070,0.08,0.12,-0.99,3.11,4.03,2.08
37.5070,0.09,0.12,-0.99,3.05,3.91,2.32
37.5360,0.09,0.12,-0.99,3.05,4.09,2.08
37.5530,0.09,0.12,-0.99,2.81,3.91,2.26
37.5680,0.08,0.12,-0.99,2.93,4.21,2.32
37.5830,0.08,0.12,-0.99,2.93,3.85,2.26
37.5900,0.09,0.12,-0.99,2.75,3.72,2.26
37.6060,0.09,0.12,-0.99,2.99,3.72,2.44
37.6220,0.08,0.12,-1.00,2.99,3.72,2.26
37.6430,0.08,0.12,-0.99,2.87,3.78,2.20
37.6590,0.09,0.12,-0.99,2.99,3.91,2.32
37.6750,0.08,0.12,-0.99,2.81,3.78,2.26
37.6920,0.08,0.12,-0.99,2.99,3.78,2.38
37.7080,0.09,0.12,-0.99,3.05,3.54,2.32
37.7240,0.08,0.12,-1.00,2.87,3.78,2.38
37.7400,0.09,0.12,-0.99,2.81,3.72,2.44
37.7550,0.08,0.12,-0.99,3.36,3.78,2.44
37.7710,0.09,0.12,-0.99,3.05,3.91,2.44
37.7860,0.08,0.12,-0.99,2.99,3.97,2.38
37.8010,0.08,0.12,-0.99,2.99,3.66,2.20
37.8080,0.09,0.12,-0.99,2.93,3.72,2.44
37.8250,0.09,0.12,-0.99,2.99,3.85,2.44
37.8410,0.09,0.12,-0.99,3.17,3.91,2.26
37.8620,0.09,0.12,-0.99,3.23,3.72,2.44
37.8780,0.09,0.12,-0.99,3.05,3.91,2.32
37.8950,0.08,0.12,-0.99,2.99,3.85,2.26
37.9100,0.08,0.12,-0.99,3.11,3.97,2.32
37.9260,0.08,0.12,-0.99,3.11,3.66,2.01
37.9410,0.08,0.12,-0.99,2.99,3.97,2.20
37.9560,0.08,0.12,-0.99,2.99,3.85,2.50
37.9680,0.09,0.12,-0.99,3.05,3.66,2.32
37.9780,0.09,0.12,-0.99,2.99,3.78,2.32
38.0020,0.09,0.12,-0.99,2.93,3.66,2.26
38.0180,0.08,0.12,-0.99,3.23,4.03,2.32
38.0330,0.08,0.12,-0.99,2.99,3.91,2.26
38.0490,0.09,0.12,-0.99,3.05,3.91,2.08
38.0650,0.09,0.12,-0.99,3.05,3.72,2.26
38.0700,0.08,0.12,-0.99,2.99,3.54,2.26
38.0850,0.09,0.12,-0.99,2.99,3.97,1.89
38.1010,0.08,0.12,-0.99,3.05,4.15,2.20
38.1230,0.08,0.12,-0.99,3.05,3.54,2.20
38.1400,0.09,0.12,-0.99,3.11,4.15,2.32
38.1560,0.09,0.12,-0.99,3.17,4.03,2.08
38.1730,0.09,0.12,-0.99,2.87,3.66,2.01
38.1880,0.08,0.12,-0.99,2.93,3.72,2.08
38.2040,0.09,0.12,-0.99,3.05,3.97,1.83
38.2200,0.08,0.12,-0.99,2.99,3.85,1.71
38.2360,0.08,0.12,-0.99,2.81,3.72,1.77
38.2510,0.09,0.12,-0.99,3.17,3.66,1.89
38.2670,0.09,0.12,-0.99,3.23,3.78,1.83
38.2820,0.09,0.12,-0.99,3.23,3.78,1.89
38.2900,0.09,0.12,-0.99,2.99,4.09,1.65
38.3120,0.09,0.12,-0.99,3.05,3.78,1.53
38.3240,0.08,0.12,-0.99,2.93,3.85,1.46
38.3400,0.09,0.12,-0.99,2.99,3.72,1.40
38.3560,0.09,0.12,-0.99,3.23,4.09,1.40
38.3730,0.09,0.12,-0.99,3.17,3.72,1.22
38.3890,0.08,0.12,-0.99,3.11,4.39,1.28
38.4040,0.08,0.12,-0.99,3.11,4.21,1.22
38.4190,0.08,0.12,-0.99,3.23,3.78,1.59
38.4350,0.09,0.12,-0.99,3.23,3.78,1.53
38.4510,0.09,0.12,-0.99,2.87,4.03,1.59
38.4560,0.09,0.12,-0.99,2.99,3.72,1.71
38.4720,0.09,0.12,-0.99,2.93,3.85,1.40
38.4970,0.09,0.12,-0.99,3.11,3.97,1.04
38.5120,0.07,0.12,-0.99,2.99,4.03,1.22
38.5290,0.09,0.12,-0.99,2.99,3.48,1.59
38.5450,0.09,0.12,-0.99,3.17,3.78,1.65
38.5610,0.08,0.12,-0.99,3.30,3.85,1.46
38.5770,0.09,0.12,-0.99,2.99,4.09,1.53
38.5910,0.08,0.12,-0.99,2.93,3.78,1.59
38.6070,0.08,0.12,-0.99,2.99,3.78,1.46
38.6110,0.08,0.12,-0.99,2.99,4.09,1.77
38.6270,0.09,0.12,-0.99,2.99,3.85,1.95
38.6500,0.09,0.12,-0.99,3.05,3.66,2.01
38.6680,0.09,0.12,-0.99,3.05,4.03,1.95
38.6690,0.08,0.12,-0.99,3.05,3.91,1.77
38.6990,0.08,0.12,-0.99,3.30,4.03,1.83
38.7160,0.09,0.12,-0.99,2.99,3.97,1.95
38.7170,0.08,0.12,-0.99,3.11,4.03,1.95
38.7350,0.09,0.12,-0.99,2.93,3.91,1.95
38.7500,0.09,0.12,-0.99,2.99,3.91,2.08
38.7690,0.09,0.12,-0.99,3.11,3.85,1.89
38.7940,0.08,0.12,-0.99,3.05,3.72,2.08
38.8050,0.08,0.12,-0.99,3.11,3.60,1.89
38.8210,0.08,0.12,-0.99,2.87,4.03,2.01
38.8380,0.09,0.12,-0.99,2.93,4.27,2.01
38.8550,0.09,0.12,-0.99,3.05,3.85,2.08
38.8720,0.09,0.12,-0.99,2.87,3.97,1.95
38.8880,0.09,0.12,-0.99,2.99,3.78,1.83
38.9030,0.09,0.12,-0.99,2.99,4.09,1.95
38.9190,0.09,0.12,-0.99,2.99,3.91,1.83
38.9350,0.09,0.12,-0.99,3.05,3.85,1.65
38.9380,0.09,0.12,-0.99,2.93,3.91,1.53
38.9540,0.08,0.12,-0.99,3.17,4.09,1.28
38.9780,0.08,0.12,-0.99,3.05,3.66,1.46
38.9940,0.08,0.12,-0.99,3.05,3.91,1.59
39.0100,0.09,0.12,-0.99,2.99,4.09,1.95
39.0270,0.09,0.12,-0.99,3.23,3.85,1.89
39.0430,0.09,0.12,-0.99,3.11,3.78,1.83
39.0580,0.09,0.12,-0.99,3.11,3.91,1.65
39.0730,0.08,0.12,-0.99,2.69,3.85,1.46
39.0890,0.08,0.12,-0.99,2.75,4.15,1.95
39.1030,0.09,0.12,-0.99,2.93,4.03,1.89
39.1100,0.09,0.12,-0.99,2.93,4.03,1.77
39.1260,0.08,0.12,-0.99,2.93,3.78,1.65
39.1470,0.08,0.12,-0.99,2.99,4.09,1.83
39.1640,0.08,0.12,-0.99,2.81,3.78,2.08
39.1790,0.08,0.12,-0.99,3.05,3.72,2.20
39.1960,0.09,0.12,-0.99,3.30,3.97,2.08
39.2120,0.09,0.12,-0.99,3.05,3.36,2.32
39.2270,0.09,0.12,-0.99,3.30,3.54,1.95
39.2310,0.09,0.12,-0.99,3.05,4.21,2.14
39.2470,0.08,0.12,-0.99,3.11,3.85,2.26
39.2700,0.09,0.12,-0.99,3.05,4.09,2.20
39.2870,0.08,0.12,-0.99,2.99,3.85,2.20
39.3040,0.09,0.12,-0.99,2.99,3.85,2.26
39.3200,0.09,0.12,-0.99,2.81,4.15,2.14
39.3360,0.08,0.12,-0.99,3.48,4.03,2.20
39.3520,0.09,0.12,-0.99,3.11,3.66,2.14
39.3680,0.09,0.12,-0.99,3.11,4.09,2.08
39.3840,0.08,0.12,-1.00,3.42,3.36,2.14
39.3880,0.08,0.12,-0.99,2.93,4.09,2.20
39.4030,0.09,0.12,-0.99,2.93,4.09,2.14
39.4230,0.09,0.12,-0.99,3.17,3.72,2.26
39.4410,0.09,0.12,-0.99,3.05,3.78,2.20
39.4560,0.09,0.12,-0.99,3.30,3.78,2.14
39.4760,0.08,0.12,-0.99,3.05,4.03,2.26
39.4920,0.08,0.12,-1.00,3.11,3.91,2.14
39.5070,0.08,0.12,-0.99,3.23,3.72,2.26
39.5230,0.09,0.12,-0.99,3.17,3.42,2.26
39.5370,0.09,0.12,-0.99,2.87,3.72,2.08
39.5470,0.09,0.12,-0.99,3.05,4.15,2.08
39.5620,0.09,0.12,-0.99,3.17,3.85,2.26
39.5830,0.09,0.12,-0.99,3.05,3.66,2.14
39.5840,0.08,0.12,-0.99,2.87,3.54,2.14
39.6140,0.09,0.12,-0.99,3.05,3.91,2.14
39.6190,0.09,0.12,-0.99,2.99,3.66,2.14
39.6350,0.09,0.12,-0.99,2.93,4.09,2.20
39.6510,0.09,0.12,-0.99,2.93,4.21,2.26
39.6720,0.08,0.12,-0.99,3.05,4.09,2.14
39.6890,0.09,0.12,-0.99,2.93,3.91,2.14
39.7050,0.09,0.12,-1.00,2.93,3.54,2.14
39.7220,0.09,0.12,-0.99,3.05,3.72,2.14
39.7370,0.09,0.12,-0.99,3.11,3.85,2.20
39.7530,0.08,0.12,-0.99,2.75,3.48,2.20
39.7560,0.08,0.12,-0.99,2.75,3.60,2.14
39.7710,0.09,0.12,-0.99,2.93,3.85,2.20
39.7960,0.09,0.12,-0.99,2.93,3.66,2.14
39.8130,0.09,0.12,-0.99,2.99,3.85,2.20
39.8290,0.09,0.12,-0.99,2.99,3.78,2.32
39.8440,0.08,0.12,-1.00,3.11,3.78,2.14
39.8600,0.08,0.12,-1.00,3.05,3.78,2.20
39.8710,0.08,0.12,-0.99,2.93,3.60,2.26
39.8780,0.09,0.12,-1.00,2.87,3.78,2.26
39.9010,0.09,0.12,-0.99,2.87,3.72,2.20
39.9180,0.09,0.12,-0.99,3.11,3.91,2.20
39.9340,0.09,0.12,-1.00,3.17,3.97,2.20
39.9520,0.08,0.12,-1.00,3.05,3.78,2.26
39.9680,0.08,0.12,-0.99,2.87,3.66,2.20
39.9830,0.09,0.12,-0.99,2.99,3.85,2.20
39.9900,0.09,0.12,-0.99,2.99,3.78,2.14
40.0130,0.09,0.12,-0.99,3.05,4.03,2.26
40.0240,0.09,0.12,-0.99,2.99,3.78,2.14
40.0400,0.07,0.12,-1.00,3.11,3.78,2.14
40.0590,0.06,0.11,-1.00,3.11,3.78,0.92
40.0710,0.10,0.13,-0.99,3.42,4.39,0.24
40.0900,0.11,0.13,-0.99,3.17,4.21,1.22
40.1050,0.10,0.12,-1.00,3.17,4.03,2.01
40.1200,0.09,0.11,-0.99,3.17,4.03,2.20
40.1290,0.09,0.11,-0.99,3.17,3.66,2.14
40.1450,0.09,0.11,-0.99,3.11,3.78,2.32
40.1660,0.09,0.12,-0.99,3.30,3.97,2.20
40.1820,0.09,0.12,-0.99,3.11,3.72,2.26
40.1980,0.09,0.12,-0.99,2.99,3.85,2.08
40.2140,0.08,0.12,-0.99,3.11,4.33,2.20
40.2180,0.08,0.12,-0.99,3.11,3.48,2.08
40.2340,0.08,0.12,-0.99,2.99,3.66,2.20
40.2560,0.09,0.12,-0.99,3.05,4.15,2.26
40.2720,0.09,0.12,-0.99,3.05,3.78,2.08
40.2890,0.09,0.12,-0.99,3.17,3.85,2.20
40.3050,0.09,0.12,-0.99,3.11,3.91,2.20
40.3200,0.09,0.12,-0.99,2.81,3.78,2.20
40.3370,0.09,0.12,-0.99,2.81,4.03,2.08
40.3530,0.09,0.12,-0.99,3.17,3.97,2.20
40.3680,0.09,0.12,-0.99,2.99,3.54,2.08
40.3720,0.09,0.12,-0.99,2.99,3.85,2.20
40.3880,0.09,0.12,-0.99,2.99,4.03,2.26
40.4120,0.08,0.12,-0.99,3.05,4.03,2.14
40.4280,0.08,0.12,-0.99,2.87,3.85,2.20
40.4450,0.09,0.12,-0.99,2.87,3.97,2.20
40.4620,0.08,0.12,-0.99,2.93,3.97,2.32
40.4770,0.09,0.12,-0.99,3.23,3.91,2.26
40.4930,0.09,0.12,-0.99,2.93,3.78,2.01
40.5090,0.09,0.12,-0.99,2.99,3.97,2.26
40.5240,0.08,0.12,-0.99,2.93,3.66,2.26
40.5400,0.09,0.12,-1.00,3.23,3.36,2.20
40.5550,0.09,0.12,-0.99,3.17,3.78,2.08
40.5690,0.09,0.12,-0.99,3.17,3.85,2.08
40.5860,0.08,0.12,-0.99,3.05,3.66,2.20
40.5950,0.09,0.12,-0.99,2.99,3.78,2.08
40.6110,0.09,0.12,-0.99,2.99,4.09,2.20
40.6330,0.08,0.12,-0.99,3.05,3.91,2.20
40.6470,0.09,0.12,-0.99,2.99,3.60,2.32
40.6620,0.09,0.12,-0.99,3.30,3.66,2.26
40.6770,0.09,0.12,-0.99,3.23,3.78,2.20
40.6920,0.09,0.12,-0.99,3.23,3.78,2.08
40.7000,0.09,0.12,-0.99,2.93,3.72,2.26
40.7150,0.09,0.12,-0.99,3.05,3.91,2.08
40.7370,0.09,0.12,-0.99,2.87,3.72,2.14
40.7550,0.09,0.12,-0.99,2.93,3.78,2.26
40.7710,0.09,0.12,-0.99,2.93,3.85,2.14
40.7860,0.09,0.12,-0.98,2.75,3.97,2.01
40.8020,0.09,0.12,-0.99,2.87,3.66,2.20
40.8180,0.09,0.12,-0.99,2.62,3.78,2.01
40.8220,0.09,0.12,-0.99,2.87,3.66,2.20
40.8440,0.09,0.12,-0.99,2.81,4.15,2.08
40.8610,0.08,0.12,-0.99,2.99,4.09,2.14
40.8760,0.09,0.12,-0.99,2.99,3.91,2.14
40.8930,0.08,0.12,-0.99,3.17,4.09,2.20
40.9090,0.09,0.12,-0.99,3.05,3.91,2.32
40.9240,0.09,0.12,-0.99,3.05,3.85,2.08
40.9400,0.09,0.12,-0.99,2.99,4.09,2.14
40.9560,0.09,0.12,-0.99,3.17,3.78,2.20
40.9720,0.09,0.12,-0.99,2.99,4.03,2.20
40.9870,0.09,0.12,-0.99,2.93,3.91,2.20
41.0020,0.08,0.12,-0.99,3.05,3.60,2.14
41.0170,0.09,0.12,-0.99,2.87,3.97,2.26
41.0260,0.09,0.12,-0.99,2.93,4.09,2.32
41.0420,0.09,0.12,-0.99,3.11,3.78,2.14
41.0640,0.08,0.12,-0.99,2.93,3.54,2.20
41.0800,0.09,0.12,-0.99,3.11,3.97,2.20
41.0950,0.09,0.12,-0.99,2.99,3.91,2.32
41.1110,0.09,0.12,-0.99,2.87,3.97,2.08
41.1250,0.09,0.12,-0.99,3.05,3.91,2.20
41.1400,0.09,0.12,-0.99,2.87,3.78,2.08
41.1490,0.09,0.12,-0.99,2.99,3.54,2.20
41.1650,0.09,0.12,-1.00,3.11,3.60,2.01
41.1820,0.09,0.12,-0.99,3.17,3.78,2.01
41.1990,0.09,0.12,-0.99,2.93,3.78,2.26
41.2150,0.09,0.12,-0.99,3.17,3.91,2.32
41.2320,0.08,0.12,-0.99,3.05,3.97,2.14
41.2480,0.09,0.12,-0.99,3.11,3.66,2.20
41.2640,0.09,0.12,-0.99,2.87,3.60,2.20
41.2800,0.09,0.12,-0.99,2.87,3.97,2.20
41.2820,0.09,0.12,-0.99,2.93,4.21,2.20
41.2980,0.09,0.12,-0.99,2.93,4.09,2.26
41.3210,0.08,0.12,-0.99,2.99,3.97,2.32
41.3370,0.09,0.12,-0.99,2.93,3.97,2.26
41.3540,0.09,0.12,-0.99,2.99,3.78,2.20
41.3720,0.09,0.12,-0.99,3.05,3.78,2.20
41.3870,0.09,0.11,-0.99,3.05,3.54,2.38
41.4030,0.09,0.10,-1.00,2.62,3.60,4.39
41.4190,0.09,0.12,-0.99,2.75,3.60,5.49
41.4360,0.08,0.13,-0.99,2.44,3.42,5.49
41.4510,0.09,0.14,-0.99,2.75,3.54,4.09
41.4540,0.08,0.13,-0.99,2.99,3.66,3.30
41.4720,0.09,0.12,-0.99,3.05,3.97,2.56
41.4980,0.08,0.12,-0.99,2.99,3.78,2.75
41.5100,0.09,0.12,-0.99,2.99,3.91,2.81
41.5260,0.09,0.11,-1.00,2.99,3.54,2.99
41.5420,0.09,0.12,-0.99,2.87,3.91,4.33
41.5590,0.09,0.12,-0.99,2.87,3.60,4.27
41.5750,0.08,0.13,-0.99,2.93,3.54,3.60
41.5900,0.09,0.12,-0.99,3.23,3.85,2.99
41.5930,0.09,0.11,-0.99,2.99,3.78,2.81
41.6080,0.09,0.12,-0.99,2.93,3.78,3.72
41.6310,0.09,0.12,-0.99,2.93,3.48,3.48
41.6480,0.09,0.12,-0.99,2.81,3.97,2.81
41.6640,0.09,0.12,-0.99,2.81,4.27,2.69
41.6800,0.08,0.13,-0.99,2.75,3.91,2.56
41.6950,0.08,0.12,-0.99,2.93,3.78,2.26
41.7040,0.09,0.12,-0.99,2.75,3.42,2.81
41.7260,0.09,0.12,-0.99,2.81,3.54,3.23
41.7370,0.09,0.12,-0.99,3.05,3.72,3.11
41.7550,0.09,0.12,-0.99,2.81,3.97,2.44
41.7730,0.09,0.13,-0.99,2.93,3.85,2.44
41.7870,0.09,0.12,-0.99,2.87,3.72,2.44
41.8050,0.09,0.12,-0.99,2.81,3.60,2.44
41.8200,0.08,0.13,-0.99,2.99,3.54,2.50
41.8370,0.09,0.12,-0.99,2.81,3.60,2.32
41.8540,0.09,0.12,-0.99,2.81,3.78,2.75
41.8700,0.08,0.12,-0.99,2.81,3.72,2.93
41.8850,0.08,0.13,-0.99,2.99,3.72,2.87
41.9000,0.09,0.12,-0.99,2.81,3.48,2.81
41.9160,0.09,0.12,-0.99,3.05,3.91,2.62
41.9310,0.09,0.12,-0.99,2.93,3.72,2.38
41.9380,0.09,0.12,-0.99,3.05,3.66,2.32
41.9530,0.08,0.13,-0.99,2.99,3.78,2.26
41.9770,0.08,0.12,-0.99,3.23,3.60,2.01
41.9920,0.08,0.12,-0.99,2.99,3.78,2.38
42.0070,0.09,0.13,-0.99,2.93,3.78,2.26
42.0230,0.08,0.13,-0.99,2.99,3.85,1.89
42.0280,0.09,0.12,-0.99,2.87,4.03,1.89
42.0440,0.08,0.11,-0.99,3.17,3.78,2.20
42.0670,0.09,0.12,-0.99,2.81,4.09,2.75
42.0840,0.09,0.12,-0.99,2.75,3.72,2.14
42.1000,0.09,0.12,-0.99,3.05,3.48,2.32
42.1160,0.09,0.12,-0.99,3.11,3.78,2.20
42.1170,0.09,0.12,-0.99,2.93,3.54,2.08
42.1350,0.09,0.12,-0.99,2.81,3.66,2.14
42.1500,0.09,0.12,-0.99,2.87,3.66,2.20
42.1800,0.09,0.12,-0.99,2.93,3.97,2.20
42.1850,0.09,0.12,-0.99,2.87,4.09,2.08
42.2000,0.09,0.12,-0.99,2.81,3.91,2.26
42.2160,0.09,0.12,-1.00,2.87,3.60,2.14
42.2360,0.09,0.12,-0.99,2.75,3.66,2.08
42.2520,0.09,0.12,-0.99,2.69,3.66,2.14
42.2690,0.09,0.12,-0.99,2.75,3.78,2.14
42.2860,0.09,0.12,-0.99,3.11,4.15,2.14
42.3020,0.09,0.12,-0.99,2.81,4.15,2.14
42.3180,0.08,0.12,-0.99,2.93,3.66,2.08
42.3360,0.08,0.10,-1.00,2.99,3.72,2.32
42.3510,0.07,0.10,-1.00,2.75,3.91,2.38
42.3660,0.09,0.13,-0.99,2.87,3.85,2.32
42.3730,0.08,0.12,-0.99,2.75,3.91,2.32
42.3860,0.09,0.12,-0.99,2.87,3.66,2.08
42.4080,0.09,0.12,-0.99,3.23,4.03,1.77
42.4250,0.08,0.12,-1.00,3.17,4.21,1.77
42.4410,0.09,0.12,-0.99,2.81,3.72,1.65
42.4570,0.08,0.12,-0.99,3.17,3.91,1.89
42.4720,0.08,0.12,-0.99,2.87,4.15,2.26
42.4750,0.09,0.12,-0.99,2.99,3.78,2.38
42.5030,0.09,0.13,-0.99,2.93,3.85,2.01
42.5200,0.09,0.12,-0.99,2.87,3.78,1.89
42.5350,0.09,0.12,-0.99,2.99,3.78,2.08
42.5500,0.09,0.12,-0.99,3.11,3.48,2.08
42.5620,0.09,0.12,-0.99,2.81,3.78,2.20
42.5780,0.08,0.12,-0.99,3.17,3.97,2.01
42.5940,0.09,0.12,-0.99,2.81,3.78,2.08
42.6110,0.09,0.12,-0.99,2.99,3.78,2.08
42.6260,0.08,0.12,-0.99,2.93,4.15,2.20
42.6410,0.09,0.13,-0.99,3.23,3.97,2.08
42.6570,0.09,0.12,-0.99,3.17,4.09,1.95
42.6720,0.09,0.12,-0.99,2.87,4.03,2.26
42.6890,0.09,0.12,-0.99,2.99,3.85,2.08
42.7040,0.08,0.12,-0.99,2.99,3.60,1.89
42.7190,0.09,0.12,-0.99,2.81,3.72,1.89
42.7280,0.09,0.12,-0.99,3.05,4.03,2.08
42.7440,0.09,0.12,-0.99,3.11,3.66,2.01
42.7650,0.08,0.11,-0.99,3.05,3.91,1.89
42.7730,0.08,0.12,-0.99,2.99,3.85,1.95
42.7820,0.09,0.12,-0.99,2.75,4.09,1.95
42.8100,0.09,0.12,-0.99,2.81,3.66,2.08
42.8200,0.09,0.12,-0.99,2.99,3.72,2.26
42.8360,0.08,0.11,-0.99,3.11,4.09,2.32
42.8570,0.08,0.12,-0.99,3.05,3.85,2.20
42.8720,0.08,0.12,-0.99,3.11,3.66,2.01
42.8870,0.09,0.12,-0.99,2.99,3.91,1.83
42.9030,0.08,0.12,-0.99,2.93,3.85,1.89
42.9180,0.09,0.12,-0.99,3.11,3.91,1.71
42.9340,0.09,0.12,-0.99,2.99,4.09,1.46
42.9500,0.09,0.12,-0.99,3.23,4.03,1.22
42.9650,0.09,0.12,-0.99,2.93,3.97,1.40
42.9810,0.09,0.12,-0.99,2.99,4.21,1.59
42.9960,0.09,0.12,-0.99,2.81,4.33,1.89
43.0070,0.09,0.12,-0.99,3.05,3.97,2.14
43.0240,0.08,0.11,-0.99,2.87,3.66,2.50
43.0410,0.09,0.11,-0.99,3.11,3.60,2.69
43.0560,0.09,0.11,-0.99,2.93,3.85,2.50
43.0710,0.08,0.12,-0.99,3.05,3.91,1.77
43.0870,0.09,0.13,-0.99,3.05,4.03,1.65
43.1010,0.09,0.12,-0.99,3.05,3.97,1.53
43.1170,0.09,0.12,-0.99,3.05,3.72,1.53
43.1330,0.09,0.12,-0.99,3.05,4.09,1.59
43.1480,0.09,0.12,-0.99,3.30,3.97,1.59
43.1630,0.09,0.12,-0.99,3.17,3.78,1.59
43.1740,0.09,0.12,-0.99,3.17,3.72,1.89
43.1910,0.09,0.12,-0.99,2.93,3.97,2.01
43.2070,0.09,0.12,-0.99,2.81,3.91,2.20
43.2230,0.09,0.12,-0.99,2.75,4.21,1.95
43.2400,0.09,0.12,-0.99,2.81,3.85,1.89
43.2560,0.08,0.13,-0.99,2.75,3.72,2.08
43.2710,0.08,0.12,-0.99,2.93,4.03,1.83
43.2750,0.08,0.12,-0.99,2.93,3.85,1.83
43.2900,0.09,0.12,-0.99,3.05,3.60,1.53
43.3060,0.09,0.12,-0.99,2.99,3.78,1.77
43.3340,0.09,0.12,-0.99,3.17,3.72,1.77
43.3450,0.09,0.11,-0.99,2.99,3.85,1.77
43.3620,0.08,0.13,-0.99,2.87,4.21,1.77
43.3780,0.09,0.12,-0.99,2.93,3.97,2.20
43.3950,0.09,0.12,-0.99,3.11,3.97,1.89
43.4120,0.09,0.12,-0.99,3.23,3.91,1.59
43.4270,0.09,0.12,-0.99,2.75,4.03,1.40
43.4430,0.09,0.12,-0.99,3.05,4.09,2.01
43.4580,0.09,0.12,-0.99,2.93,3.66,2.14
43.4730,0.09,0.11,-0.99,2.99,4.21,2.26
43.4880,0.08,0.13,-0.99,2.93,3.85,2.01
43.5030,0.08,0.13,-0.99,2.93,4.15,2.14
43.5110,0.08,0.13,-0.99,2.87,3.72,2.20
43.5270,0.09,0.12,-0.99,2.81,3.97,1.95
43.5490,0.09,0.11,-0.99,3.23,3.78,1.95
43.5660,0.09,0.11,-1.00,2.93,3.91,1.89
43.5820,0.09,0.12,-0.99,3.17,3.85,1.34
43.5830,0.08,0.12,-0.99,3.17,4.09,1.28
43.6130,0.08,0.12,-0.99,2.99,3.97,1.71
43.6170,0.08,0.12,-0.99,2.99,4.15,1.83
43.6330,0.09,0.12,-0.99,2.93,4.03,2.14
43.6480,0.08,0.12,-0.99,2.93,3.91,1.77
43.6730,0.08,0.12,-0.99,2.93,3.97,2.14
43.6870,0.09,0.12,-0.99,3.11,3.72,2.20
43.7040,0.08,0.12,-0.99,3.23,3.48,2.20
43.7200,0.08,0.12,-0.99,2.93,3.91,1.95
43.7380,0.09,0.12,-0.99,2.87,4.09,1.95
43.7530,0.08,0.11,-0.99,3.05,3.97,2.20
43.7700,0.08,0.11,-0.99,2.81,4.03,2.32
43.7730,0.09,0.12,-0.99,2.93,3.91,2.56
43.8000,0.09,0.12,-0.99,2.99,3.85,2.32
43.8040,0.08,0.12,-0.99,2.87,3.78,2.20
43.8200,0.08,0.11,-1.00,2.93,3.91,2.32
43.8360,0.09,0.12,-0.99,2.99,4.09,2.44
43.8590,0.09,0.12,-0.99,3.11,4.09,2.20
43.8740,0.09,0.12,-0.99,2.99,3.97,1.95
43.8900,0.08,0.12,-0.99,2.99,3.85,1.95
43.8930,0.08,0.12,-0.99,2.99,3.85,2.08
43.9210,0.09,0.12,-0.99,3.17,4.03,2.08
43.9360,0.09,0.12,-0.99,2.99,4.03,1.71
43.9520,0.09,0.12,-0.99,2.93,3.97,1.65
43.9680,0.08,0.12,-0.99,3.05,3.97,1.77
43.9750,0.08,0.11,-1.00,3.23,4.27,1.46
43.9910,0.08,0.11,-1.00,2.81,3.60,1.65
44.0140,0.09,0.11,-0.99,3.17,3.72,1.53
44.0300,0.09,0.12,-0.99,3.05,3.91,1.40
44.0460,0.09,0.13,-0.99,3.05,3.85,1.28
44.0610,0.09,0.13,-0.99,3.42,3.78,1.53
44.0760,0.09,0.12,-0.99,3.05,4.03,1.59
44.0910,0.09,0.12,-0.99,2.93,4.03,1.83
44.1070,0.09,0.12,-0.99,3.05,4.27,1.71
44.1220,0.09,0.12,-0.99,2.99,3.85,1.65
44.1380,0.09,0.12,-0.99,3.05,3.72,1.77
44.1470,0.09,0.12,-0.99,3.30,3.97,1.53
44.1640,0.09,0.12,-0.99,3.17,4.15,1.34
44.1860,0.09,0.12,-0.99,2.81,4.09,1.46
44.1970,0.09,0.12,-0.99,3.05,4.27,1.46
44.2140,0.09,0.11,-1.00,3.30,4.09,1.34
44.2300,0.09,0.12,-0.99,3.17,4.09,1.40
44.2470,0.09,0.12,-0.99,3.17,3.78,1.16
44.2630,0.09,0.12,-0.99,3.11,3.97,0.67
44.2800,0.09,0.12,-0.99,2.93,4.09,0.37
44.2960,0.08,0.12,-0.99,2.87,3.97,0.49
44.3120,0.08,0.11,-1.00,3.30,4.39,0.85
44.3280,0.09,0.12,-0.99,3.11,4.15,0.98
44.3440,0.09,0.12,-0.99,3.11,4.15,0.85
44.3590,0.08,0.11,-0.99,3.17,4.21,0.37
44.3740,0.09,0.12,-0.99,2.99,3.97,0.85
44.3890,0.09,0.12,-0.99,3.11,3.91,0.37
44.4040,0.08,0.12,-0.99,2.87,3.78,0.73
44.4140,0.09,0.12,-0.99,3.05,3.85,0.79
44.4300,0.08,0.12,-0.99,3.11,3.72,0.73
44.4470,0.08,0.12,-0.99,3.05,3.72,1.04
44.4640,0.09,0.12,-0.99,2.87,4.03,1.28
44.4800,0.09,0.12,-0.99,3.17,3.72,0.98
44.4950,0.09,0.12,-0.99,2.99,4.52,1.16
44.5110,0.09,0.12,-0.99,2.81,4.09,1.46
44.5260,0.09,0.13,-0.99,3.11,3.85,1.71
44.5410,0.09,0.12,-0.99,3.17,4.15,1.83
44.5560,0.08,0.12,-1.00,2.87,3.91,1.89
44.5710,0.09,0.11,-0.99,3.11,3.72,2.01
44.5860,0.08,0.12,-0.99,2.87,4.27,1.53
44.5980,0.09,0.12,-0.99,3.05,4.33,1.22
44.6140,0.08,0.12,-0.99,2.93,3.91,1.28
44.6300,0.08,0.12,-0.99,2.93,3.78,1.89
44.6460,0.09,0.12,-0.99,3.05,3.91,1.89
44.6620,0.09,0.12,-0.99,2.93,3.85,2.08
44.6780,0.09,0.12,-0.99,3.11,3.78,1.89
44.6940,0.09,0.12,-0.99,2.93,3.91,2.14
44.6970,0.08,0.12,-0.99,3.05,3.60,2.20
44.7120,0.08,0.11,-1.00,2.99,4.03,2.01
44.7350,0.08,0.11,-0.99,2.99,3.91,2.20
44.7510,0.09,0.13,-0.99,2.69,3.85,2.38
44.7680,0.09,0.12,-0.99,3.17,4.03,2.32
44.7860,0.09,0.12,-0.99,3.23,3.48,1.95
44.8020,0.09,0.12,-0.99,2.99,4.33,1.95
44.8180,0.08,0.12,-1.00,2.87,4.03,2.20
44.8350,0.09,0.12,-0.99,2.99,4.03,2.32
44.8500,0.08,0.12,-0.99,3.05,3.66,2.44
44.8660,0.08,0.12,-0.99,2.99,3.66,2.26
44.8730,0.09,0.12,-0.99,2.81,3.91,2.38
44.8980,0.08,0.12,-0.99,2.87,4.09,2.14
44.9140,0.08,0.12,-0.99,2.99,3.85,2.32
44.9300,0.09,0.12,-0.99,2.93,3.78,2.20
44.9460,0.10,0.13,-0.99,3.05,3.85,1.83
44.9620,0.09,0.12,-0.99,3.17,3.85,1.89
44.9740,0.09,0.12,-0.99,3.05,3.72,2.08
44.9930,0.09,0.12,-0.99,2.99,3.91,2.08
45.0030,0.09,0.12,-0.99,3.05,3.97,2.14
45.0180,0.09,0.12,-0.99,3.30,3.97,2.01
45.0400,0.09,0.12,-0.99,2.99,3.60,2.08
45.0550,0.09,0.12,-0.99,3.17,3.66,2.08
45.0710,0.09,0.12,-0.99,3.11,3.72,2.01
45.0860,0.09,0.12,-0.99,3.17,3.48,2.01
45.1010,0.09,0.12,-0.99,3.23,3.66,2.08
45.1160,0.09,0.12,-0.99,3.17,3.54,2.08
45.1310,0.09,0.12,-0.99,3.05,3.97,2.26
45.1460,0.09,0.12,-0.99,3.05,3.72,2.20
45.1580,0.08,0.12,-0.99,3.11,3.66,2.20
45.1750,0.09,0.12,-0.99,3.36,3.97,2.20
45.1910,0.09,0.11,-1.00,3.17,3.97,1.89
45.2060,0.08,0.11,-0.99,3.11,4.21,0.67
45.2210,0.09,0.11,-0.99,2.99,3.85,0.92
45.2360,0.09,0.11,-0.99,3.30,4.03,0.79
45.2510,0.08,0.13,-0.99,3.36,4.33,-0.43
45.2660,0.09,0.13,-0.99,3.11,4.15,0.92
45.2750,0.09,0.12,-0.99,3.36,3.97,1.34
45.2910,0.09,0.12,-0.99,3.11,3.85,1.22
45.3080,0.09,0.12,-0.99,3.17,3.91,1.22
45.3250,0.09,0.12,-0.99,2.99,3.97,1.28
45.3400,0.09,0.11,-0.99,3.11,3.78,1.22
45.3560,0.08,0.11,-0.99,3.05,4.15,1.22
45.3710,0.08,0.12,-0.99,3.05,4.03,1.28
45.3860,0.09,0.13,-0.99,3.05,4.09,1.34
45.4030,0.09,0.11,-0.99,3.17,3.91,0.98
45.4180,0.09,0.12,-0.99,3.17,4.03,0.79
45.4330,0.09,0.12,-0.99,3.17,3.91,1.04
45.4410,0.08,0.12,-0.99,2.99,3.91,1.40
45.4570,0.08,0.13,-0.99,2.99,3.78,1.71
45.4790,0.08,0.12,-0.99,2.87,3.78,1.95
45.4950,0.08,0.12,-0.99,2.87,3.78,2.26
45.5100,0.09,0.12,-0.99,2.81,3.66,2.38
45.5260,0.09,0.11,-0.99,3.11,3.85,2.38
45.5410,0.09,0.12,-0.99,3.11,3.85,1.40
45.5560,0.09,0.12,-0.99,3.11,3.91,1.04
45.5710,0.08,0.12,-1.00,3.23,3.97,0.92
45.5800,0.09,0.12,-0.99,3.05,3.97,1.04
45.5950,0.09,0.12,-0.99,3.42,4.27,0.43
45.6170,0.08,0.12,-0.99,3.17,3.91,0.06
45.6320,0.08,0.12,-0.99,3.05,4.15,0.37
45.6470,0.08,0.12,-0.99,3.30,4.33,0.67
45.6620,0.08,0.12,-0.99,2.93,4.15,1.22
45.6740,0.09,0.11,-0.99,3.11,3.78,1.10
45.6840,0.08,0.12,-0.99,3.36,3.91,0.18
45.7080,0.09,0.12,-0.99,3.11,3.97,0.12
45.7230,0.09,0.12,-0.99,3.05,3.72,0.49
45.7400,0.09,0.11,-1.00,3.05,4.27,0.92
45.7550,0.09,0.12,-0.99,3.30,3.91,0.43
45.7700,0.08,0.12,-0.99,2.99,4.09,0.37
45.7860,0.09,0.13,-0.99,3.05,4.09,0.79
45.8030,0.08,0.12,-0.99,2.81,3.48,1.65
45.8190,0.09,0.12,-0.99,3.05,3.72,1.95
45.8350,0.08,0.11,-0.99,2.99,3.97,1.71
45.8500,0.09,0.12,-0.99,2.93,3.97,1.28
45.8650,0.09,0.12,-0.99,2.99,3.97,0.98
45.8760,0.08,0.12,-1.00,2.99,3.72,1.22
45.8910,0.09,0.12,-0.99,3.11,3.85,1.28
45.9070,0.08,0.12,-0.99,3.17,3.97,1.10
45.9270,0.08,0.12,-1.00,3.17,3.78,1.40
45.9430,0.08,0.12,-0.99,3.11,3.72,1.10
45.9580,0.08,0.12,-0.99,2.81,3.85,1.34
45.9730,0.08,0.12,-0.99,2.99,3.66,1.46
45.9900,0.09,0.11,-1.00,3.17,4.03,1.40
46.0050,0.08,0.12,-0.99,3.11,3.97,1.22
46.0120,0.08,0.12,-0.99,2.87,3.66,1.71
46.0270,0.08,0.11,-0.99,2.87,4.09,1.65
46.0500,0.08,0.12,-0.99,3.05,4.33,1.71
46.0660,0.09,0.12,-0.99,2.99,3.72,1.83
46.0750,0.09,0.12,-0.99,3.17,4.03,1.04
46.0970,0.09,0.12,-0.99,3.17,4.15,1.04
46.1010,0.08,0.12,-0.99,2.87,3.91,1.46
46.1170,0.08,0.12,-0.99,2.81,3.91,1.65
46.1390,0.08,0.11,-1.00,3.05,3.91,1.40
46.1560,0.09,0.12,-0.99,2.99,4.21,1.16
46.1720,0.09,0.13,-0.99,3.17,3.97,1.04
46.1890,0.09,0.13,-0.99,3.11,4.27,1.77
46.2050,0.09,0.12,-0.99,2.87,4.15,1.95
46.2200,0.08,0.12,-0.99,3.23,3.66,1.95
46.2360,0.08,0.12,-0.99,2.87,3.85,2.14
46.2520,0.09,0.12,-0.99,3.05,3.85,1.95
46.2670,0.09,0.12,-0.99,3.05,4.03,1.65
46.2820,0.08,0.12,-0.99,2.75,3.30,1.77
46.2980,0.09,0.12,-0.99,2.93,3.91,1.71
46.3140,0.09,0.12,-0.99,2.87,4.21,1.95
46.3290,0.08,0.11,-1.00,3.11,3.78,1.77
46.3390,0.08,0.11,-0.99,2.87,4.03,1.59
46.3550,0.09,0.12,-0.99,3.11,3.66,1.53
46.3750,0.09,0.13,-0.99,2.93,3.66,1.46
46.3890,0.09,0.10,-0.99,2.93,3.97,1.89
46.4050,0.09,0.12,-0.99,2.93,3.85,1.95
46.4200,0.09,0.12,-0.99,3.30,3.72,1.95
46.4360,0.08,0.11,-1.00,3.23,3.78,1.89
46.4400,0.08,0.12,-0.99,3.48,3.91,1.53
46.4550,0.09,0.12,-0.99,3.11,3.78,1.46
46.4830,0.09,0.12,-0.99,2.93,4.21,1.71
46.4950,0.09,0.12,-0.99,2.87,4.03,1.59
46.5110,0.08,0.12,-0.99,3.05,3.66,1.59
46.5280,0.09,0.11,-0.99,2.99,4.15,1.71
46.5440,0.09,0.12,-0.99,3.05,4.15,1.22
46.5610,0.08,0.12,-0.99,3.11,3.97,1.16
46.5770,0.09,0.12,-0.99,3.05,3.60,1.28
46.5920,0.08,0.12,-1.00,2.93,3.78,1.77
46.6070,0.09,0.11,-0.99,2.99,3.66,1.65
46.6210,0.09,0.11,-1.00,2.93,4.15,1.34
46.6290,0.09,0.12,-1.00,3.23,3.91,0.55
46.6460,0.08,0.12,-0.99,3.23,4.27,-0.24
46.6620,0.09,0.12,-0.99,2.93,4.27,-0.06
46.6780,0.09,0.12,-0.99,3.23,4.09,0.06
46.6940,0.08,0.12,-1.00,3.23,4.27,0.18
46.7110,0.08,0.12,-0.99,3.17,3.97,0.98
46.7120,0.09,0.12,-0.99,3.11,4.09,1.40
46.7420,0.09,0.12,-0.99,2.99,4.21,1.46
46.7570,0.09,0.12,-0.99,3.17,3.72,1.40
46.7610,0.08,0.12,-0.99,3.05,3.97,1.46
46.7770,0.09,0.12,-0.99,2.99,3.97,1.77
46.8010,0.09,0.11,-1.00,2.93,4.15,1.59
46.8180,0.08,0.12,-0.99,3.05,4.03,1.34
46.8340,0.08,0.11,-0.99,2.93,4.27,1.46
46.8360,0.09,0.13,-0.99,3.11,3.97,1.16
46.8660,0.08,0.12,-0.99,2.93,3.85,1.46
46.8760,0.08,0.12,-0.99,2.87,4.09,1.34
46.8990,0.08,0.12,-0.99,3.17,3.85,1.65
46.9020,0.08,0.12,-0.99,2.99,3.85,1.83
46.9170,0.08,0.12,-1.00,2.87,3.72,2.08
46.9450,0.09,0.12,-0.99,3.11,4.15,1.77
46.9580,0.09,0.12,-0.99,3.05,3.97,2.01
46.9730,0.08,0.12,-0.99,2.99,3.42,2.14
46.9890,0.09,0.12,-0.99,3.11,3.60,1.83
46.9970,0.09,0.12,-0.99,3.17,3.97,2.01
47.0190,0.08,0.12,-0.99,3.23,3.97,2.08
47.0300,0.08,0.11,-0.99,2.87,4.39,1.95
47.0460,0.08,0.12,-0.99,2.81,4.09,1.95
47.0640,0.09,0.12,-0.99,3.05,3.97,1.89
47.0800,0.08,0.12,-0.99,3.23,4.09,1.65
47.0950,0.08,0.12,-0.99,3.30,3.97,1.65
47.1100,0.09,0.12,-0.99,3.05,4.09,1.65
47.1130,0.09,0.12,-0.99,3.11,3.72,1.65
47.1290,0.09,0.12,-0.99,3.23,3.97,1.34
47.1510,0.08,0.11,-0.99,3.36,4.21,0.79
47.1680,0.08,0.11,-1.00,3.05,4.21,0.79
47.1850,0.09,0.11,-0.99,2.99,3.91,0.43
47.2010,0.09,0.12,-0.99,3.36,4.09,-0.18
47.2180,0.09,0.12,-0.99,2.99,3.97,0.43
47.2190,0.08,0.12,-0.99,3.17,4.15,0.92
47.2500,0.08,0.11,-0.99,3.17,3.85,1.53
47.2660,0.09,0.12,-0.99,3.11,4.09,1.04
47.2830,0.09,0.13,-0.99,3.11,4.09,0.67
47.2980,0.08,0.12,-0.99,3.17,3.78,1.34
47.3020,0.08,0.12,-0.99,3.17,3.91,1.34
47.3170,0.09,0.12,-0.99,3.11,3.78,1.53
47.3400,0.09,0.12,-0.99,3.11,4.03,1.53
47.3560,0.09,0.12,-0.99,3.17,3.97,1.34
47.3730,0.08,0.12,-0.99,3.30,3.97,1.34
47.3890,0.09,0.12,-0.99,3.05,4.03,1.40
47.4060,0.09,0.12,-0.99,3.36,4.09,1.34
47.4210,0.09,0.12,-0.99,3.30,4.15,1.46
47.4370,0.09,0.12,-0.99,3.11,4.15,1.46
47.4530,0.09,0.11,-0.99,2.93,4.21,1.28
47.4690,0.08,0.12,-0.99,3.36,4.27,0.67
47.4840,0.08,0.11,-0.99,3.36,3.91,0.43
47.5000,0.08,0.12,-0.99,3.30,4.21,0.67
47.5160,0.08,0.12,-0.99,3.23,4.15,0.85
47.5320,0.08,0.11,-0.99,3.30,3.60,0.79
47.5460,0.09,0.12,-0.99,2.99,3.60,1.22
47.5620,0.09,0.12,-0.99,3.23,3.78,1.16
47.5760,0.08,0.11,-0.99,3.05,3.97,0.98
47.5910,0.09,0.12,-0.99,3.17,3.97,0.85
47.6070,0.09,0.12,-0.99,2.99,4.27,0.55
47.6230,0.08,0.12,-0.99,3.42,3.97,0.18
47.6380,0.09,0.12,-0.99,2.99,3.72,1.16
47.6530,0.09,0.11,-0.99,2.87,4.03,1.04
47.6680,0.09,0.11,-0.99,3.05,4.09,0.61
47.6840,0.09,0.12,-0.99,3.30,3.78,0.55
47.6990,0.08,0.12,-0.99,3.30,3.97,0.67
47.7140,0.08,0.13,-0.99,3.17,3.97,1.04
47.7280,0.08,0.12,-0.99,2.99,3.72,1.59
47.7400,0.09,0.12,-0.99,3.05,3.72,1.83
47.7570,0.09,0.11,-0.99,3.05,3.97,1.71
47.7730,0.09,0.12,-0.99,3.17,3.85,1.22
47.7900,0.09,0.12,-0.99,3.30,3.97,0.92
47.8060,0.09,0.12,-0.99,3.17,4.03,1.10
47.8220,0.08,0.12,-1.00,3.11,3.91,1.16
47.8370,0.08,0.12,-0.99,3.23,3.85,1.65
47.8530,0.08,0.12,-0.99,3.17,3.60,1.77
