Timestamp, AccX, AccY, AccZ, GyroX, GyroY, GyroZ
0.0060,0.06,0.10,-0.99,3.30,4.09,2.38
0.0210,0.06,0.11,-0.99,3.23,4.21,2.26
0.0360,0.06,0.10,-0.99,2.75,3.91,2.26
0.0510,0.06,0.11,-0.99,2.75,3.78,2.26
0.0660,0.06,0.10,-0.99,2.75,3.66,2.01
0.0810,0.06,0.10,-0.99,2.62,3.60,2.20
0.0960,0.06,0.10,-0.99,2.62,3.72,1.95
0.1110,0.06,0.10,-0.99,2.93,3.60,2.20
0.1260,0.06,0.10,-0.99,2.81,3.78,2.01
0.1440,0.06,0.10,-0.99,2.93,3.54,2.14
0.1590,0.06,0.10,-0.99,2.93,3.42,2.14
0.1740,0.06,0.10,-0.99,3.17,3.78,2.08
0.1890,0.06,0.10,-0.99,2.87,3.85,2.20
0.2040,0.06,0.10,-0.99,2.56,3.85,2.08
0.2190,0.06,0.10,-0.99,2.75,3.66,2.01
0.2350,0.06,0.10,-0.99,2.87,3.30,2.01
0.2500,0.06,0.10,-0.99,2.81,3.72,2.32
0.2650,0.06,0.10,-0.99,2.81,3.78,2.01
0.2800,0.06,0.10,-0.99,2.75,3.78,2.14
0.2950,0.06,0.10,-0.99,2.87,3.60,2.14
0.3100,0.06,0.10,-0.99,2.99,3.60,2.26
0.3250,0.06,0.10,-0.99,2.99,4.09,2.26
0.3400,0.06,0.10,-0.99,2.99,3.91,2.20
0.3550,0.06,0.10,-0.99,2.99,4.03,2.08
0.3700,0.06,0.10,-0.99,2.99,3.72,2.01
0.3860,0.06,0.10,-0.99,2.99,3.48,2.01
0.4010,0.06,0.10,-0.99,2.99,3.72,2.26
0.4170,0.06,0.10,-0.99,2.99,3.85,2.08
0.4320,0.06,0.10,-0.99,2.87,3.54,2.01
0.4480,0.06,0.10,-0.99,3.05,3.66,2.20
0.4640,0.06,0.10,-0.99,3.11,3.60,2.14
0.4780,0.06,0.10,-0.99,2.87,3.66,2.14
0.4950,0.06,0.10,-0.99,2.81,3.60,2.14
0.5120,0.06,0.10,-0.99,3.23,3.91,2.08
0.5280,0.06,0.10,-0.99,3.17,3.78,2.14
0.5430,0.06,0.10,-0.99,3.23,3.78,2.08
0.5580,0.06,0.10,-0.99,3.11,3.48,2.20
0.5730,0.06,0.10,-0.99,2.99,3.66,2.20
0.5880,0.06,0.10,-0.99,3.17,3.72,2.32
0.6030,0.06,0.10,-0.99,2.99,3.78,2.26
0.6190,0.06,0.10,-0.99,3.11,3.36,2.20
0.6350,0.06,0.10,-0.99,3.11,3.85,2.32
0.6510,0.06,0.10,-0.99,2.93,3.54,2.20
0.6670,0.06,0.10,-0.99,3.17,3.85,2.08
0.6840,0.06,0.10,-0.99,2.93,3.78,1.95
0.6990,0.06,0.10,-0.99,2.87,3.54,2.14
0.7140,0.06,0.10,-0.99,2.93,3.48,1.95
0.7300,0.06,0.10,-0.99,3.11,3.36,2.01
0.7460,0.06,0.10,-0.99,2.93,3.66,2.20
0.7620,0.06,0.10,-0.99,2.87,3.60,2.14
0.7770,0.06,0.10,-0.99,2.81,3.60,1.95
0.7920,0.06,0.10,-0.99,2.69,3.85,2.08
0.8060,0.06,0.10,-0.99,2.75,3.54,2.08
0.8220,0.06,0.10,-0.99,2.81,3.66,2.20
0.8370,0.06,0.10,-0.99,3.05,3.85,1.95
0.8530,0.06,0.10,-0.99,2.93,3.85,2.14
0.8690,0.06,0.10,-0.99,3.05,3.85,2.14
0.8850,0.06,0.10,-0.99,3.05,3.78,2.20
0.9010,0.06,0.10,-0.99,2.99,3.91,2.08
0.9180,0.06,0.10,-0.99,3.05,3.54,2.01
0.9330,0.06,0.10,-0.99,3.05,3.11,1.95
0.9490,0.06,0.10,-0.99,3.11,3.36,2.08
0.9630,0.06,0.10,-0.99,2.93,3.30,2.20
0.9790,0.06,0.10,-0.99,2.87,3.42,2.32
0.9940,0.06,0.10,-0.99,2.99,3.60,2.14
1.0100,0.06,0.10,-0.99,3.11,3.60,2.08
1.0250,0.06,0.10,-0.99,3.60,3.91,1.40
1.0400,0.06,0.10,-0.99,3.42,3.78,1.28
1.0550,0.06,0.10,-0.99,3.48,3.85,1.46
1.0700,0.06,0.10,-0.99,3.36,3.60,1.71
1.0850,0.06,0.10,-0.99,2.93,3.54,1.71
1.1000,0.06,0.10,-0.99,3.23,3.54,1.71
1.1150,0.06,0.10,-0.99,3.11,3.78,1.59
1.1300,0.06,0.11,-0.99,3.11,3.66,1.53
1.1450,0.06,0.10,-0.99,3.30,3.78,1.46
1.1610,0.06,0.10,-0.99,2.81,4.15,1.65
1.1760,0.06,0.10,-0.99,2.99,3.72,1.53
1.1910,0.06,0.10,-0.99,3.05,3.78,1.46
1.2060,0.06,0.10,-0.99,2.99,3.72,1.89
1.2220,0.06,0.10,-0.99,2.93,3.60,2.01
1.2370,0.06,0.10,-0.99,3.17,3.30,2.26
1.2520,0.06,0.10,-0.99,2.87,3.48,2.32
1.2680,0.06,0.11,-0.99,3.36,3.66,2.32
1.2820,0.06,0.10,-0.99,3.17,3.30,2.32
1.2970,0.06,0.10,-0.99,3.23,3.54,2.38
1.3130,0.06,0.10,-0.99,3.42,3.78,2.26
1.3290,0.06,0.11,-0.99,3.23,3.60,2.38
1.3450,0.06,0.10,-0.99,2.99,3.23,2.38
1.3610,0.06,0.10,-0.99,2.69,3.48,2.75
1.3780,0.06,0.10,-0.99,2.99,3.42,2.75
1.3930,0.06,0.10,-0.99,3.23,3.60,2.87
1.4090,0.06,0.10,-0.99,2.69,3.54,3.05
1.4250,0.07,0.10,-0.99,2.75,3.66,2.99
1.4400,0.06,0.10,-0.99,2.87,3.42,2.75
1.4550,0.06,0.10,-0.99,3.05,3.30,2.75
1.4710,0.06,0.10,-0.99,2.99,3.42,2.87
1.4870,0.06,0.10,-0.99,2.99,3.60,3.11
1.5010,0.06,0.10,-0.99,2.75,3.11,3.48
1.5160,0.06,0.10,-0.99,2.93,3.60,3.23
1.5310,0.06,0.10,-0.99,2.81,3.78,2.87
1.5460,0.07,0.10,-0.99,2.93,3.72,2.56
1.5610,0.06,0.10,-0.99,2.93,3.66,2.75
1.5760,0.06,0.10,-0.99,2.99,3.54,2.87
1.5920,0.06,0.10,-0.99,3.17,3.60,2.99
1.6070,0.06,0.10,-0.99,3.23,3.60,3.05
1.6220,0.06,0.10,-0.99,2.99,3.60,3.23
1.6370,0.06,0.10,-0.99,2.87,3.60,2.81
1.6530,0.06,0.10,-0.99,2.81,3.85,2.69
1.6690,0.06,0.10,-0.99,2.87,3.66,2.62
1.6850,0.06,0.10,-0.99,3.11,3.60,2.50
1.7020,0.06,0.10,-0.99,3.23,3.66,2.50
1.7170,0.06,0.10,-0.99,2.99,3.91,2.62
1.7320,0.06,0.10,-0.99,3.05,3.48,2.69
1.7470,0.06,0.10,-0.99,2.75,3.66,2.81
1.7610,0.06,0.10,-0.99,2.87,3.91,2.44
1.7770,0.06,0.10,-0.99,2.99,3.48,2.44
1.7930,0.06,0.10,-0.99,2.99,3.85,2.69
1.8080,0.06,0.10,-0.99,3.17,3.85,2.50
1.8240,0.06,0.10,-0.99,3.17,3.54,2.62
1.8390,0.06,0.10,-0.99,3.05,3.97,2.75
1.8540,0.06,0.10,-0.99,2.87,3.66,2.62
1.8690,0.06,0.10,-0.99,2.99,3.60,2.50
1.8840,0.06,0.10,-0.99,2.87,3.48,2.62
1.9000,0.06,0.10,-0.99,2.99,3.54,2.81
1.9160,0.06,0.10,-0.99,2.87,3.54,2.93
1.9310,0.06,0.10,-0.99,2.99,3.97,2.75
1.9460,0.06,0.10,-0.99,2.75,3.72,2.69
1.9610,0.06,0.10,-0.99,2.93,3.85,2.62
1.9770,0.06,0.10,-0.99,2.81,3.48,2.62
1.9920,0.06,0.10,-0.99,3.05,3.72,2.62
2.0080,0.06,0.10,-0.99,2.99,3.72,3.05
2.0220,0.06,0.10,-0.99,3.05,3.66,2.99
2.0370,0.06,0.10,-0.99,3.05,3.78,2.75
2.0530,0.06,0.10,-0.99,2.99,3.72,2.81
2.0670,0.06,0.10,-0.99,2.87,3.54,2.75
2.0830,0.06,0.10,-0.99,3.11,3.66,2.87
2.0990,0.06,0.11,-0.99,3.05,3.42,2.93
2.1150,0.06,0.11,-0.99,3.05,3.72,3.05
2.1300,0.06,0.10,-0.99,2.87,3.42,2.93
2.1460,0.06,0.10,-0.99,2.81,3.60,2.87
2.1610,0.06,0.10,-0.99,2.93,3.78,3.05
2.1770,0.06,0.10,-0.99,2.93,3.48,2.93
2.1910,0.06,0.10,-0.99,3.05,3.66,2.99
2.2080,0.06,0.10,-0.99,2.93,3.78,3.05
2.2220,0.06,0.10,-0.99,2.99,3.60,3.05
2.2370,0.06,0.10,-0.99,2.87,3.36,2.99
2.2530,0.06,0.10,-0.99,2.99,3.48,2.81
2.2670,0.06,0.10,-0.99,2.93,3.23,2.87
2.2830,0.06,0.10,-0.99,2.93,3.54,2.99
2.2990,0.06,0.10,-0.99,3.11,3.66,2.75
2.3150,0.06,0.10,-0.99,2.87,3.42,2.81
2.3300,0.06,0.10,-0.99,3.17,3.54,2.62
2.3460,0.06,0.10,-0.99,2.99,3.85,2.56
2.3600,0.06,0.10,-0.99,2.81,3.23,2.50
2.3750,0.06,0.10,-0.99,2.93,3.72,2.56
2.3910,0.06,0.10,-0.99,2.93,3.72,2.56
2.4060,0.06,0.10,-0.99,3.05,3.60,2.62
2.4220,0.06,0.10,-0.99,2.81,3.66,2.56
2.4370,0.06,0.10,-0.99,3.05,3.30,2.81
2.4530,0.06,0.11,-0.99,2.99,3.60,2.62
2.4690,0.06,0.10,-0.99,3.17,3.85,2.62
2.4840,0.06,0.10,-0.99,3.05,3.36,2.44
2.5000,0.06,0.10,-0.99,2.99,3.60,2.56
2.5150,0.06,0.10,-0.99,2.87,3.78,2.50
2.5300,0.06,0.11,-0.99,2.93,3.72,2.69
2.5450,0.06,0.10,-0.99,3.17,3.66,2.69
2.5600,0.06,0.10,-0.99,2.93,3.48,2.56
2.5750,0.06,0.10,-0.99,2.87,3.78,2.62
2.5900,0.06,0.10,-0.99,2.99,3.54,2.44
2.6070,0.06,0.11,-0.99,2.93,3.66,2.44
2.6210,0.06,0.10,-0.99,3.11,3.91,2.56
2.6370,0.06,0.10,-0.99,2.93,3.60,2.81
2.6520,0.06,0.10,-0.99,2.87,3.54,2.75
2.6680,0.06,0.11,-0.99,2.99,3.48,2.75
2.6840,0.06,0.10,-0.99,2.93,3.91,2.62
2.7000,0.06,0.10,-0.99,3.05,4.03,2.50
2.7160,0.06,0.10,-0.99,2.93,3.72,2.62
2.7320,0.06,0.10,-0.99,2.75,3.85,2.69
2.7470,0.06,0.10,-0.99,2.87,4.03,2.62
2.7620,0.06,0.11,-0.99,3.11,3.36,2.62
2.7780,0.06,0.11,-0.99,3.17,3.78,2.81
2.7930,0.06,0.10,-0.99,2.99,3.97,2.44
2.8100,0.06,0.10,-0.99,2.99,3.97,2.75
2.8250,0.06,0.10,-0.99,3.23,3.60,2.62
2.8400,0.06,0.10,-0.99,3.11,3.85,2.99
2.8560,0.06,0.10,-0.99,3.05,3.78,2.69
2.8720,0.06,0.11,-0.99,2.81,3.97,2.69
2.8870,0.06,0.11,-0.99,2.87,4.03,2.81
2.9020,0.06,0.10,-0.99,3.05,3.78,2.56
2.9170,0.06,0.10,-0.99,2.81,3.85,3.11
2.9320,0.06,0.10,-0.99,2.87,3.85,3.11
2.9480,0.06,0.10,-0.99,3.11,3.78,3.05
2.9630,0.06,0.10,-0.99,2.99,4.03,2.87
2.9790,0.06,0.10,-0.99,3.11,4.09,2.75
2.9960,0.06,0.10,-0.99,3.11,3.72,2.81
3.0110,0.06,0.10,-0.99,2.99,3.66,2.93
3.0270,0.06,0.10,-0.99,3.11,3.97,2.93
3.0430,0.06,0.10,-0.99,3.05,3.60,2.81
3.0580,0.06,0.10,-0.99,3.11,3.66,2.56
3.0750,0.06,0.10,-0.99,2.99,3.72,2.69
3.0890,0.06,0.10,-0.99,2.99,3.42,2.81
3.1050,0.06,0.10,-0.99,3.17,3.60,2.50
3.1200,0.06,0.10,-0.99,2.93,3.72,2.69
3.1350,0.06,0.10,-0.99,2.93,3.48,2.69
3.1500,0.06,0.10,-0.99,3.11,3.85,2.81
3.1660,0.06,0.10,-0.99,2.87,3.72,2.62
3.1800,0.06,0.10,-0.99,3.05,3.48,2.75
3.1960,0.06,0.10,-0.99,2.99,3.48,2.81
3.2110,0.06,0.10,-0.99,3.05,3.85,2.93
3.2270,0.06,0.10,-0.99,2.99,3.48,2.99
3.2410,0.06,0.10,-0.99,2.99,3.48,2.81
3.2560,0.06,0.10,-0.99,3.05,3.48,2.99
3.2710,0.06,0.10,-0.99,2.75,3.72,2.75
3.2870,0.06,0.10,-0.99,3.05,3.60,2.69
3.3020,0.06,0.10,-0.99,2.87,3.85,2.99
3.3170,0.06,0.11,-0.99,2.93,3.91,2.99
3.3340,0.06,0.10,-0.99,2.99,3.66,3.05
3.3500,0.06,0.10,-0.99,3.17,3.54,2.99
3.3640,0.06,0.10,-0.99,2.69,3.72,3.05
3.3790,0.06,0.10,-0.99,2.93,3.54,3.17
3.3940,0.06,0.10,-0.99,3.05,3.36,3.30
3.4100,0.06,0.10,-0.99,3.05,3.42,3.30
3.4250,0.06,0.10,-0.99,3.11,3.85,3.36
3.4410,0.06,0.10,-0.99,3.05,3.48,3.42
3.4560,0.06,0.10,-0.99,2.69,3.66,3.17
3.4720,0.06,0.10,-0.99,2.99,3.66,3.17
3.4870,0.06,0.10,-0.99,2.99,3.54,3.05
3.5020,0.06,0.10,-0.99,2.93,3.97,3.05
3.5180,0.06,0.10,-0.99,2.93,3.91,2.87
3.5340,0.06,0.10,-0.99,2.99,3.85,2.87
3.5490,0.06,0.10,-0.99,2.93,3.78,2.93
3.5640,0.06,0.10,-0.99,2.75,3.91,2.99
3.5800,0.06,0.10,-0.99,3.05,3.66,3.11
3.5950,0.06,0.10,-0.99,3.05,3.85,3.23
3.6100,0.06,0.10,-0.99,2.99,3.23,3.17
3.6250,0.06,0.10,-0.99,2.87,3.60,3.17
3.6410,0.06,0.10,-0.99,2.75,3.72,3.17
3.6560,0.06,0.10,-0.99,2.93,3.72,2.99
3.6720,0.06,0.10,-0.99,2.93,3.72,3.05
3.6870,0.06,0.10,-0.99,2.99,3.72,3.17
3.6910,0.06,0.10,-0.99,2.99,3.66,3.23
3.7070,0.06,0.10,-0.99,2.81,3.85,2.87
3.7320,0.06,0.10,-0.99,2.99,3.48,2.99
3.7470,0.06,0.10,-0.99,2.81,3.72,2.69
3.7590,0.06,0.10,-0.99,2.81,3.91,2.69
3.7760,0.06,0.10,-0.99,2.99,3.78,2.75
3.7920,0.06,0.10,-0.99,2.93,3.78,2.99
3.8080,0.06,0.10,-0.99,2.81,3.72,3.05
3.8240,0.06,0.10,-0.99,2.87,3.66,3.23
3.8390,0.06,0.10,-0.99,2.93,3.91,3.05
3.8510,0.06,0.10,-0.99,3.05,3.72,2.99
3.8590,0.06,0.10,-0.99,2.99,3.54,2.75
3.8810,0.06,0.10,-0.99,2.87,3.60,2.75
3.8970,0.06,0.10,-0.99,3.05,3.60,2.81
3.9140,0.06,0.10,-0.99,3.17,3.60,2.93
3.9310,0.06,0.10,-0.99,3.05,3.54,2.99
3.9460,0.06,0.10,-0.99,2.87,3.66,2.93
3.9620,0.06,0.10,-0.99,2.99,3.66,2.87
3.9780,0.06,0.10,-0.99,2.99,3.42,2.93
3.9930,0.06,0.10,-0.99,2.87,4.03,2.75
4.0090,0.06,0.10,-0.99,2.99,3.66,2.81
4.0240,0.06,0.10,-0.99,2.93,3.97,2.87
4.0380,0.06,0.10,-0.99,3.11,3.48,2.81
4.0520,0.06,0.10,-0.99,2.81,4.09,2.69
4.0640,0.06,0.10,-0.99,3.11,3.72,2.56
4.0820,0.06,0.10,-0.99,2.99,3.85,2.56
4.0980,0.06,0.10,-0.99,2.99,3.85,2.50
4.1140,0.06,0.10,-0.99,2.99,3.60,2.69
4.1300,0.06,0.10,-0.99,3.23,3.66,2.69
4.1460,0.06,0.10,-0.99,2.81,3.72,2.81
4.1520,0.06,0.10,-0.99,3.05,3.54,2.75
4.1770,0.06,0.10,-0.99,3.05,3.85,2.56
4.1930,0.06,0.10,-0.99,3.11,3.85,2.50
4.1980,0.06,0.11,-0.99,3.17,3.60,2.81
4.2140,0.06,0.10,-0.99,3.11,3.78,2.81
4.2360,0.06,0.10,-0.99,3.05,4.09,2.69
4.2540,0.06,0.10,-0.99,3.11,3.66,2.50
4.2690,0.06,0.10,-0.99,3.05,3.66,2.62
4.2860,0.06,0.10,-0.99,2.93,3.23,2.50
4.3020,0.06,0.10,-0.99,3.11,3.23,2.56
4.3180,0.06,0.10,-0.99,3.05,3.72,2.56
4.3340,0.06,0.11,-0.99,3.17,3.78,2.62
4.3500,0.06,0.10,-0.99,3.11,3.78,2.69
4.3640,0.06,0.10,-0.99,2.99,3.72,2.81
4.3800,0.06,0.10,-0.99,2.99,3.78,2.75
4.3960,0.06,0.10,-0.99,2.93,3.54,2.75
4.4040,0.06,0.10,-0.99,2.93,3.60,2.62
4.4190,0.06,0.10,-0.99,2.93,3.48,2.44
4.4410,0.06,0.10,-0.99,3.05,3.72,2.44
4.4570,0.06,0.10,-0.99,3.17,3.54,2.50
4.4740,0.06,0.10,-0.99,2.99,4.15,2.50
4.4900,0.06,0.10,-0.99,2.81,3.72,2.44
4.5060,0.06,0.10,-0.99,2.99,3.54,2.44
4.5200,0.06,0.10,-0.99,2.93,3.85,2.50
4.5250,0.06,0.10,-0.99,2.99,3.85,2.56
4.5420,0.06,0.10,-0.99,2.87,3.91,2.62
4.5620,0.06,0.10,-0.99,3.11,3.72,2.44
4.5790,0.06,0.10,-0.99,2.87,3.72,2.56
4.5950,0.06,0.10,-0.99,2.87,3.97,2.38
4.6120,0.06,0.10,-0.99,3.23,3.85,2.50
4.6280,0.06,0.10,-0.99,2.93,3.97,2.62
4.6440,0.06,0.10,-0.99,3.11,3.91,2.50
4.6610,0.06,0.10,-0.99,2.87,3.42,2.56
4.6770,0.06,0.10,-0.99,3.11,3.91,2.62
4.6930,0.06,0.10,-0.99,2.99,3.97,2.62
4.6950,0.07,0.10,-0.99,3.11,4.09,2.69
4.7110,0.06,0.10,-0.99,2.93,3.78,2.56
4.7340,0.06,0.10,-0.99,3.05,3.85,2.56
4.7520,0.06,0.10,-0.99,2.87,4.27,2.69
4.7680,0.06,0.10,-0.99,2.93,3.91,2.62
4.7840,0.06,0.10,-0.99,2.99,3.60,2.69
4.7850,0.06,0.10,-0.99,2.81,3.72,2.62
4.8150,0.06,0.10,-0.99,3.11,3.60,2.75
4.8300,0.06,0.10,-0.99,2.99,3.54,2.87
4.8350,0.06,0.10,-0.99,3.17,3.91,3.17
4.8640,0.06,0.10,-0.99,2.87,3.72,2.87
4.8790,0.06,0.10,-0.99,2.87,3.97,2.87
4.8850,0.06,0.10,-0.99,2.99,3.85,2.62
4.9010,0.06,0.10,-0.99,3.11,3.91,2.81
4.9210,0.06,0.10,-0.99,3.05,3.72,2.87
4.9380,0.06,0.10,-0.99,2.93,3.78,2.93
4.9550,0.06,0.10,-0.99,2.99,3.97,2.99
4.9710,0.06,0.10,-0.99,2.99,3.54,2.81
4.9860,0.06,0.10,-0.99,2.87,3.78,2.81
4.9880,0.06,0.10,-0.99,2.99,3.54,2.75
5.0040,0.06,0.10,-0.99,3.05,3.78,2.56
5.0340,0.06,0.10,-0.99,2.99,3.60,2.75
5.0480,0.06,0.10,-0.99,2.99,3.72,2.56
5.0590,0.06,0.10,-0.99,2.99,3.60,2.56
5.0760,0.06,0.10,-0.99,3.11,3.42,2.56
5.0920,0.06,0.10,-0.99,3.30,3.54,2.62
5.1080,0.03,0.10,-0.99,2.93,3.85,2.69
5.1250,0.06,0.10,-0.99,2.87,3.91,2.87
5.1420,0.06,0.10,-0.99,3.05,3.85,2.93
5.1580,0.06,0.10,-0.99,2.93,3.91,2.81
5.1720,0.06,0.10,-0.99,2.99,3.78,2.87
5.1870,0.06,0.10,-0.99,3.11,3.60,2.56
5.1920,0.06,0.10,-0.99,2.99,3.91,2.81
5.2090,0.06,0.10,-0.99,3.17,3.54,2.81
5.2250,0.06,0.10,-0.99,3.17,3.54,2.99
5.2470,0.06,0.10,-0.99,2.81,3.66,2.69
5.2630,0.06,0.10,-0.99,3.17,3.66,2.62
5.2790,0.06,0.10,-0.99,2.87,3.97,2.69
5.2940,0.07,0.10,-0.99,3.05,3.72,2.75
5.3100,0.06,0.10,-0.99,3.05,3.60,2.81
5.3140,0.06,0.10,-0.99,2.99,3.78,2.99
5.3300,0.06,0.10,-0.99,2.87,3.66,3.05
5.3530,0.06,0.10,-0.99,3.05,3.97,2.81
5.3690,0.06,0.10,-0.99,3.17,3.48,2.56
5.3840,0.06,0.10,-0.99,3.05,3.60,2.56
5.4010,0.07,0.10,-0.99,3.23,4.09,2.75
5.4030,0.06,0.10,-0.99,3.23,3.66,3.05
5.4340,0.06,0.10,-0.99,3.23,3.91,2.81
5.4500,0.06,0.10,-0.99,3.17,3.66,2.62
5.4660,0.06,0.10,-0.99,2.93,4.09,2.38
5.4820,0.06,0.10,-0.99,3.30,3.85,2.44
5.4980,0.06,0.10,-0.99,3.11,3.78,2.50
5.5140,0.06,0.10,-0.99,2.99,3.66,2.56
5.5290,0.06,0.10,-0.99,3.05,3.66,2.69
5.5450,0.06,0.10,-0.99,3.05,3.72,2.56
5.5530,0.06,0.10,-0.99,3.11,3.72,2.62
5.5690,0.06,0.10,-0.99,2.99,3.97,2.69
5.5900,0.06,0.10,-0.99,2.93,3.97,2.69
5.6070,0.06,0.10,-0.99,2.75,3.72,2.69
5.6230,0.06,0.10,-0.99,3.17,3.72,2.69
5.6400,0.06,0.10,-0.99,2.93,3.91,2.69
5.6550,0.06,0.10,-0.99,2.93,3.91,2.87
5.6700,0.07,0.10,-0.99,3.11,3.66,2.81
5.6860,0.06,0.10,-0.99,2.99,3.85,2.81
5.6900,0.06,0.10,-0.99,3.05,3.72,2.56
5.7060,0.06,0.10,-0.99,3.11,3.85,2.69
5.7270,0.06,0.10,-0.99,3.23,3.30,2.50
5.7440,0.06,0.10,-0.99,3.05,3.36,2.81
5.7600,0.06,0.10,-0.99,3.05,3.60,2.81
5.7770,0.06,0.10,-0.99,2.93,3.60,2.81
5.7930,0.06,0.10,-0.99,3.11,3.42,2.81
5.8110,0.06,0.10,-0.99,2.99,3.66,2.87
5.8260,0.06,0.10,-0.99,2.93,3.66,2.87
5.8430,0.06,0.10,-0.99,3.05,3.66,2.69
5.8590,0.06,0.10,-0.99,2.87,3.48,2.62
5.8750,0.06,0.10,-0.99,3.05,3.60,2.56
5.8890,0.07,0.10,-0.99,2.99,3.72,2.56
5.9040,0.06,0.10,-0.99,3.05,3.48,2.87
5.9200,0.06,0.10,-0.99,2.99,3.78,2.99
5.9340,0.06,0.10,-0.99,2.93,3.72,2.81
5.9490,0.06,0.10,-0.99,2.99,3.91,2.69
5.9610,0.06,0.10,-0.99,3.05,3.78,2.69
5.9770,0.06,0.10,-0.99,2.99,4.03,2.81
5.9930,0.06,0.10,-0.99,2.87,3.78,2.62
6.0100,0.06,0.10,-0.99,3.30,3.66,2.81
6.0270,0.06,0.10,-0.99,2.93,3.54,2.50
6.0430,0.07,0.10,-0.99,2.81,3.72,2.81
6.0600,0.07,0.10,-0.99,3.05,3.91,2.81
6.0760,0.06,0.10,-0.99,3.05,4.27,2.81
6.0920,0.07,0.10,-0.99,3.05,3.66,2.75
6.1080,0.06,0.10,-0.99,2.93,4.09,2.69
6.1100,0.06,0.10,-0.99,2.99,3.85,2.62
6.1260,0.06,0.10,-0.99,3.17,3.72,2.81
6.1540,0.06,0.10,-0.99,2.99,4.21,2.44
6.1640,0.06,0.10,-0.99,2.99,4.09,2.62
6.1810,0.06,0.10,-0.99,2.93,3.78,2.62
6.1980,0.06,0.10,-0.99,2.99,3.66,2.56
6.2150,0.06,0.10,-0.99,3.05,3.85,2.69
6.2310,0.06,0.10,-0.99,2.99,3.91,2.56
6.2480,0.06,0.10,-0.99,3.23,3.60,2.50
6.2540,0.06,0.10,-0.99,3.05,3.30,2.20
6.2800,0.07,0.10,-0.99,2.75,3.85,2.50
6.2950,0.07,0.10,-0.99,2.93,3.72,2.81
6.3100,0.06,0.10,-0.99,3.05,3.78,2.75
6.3160,0.06,0.10,-0.99,2.93,3.85,2.56
6.3320,0.06,0.10,-0.99,2.93,3.48,2.69
6.3540,0.06,0.10,-0.99,3.05,3.78,2.56
6.3630,0.06,0.10,-0.99,2.81,3.60,2.56
6.3790,0.06,0.10,-0.99,2.99,3.85,2.62
6.3940,0.06,0.10,-0.99,2.93,3.78,2.38
6.4160,0.07,0.10,-0.99,2.93,3.85,2.75
6.4310,0.06,0.10,-0.99,3.11,3.85,2.75
6.4480,0.06,0.10,-0.99,3.05,3.66,2.87
6.4640,0.06,0.10,-0.99,3.05,3.72,2.81
6.4790,0.06,0.10,-0.99,2.93,3.72,2.62
6.4940,0.06,0.10,-0.99,2.87,3.97,2.75
6.5100,0.06,0.10,-0.99,2.87,3.60,2.50
6.5260,0.06,0.10,-0.99,2.87,3.36,2.75
6.5410,0.06,0.10,-0.99,2.93,3.72,2.62
6.5560,0.06,0.10,-0.99,2.87,3.66,2.93
6.5710,0.06,0.10,-0.99,2.87,3.78,2.81
6.5860,0.07,0.10,-0.99,2.87,3.60,2.87
6.5980,0.06,0.10,-0.99,2.93,3.72,2.75
6.6140,0.06,0.10,-0.99,2.99,3.85,2.87
6.6310,0.06,0.10,-0.99,3.17,3.54,2.62
6.6480,0.06,0.10,-0.99,2.99,3.91,2.56
6.6640,0.06,0.10,-0.99,2.93,3.66,2.69
6.6780,0.07,0.10,-0.99,2.99,3.72,2.75
6.6930,0.06,0.10,-0.99,2.87,3.60,2.81
6.7080,0.06,0.10,-0.99,3.05,3.60,2.75
6.7230,0.06,0.10,-0.99,2.93,3.54,2.75
6.7380,0.06,0.10,-0.99,2.99,3.42,2.87
6.7480,0.06,0.10,-0.99,2.87,3.72,2.75
6.7650,0.06,0.10,-0.99,2.99,3.85,2.50
6.7810,0.06,0.10,-0.99,2.87,3.66,2.44
6.7980,0.07,0.10,-0.99,2.87,3.54,2.44
6.7990,0.06,0.10,-0.99,3.05,3.78,2.87
6.8270,0.06,0.10,-0.99,2.99,3.60,2.75
6.8440,0.06,0.10,-0.99,2.93,3.48,2.75
6.8580,0.06,0.10,-0.99,3.11,3.54,2.69
6.8650,0.06,0.10,-0.99,2.87,3.72,2.69
6.8810,0.06,0.10,-0.99,2.99,3.54,2.69
6.9030,0.06,0.10,-0.99,2.81,4.03,2.62
6.9040,0.06,0.10,-0.99,2.93,3.66,2.56
6.9340,0.06,0.10,-0.99,2.87,3.78,2.93
6.9500,0.06,0.10,-0.99,2.99,3.66,2.93
6.9670,0.07,0.10,-0.99,3.11,3.60,2.99
6.9700,0.06,0.10,-0.99,2.93,3.78,2.93
6.9990,0.06,0.10,-0.99,2.99,3.72,2.62
7.0150,0.06,0.10,-0.99,2.69,3.78,2.44
7.0300,0.06,0.10,-0.99,2.93,3.66,2.50
7.0370,0.07,0.10,-0.99,3.11,3.72,2.69
7.0540,0.07,0.10,-0.99,3.05,3.54,2.81
7.0740,0.06,0.10,-0.99,3.05,3.66,2.87
7.0910,0.07,0.09,-0.99,2.93,3.78,2.69
7.1070,0.06,0.10,-0.99,2.99,3.60,2.75
7.1240,0.07,0.10,-0.99,2.93,3.66,2.50
7.1400,0.07,0.10,-0.99,2.93,3.97,2.75
7.1550,0.06,0.10,-0.99,3.17,3.85,3.05
7.1700,0.06,0.10,-0.99,3.11,3.60,2.81
7.1750,0.06,0.10,-0.99,3.11,3.48,2.87
7.1910,0.06,0.10,-0.99,2.99,3.72,2.75
7.2150,0.06,0.10,-0.99,2.93,3.54,2.75
7.2160,0.06,0.10,-0.99,3.05,3.72,2.87
7.2450,0.06,0.10,-0.99,3.05,3.97,2.75
7.2600,0.07,0.10,-0.99,3.05,3.91,2.81
7.2740,0.07,0.10,-0.99,3.05,3.91,2.81
7.2900,0.07,0.10,-0.99,2.93,3.72,2.81
7.3050,0.07,0.10,-0.99,2.99,3.54,2.62
7.3200,0.06,0.10,-0.99,2.87,3.66,2.56
7.3310,0.06,0.10,-0.99,3.11,3.66,2.75
7.3480,0.06,0.10,-0.99,2.69,3.97,2.56
7.3640,0.06,0.10,-0.99,2.81,3.66,2.69
7.3810,0.06,0.10,-0.99,2.99,3.48,2.56
7.3970,0.07,0.10,-0.99,2.99,3.60,2.62
7.4140,0.07,0.10,-0.99,2.87,3.78,2.62
7.4300,0.06,0.10,-0.99,2.93,3.60,2.44
7.4460,0.06,0.10,-0.99,2.99,3.78,2.50
7.4610,0.07,0.10,-0.99,3.05,3.72,2.50
7.4650,0.07,0.10,-0.99,2.99,3.85,2.56
7.4810,0.06,0.10,-0.99,2.87,3.85,2.69
7.5050,0.06,0.10,-0.99,2.75,3.72,2.87
7.5210,0.06,0.10,-0.99,2.81,3.66,2.81
7.5370,0.06,0.10,-0.99,3.05,3.78,2.93
7.5530,0.06,0.10,-0.99,2.99,3.66,2.87
7.5690,0.06,0.10,-0.99,2.75,3.48,2.75
7.5850,0.07,0.10,-0.99,2.75,3.72,2.81
7.6010,0.06,0.10,-0.99,3.05,3.60,2.75
7.6170,0.06,0.10,-0.99,2.93,3.91,2.81
7.6330,0.06,0.10,-0.99,2.75,3.91,2.56
7.6480,0.06,0.10,-0.99,2.81,4.09,2.56
7.6640,0.06,0.10,-0.99,2.62,3.78,2.56
7.6710,0.07,0.10,-0.99,2.81,3.85,2.26
7.6880,0.07,0.10,-0.99,2.75,3.72,2.44
7.7030,0.07,0.10,-0.99,3.05,3.97,2.38
7.7250,0.06,0.10,-0.99,3.17,3.78,2.56
7.7400,0.06,0.10,-0.99,2.99,3.78,2.56
7.7550,0.06,0.10,-0.99,2.93,3.72,2.56
7.7700,0.06,0.10,-0.99,2.81,3.85,2.56
7.7860,0.06,0.10,-0.99,2.93,3.97,2.62
7.8020,0.06,0.10,-0.99,3.11,3.42,2.81
7.8170,0.06,0.10,-0.99,3.11,3.48,2.93
7.8260,0.07,0.10,-0.99,2.87,3.60,2.75
7.8420,0.06,0.10,-0.99,3.11,3.78,2.69
7.8630,0.07,0.10,-0.99,3.05,3.54,2.69
7.8630,0.07,0.10,-0.99,2.93,3.78,2.56
7.8930,0.06,0.10,-0.99,2.87,3.85,2.87
7.9080,0.07,0.10,-0.99,2.99,3.85,2.56
7.9240,0.07,0.10,-0.99,2.99,3.85,2.56
7.9300,0.07,0.10,-0.99,3.11,3.91,2.50
7.9470,0.06,0.10,-0.99,3.17,3.91,2.56
7.9630,0.06,0.10,-0.99,3.23,3.66,2.62
7.9800,0.06,0.10,-0.99,2.93,3.54,2.56
7.9970,0.06,0.10,-0.99,2.99,3.66,2.62
8.0130,0.06,0.10,-0.99,2.69,4.09,2.62
8.0290,0.06,0.10,-0.99,3.23,3.48,2.62
8.0470,0.06,0.10,-0.99,2.81,3.66,2.69
8.0630,0.06,0.10,-0.99,3.05,3.97,2.69
8.0660,0.06,0.10,-0.99,2.99,4.03,2.38
8.0820,0.07,0.10,-0.99,3.30,3.78,2.56
8.1090,0.06,0.10,-0.99,2.81,3.72,2.69
8.1210,0.07,0.10,-0.99,2.87,3.66,2.69
8.1370,0.06,0.10,-0.99,3.11,3.54,2.81
8.1540,0.06,0.09,-0.99,3.11,3.85,2.69
8.1700,0.07,0.10,-0.99,2.99,3.91,2.56
8.1860,0.06,0.10,-0.99,2.87,3.97,2.62
8.2020,0.06,0.10,-0.99,2.87,3.66,2.62
8.2180,0.06,0.10,-0.99,2.87,4.09,2.62
8.2330,0.06,0.10,-0.99,3.05,3.54,2.69
8.2490,0.06,0.10,-0.99,3.05,3.97,2.81
8.2650,0.06,0.10,-0.99,2.93,3.97,2.69
8.2810,0.06,0.10,-0.99,2.93,4.03,2.69
8.2960,0.07,0.10,-0.99,3.05,3.66,2.69
8.3120,0.07,0.10,-0.99,3.36,3.72,2.93
8.3270,0.06,0.10,-0.99,3.30,3.48,2.99
8.3420,0.07,0.09,-0.99,3.11,3.60,2.75
8.3550,0.06,0.10,-0.99,3.11,3.66,2.56
8.3700,0.06,0.10,-0.99,2.93,3.66,2.44
8.3870,0.06,0.10,-0.99,2.87,3.85,2.75
8.4030,0.07,0.10,-0.99,2.99,3.78,2.75
8.4180,0.06,0.10,-0.99,3.11,3.91,2.81
8.4330,0.06,0.09,-0.99,3.17,3.72,2.69
8.4510,0.07,0.10,-0.99,2.99,3.91,2.56
8.4670,0.07,0.10,-0.99,2.87,3.85,2.38
8.4830,0.07,0.10,-0.99,2.99,3.78,2.50
8.4990,0.06,0.10,-0.99,2.99,3.85,2.56
8.5150,0.06,0.10,-0.99,3.11,3.54,2.50
8.5310,0.06,0.10,-0.99,2.75,3.91,2.38
8.5470,0.06,0.10,-0.99,2.93,3.78,2.62
8.5560,0.07,0.10,-0.99,3.23,3.91,2.75
8.5770,0.06,0.10,-0.99,2.93,3.91,2.32
8.5920,0.06,0.10,-0.99,3.05,3.78,2.44
8.6030,0.07,0.10,-0.99,3.11,3.66,2.50
8.6200,0.06,0.10,-0.99,2.99,3.72,2.56
8.6380,0.06,0.10,-0.99,2.75,3.54,2.50
8.6540,0.07,0.10,-0.99,2.93,3.97,2.69
8.6690,0.07,0.10,-0.99,2.87,3.66,2.62
8.6850,0.06,0.10,-0.99,2.81,3.78,2.56
8.7010,0.06,0.10,-0.99,2.93,3.85,2.56
8.7160,0.07,0.10,-0.99,3.05,3.97,2.44
8.7330,0.06,0.10,-0.99,3.05,3.66,2.62
8.7490,0.06,0.10,-0.99,3.05,3.66,2.75
8.7650,0.06,0.09,-0.99,3.05,3.48,2.62
8.7810,0.07,0.10,-0.99,2.93,3.72,2.56
8.7970,0.07,0.10,-0.99,2.87,3.85,2.56
8.8130,0.07,0.10,-0.99,2.99,3.66,2.50
8.8290,0.06,0.10,-0.99,2.99,3.78,2.69
8.8440,0.06,0.10,-0.99,2.93,3.72,2.62
8.8590,0.07,0.10,-0.99,3.11,3.91,2.69
8.8700,0.06,0.10,-0.99,3.17,3.66,2.62
8.8870,0.06,0.09,-0.99,2.99,3.60,2.62
8.9040,0.06,0.10,-0.99,2.93,3.91,2.50
8.9200,0.06,0.10,-0.99,2.99,4.15,2.44
8.9210,0.06,0.10,-0.99,3.05,3.78,2.56
8.9380,0.07,0.10,-0.99,2.99,3.54,2.69
8.9650,0.07,0.10,-0.99,2.99,3.72,2.50
8.9800,0.07,0.10,-0.99,2.81,3.66,2.50
8.9930,0.07,0.10,-0.99,2.81,3.60,2.44
9.0090,0.06,0.10,-0.99,2.93,3.91,2.44
9.0250,0.06,0.09,-0.99,2.93,3.66,2.62
9.0420,0.06,0.10,-0.99,2.99,3.60,2.56
9.0580,0.06,0.10,-0.99,2.99,3.48,2.38
9.0750,0.06,0.10,-0.99,3.17,3.60,2.81
9.0910,0.07,0.10,-0.99,3.11,3.78,2.75
9.1080,0.07,0.10,-0.99,2.87,3.54,2.56
9.1240,0.06,0.10,-0.99,2.87,3.72,2.44
9.1400,0.06,0.10,-0.99,2.93,3.78,2.62
9.1550,0.06,0.10,-0.99,2.87,3.36,2.56
9.1700,0.06,0.10,-0.99,2.99,3.42,2.56
9.1760,0.06,0.10,-0.99,2.93,3.72,2.50
9.1910,0.07,0.10,-0.99,2.93,3.60,2.69
9.2140,0.06,0.10,-0.99,2.99,3.66,2.93
9.2310,0.06,0.10,-0.99,2.87,3.54,2.50
9.2470,0.06,0.10,-0.99,2.93,3.85,2.26
9.2630,0.07,0.10,-0.99,2.81,3.78,2.32
9.2800,0.06,0.10,-0.99,2.93,3.78,2.75
9.2960,0.06,0.10,-0.99,3.23,3.36,2.50
9.2980,0.06,0.10,-0.99,3.05,3.85,2.56
9.3140,0.07,0.10,-0.99,2.87,3.97,2.38
9.3420,0.06,0.10,-0.99,2.81,3.36,2.50
9.3570,0.07,0.10,-0.99,2.69,3.91,2.50
9.3700,0.07,0.10,-0.99,3.11,3.97,2.62
9.3860,0.06,0.10,-0.99,2.99,3.97,2.56
9.4020,0.06,0.10,-0.99,2.87,3.48,2.50
9.4180,0.07,0.10,-0.99,3.05,3.60,2.44
9.4330,0.06,0.10,-0.99,2.93,3.78,2.44
9.4500,0.06,0.10,-0.99,3.05,3.66,2.38
9.4570,0.07,0.10,-0.99,3.17,3.60,2.32
9.4820,0.07,0.10,-0.99,3.11,4.09,2.69
9.4980,0.06,0.10,-0.99,2.93,3.91,2.44
9.5130,0.06,0.10,-0.99,2.93,3.78,2.32
9.5290,0.06,0.10,-0.99,2.99,3.91,2.44
9.5450,0.06,0.10,-0.99,2.99,3.72,2.56
9.5570,0.07,0.10,-0.99,2.87,3.85,2.56
9.5700,0.07,0.10,-0.99,2.99,3.91,2.56
9.5910,0.06,0.10,-0.99,2.93,3.78,2.69
9.6070,0.07,0.10,-0.99,2.87,3.60,2.44
9.6220,0.07,0.10,-0.99,2.99,3.66,2.32
9.6370,0.07,0.10,-0.99,2.99,3.97,2.26
9.6530,0.07,0.11,-0.99,3.17,3.78,2.32
9.6690,0.06,0.10,-0.99,3.17,4.03,2.38
9.6850,0.06,0.09,-0.99,3.11,3.66,2.38
9.7000,0.06,0.10,-0.99,2.99,3.78,2.32
9.7150,0.06,0.10,-0.99,2.81,3.54,2.26
9.7260,0.07,0.11,-0.99,2.87,3.60,2.50
9.7420,0.06,0.10,-0.99,3.05,3.78,2.08
9.7590,0.06,0.10,-0.99,2.93,4.03,2.20
9.7750,0.07,0.10,-0.99,3.05,3.66,2.20
9.7920,0.07,0.10,-0.99,3.17,3.97,2.20
9.8080,0.06,0.10,-0.99,2.93,3.85,2.14
9.8240,0.06,0.10,-0.99,2.99,3.66,2.26
9.8390,0.06,0.10,-0.99,2.81,3.78,2.01
9.8540,0.06,0.10,-0.99,3.05,3.48,1.89
9.8590,0.06,0.10,-0.99,2.99,3.54,2.08
9.8750,0.07,0.10,-0.99,2.62,3.72,2.26
9.8940,0.07,0.10,-0.99,3.11,3.97,2.20
9.9100,0.07,0.09,-0.99,3.11,3.72,2.32
9.9270,0.07,0.10,-0.99,2.87,3.97,2.56
9.9450,0.07,0.10,-0.99,2.93,3.72,2.32
9.9600,0.07,0.10,-0.99,2.87,3.72,2.32
9.9760,0.06,0.09,-0.99,3.23,3.54,2.26
9.9910,0.06,0.10,-0.99,2.81,3.60,2.38
10.0060,0.07,0.09,-0.99,3.05,3.60,2.50
10.0210,0.07,0.09,-0.99,2.87,3.85,2.38
10.0330,0.07,0.09,-0.99,2.87,3.85,2.20
10.0490,0.07,0.10,-0.99,2.87,3.85,2.38
10.0650,0.06,0.10,-0.99,3.11,4.09,2.20
10.0830,0.06,0.10,-0.99,3.05,3.85,2.38
10.0990,0.06,0.10,-0.99,3.05,3.91,2.44
10.1150,0.06,0.10,-0.99,2.87,3.91,2.56
10.1320,0.07,0.09,-0.99,2.69,3.66,2.38
10.1480,0.06,0.10,-0.99,2.87,3.60,2.14
10.1640,0.06,0.10,-0.99,2.81,3.54,2.32
10.1790,0.07,0.11,-0.99,3.36,3.72,2.50
10.1820,0.06,0.10,-0.99,3.30,4.03,2.14
10.1980,0.07,0.09,-0.99,3.23,3.91,2.26
10.2260,0.07,0.10,-0.99,3.05,4.09,2.26
10.2370,0.06,0.09,-0.99,2.81,3.72,2.26
10.2540,0.06,0.10,-0.99,2.87,3.60,2.32
10.2710,0.07,0.10,-0.99,3.30,4.15,2.01
10.2860,0.07,0.09,-0.99,3.05,3.66,2.26
10.3020,0.07,0.10,-0.99,2.81,4.03,2.56
10.3180,0.07,0.10,-0.99,2.87,3.48,2.26
10.3200,0.06,0.10,-0.99,2.81,3.66,2.32
10.3360,0.06,0.10,-0.99,2.93,3.42,2.26
10.3600,0.07,0.11,-0.99,3.05,3.78,2.32
10.3760,0.06,0.09,-0.99,3.05,3.66,2.01
10.3920,0.07,0.10,-0.99,3.11,3.78,2.44
10.4090,0.06,0.10,-0.99,2.87,3.60,2.26
10.4260,0.06,0.10,-0.99,2.87,3.72,2.32
10.4420,0.06,0.10,-0.99,2.87,3.66,2.26
10.4580,0.06,0.10,-0.99,3.05,3.91,2.01
10.4740,0.06,0.10,-0.99,2.99,3.97,2.32
10.4900,0.07,0.10,-0.99,2.99,3.66,2.38
10.5050,0.07,0.10,-0.99,3.11,3.72,2.26
10.5200,0.07,0.10,-0.99,2.93,3.54,2.14
10.5360,0.07,0.10,-0.99,2.81,3.85,2.26
10.5520,0.07,0.10,-0.99,2.75,3.60,2.20
10.5670,0.07,0.10,-0.99,3.05,3.60,2.14
10.5820,0.07,0.10,-0.99,2.99,3.78,2.26
10.5920,0.07,0.10,-0.99,2.87,4.15,2.44
10.6090,0.06,0.10,-0.99,2.93,3.72,2.14
10.6250,0.07,0.09,-0.99,2.81,3.72,2.08
10.6410,0.07,0.09,-0.99,3.05,3.66,2.08
10.6580,0.07,0.09,-0.99,2.99,3.60,2.20
10.6730,0.06,0.10,-0.99,2.99,3.78,2.01
10.6880,0.07,0.09,-0.99,3.36,3.97,1.40
10.7030,0.06,0.10,-0.99,3.17,3.78,2.26
10.7140,0.07,0.10,-0.98,2.81,4.15,2.20
10.7300,0.07,0.09,-0.99,2.87,3.97,1.89
10.7470,0.07,0.10,-0.99,2.81,3.72,2.08
10.7640,0.06,0.10,-0.99,3.23,4.03,2.20
10.7800,0.06,0.10,-0.99,3.23,4.03,1.95
10.7960,0.07,0.10,-0.99,3.05,3.85,2.08
10.8120,0.06,0.10,-0.99,3.23,3.97,1.95
10.8270,0.07,0.09,-0.99,3.05,3.91,2.14
10.8430,0.07,0.10,-0.99,2.93,3.66,2.01
10.8470,0.07,0.10,-0.99,3.23,3.91,2.20
10.8730,0.06,0.10,-0.99,3.05,3.97,1.83
10.8810,0.07,0.09,-0.99,3.23,3.85,2.01
10.9030,0.07,0.10,-0.99,2.93,4.27,2.38
10.9140,0.06,0.10,-0.99,2.93,3.91,2.26
10.9300,0.07,0.09,-0.99,3.17,4.27,1.83
10.9470,0.07,0.09,-0.99,2.69,3.78,2.26
10.9630,0.07,0.10,-0.99,2.87,3.91,2.26
10.9790,0.06,0.10,-0.99,2.81,3.85,2.20
10.9950,0.07,0.09,-0.99,3.05,3.85,1.89
10.9970,0.07,0.10,-0.99,2.99,3.66,2.01
11.0130,0.07,0.10,-0.99,2.93,3.48,2.20
11.0340,0.07,0.09,-0.99,2.81,3.66,2.14
11.0520,0.07,0.09,-0.99,2.81,3.85,2.14
11.0680,0.07,0.10,-0.99,2.75,3.78,2.20
11.0840,0.06,0.10,-0.99,2.99,3.91,2.26
11.1020,0.06,0.10,-0.99,3.05,3.91,2.08
11.1170,0.07,0.09,-0.99,3.11,4.27,1.83
11.1330,0.06,0.10,-0.99,2.99,3.60,2.08
11.1500,0.07,0.10,-0.99,2.99,3.66,2.14
11.1660,0.07,0.09,-0.99,2.93,3.78,2.14
11.1820,0.07,0.10,-0.99,2.93,3.60,2.20
11.1850,0.06,0.10,-0.99,2.75,3.78,2.32
11.2010,0.06,0.10,-0.99,2.93,3.66,2.26
11.2230,0.06,0.10,-0.99,3.05,3.78,2.01
11.2390,0.07,0.09,-0.99,2.99,3.91,1.89
11.2570,0.07,0.10,-0.99,2.81,3.66,2.01
11.2730,0.06,0.10,-0.99,2.93,3.60,2.26
11.2900,0.06,0.10,-0.99,3.11,3.48,1.89
11.3050,0.07,0.09,-0.99,2.93,3.91,1.89
11.3200,0.07,0.10,-0.99,2.87,3.85,2.14
11.3350,0.07,0.10,-0.99,3.05,3.66,2.20
11.3390,0.07,0.09,-0.99,3.17,3.66,2.08
11.3590,0.07,0.10,-0.99,2.93,3.66,2.14
11.3820,0.06,0.10,-0.99,2.87,3.97,2.14
11.3930,0.07,0.10,-0.99,2.81,3.72,2.14
11.4090,0.07,0.09,-0.99,2.81,3.72,2.08
11.4270,0.07,0.09,-0.99,2.99,3.85,2.14
11.4430,0.07,0.10,-0.99,2.99,3.97,2.01
11.4600,0.07,0.09,-0.99,2.99,3.48,1.89
11.4750,0.07,0.10,-0.99,2.87,3.78,2.01
11.4920,0.06,0.10,-0.99,2.93,4.09,2.26
11.5080,0.06,0.10,-0.99,2.99,3.78,1.95
11.5240,0.07,0.10,-0.99,2.87,3.66,1.83
11.5400,0.06,0.10,-0.99,2.93,3.72,2.14
11.5550,0.07,0.09,-0.99,2.93,3.54,1.95
11.5710,0.07,0.09,-0.99,2.93,3.72,2.14
11.5850,0.07,0.09,-0.99,2.99,3.66,2.20
11.6010,0.06,0.10,-0.99,2.81,3.72,2.38
11.6090,0.07,0.10,-0.99,3.23,3.91,2.08
11.6250,0.07,0.10,-0.99,2.99,3.91,2.50
11.6460,0.07,0.09,-0.99,2.93,3.85,2.38
11.6630,0.07,0.09,-0.99,2.93,3.66,2.38
11.6800,0.07,0.09,-0.99,2.93,3.60,2.38
11.6950,0.07,0.10,-0.99,2.93,3.60,2.38
11.7110,0.07,0.10,-0.99,3.11,3.85,2.62
11.7260,0.07,0.10,-0.99,3.23,3.85,2.38
11.7420,0.07,0.09,-0.99,2.87,3.78,2.50
11.7470,0.07,0.09,-0.99,2.87,3.91,2.26
11.7630,0.07,0.09,-0.99,2.81,3.91,2.32
11.7870,0.07,0.10,-0.99,2.87,3.85,2.50
11.8020,0.06,0.10,-0.99,3.05,4.15,2.38
11.8040,0.07,0.10,-0.99,3.17,3.60,2.20
11.8200,0.07,0.09,-0.99,2.93,3.72,2.20
11.8470,0.07,0.09,-0.99,2.81,3.66,2.32
11.8600,0.07,0.10,-0.99,2.81,4.03,2.08
11.8740,0.06,0.10,-0.99,2.87,3.60,2.01
11.8900,0.07,0.09,-0.99,3.42,3.85,1.65
11.9080,0.07,0.10,-0.99,3.30,3.97,2.20
11.9230,0.07,0.09,-0.99,2.93,3.91,2.14
11.9400,0.07,0.10,-0.99,2.99,3.91,2.01
11.9560,0.07,0.09,-0.99,2.99,3.78,2.08
11.9720,0.07,0.09,-0.99,2.93,3.72,2.14
11.9870,0.07,0.09,-0.99,2.81,3.97,2.20
11.9900,0.07,0.09,-0.99,2.93,4.03,2.32
12.0060,0.07,0.10,-0.99,2.81,3.54,2.20
12.0290,0.06,0.10,-0.99,2.93,4.03,2.44
12.0460,0.06,0.10,-0.99,2.93,3.54,2.26
12.0630,0.07,0.09,-0.99,2.87,3.72,2.26
12.0790,0.07,0.09,-0.99,2.87,3.91,2.32
12.0960,0.07,0.10,-0.99,3.11,3.72,2.20
12.0970,0.07,0.10,-0.99,2.93,3.85,2.38
12.1120,0.07,0.10,-0.99,2.75,3.72,2.32
12.1440,0.07,0.10,-0.99,2.75,3.72,2.62
12.1460,0.07,0.10,-0.99,2.75,3.54,2.81
12.1740,0.06,0.10,-0.99,3.30,3.78,2.44
12.1810,0.07,0.09,-0.99,3.05,3.72,2.08
12.1990,0.07,0.09,-0.99,2.99,3.85,2.50
12.2150,0.07,0.10,-0.99,2.87,3.97,2.50
12.2310,0.07,0.10,-0.99,2.99,3.91,2.44
12.2480,0.07,0.10,-0.99,2.87,4.09,2.44
12.2640,0.06,0.10,-0.99,2.81,3.91,2.62
12.2810,0.07,0.10,-0.99,3.11,3.85,2.56
12.2970,0.07,0.09,-0.99,2.99,3.85,2.44
12.2990,0.07,0.09,-0.99,2.87,3.66,2.38
12.3290,0.07,0.10,-0.99,3.05,3.97,2.56
12.3460,0.07,0.10,-0.99,2.99,3.60,2.69
12.3610,0.07,0.10,-0.99,2.99,3.78,2.44
12.3650,0.07,0.10,-0.99,3.05,3.72,2.50
12.3810,0.07,0.10,-0.99,2.81,3.78,2.44
12.4070,0.07,0.10,-0.99,2.87,3.72,2.56
12.4180,0.07,0.09,-0.99,2.99,3.78,2.50
12.4350,0.07,0.09,-0.99,3.17,3.91,2.26
12.4520,0.07,0.10,-0.99,3.17,3.85,2.32
12.4680,0.07,0.09,-0.99,2.87,3.60,2.44
12.4830,0.07,0.10,-0.99,2.93,3.78,2.44
12.4980,0.07,0.10,-0.99,2.87,3.60,2.50
12.5140,0.07,0.10,-0.99,2.99,3.91,2.56
12.5290,0.07,0.10,-0.99,3.30,3.78,2.32
12.5360,0.07,0.09,-0.99,2.87,3.78,2.56
12.5520,0.07,0.09,-0.99,2.99,3.60,2.62
12.5730,0.07,0.10,-0.99,2.87,3.42,2.44
12.5900,0.07,0.10,-0.99,3.05,3.85,2.32
12.6070,0.07,0.10,-0.99,2.99,3.54,2.38
12.6230,0.07,0.10,-0.99,3.23,3.66,2.44
12.6400,0.07,0.09,-0.99,2.99,3.97,2.50
12.6550,0.07,0.09,-0.99,2.99,3.85,2.50
12.6710,0.07,0.10,-0.99,2.99,3.72,2.44
12.6860,0.07,0.09,-0.99,2.99,3.66,2.26
12.6900,0.07,0.09,-0.99,3.05,3.78,2.38
12.7060,0.07,0.09,-0.99,3.11,3.72,2.32
12.7290,0.07,0.10,-0.99,2.99,3.85,2.44
12.7460,0.07,0.10,-0.99,3.05,3.85,2.62
12.7620,0.07,0.10,-0.99,2.87,3.85,2.81
12.7790,0.07,0.09,-0.99,3.11,4.03,2.62
12.7960,0.07,0.09,-0.99,3.05,3.78,2.44
12.7970,0.07,0.09,-0.99,2.81,3.78,2.20
12.8120,0.07,0.10,-0.99,2.99,4.03,2.56
12.8300,0.07,0.09,-0.99,2.99,3.60,2.69
12.8460,0.07,0.09,-0.99,2.93,3.60,2.44
12.8750,0.07,0.09,-0.99,2.93,3.72,2.32
12.8910,0.07,0.10,-0.99,3.05,3.78,2.38
12.9070,0.07,0.09,-0.99,2.99,3.72,2.44
12.9220,0.07,0.09,-0.99,3.05,3.85,2.50
12.9310,0.07,0.10,-0.99,3.23,3.85,2.50
12.9470,0.07,0.10,-0.99,3.17,3.54,2.44
12.9680,0.07,0.10,-0.99,3.05,3.78,2.44
12.9850,0.07,0.10,-0.99,3.11,3.60,2.44
13.0020,0.06,0.10,-0.99,3.17,3.66,2.26
13.0180,0.07,0.10,-0.99,2.99,3.91,2.81
13.0200,0.07,0.09,-0.99,2.93,3.66,2.69
13.0350,0.07,0.09,-0.99,3.23,3.97,2.56
13.0640,0.07,0.09,-0.99,2.93,3.78,2.20
13.0790,0.07,0.09,-0.99,2.93,3.72,2.44
13.0910,0.07,0.10,-0.99,2.87,3.97,2.26
13.1070,0.07,0.10,-0.99,2.81,3.91,2.32
13.1240,0.07,0.10,-0.99,3.05,4.03,2.56
13.1400,0.07,0.09,-0.99,3.05,3.91,2.81
13.1570,0.07,0.09,-0.99,2.99,3.91,2.56
13.1730,0.07,0.09,-0.99,2.81,3.85,2.44
13.1880,0.07,0.10,-0.99,2.87,4.09,2.50
13.2040,0.07,0.10,-0.99,2.99,3.97,2.50
13.2070,0.07,0.10,-0.99,3.11,3.91,2.50
13.2220,0.07,0.10,-0.99,2.93,3.85,2.56
13.2450,0.07,0.10,-0.99,3.05,3.66,2.75
13.2630,0.07,0.09,-0.99,3.17,3.54,2.99
13.2770,0.07,0.09,-0.99,3.05,3.91,2.50
13.2950,0.07,0.10,-0.99,2.99,3.48,2.32
13.3110,0.07,0.10,-0.99,2.99,3.66,2.44
13.3270,0.07,0.10,-0.99,2.93,3.85,2.62
13.3440,0.07,0.10,-0.99,3.05,3.66,2.62
13.3600,0.07,0.09,-0.99,2.87,3.85,2.44
13.3750,0.07,0.09,-0.99,2.99,3.66,2.32
13.3910,0.07,0.09,-0.99,2.81,3.66,2.44
13.4060,0.07,0.10,-0.99,2.99,3.54,2.26
13.4210,0.07,0.10,-0.99,2.99,3.91,2.44
13.4360,0.07,0.10,-0.99,2.99,3.66,2.62
13.4510,0.07,0.09,-0.99,3.05,3.85,2.56
13.4660,0.07,0.09,-0.99,3.11,3.66,2.38
13.4770,0.07,0.09,-0.99,3.05,3.78,2.32
13.4950,0.07,0.09,-0.99,2.99,3.91,2.44
13.5110,0.07,0.10,-0.99,2.99,3.72,2.38
13.5270,0.07,0.10,-0.99,2.87,4.03,2.62
13.5440,0.07,0.09,-0.99,2.99,3.85,2.62
13.5450,0.07,0.09,-0.99,2.87,3.85,2.69
13.5750,0.07,0.10,-0.99,3.11,3.78,2.32
13.5780,0.07,0.10,-0.99,3.11,3.91,2.44
13.5940,0.07,0.10,-0.99,2.87,3.85,2.44
13.6150,0.07,0.09,-0.99,2.87,4.33,2.56
13.6320,0.07,0.09,-0.99,2.75,3.91,2.56
13.6480,0.07,0.09,-0.99,2.93,3.66,2.50
13.6650,0.07,0.10,-0.99,2.99,3.78,2.38
13.6810,0.07,0.10,-0.99,2.87,3.48,2.26
13.6980,0.07,0.10,-0.99,2.93,3.66,2.50
13.7140,0.07,0.10,-0.99,3.11,4.09,2.50
13.7300,0.07,0.09,-0.99,2.81,3.97,2.26
13.7320,0.07,0.10,-0.99,2.75,3.85,2.26
13.7480,0.07,0.09,-0.99,2.81,3.91,2.32
13.7720,0.07,0.09,-0.99,2.99,3.97,2.38
13.7880,0.07,0.10,-0.99,3.05,3.91,2.26
13.8060,0.07,0.09,-0.99,2.99,3.85,2.26
13.8210,0.07,0.10,-0.99,2.99,3.72,2.38
13.8370,0.07,0.10,-0.99,2.99,3.91,2.75
13.8520,0.07,0.09,-0.99,2.99,3.85,2.75
13.8680,0.07,0.09,-0.99,3.05,3.72,2.50
13.8840,0.07,0.10,-0.99,2.87,3.97,2.56
13.8990,0.07,0.10,-0.99,2.87,3.78,2.62
13.9040,0.07,0.10,-0.99,2.87,3.91,2.75
13.9210,0.07,0.10,-0.99,2.69,3.54,2.56
13.9480,0.06,0.09,-0.99,2.99,3.60,2.50
13.9580,0.06,0.09,-0.99,2.87,3.42,2.50
13.9760,0.07,0.10,-0.99,2.87,3.54,2.44
13.9920,0.07,0.10,-0.99,2.81,3.72,2.50
14.0090,0.07,0.10,-0.99,2.69,3.72,2.62
14.0250,0.07,0.10,-0.99,2.75,3.72,2.62
14.0420,0.07,0.09,-0.99,2.81,3.60,2.44
14.0580,0.07,0.09,-0.99,3.05,3.97,2.44
14.0750,0.07,0.09,-0.99,2.99,3.78,2.56
14.0910,0.07,0.10,-0.99,2.99,4.15,2.56
14.1070,0.07,0.10,-0.99,2.99,3.85,2.75
14.1230,0.07,0.09,-0.99,2.99,3.66,2.81
14.1250,0.07,0.09,-0.99,2.81,3.78,2.50
14.1410,0.07,0.10,-0.99,2.81,3.72,2.56
14.1640,0.07,0.10,-0.99,2.75,3.78,2.38
14.1810,0.07,0.10,-0.99,2.87,3.85,2.62
14.1980,0.07,0.10,-0.99,2.93,3.78,2.75
14.2140,0.07,0.10,-0.99,2.99,3.66,2.87
14.2150,0.07,0.09,-0.99,2.99,3.66,2.75
14.2460,0.07,0.12,-0.99,2.81,3.66,2.44
14.2630,0.07,0.09,-0.99,2.87,3.78,2.38
14.2790,0.07,0.10,-0.99,2.99,3.85,2.50
14.2950,0.07,0.10,-0.99,2.87,4.03,2.62
14.3110,0.07,0.10,-0.99,2.75,3.85,2.50
14.3150,0.07,0.09,-0.99,2.87,3.60,2.50
14.3410,0.07,0.09,-0.99,2.81,3.78,2.44
14.3560,0.07,0.09,-0.99,2.99,3.66,2.50
14.3670,0.07,0.09,-0.99,2.81,3.66,2.62
14.3850,0.07,0.10,-0.99,2.69,3.91,2.32
14.4010,0.07,0.10,-0.99,2.93,3.78,2.44
14.4160,0.07,0.09,-0.99,3.11,3.60,2.56
14.4320,0.07,0.09,-0.99,2.81,3.66,2.44
14.4480,0.07,0.09,-0.99,2.99,3.91,2.50
14.4650,0.07,0.09,-0.99,2.93,3.78,2.38
14.4820,0.07,0.09,-0.99,2.99,3.78,2.44
14.4980,0.07,0.10,-0.99,3.11,3.48,2.26
14.5130,0.07,0.10,-0.99,2.93,3.78,2.20
14.5300,0.07,0.10,-0.99,2.81,3.72,2.38
14.5350,0.07,0.09,-0.99,2.93,3.78,2.26
14.5500,0.07,0.09,-0.99,3.11,3.54,2.26
14.5750,0.07,0.09,-0.99,3.17,3.66,2.32
14.5910,0.07,0.09,-0.99,3.17,3.85,2.26
14.6070,0.07,0.10,-0.99,2.99,3.91,2.20
14.6230,0.07,0.10,-0.99,3.11,3.97,2.26
14.6400,0.07,0.09,-0.99,3.05,3.78,2.56
14.6550,0.07,0.09,-0.99,2.87,3.72,2.56
14.6710,0.07,0.10,-0.99,2.93,3.72,2.75
14.6750,0.07,0.09,-0.99,2.99,3.78,2.75
14.6910,0.07,0.09,-0.99,2.99,3.78,2.62
14.7070,0.07,0.10,-0.99,2.99,3.85,2.44
14.7280,0.07,0.10,-0.99,2.99,3.78,2.56
14.7440,0.07,0.09,-0.99,2.93,3.97,2.69
14.7610,0.07,0.09,-0.99,2.99,3.60,2.69
14.7780,0.07,0.09,-0.99,3.05,4.03,2.81
14.7950,0.07,0.09,-0.99,3.05,3.85,2.56
14.8110,0.07,0.10,-0.99,2.87,3.97,2.38
14.8270,0.07,0.10,-0.99,2.99,3.72,2.56
14.8430,0.07,0.10,-0.99,2.87,3.91,2.69
14.8580,0.07,0.09,-0.99,2.99,3.78,2.50
14.8740,0.07,0.09,-0.99,2.87,3.91,2.69
14.8890,0.06,0.09,-0.99,2.99,3.66,2.93
14.8950,0.07,0.10,-0.99,3.05,3.78,2.62
14.9110,0.07,0.10,-0.99,2.99,3.85,2.62
14.9330,0.07,0.10,-0.99,2.99,3.72,2.56
14.9500,0.07,0.10,-0.99,2.93,3.78,2.62
14.9670,0.07,0.10,-0.99,2.99,3.66,2.56
14.9820,0.07,0.09,-0.99,2.99,3.91,2.87
14.9980,0.07,0.09,-0.99,2.87,3.97,2.56
15.0000,0.06,0.09,-0.99,2.93,3.72,2.50
15.0310,0.07,0.09,-0.99,3.05,3.66,2.50
15.0470,0.07,0.09,-0.99,2.93,4.03,2.56
15.0500,0.07,0.10,-0.99,2.87,3.97,2.44
15.0780,0.07,0.10,-0.99,2.87,3.60,2.44
15.0930,0.07,0.10,-0.99,2.87,3.97,2.62
15.1000,0.07,0.09,-0.99,2.99,4.03,2.62
15.1150,0.07,0.09,-0.99,2.93,3.72,2.56
15.1340,0.07,0.09,-0.99,3.05,3.97,2.44
15.1510,0.07,0.09,-0.99,2.99,3.97,2.50
15.1670,0.07,0.09,-0.99,2.93,3.97,2.44
15.1860,0.07,0.10,-0.99,2.99,3.60,2.50
15.2020,0.07,0.10,-0.99,3.05,3.91,2.56
15.2180,0.07,0.09,-0.99,2.99,3.91,2.56
15.2330,0.07,0.09,-0.99,3.05,3.91,2.44
15.2490,0.07,0.10,-0.99,3.05,3.66,2.56
15.2650,0.07,0.09,-0.99,3.05,3.85,2.56
15.2690,0.07,0.10,-0.99,2.93,4.03,2.69
15.2930,0.07,0.10,-0.99,2.93,3.60,2.56
15.3090,0.07,0.09,-0.99,2.93,3.85,2.75
15.3270,0.07,0.10,-0.99,2.99,3.97,2.56
15.3430,0.07,0.09,-0.99,2.81,3.54,2.75
15.3590,0.07,0.09,-0.99,3.05,4.09,2.69
15.3750,0.07,0.10,-0.99,3.05,3.72,2.75
15.3920,0.07,0.10,-0.99,2.93,3.91,2.81
15.4080,0.07,0.10,-0.99,2.99,3.66,2.75
15.4230,0.07,0.10,-0.99,2.93,3.78,2.62
15.4400,0.07,0.10,-0.99,3.05,3.60,2.62
15.4550,0.07,0.09,-0.99,2.75,4.03,2.69
15.4700,0.07,0.09,-0.99,2.99,3.85,2.44
15.4850,0.07,0.10,-0.99,3.05,3.91,2.38
15.5000,0.07,0.09,-0.99,2.93,3.91,2.56
15.5150,0.07,0.10,-0.99,3.05,3.66,2.50
15.5260,0.07,0.10,-0.99,3.05,3.78,2.38
15.5420,0.07,0.09,-0.99,3.17,3.85,2.38
15.5580,0.07,0.09,-0.99,3.05,3.72,2.44
15.5760,0.07,0.10,-0.99,3.11,3.66,2.32
15.5920,0.07,0.10,-0.99,3.05,3.91,2.26
15.6080,0.07,0.10,-0.99,2.99,4.09,2.44
15.6250,0.06,0.10,-0.99,3.05,3.78,2.38
15.6410,0.06,0.10,-0.99,2.87,3.85,2.50
15.6570,0.07,0.10,-0.99,2.93,3.85,2.50
15.6730,0.07,0.09,-0.99,2.99,3.54,2.62
15.6890,0.07,0.09,-0.99,2.93,3.54,2.50
15.7040,0.07,0.10,-0.99,2.93,3.72,2.44
15.7190,0.07,0.09,-0.99,2.75,3.66,2.50
15.7340,0.07,0.10,-0.99,2.81,3.60,2.50
15.7420,0.07,0.10,-0.99,2.93,3.60,2.50
15.7580,0.07,0.10,-0.99,3.05,3.97,2.62
15.7790,0.07,0.10,-0.99,2.99,3.36,2.62
15.7950,0.07,0.09,-0.99,3.05,3.78,2.56
15.8110,0.06,0.09,-0.99,2.93,3.97,2.62
15.8270,0.07,0.09,-0.99,2.93,3.78,2.56
15.8420,0.07,0.10,-0.99,3.05,3.54,2.44
15.8570,0.07,0.10,-0.99,2.87,3.66,2.75
15.8660,0.07,0.10,-0.99,2.93,3.72,2.69
15.8780,0.07,0.10,-0.99,2.75,3.91,2.62
15.9010,0.07,0.10,-0.99,2.87,3.66,2.44
15.9180,0.07,0.09,-0.99,2.93,3.66,2.38
15.9340,0.07,0.09,-0.99,3.05,3.78,2.32
15.9510,0.07,0.09,-0.99,3.05,4.15,2.20
15.9670,0.07,0.09,-0.99,3.11,3.97,2.32
15.9830,0.07,0.10,-0.99,3.11,3.60,2.62
15.9980,0.07,0.10,-0.99,3.05,3.97,2.69
16.0140,0.07,0.10,-0.99,2.99,3.91,2.50
16.0290,0.07,0.10,-0.99,3.05,3.60,2.69
16.0440,0.07,0.10,-0.99,2.93,3.66,2.75
16.0590,0.07,0.10,-0.99,2.99,3.78,2.62
16.0680,0.07,0.09,-0.99,2.69,3.78,2.75
16.0900,0.07,0.09,-0.99,2.81,3.72,2.69
16.1000,0.07,0.10,-0.99,2.87,3.66,2.50
16.1180,0.07,0.10,-0.99,2.81,3.54,2.62
16.1340,0.07,0.09,-0.99,2.93,3.66,2.75
16.1510,0.07,0.09,-0.99,2.93,3.66,2.75
16.1670,0.07,0.10,-0.99,2.93,4.09,2.62
16.1690,0.07,0.10,-0.99,2.99,3.72,2.81
16.1990,0.07,0.09,-0.99,2.99,3.72,2.75
16.2150,0.07,0.10,-0.99,2.93,3.91,2.62
16.2300,0.07,0.10,-0.99,2.93,3.54,2.50
16.2450,0.07,0.10,-0.99,2.99,3.72,2.56
16.2510,0.07,0.10,-0.99,3.05,3.85,2.87
16.2670,0.07,0.09,-0.99,2.93,3.85,2.56
16.2880,0.07,0.09,-0.99,3.05,3.85,2.56
16.3060,0.07,0.09,-0.99,2.93,3.72,2.50
16.3220,0.07,0.09,-0.99,2.99,3.66,2.38
16.3380,0.07,0.10,-0.99,2.99,3.60,2.44
16.3540,0.07,0.10,-0.99,2.93,4.09,2.50
16.3690,0.07,0.10,-0.99,2.87,3.78,2.44
16.3840,0.07,0.10,-0.99,3.05,3.72,2.44
16.3880,0.07,0.09,-0.99,2.99,3.78,2.50
16.4040,0.07,0.09,-0.99,2.99,3.72,2.56
16.4270,0.07,0.09,-0.99,3.05,3.85,2.50
16.4440,0.07,0.10,-0.99,2.87,3.72,2.50
16.4610,0.07,0.09,-0.99,3.11,3.91,2.56
16.4760,0.07,0.10,-0.99,2.93,3.78,2.56
16.4920,0.07,0.10,-0.99,3.05,3.78,2.56
16.5080,0.07,0.09,-0.99,2.81,3.78,2.62
16.5250,0.07,0.09,-0.99,2.81,3.60,2.44
16.5400,0.07,0.09,-0.99,2.93,3.66,2.50
16.5550,0.07,0.10,-0.99,3.05,3.72,2.44
16.5710,0.07,0.10,-0.99,2.93,3.72,2.56
16.5770,0.07,0.10,-0.99,2.99,3.78,2.44
16.5950,0.07,0.10,-0.99,2.99,3.97,2.50
16.6110,0.07,0.09,-0.99,3.05,3.60,2.50
16.6280,0.07,0.09,-0.99,2.87,3.66,2.50
16.6440,0.07,0.09,-0.99,3.05,3.66,2.44
16.6610,0.07,0.09,-0.99,2.99,4.15,2.69
16.6770,0.07,0.09,-0.99,3.05,3.78,2.69
16.6940,0.07,0.09,-0.99,3.17,3.97,2.50
16.7100,0.07,0.09,-0.99,3.17,4.09,2.69
16.7260,0.07,0.10,-0.99,2.81,3.60,2.50
16.7420,0.07,0.09,-0.99,2.87,3.66,2.62
16.7440,0.07,0.09,-0.99,3.05,3.85,2.50
16.7670,0.06,0.10,-0.99,3.05,3.85,2.50
16.7850,0.07,0.10,-0.99,3.11,3.91,2.75
16.8010,0.07,0.09,-0.99,2.87,4.03,2.69
16.8170,0.07,0.10,-0.99,2.99,3.85,2.62
16.8320,0.07,0.09,-0.99,2.99,3.78,2.75
16.8490,0.07,0.09,-0.99,3.23,3.72,2.50
16.8650,0.07,0.10,-0.99,3.11,3.66,2.50
16.8810,0.07,0.09,-0.99,3.23,3.85,2.32
16.8970,0.07,0.09,-0.99,3.23,3.97,2.56
16.9130,0.07,0.10,-0.99,3.11,3.97,2.56
16.9180,0.07,0.09,-0.99,3.05,3.78,2.75
16.9340,0.07,0.09,-0.99,3.17,3.60,2.56
16.9540,0.07,0.10,-0.99,2.69,3.85,2.87
16.9710,0.07,0.10,-0.99,2.87,3.85,2.75
16.9880,0.07,0.10,-0.99,2.81,3.85,2.69
17.0050,0.07,0.10,-0.99,2.93,3.60,2.69
17.0210,0.07,0.10,-0.99,2.99,3.78,2.69
17.0370,0.07,0.09,-0.99,3.05,3.66,3.11
17.0520,0.07,0.09,-0.99,3.11,3.72,2.69
17.0670,0.07,0.09,-0.99,2.93,3.66,2.56
17.0710,0.07,0.10,-0.99,2.99,3.66,2.56
17.0880,0.07,0.10,-0.99,2.99,3.85,2.38
17.1140,0.07,0.10,-0.99,3.05,3.85,2.50
17.1250,0.07,0.10,-0.99,2.93,3.66,2.50
17.1420,0.07,0.10,-0.99,3.11,3.30,2.56
17.1590,0.07,0.10,-0.99,2.87,3.78,2.75
17.1750,0.07,0.09,-0.99,2.93,3.54,2.69
17.1910,0.07,0.10,-0.99,3.05,3.97,2.50
17.2070,0.07,0.10,-0.99,2.99,3.66,2.56
17.2230,0.07,0.09,-0.99,2.99,3.91,2.50
17.2380,0.07,0.09,-0.99,3.11,3.72,2.38
17.2530,0.07,0.10,-0.99,2.99,3.66,2.69
17.2680,0.07,0.09,-0.99,3.05,3.48,2.62
17.2820,0.07,0.09,-0.99,3.11,3.54,2.62
17.2980,0.07,0.09,-0.99,3.05,3.72,2.62
17.3090,0.07,0.10,-0.99,2.93,3.54,2.50
17.3240,0.07,0.10,-0.99,3.17,3.78,2.62
17.3460,0.07,0.09,-0.99,2.93,4.03,2.44
17.3620,0.07,0.09,-0.99,3.05,3.85,2.50
17.3780,0.07,0.10,-0.99,3.23,3.66,2.44
17.3940,0.07,0.10,-0.99,3.23,3.60,2.50
17.3960,0.07,0.10,-0.99,3.05,3.60,2.38
17.4250,0.07,0.10,-0.99,3.17,4.03,2.38
17.4320,0.07,0.10,-0.99,2.93,4.03,2.14
17.4480,0.07,0.09,-0.99,2.99,3.60,2.62
17.4680,0.07,0.09,-0.99,3.17,3.60,2.69
17.4810,0.07,0.09,-0.99,3.36,3.85,2.81
17.4980,0.07,0.09,-0.99,3.17,3.85,2.62
17.5130,0.07,0.10,-0.99,3.11,3.78,2.75
17.5310,0.07,0.09,-0.99,3.11,3.66,2.81
17.5470,0.07,0.10,-0.99,2.87,3.91,2.62
17.5630,0.07,0.10,-0.99,2.99,3.78,2.75
17.5790,0.07,0.10,-0.99,2.99,3.91,2.69
17.5940,0.07,0.10,-0.99,2.99,3.60,2.56
17.6090,0.07,0.09,-0.99,2.99,3.66,2.44
17.6200,0.07,0.09,-0.99,3.17,3.78,2.56
17.6370,0.07,0.09,-0.99,3.05,3.97,2.56
17.6530,0.07,0.09,-0.99,2.93,3.72,2.44
17.6700,0.07,0.10,-0.99,3.05,3.85,2.44
17.6850,0.07,0.10,-0.99,3.05,3.97,2.56
17.6870,0.07,0.10,-0.99,3.05,3.85,2.50
17.7030,0.07,0.10,-0.99,2.99,3.60,2.50
17.7310,0.07,0.09,-0.99,2.87,3.72,2.38
17.7420,0.07,0.09,-0.99,3.11,3.85,2.44
17.7590,0.07,0.10,-0.99,3.11,3.66,2.38
17.7750,0.07,0.10,-0.99,2.93,3.78,2.44
17.7910,0.07,0.10,-0.99,2.99,3.60,2.62
17.8070,0.07,0.10,-0.99,3.11,3.66,2.44
17.8230,0.07,0.09,-0.99,2.81,3.66,2.38
17.8380,0.07,0.09,-0.99,2.87,3.72,2.50
17.8530,0.07,0.10,-0.99,2.87,3.66,2.44
17.8680,0.07,0.09,-0.99,3.05,3.66,2.50
17.8750,0.07,0.10,-0.99,2.81,3.60,2.56
17.8910,0.07,0.10,-0.99,2.81,3.72,2.32
17.9130,0.07,0.10,-0.99,2.99,3.78,2.56
17.9290,0.07,0.09,-0.99,2.87,3.48,2.69
17.9450,0.07,0.09,-0.99,2.99,3.85,2.62
17.9610,0.07,0.10,-0.99,2.93,3.72,2.62
17.9770,0.07,0.10,-0.99,3.11,3.54,2.69
17.9930,0.07,0.10,-0.99,2.93,3.60,2.62
17.9970,0.07,0.09,-0.99,2.81,3.66,2.93
18.0130,0.07,0.10,-0.99,2.75,3.60,2.69
18.0380,0.07,0.10,-0.99,2.99,3.54,2.69
18.0380,0.07,0.09,-0.99,2.99,3.97,2.44
18.0680,0.07,0.10,-0.99,3.11,3.91,2.50
18.0830,0.07,0.10,-0.99,2.81,3.78,2.62
18.0990,0.07,0.10,-0.99,2.81,3.72,2.56
18.1150,0.07,0.10,-0.99,2.93,3.72,2.69
18.1310,0.07,0.09,-0.99,2.93,3.91,2.87
18.1470,0.07,0.10,-0.99,2.93,3.78,2.69
18.1630,0.07,0.09,-0.99,2.87,3.66,2.69
18.1790,0.07,0.09,-0.99,2.87,3.72,2.81
18.1940,0.07,0.10,-0.99,3.05,3.42,2.69
18.2030,0.07,0.09,-0.99,2.99,3.72,2.69
18.2190,0.07,0.10,-0.99,2.99,3.85,2.75
18.2420,0.07,0.09,-0.99,2.99,3.78,2.75
18.2570,0.07,0.09,-0.99,2.87,3.85,2.75
18.2730,0.07,0.10,-0.99,2.87,3.85,2.69
18.2880,0.07,0.10,-0.99,2.99,3.66,2.75
18.3030,0.07,0.10,-0.99,2.81,3.78,2.81
18.3180,0.07,0.10,-0.99,2.87,3.72,2.75
18.3330,0.07,0.09,-0.99,2.93,3.60,2.69
18.3480,0.07,0.09,-0.99,2.99,3.60,2.75
18.3620,0.07,0.09,-0.99,3.05,3.48,2.62
18.3750,0.07,0.10,-0.99,2.99,3.48,2.56
18.3910,0.07,0.10,-0.99,2.99,3.60,2.69
18.4080,0.07,0.10,-0.99,3.17,3.78,2.75
18.4250,0.07,0.10,-0.99,2.93,3.72,2.81
18.4410,0.07,0.10,-0.99,3.11,3.48,2.62
18.4570,0.07,0.10,-0.99,2.93,3.30,2.87
18.4730,0.07,0.09,-0.99,2.93,3.91,2.62
18.4880,0.07,0.09,-0.99,2.93,3.54,2.75
18.4930,0.07,0.10,-0.99,2.93,3.66,2.62
18.5180,0.07,0.10,-0.99,2.93,3.91,2.56
18.5330,0.07,0.09,-0.99,2.93,3.72,2.69
18.5480,0.07,0.09,-0.99,3.11,3.60,2.62
18.5630,0.07,0.09,-0.99,2.81,3.54,2.56
18.5750,0.07,0.09,-0.99,2.99,3.60,2.75
18.5920,0.07,0.09,-0.99,2.93,3.78,2.75
18.6090,0.07,0.10,-0.99,2.93,3.72,2.87
18.6240,0.07,0.09,-0.99,2.93,3.91,2.87
18.6410,0.07,0.10,-0.99,2.99,3.85,2.75
18.6570,0.07,0.10,-0.99,2.87,3.60,2.62
18.6710,0.07,0.09,-0.99,2.99,3.97,2.87
18.6870,0.07,0.09,-0.99,2.93,3.60,2.87
18.6910,0.07,0.09,-0.99,2.87,3.48,2.87
18.7070,0.07,0.09,-0.99,2.87,3.66,2.81
18.7280,0.07,0.09,-0.99,2.93,3.91,3.05
18.7450,0.07,0.09,-0.99,2.81,3.78,2.75
18.7630,0.07,0.10,-0.99,2.87,3.42,2.81
18.7790,0.07,0.10,-0.99,2.87,3.54,3.05
18.7950,0.07,0.09,-0.99,2.87,3.66,2.99
18.8120,0.07,0.10,-0.99,2.81,3.42,3.11
18.8290,0.07,0.09,-0.99,2.99,3.42,2.81
18.8300,0.07,0.09,-0.99,2.99,3.54,2.81
18.8450,0.07,0.09,-0.99,2.99,3.48,2.75
18.8690,0.07,0.09,-0.99,2.93,4.21,2.44
18.8780,0.07,0.10,-0.99,2.87,3.66,2.32
18.8950,0.07,0.10,-0.99,2.87,3.72,2.38
18.9120,0.07,0.10,-0.99,2.93,3.78,2.44
18.9400,0.07,0.09,-0.99,2.93,3.60,2.62
18.9450,0.07,0.09,-0.99,2.93,3.60,2.20
18.9690,0.07,0.09,-0.99,3.05,3.91,2.32
18.9780,0.07,0.09,-0.99,2.93,3.60,2.20
18.9950,0.07,0.10,-0.99,2.93,3.66,2.20
19.0120,0.07,0.10,-0.99,2.81,3.54,2.20
19.0280,0.07,0.10,-0.99,2.99,3.72,2.32
19.0470,0.07,0.09,-0.99,2.99,3.72,2.26
19.0620,0.07,0.09,-0.99,3.23,3.72,2.26
19.0770,0.07,0.09,-0.99,3.11,4.03,2.14
19.0820,0.07,0.09,-0.99,2.93,3.85,2.08
19.0980,0.07,0.09,-0.99,3.05,3.85,2.08
19.1190,0.07,0.09,-0.99,2.99,3.91,2.38
19.1360,0.07,0.10,-0.99,2.93,3.72,2.26
19.1520,0.07,0.09,-0.99,3.17,3.42,2.26
19.1670,0.07,0.09,-0.99,3.11,3.72,2.20
19.1830,0.07,0.10,-0.99,2.99,3.66,2.26
19.1860,0.07,0.10,-0.99,2.99,3.78,2.08
19.2020,0.07,0.10,-0.99,2.93,3.78,2.14
19.2290,0.07,0.10,-0.99,3.05,3.97,2.20
19.2400,0.07,0.09,-0.99,3.23,3.60,2.20
19.2570,0.07,0.09,-0.99,3.23,3.60,2.14
19.2740,0.07,0.09,-0.99,3.05,3.85,2.20
19.2900,0.07,0.09,-0.99,2.93,3.85,2.20
19.3070,0.07,0.10,-0.99,2.87,3.48,2.14
19.3230,0.07,0.10,-0.99,2.93,4.33,2.32
19.3380,0.07,0.10,-0.99,3.11,3.60,2.14
19.3530,0.07,0.09,-0.99,2.81,3.85,2.14
19.3680,0.07,0.09,-0.99,3.11,3.66,2.20
19.3730,0.07,0.10,-0.99,3.05,3.54,2.38
19.3890,0.07,0.10,-0.99,2.87,3.66,2.20
19.4110,0.07,0.10,-0.99,2.93,3.85,2.14
19.4290,0.07,0.10,-0.99,2.81,3.48,2.14
19.4440,0.07,0.10,-0.99,2.75,3.60,2.08
19.4610,0.07,0.09,-0.99,2.93,3.66,2.01
19.4700,0.07,0.09,-0.99,2.93,3.54,2.20
19.4780,0.07,0.09,-0.99,2.99,3.42,2.20
19.4950,0.07,0.09,-0.99,2.99,3.85,2.20
19.5110,0.07,0.10,-0.99,3.30,3.85,2.20
19.5380,0.07,0.10,-0.99,3.17,3.97,2.26
19.5490,0.07,0.09,-0.99,3.17,4.15,2.14
19.5660,0.07,0.09,-0.99,3.23,3.72,2.26
19.5820,0.07,0.09,-0.99,3.11,3.60,2.32
19.5980,0.07,0.09,-0.99,2.87,3.78,2.20
19.6140,0.07,0.09,-0.99,2.81,3.85,2.14
19.6310,0.07,0.09,-0.99,2.99,3.60,1.95
19.6330,0.07,0.10,-0.99,2.93,3.60,2.20
19.6490,0.07,0.10,-0.99,2.93,3.78,2.01
19.6720,0.07,0.09,-0.99,2.81,3.48,2.20
19.6900,0.07,0.09,-0.99,3.23,3.54,2.20
19.7050,0.07,0.09,-0.99,2.93,4.09,2.20
19.7200,0.07,0.09,-0.99,2.93,3.48,2.14
19.7270,0.07,0.10,-0.99,2.87,3.97,2.26
19.7450,0.07,0.10,-0.99,2.87,3.97,2.20
19.7620,0.07,0.10,-0.99,3.05,3.78,2.14
19.7780,0.07,0.10,-0.99,2.93,3.60,2.20
19.7970,0.07,0.09,-0.99,2.81,3.78,2.08
19.8120,0.07,0.09,-0.99,2.75,3.72,2.20
19.8270,0.07,0.09,-0.99,2.87,3.72,2.20
19.8330,0.07,0.09,-0.99,2.75,3.97,2.20
19.8570,0.07,0.10,-0.99,2.87,3.85,2.38
19.8720,0.07,0.10,-0.99,2.99,3.85,2.38
19.8820,0.07,0.10,-0.99,3.11,3.85,2.44
19.9000,0.07,0.10,-0.99,2.99,3.72,2.26
19.9160,0.07,0.09,-0.99,2.69,4.15,2.26
19.9330,0.07,0.09,-0.99,2.93,3.85,2.20
19.9480,0.07,0.09,-0.99,2.93,3.97,2.26
19.9650,0.07,0.10,-0.99,2.93,3.60,2.26
19.9800,0.07,0.09,-0.99,2.99,3.85,2.26
19.9950,0.07,0.09,-0.99,2.99,3.54,2.14
20.0100,0.07,0.09,-0.99,2.87,3.85,2.32
20.0270,0.07,0.09,-0.99,3.05,3.91,2.32
20.0420,0.07,0.09,-0.99,2.87,3.72,2.20
20.0570,0.07,0.09,-0.99,3.05,3.72,2.08
20.0720,0.07,0.09,-0.99,3.05,3.85,2.26
20.0830,0.07,0.09,-0.99,2.99,3.91,2.14
20.0990,0.07,0.09,-0.99,2.93,3.78,2.08
20.1180,0.07,0.09,-0.99,2.93,3.42,2.14
20.1340,0.07,0.10,-0.99,3.17,3.91,2.20
20.1480,0.07,0.09,-0.99,2.99,3.91,2.32
20.1650,0.07,0.09,-0.99,3.17,3.72,2.14
20.1810,0.07,0.09,-0.99,2.99,3.72,2.14
20.1970,0.07,0.09,-0.99,3.05,3.85,2.08
20.2120,0.07,0.10,-0.99,2.87,3.78,2.26
20.2270,0.07,0.10,-0.99,2.87,3.48,2.20
20.2360,0.07,0.10,-0.99,2.87,3.91,2.26
20.2520,0.07,0.10,-0.99,2.99,3.72,2.20
20.2730,0.07,0.10,-0.99,3.11,3.72,2.26
20.2890,0.07,0.09,-0.99,3.05,3.60,2.44
20.3040,0.07,0.10,-0.99,2.99,3.60,2.38
20.3190,0.07,0.09,-0.99,2.93,3.66,2.69
20.3350,0.07,0.10,-0.99,3.05,3.72,2.69
20.3500,0.07,0.09,-0.99,2.99,3.72,2.81
20.3650,0.07,0.09,-0.99,2.81,4.09,2.93
20.3810,0.07,0.09,-0.99,3.05,3.66,2.69
20.3910,0.07,0.10,-0.99,3.05,3.54,2.87
20.4080,0.07,0.09,-0.99,3.11,3.72,2.81
20.4250,0.07,0.09,-0.99,2.87,3.48,2.69
20.4410,0.07,0.10,-0.99,3.05,3.72,2.50
20.4580,0.07,0.10,-0.99,2.75,3.60,2.44
20.4750,0.07,0.10,-0.99,3.05,3.78,2.75
20.4910,0.07,0.09,-0.99,2.81,3.54,2.75
20.5070,0.07,0.09,-0.99,2.93,3.97,2.44
20.5230,0.07,0.09,-0.99,2.93,3.48,2.38
20.5380,0.07,0.09,-0.99,2.81,3.54,2.20
20.5530,0.07,0.09,-0.99,3.05,3.66,2.44
20.5680,0.07,0.10,-0.99,2.99,3.66,2.38
20.5830,0.07,0.10,-0.99,2.87,4.09,2.62
20.5980,0.07,0.10,-0.99,2.99,3.85,2.75
20.6130,0.07,0.09,-0.99,2.93,3.91,2.75
20.6250,0.07,0.09,-0.99,2.99,3.60,2.50
20.6420,0.07,0.10,-0.99,3.05,3.78,2.38
20.6590,0.07,0.10,-0.99,3.05,3.72,2.38
20.6750,0.07,0.09,-0.99,2.87,3.48,2.26
20.6920,0.07,0.09,-0.99,2.93,3.78,2.44
20.7080,0.07,0.09,-0.99,2.93,3.60,2.32
20.7250,0.07,0.09,-0.99,2.99,3.66,2.44
20.7410,0.07,0.10,-0.99,2.81,3.78,2.38
20.7570,0.07,0.09,-0.99,2.81,3.60,2.44
20.7730,0.07,0.09,-0.99,2.93,3.54,2.32
20.7890,0.07,0.10,-0.99,2.87,3.91,2.38
20.8050,0.07,0.10,-0.99,2.81,3.78,2.26
20.8200,0.07,0.10,-0.99,2.93,3.78,2.44
20.8250,0.07,0.09,-0.99,2.99,3.97,2.69
20.8410,0.07,0.09,-0.99,3.05,3.91,2.56
20.8650,0.07,0.09,-0.99,2.99,3.72,2.38
20.8810,0.07,0.10,-0.99,2.87,3.72,2.44
20.8970,0.07,0.10,-0.99,2.99,3.66,2.26
20.9120,0.07,0.10,-0.99,2.99,3.85,2.44
20.9270,0.07,0.10,-0.99,3.05,3.78,2.69
20.9320,0.07,0.09,-0.99,3.17,3.54,2.69
20.9470,0.07,0.09,-0.99,2.87,3.91,2.81
20.9720,0.07,0.09,-0.99,2.87,3.78,2.56
20.9870,0.07,0.10,-0.99,2.99,3.60,2.62
21.0020,0.07,0.10,-0.99,2.99,3.97,2.69
21.0170,0.07,0.10,-0.99,2.87,3.66,2.62
21.0320,0.07,0.10,-0.99,3.05,3.72,2.56
21.0380,0.07,0.09,-0.99,2.93,3.60,2.69
21.0540,0.07,0.09,-0.99,2.87,3.48,2.38
21.0760,0.07,0.09,-0.99,3.05,3.66,2.50
21.0930,0.07,0.09,-0.99,2.99,3.91,2.50
21.1100,0.07,0.09,-0.99,3.05,3.85,2.56
21.1260,0.07,0.09,-0.99,2.87,3.72,2.62
21.1420,0.07,0.09,-0.99,3.05,3.91,2.69
21.1580,0.07,0.09,-0.99,2.99,3.91,2.62
21.1730,0.07,0.10,-0.99,2.99,3.66,2.75
21.1900,0.07,0.10,-0.99,3.11,3.85,2.87
21.2050,0.07,0.10,-0.99,3.05,3.72,2.81
21.2210,0.07,0.10,-0.99,2.99,3.91,2.75
21.2370,0.07,0.10,-0.99,3.05,3.66,2.81
21.2520,0.07,0.10,-0.99,3.05,3.54,2.81
21.2670,0.07,0.09,-0.99,2.99,3.60,2.62
21.2760,0.07,0.09,-0.99,2.81,3.60,2.69
21.2930,0.07,0.10,-0.99,2.81,3.66,2.69
21.3090,0.07,0.09,-0.99,2.93,3.66,2.62
21.3250,0.07,0.10,-0.99,2.93,3.78,2.62
21.3420,0.07,0.10,-0.99,2.87,3.85,2.69
21.3590,0.07,0.10,-0.99,2.87,3.60,2.75
21.3760,0.07,0.09,-0.99,2.99,3.66,2.69
21.3910,0.07,0.09,-0.99,2.99,3.78,2.62
21.3930,0.07,0.09,-0.99,2.93,3.30,2.50
21.4240,0.07,0.10,-0.99,2.69,3.97,2.50
21.4390,0.07,0.10,-0.99,2.99,3.30,2.75
21.4540,0.07,0.09,-0.99,2.69,3.42,2.62
21.4700,0.07,0.10,-0.99,2.75,3.48,2.75
21.4820,0.07,0.09,-0.99,2.93,3.78,2.87
21.4970,0.07,0.09,-0.99,2.99,3.72,2.93
21.5130,0.07,0.09,-0.99,2.87,3.54,2.62
21.5220,0.07,0.09,-0.99,3.11,3.66,2.75
21.5450,0.07,0.10,-0.99,2.87,3.66,2.69
21.5600,0.07,0.10,-0.99,2.87,3.66,2.93
21.5730,0.07,0.09,-0.99,2.99,3.66,3.05
21.5880,0.07,0.10,-0.99,2.87,3.72,3.05
21.6060,0.07,0.09,-0.99,2.93,3.72,3.05
21.6210,0.07,0.10,-0.99,3.11,3.60,2.81
21.6360,0.07,0.10,-0.99,2.93,3.85,3.05
21.6520,0.07,0.09,-0.99,2.99,3.72,2.87
21.6670,0.07,0.10,-0.99,2.93,4.03,2.93
21.6830,0.07,0.10,-0.99,2.93,3.72,2.99
21.6990,0.07,0.09,-0.99,2.93,3.54,2.87
21.7150,0.07,0.09,-0.99,2.81,3.60,3.05
21.7300,0.07,0.09,-0.99,2.93,3.54,3.05
21.7450,0.07,0.10,-0.99,2.93,3.85,2.69
21.7550,0.07,0.10,-0.99,2.87,3.72,3.11
21.7730,0.07,0.10,-0.99,2.99,3.91,3.05
21.7880,0.07,0.10,-0.99,3.05,3.91,3.17
21.8050,0.07,0.09,-0.99,3.05,3.42,3.30
21.8210,0.07,0.09,-0.99,2.87,3.78,3.11
21.8370,0.07,0.09,-0.99,2.93,3.66,3.05
21.8520,0.07,0.10,-0.99,2.81,3.78,2.99
21.8670,0.07,0.10,-0.99,2.81,3.91,2.99
21.8810,0.07,0.10,-0.99,2.93,3.66,3.05
21.8970,0.07,0.10,-0.99,2.87,3.66,3.23
21.9120,0.07,0.09,-0.99,2.87,3.54,3.17
21.9270,0.07,0.09,-0.99,2.87,3.48,3.17
21.9390,0.07,0.09,-0.99,2.87,3.66,3.36
21.9560,0.07,0.09,-0.99,2.93,3.72,3.36
21.9730,0.07,0.09,-0.99,2.93,3.42,3.05
21.9880,0.07,0.10,-0.99,3.05,3.48,2.99
22.0050,0.07,0.10,-0.99,3.05,3.72,3.05
22.0210,0.07,0.10,-0.99,2.93,3.66,3.17
22.0360,0.07,0.10,-0.99,2.81,3.48,2.99
22.0510,0.07,0.09,-0.99,2.99,3.72,2.99
22.0560,0.07,0.09,-0.99,2.87,3.78,2.99
22.0740,0.07,0.10,-0.99,2.87,3.97,3.17
22.0930,0.07,0.10,-0.99,2.93,3.66,3.05
22.1090,0.07,0.10,-0.99,2.81,3.66,3.11
22.1250,0.07,0.10,-0.99,3.05,3.66,3.11
22.1420,0.07,0.09,-0.99,3.11,3.36,3.05
22.1580,0.07,0.09,-0.99,2.87,3.97,3.05
22.1730,0.07,0.09,-0.99,3.05,3.78,2.87
22.1890,0.07,0.10,-0.99,3.05,3.48,2.93
22.1920,0.07,0.10,-0.99,2.87,3.72,2.99
22.2080,0.07,0.10,-0.99,2.93,3.78,3.11
22.2320,0.07,0.10,-0.99,3.05,3.72,3.05
22.2490,0.07,0.10,-0.99,2.99,4.03,2.99
22.2650,0.07,0.09,-0.99,3.05,3.78,3.36
22.2810,0.07,0.09,-0.99,2.99,3.78,3.11
22.2970,0.07,0.09,-0.99,2.87,3.60,3.17
22.3130,0.07,0.10,-0.99,2.81,3.60,2.99
22.3160,0.07,0.10,-0.99,2.99,3.85,3.05
22.3320,0.07,0.10,-0.99,2.87,3.60,2.93
22.3470,0.07,0.10,-0.99,3.23,3.78,2.93
22.3770,0.07,0.09,-0.99,2.87,3.30,3.17
22.3920,0.07,0.09,-0.99,3.05,3.78,3.11
22.4080,0.07,0.09,-0.99,3.11,3.60,2.75
22.4200,0.07,0.10,-0.99,2.93,3.85,2.81
22.4360,0.07,0.10,-0.99,3.11,3.78,2.99
22.4510,0.07,0.10,-0.99,2.99,3.66,3.17
22.4700,0.07,0.10,-0.99,2.93,3.66,2.99
22.4850,0.07,0.09,-0.99,2.81,3.60,3.17
22.5010,0.07,0.09,-0.99,2.75,3.42,2.99
22.5060,0.07,0.09,-0.99,3.05,3.66,2.87
22.5220,0.07,0.09,-0.99,3.05,3.54,2.69
22.5430,0.07,0.10,-0.99,2.99,3.60,2.75
22.5590,0.07,0.10,-0.99,2.87,3.78,2.87
22.5770,0.07,0.10,-0.99,2.75,3.66,2.99
22.5930,0.07,0.10,-0.99,3.05,3.60,2.81
22.6090,0.07,0.06,-0.99,2.99,3.78,3.23
22.6250,0.07,0.09,-0.99,2.93,3.60,2.93
22.6410,0.07,0.09,-0.99,3.05,3.66,2.93
22.6570,0.07,0.09,-0.99,2.93,3.85,2.81
22.6600,0.07,0.10,-0.99,3.11,3.72,2.93
22.6750,0.07,0.10,-0.99,2.81,3.66,2.87
22.6980,0.07,0.10,-0.99,3.05,3.48,2.75
22.7150,0.07,0.10,-0.99,2.81,3.85,2.81
22.7320,0.07,0.09,-0.99,2.75,3.60,2.93
22.7480,0.07,0.10,-0.99,2.99,3.72,2.99
22.7650,0.07,0.09,-0.99,2.99,3.66,2.87
22.7810,0.07,0.09,-0.99,2.87,3.66,2.56
22.7970,0.07,0.10,-0.99,3.05,3.60,2.69
22.8130,0.07,0.09,-0.99,3.05,3.78,2.62
22.8290,0.07,0.10,-0.99,3.05,3.91,2.44
22.8450,0.07,0.10,-0.99,2.99,3.72,2.69
22.8480,0.07,0.09,-0.99,2.99,3.72,2.62
22.8760,0.07,0.09,-0.99,2.81,4.15,2.62
22.8830,0.07,0.09,-0.99,2.93,3.60,2.44
22.8980,0.07,0.10,-0.99,2.87,3.48,2.26
22.9210,0.07,0.10,-0.99,3.11,3.66,2.38
22.9370,0.07,0.10,-0.99,3.11,3.72,2.26
22.9530,0.07,0.10,-0.99,2.93,3.66,2.08
22.9700,0.07,0.09,-0.99,2.93,3.78,2.32
22.9850,0.07,0.09,-0.99,3.11,3.72,2.32
23.0010,0.07,0.10,-0.99,2.75,3.60,2.38
23.0180,0.07,0.09,-0.99,2.87,3.54,2.38
23.0220,0.07,0.09,-0.99,2.93,3.78,2.62
23.0390,0.07,0.09,-0.99,2.93,3.78,2.50
23.0630,0.07,0.10,-0.99,2.99,3.60,2.75
23.0780,0.07,0.09,-0.99,2.99,3.66,2.87
23.0800,0.07,0.09,-0.99,3.05,3.60,2.87
23.1100,0.07,0.10,-0.99,2.93,3.72,2.75
23.1110,0.07,0.09,-0.99,2.93,3.60,2.99
23.1270,0.07,0.09,-0.99,2.99,3.78,2.81
23.1570,0.07,0.10,-0.99,2.87,3.78,2.75
23.1730,0.07,0.10,-0.99,2.93,3.60,2.81
23.1880,0.07,0.09,-0.99,2.87,3.66,3.05
23.2030,0.07,0.09,-0.99,2.93,3.78,2.75
23.2190,0.07,0.10,-0.99,2.99,3.54,2.69
23.2300,0.07,0.09,-0.99,2.81,3.91,2.75
23.2460,0.07,0.09,-0.99,3.11,3.72,2.69
23.2620,0.07,0.09,-0.99,2.87,3.66,2.69
23.2780,0.07,0.10,-0.99,2.99,3.78,2.69
23.2970,0.07,0.10,-0.99,3.05,3.60,2.87
23.2970,0.07,0.10,-0.99,2.81,3.97,2.75
23.3280,0.07,0.10,-0.99,2.93,3.23,2.69
23.3450,0.07,0.10,-0.99,2.93,3.60,2.81
23.3600,0.07,0.09,-0.99,2.87,3.60,2.81
23.3760,0.07,0.09,-0.99,3.17,3.66,2.56
23.3780,0.07,0.09,-0.99,2.75,3.78,2.62
23.4070,0.07,0.10,-0.99,2.87,3.85,2.56
23.4220,0.07,0.10,-0.99,2.93,3.78,2.62
23.4340,0.07,0.09,-0.99,3.05,3.97,2.56
23.4500,0.07,0.09,-0.99,2.93,3.60,2.50
23.4670,0.07,0.09,-0.99,2.93,3.91,2.50
23.4830,0.07,0.09,-0.99,2.93,3.78,2.32
23.4990,0.07,0.09,-0.99,3.05,3.91,2.44
23.5160,0.07,0.10,-0.99,2.93,3.48,2.38
23.5310,0.07,0.10,-0.99,3.05,3.60,2.38
23.5470,0.07,0.10,-0.99,2.99,3.78,2.26
23.5640,0.07,0.09,-0.99,3.05,3.78,2.38
23.5790,0.07,0.09,-0.99,2.87,3.85,2.26
23.5950,0.07,0.09,-0.99,2.87,3.72,2.14
23.6100,0.07,0.10,-0.99,2.93,3.72,2.50
23.6260,0.07,0.09,-0.99,3.05,3.60,2.44
23.6340,0.07,0.09,-0.99,2.93,3.85,2.50
23.6500,0.07,0.09,-0.99,3.23,3.42,2.20
23.6720,0.07,0.09,-0.99,2.99,3.78,2.38
23.6880,0.07,0.09,-0.99,2.93,3.54,2.26
23.7040,0.07,0.09,-0.99,2.99,3.66,2.32
23.7190,0.07,0.09,-0.99,3.05,3.72,2.38
23.7340,0.07,0.09,-0.99,2.93,3.78,2.44
23.7370,0.07,0.10,-0.99,3.05,3.66,2.44
23.7530,0.07,0.10,-0.99,2.87,3.60,2.38
23.7810,0.07,0.09,-0.99,2.99,3.91,2.26
23.7930,0.07,0.09,-0.99,2.93,3.54,2.44
23.8090,0.07,0.09,-0.99,2.99,3.48,2.26
23.8260,0.07,0.09,-0.99,3.05,3.91,2.38
23.8420,0.07,0.10,-0.99,2.93,3.72,2.26
23.8580,0.07,0.10,-0.99,2.87,3.42,2.44
23.8730,0.07,0.10,-0.99,2.93,3.48,2.32
23.8890,0.07,0.09,-0.99,3.23,3.66,2.08
23.9050,0.07,0.09,-0.99,3.11,3.54,2.32
23.9200,0.07,0.09,-0.99,3.05,3.78,2.38
23.9350,0.07,0.10,-0.99,2.75,3.97,2.50
23.9500,0.07,0.10,-0.99,2.93,3.60,2.38
23.9650,0.07,0.09,-0.99,3.05,3.78,2.56
23.9760,0.07,0.09,-0.99,2.87,3.36,2.44
23.9920,0.07,0.09,-0.99,2.99,3.78,2.50
24.0090,0.07,0.09,-0.99,2.99,3.72,2.26
24.0270,0.07,0.09,-0.99,3.05,3.85,2.26
24.0420,0.07,0.09,-0.99,2.93,3.72,2.50
24.0590,0.07,0.09,-0.99,3.05,3.66,2.50
24.0740,0.07,0.09,-0.99,3.11,3.78,2.44
24.0890,0.07,0.10,-0.99,2.81,3.60,2.44
24.1040,0.07,0.09,-0.99,3.11,3.48,2.69
24.1190,0.07,0.09,-0.99,3.05,3.66,2.44
24.1260,0.07,0.09,-0.99,3.05,3.72,2.38
24.1420,0.07,0.09,-0.99,2.99,3.91,2.32
24.1640,0.07,0.09,-0.99,2.81,3.97,2.32
24.1810,0.07,0.09,-0.99,3.05,3.85,2.32
24.1820,0.07,0.10,-0.99,3.23,3.60,2.20
24.2130,0.07,0.09,-0.99,3.17,3.72,2.26
24.2200,0.07,0.09,-0.99,3.05,3.72,2.44
24.2370,0.07,0.09,-0.99,2.93,4.03,2.32
24.2530,0.07,0.10,-0.99,2.81,3.54,2.32
24.2700,0.07,0.09,-0.99,2.93,3.54,2.20
24.2870,0.07,0.09,-0.99,2.93,3.78,2.38
24.3020,0.07,0.09,-0.99,2.93,3.91,2.26
24.3180,0.07,0.09,-0.99,2.93,3.54,2.14
24.3330,0.07,0.09,-0.99,2.93,3.72,2.20
24.3500,0.07,0.10,-0.99,3.05,3.66,2.26
24.3640,0.07,0.10,-0.99,2.75,3.72,2.32
24.3810,0.07,0.09,-0.99,2.99,3.91,2.44
24.3970,0.07,0.09,-0.99,2.69,3.78,2.20
24.4130,0.07,0.09,-0.99,3.17,3.78,2.26
24.4280,0.07,0.09,-0.99,2.87,3.72,2.38
24.4360,0.07,0.09,-0.99,3.17,3.85,2.32
24.4530,0.07,0.09,-0.99,3.17,3.97,2.38
24.4700,0.07,0.10,-0.99,2.99,3.72,2.44
24.4860,0.07,0.10,-0.99,3.17,3.72,2.50
24.5030,0.07,0.09,-0.99,3.05,3.91,2.56
24.5200,0.07,0.09,-0.99,2.99,3.78,2.38
24.5350,0.07,0.09,-0.99,2.99,3.66,2.32
24.5500,0.07,0.10,-0.99,2.87,3.54,2.32
24.5530,0.07,0.10,-0.99,2.99,3.60,2.26
24.5780,0.07,0.09,-0.99,3.11,3.85,2.50
24.5920,0.07,0.09,-0.99,3.05,3.85,2.50
24.6080,0.07,0.09,-0.99,3.05,3.30,2.38
24.6250,0.07,0.09,-0.99,2.99,3.36,2.44
24.6420,0.07,0.10,-0.99,2.93,3.30,2.56
24.6430,0.07,0.09,-0.99,2.99,3.72,2.81
24.6740,0.07,0.09,-0.99,2.93,3.66,2.75
24.6890,0.07,0.09,-0.99,3.17,3.42,2.50
24.6920,0.07,0.10,-0.99,2.99,3.60,2.44
24.7080,0.07,0.10,-0.99,3.05,3.54,2.50
24.7360,0.07,0.09,-0.99,3.05,3.91,2.69
24.7470,0.07,0.09,-0.99,2.93,3.85,2.69
24.7630,0.07,0.09,-1.00,2.93,3.42,2.69
24.7800,0.06,0.10,-0.98,3.30,4.03,2.69
24.7960,0.07,0.09,-0.99,3.05,3.66,2.56
24.8120,0.07,0.10,-0.99,2.93,3.85,2.50
24.8280,0.07,0.09,-0.99,3.17,3.72,2.56
24.8430,0.07,0.11,-0.99,3.11,3.60,2.44
24.8590,0.07,0.09,-0.99,3.17,3.78,2.38
24.8620,0.07,0.09,-1.00,2.99,3.60,2.62
24.8780,0.07,0.09,-0.99,2.99,3.66,2.75
24.9060,0.07,0.09,-0.99,3.05,3.54,2.50
24.9170,0.07,0.10,-0.99,2.99,3.54,2.50
24.9330,0.07,0.10,-0.99,3.23,3.91,2.26
24.9500,0.07,0.10,-0.99,3.60,4.39,2.14
24.9660,0.07,0.10,-0.99,3.42,4.03,2.32
24.9840,0.06,0.10,-0.99,3.54,4.15,2.87
25.0000,0.08,0.12,-0.99,3.91,3.23,4.21
25.0150,0.07,0.10,-0.98,3.54,5.49,5.62
25.0300,0.07,0.10,-0.99,3.36,4.70,5.92
25.0460,0.07,0.10,-0.99,3.30,4.09,6.77
25.0620,0.06,0.09,-0.99,3.42,4.39,5.86
25.0770,0.06,0.09,-0.99,3.60,4.09,5.68
25.0920,0.07,0.09,-0.99,3.36,3.30,5.13
25.0990,0.07,0.09,-0.99,2.99,4.21,4.09
25.1180,0.07,0.10,-0.99,3.11,4.33,3.97
25.1340,0.07,0.09,-0.99,3.11,4.09,3.72
25.1500,0.07,0.09,-0.99,2.99,4.03,3.11
25.1670,0.07,0.09,-1.00,3.17,3.42,2.38
25.1830,0.07,0.09,-1.00,3.11,3.91,2.38
25.1990,0.07,0.10,-0.99,3.17,3.91,2.08
25.2140,0.06,0.09,-0.99,2.99,4.15,2.20
25.2300,0.06,0.10,-0.99,2.99,3.72,2.20
25.2450,0.07,0.10,-0.99,2.93,3.17,1.95
25.2590,0.07,0.10,-0.99,2.87,3.66,1.77
25.2740,0.07,0.10,-0.99,2.87,3.72,1.59
25.2890,0.07,0.09,-0.99,3.05,3.60,1.46
25.3040,0.06,0.09,-0.99,3.11,3.97,2.01
25.3160,0.06,0.10,-0.99,2.75,3.42,1.89
25.3330,0.07,0.10,-1.00,2.75,3.42,2.14
25.3500,0.07,0.10,-0.99,2.87,3.42,2.14
25.3660,0.07,0.09,-0.99,2.93,3.97,2.38
25.3810,0.07,0.09,-0.99,2.81,3.85,2.32
25.3980,0.07,0.10,-0.99,2.81,3.66,2.32
25.4130,0.07,0.10,-0.99,2.87,3.54,2.38
25.4290,0.07,0.09,-0.99,2.75,3.36,2.38
25.4450,0.07,0.09,-0.99,3.11,3.30,2.38
25.4500,0.07,0.10,-0.99,3.05,3.05,2.20
25.4650,0.07,0.10,-0.99,2.99,3.23,2.20
25.4890,0.07,0.10,-0.99,2.99,3.42,2.44
25.5050,0.07,0.10,-0.99,3.17,3.72,2.32
25.5210,0.07,0.10,-0.99,2.99,3.78,2.50
25.5380,0.07,0.10,-0.99,2.93,3.36,2.38
25.5530,0.07,0.10,-0.99,2.99,3.54,2.32
25.5680,0.07,0.10,-0.99,2.99,3.60,2.26
25.5790,0.07,0.10,-0.99,2.87,3.36,2.38
25.5880,0.07,0.10,-0.99,2.93,3.54,2.20
25.6090,0.07,0.10,-0.99,2.81,3.54,2.26
25.6270,0.07,0.09,-0.99,2.99,3.30,2.32
25.6420,0.07,0.10,-0.99,3.11,3.42,2.26
25.6590,0.08,0.13,-0.99,3.23,3.48,1.89
25.6750,0.07,0.09,-0.99,3.11,4.58,2.08
25.6910,0.07,0.09,-0.99,3.11,3.42,2.44
25.7070,0.07,0.09,-0.99,3.17,3.11,2.32
25.7230,0.07,0.09,-0.99,3.17,3.17,2.32
25.7260,0.07,0.09,-0.99,3.11,3.17,2.14
25.7420,0.07,0.10,-0.99,3.11,3.85,2.32
25.7640,0.07,0.10,-0.99,2.87,3.54,2.38
25.7800,0.07,0.10,-0.99,3.11,3.78,2.32
25.7970,0.07,0.10,-0.99,3.11,3.72,2.44
25.8140,0.07,0.10,-0.99,3.11,3.78,2.38
25.8300,0.07,0.09,-0.99,3.17,3.66,2.38
25.8460,0.07,0.09,-0.99,3.05,3.78,2.44
25.8630,0.07,0.10,-0.99,2.93,3.85,2.50
25.8790,0.07,0.10,-0.99,2.81,4.03,2.44
25.8950,0.07,0.10,-0.99,2.81,3.72,2.38
25.9110,0.07,0.10,-0.99,2.93,3.66,2.44
25.9260,0.07,0.10,-0.99,2.93,3.60,2.56
25.9290,0.07,0.09,-0.99,3.17,3.42,2.38
25.9450,0.07,0.09,-0.99,3.11,3.42,2.44
25.9680,0.07,0.09,-0.99,3.11,3.60,2.26
25.9850,0.07,0.09,-0.99,3.11,3.72,2.08
26.0010,0.07,0.10,-0.99,2.87,3.66,2.20
26.0170,0.08,0.10,-0.99,2.87,3.72,2.26
26.0330,0.08,0.09,-0.99,3.05,3.60,2.20
26.0500,0.07,0.09,-0.99,3.17,3.91,2.01
26.0530,0.07,0.09,-0.99,2.93,4.03,2.38
26.0810,0.07,0.09,-0.99,3.11,4.21,2.32
26.0850,0.07,0.10,-0.99,2.87,4.03,2.38
26.1010,0.07,0.10,-0.99,2.81,4.33,2.56
26.1270,0.06,0.09,-0.99,3.30,4.09,2.50
26.1390,0.07,0.10,-0.99,3.48,4.39,2.81
26.1550,0.07,0.09,-1.00,2.81,4.33,2.87
26.1720,0.07,0.09,-0.99,3.17,4.03,2.56
26.1890,0.07,0.09,-0.99,3.11,4.03,2.38
26.2050,0.07,0.10,-0.99,3.11,4.27,2.44
26.2210,0.07,0.10,-0.99,3.05,3.97,2.44
26.2370,0.07,0.10,-0.99,3.17,3.91,2.38
26.2520,0.07,0.10,-0.99,3.23,4.27,2.32
26.2670,0.07,0.10,-0.99,3.17,4.15,2.26
26.2790,0.07,0.10,-0.99,2.99,4.03,2.14
26.2880,0.07,0.10,-0.99,3.17,4.15,2.32
26.3100,0.07,0.09,-0.99,2.99,3.78,2.20
26.3280,0.06,0.09,-0.99,3.48,3.85,2.44
26.3450,0.07,0.09,-0.99,3.60,3.91,2.38
26.3610,0.07,0.10,-0.99,3.36,4.27,2.14
26.3770,0.07,0.10,-0.99,3.17,4.15,2.20
26.3790,0.07,0.10,-0.99,2.99,4.09,2.44
26.3950,0.07,0.10,-0.99,3.23,3.91,2.38
26.4100,0.07,0.10,-0.99,3.66,4.09,2.44
26.4270,0.07,0.09,-0.99,3.72,4.09,1.89
26.4570,0.06,0.10,-0.99,3.72,3.91,1.04
26.4730,0.07,0.11,-0.99,3.11,4.21,1.10
26.4790,0.06,0.10,-0.99,2.81,3.72,2.38
26.4930,0.07,0.10,-0.99,2.87,3.97,2.32
26.5150,0.07,0.10,-0.99,3.30,3.72,2.50
26.5320,0.07,0.10,-0.99,3.17,3.85,2.44
26.5480,0.07,0.10,-0.99,3.17,4.15,1.95
26.5640,0.07,0.10,-0.99,3.23,3.97,2.14
26.5810,0.06,0.10,-0.99,2.81,4.03,2.20
26.5970,0.06,0.10,-0.99,2.75,3.78,2.38
26.6130,0.07,0.10,-0.99,2.93,3.97,2.08
26.6280,0.07,0.10,-0.99,3.11,3.97,2.08
26.6320,0.07,0.10,-0.99,3.17,3.91,1.22
26.6480,0.07,0.09,-0.99,2.93,4.03,2.08
26.6720,0.07,0.09,-0.99,3.11,4.09,2.32
26.6890,0.07,0.09,-0.99,3.23,3.72,2.56
26.7040,0.06,0.10,-0.99,2.87,3.91,2.44
26.7210,0.06,0.10,-0.99,2.87,3.60,2.32
26.7370,0.06,0.10,-0.99,2.69,3.97,2.38
26.7520,0.07,0.10,-0.99,2.93,3.60,2.50
26.7670,0.07,0.10,-0.99,3.05,3.60,2.50
26.7830,0.07,0.09,-0.99,3.05,3.60,2.32
26.7970,0.07,0.09,-0.99,2.99,3.54,2.38
26.8130,0.07,0.09,-0.99,2.99,3.91,2.44
26.8280,0.07,0.10,-0.99,3.05,3.66,2.44
26.8390,0.07,0.10,-0.99,3.17,3.85,2.44
26.8550,0.07,0.09,-0.99,3.23,3.97,2.50
26.8720,0.07,0.09,-0.99,3.17,3.72,2.75
26.8880,0.07,0.09,-0.99,3.23,3.91,2.44
26.9050,0.07,0.10,-0.99,3.17,3.91,2.44
26.9210,0.07,0.10,-0.99,2.93,3.54,2.32
26.9370,0.07,0.10,-0.99,3.11,3.78,2.50
26.9520,0.07,0.10,-0.99,2.93,3.42,2.87
26.9670,0.06,0.10,-0.99,3.30,3.60,2.69
26.9820,0.06,0.10,-0.99,3.30,3.85,2.44
26.9970,0.06,0.10,-0.99,3.05,3.60,2.38
27.0120,0.07,0.09,-0.99,2.69,3.72,2.14
27.0220,0.07,0.10,-0.99,2.93,3.91,2.38
27.0390,0.07,0.10,-0.99,2.87,3.97,2.38
27.0550,0.07,0.10,-0.99,2.87,3.91,2.38
27.0720,0.07,0.10,-0.99,3.23,3.60,2.38
27.0880,0.07,0.10,-0.99,3.23,3.66,2.32
27.1050,0.07,0.10,-0.99,3.05,3.66,2.32
27.1210,0.08,0.10,-0.99,2.99,3.48,2.50
27.1370,0.07,0.10,-0.99,2.87,3.72,2.50
27.1520,0.07,0.10,-0.99,3.30,3.72,2.38
27.1680,0.07,0.09,-0.99,3.66,3.54,2.32
27.1830,0.06,0.09,-0.99,3.60,3.72,2.44
27.1890,0.06,0.10,-0.99,3.23,3.60,2.50
27.2040,0.07,0.10,-0.98,2.93,3.66,2.38
27.2280,0.07,0.10,-0.99,3.05,3.78,2.32
27.2440,0.07,0.10,-1.00,3.17,3.72,2.38
27.2600,0.07,0.10,-0.99,3.54,3.66,2.50
27.2760,0.07,0.10,-0.99,3.42,3.97,2.44
27.2910,0.07,0.10,-0.99,3.42,3.54,2.32
27.2940,0.07,0.10,-0.99,2.99,4.03,2.38
27.3100,0.07,0.09,-0.99,3.23,3.78,2.38
27.3330,0.06,0.10,-0.99,2.99,3.85,2.38
27.3510,0.06,0.10,-0.99,3.05,3.48,2.32
27.3670,0.06,0.10,-0.99,3.11,4.03,2.26
27.3840,0.06,0.10,-0.99,3.17,3.42,2.26
27.3990,0.06,0.10,-0.99,2.87,3.23,2.26
27.4150,0.06,0.10,-0.99,2.99,3.54,2.38
27.4320,0.07,0.10,-0.99,2.81,3.48,2.26
27.4470,0.07,0.10,-0.99,2.93,3.97,2.32
27.4630,0.07,0.10,-0.99,3.05,3.72,2.32
27.4790,0.07,0.10,-0.99,2.99,3.72,2.26
27.4940,0.07,0.10,-0.99,2.99,3.60,2.26
27.5100,0.07,0.10,-0.99,2.99,3.48,2.32
27.5260,0.07,0.09,-0.99,2.75,3.91,2.26
27.5420,0.07,0.10,-0.99,3.05,3.66,2.20
27.5510,0.07,0.10,-0.99,3.11,3.66,2.50
27.5670,0.07,0.10,-0.99,2.87,3.78,2.69
27.5890,0.07,0.10,-0.99,3.05,3.60,2.44
27.6040,0.07,0.10,-0.99,3.23,3.48,2.32
27.6200,0.07,0.10,-0.99,2.99,3.66,2.38
27.6350,0.07,0.10,-0.99,2.99,3.66,2.44
27.6500,0.07,0.10,-0.99,3.11,3.66,2.50
27.6660,0.07,0.10,-0.99,2.87,3.66,2.62
27.6820,0.07,0.10,-0.99,3.05,3.72,2.44
27.6970,0.07,0.10,-0.99,3.05,3.72,2.44
27.7130,0.07,0.10,-0.99,3.05,3.78,2.62
27.7240,0.07,0.10,-0.99,2.87,3.72,2.75
27.7390,0.07,0.10,-0.99,2.99,3.60,2.62
27.7580,0.07,0.10,-0.99,3.05,3.36,2.44
27.7740,0.07,0.10,-0.99,3.17,3.66,2.50
27.7810,0.07,0.10,-0.99,2.99,3.54,2.44
27.7950,0.07,0.09,-0.99,3.23,3.78,2.56
27.8130,0.07,0.09,-0.99,3.17,3.91,2.62
27.8310,0.07,0.10,-0.99,2.93,3.66,2.50
27.8470,0.07,0.10,-0.99,2.93,3.54,2.50
27.8650,0.07,0.10,-0.99,3.11,3.78,2.56
27.8810,0.07,0.10,-0.99,2.87,3.54,2.44
27.8970,0.07,0.10,-0.99,2.93,3.30,2.50
27.9130,0.07,0.10,-0.99,2.99,3.72,2.62
27.9300,0.07,0.10,-0.99,2.87,3.91,2.62
27.9310,0.07,0.09,-0.99,2.99,3.36,2.44
27.9620,0.07,0.09,-0.99,2.87,3.72,2.69
27.9650,0.07,0.10,-0.99,2.87,3.66,2.62
27.9810,0.07,0.10,-0.99,2.93,3.54,2.56
27.9960,0.07,0.10,-0.99,3.11,3.78,2.62
28.0190,0.07,0.10,-0.99,3.23,3.78,2.62
28.0350,0.07,0.10,-0.99,3.17,3.78,2.50
28.0530,0.07,0.09,-0.99,3.05,4.03,2.56
28.0680,0.07,0.10,-0.99,3.05,3.66,2.56
28.0830,0.07,0.10,-0.99,2.93,3.48,2.62
28.0990,0.07,0.10,-0.99,2.93,3.60,2.99
28.1150,0.07,0.10,-0.99,2.87,3.54,2.62
28.1300,0.07,0.10,-0.99,2.99,4.03,2.99
28.1460,0.07,0.10,-0.99,3.05,3.91,2.87
28.1520,0.07,0.10,-0.99,3.11,3.91,2.62
28.1680,0.07,0.10,-0.99,3.11,4.39,2.44
28.1880,0.07,0.10,-0.99,2.87,3.85,2.50
28.2050,0.07,0.10,-0.99,3.05,3.60,3.30
28.2210,0.07,0.10,-0.99,2.99,4.21,2.81
28.2370,0.07,0.09,-0.99,3.05,3.91,2.69
28.2530,0.07,0.09,-0.99,2.99,3.72,2.44
28.2690,0.07,0.10,-0.99,2.87,3.36,2.38
28.2810,0.07,0.10,-0.99,2.93,3.60,2.38
28.2920,0.07,0.10,-0.99,2.87,3.78,2.50
28.3130,0.07,0.10,-0.99,2.93,3.48,2.44
28.3290,0.07,0.10,-0.99,2.81,4.09,2.62
28.3450,0.07,0.10,-0.99,2.93,3.85,2.56
28.3620,0.07,0.09,-0.99,3.17,3.60,2.87
28.3630,0.07,0.09,-0.99,2.99,3.85,2.75
28.3930,0.07,0.10,-0.99,2.99,3.17,2.44
28.4100,0.07,0.10,-0.99,3.11,3.85,2.50
28.4250,0.07,0.10,-0.99,3.05,4.39,2.62
28.4420,0.07,0.10,-0.99,2.93,3.85,2.56
28.4570,0.07,0.10,-0.99,3.17,3.72,2.81
28.4620,0.07,0.10,-0.99,2.93,3.97,2.93
28.4810,0.07,0.09,-0.99,3.05,3.54,2.75
28.5020,0.07,0.09,-0.99,2.99,3.54,2.69
28.5180,0.07,0.10,-0.99,3.11,3.78,2.50
28.5340,0.07,0.10,-0.99,2.93,3.66,2.50
28.5500,0.07,0.11,-0.99,3.05,3.91,2.62
28.5660,0.07,0.10,-0.99,3.23,3.66,3.17
28.5810,0.07,0.09,-0.99,3.11,3.78,3.11
28.5970,0.07,0.09,-0.99,2.93,3.72,2.99
28.6130,0.07,0.09,-0.99,3.17,3.91,2.62
28.6280,0.07,0.10,-0.99,3.11,3.66,2.56
28.6440,0.07,0.10,-0.99,3.17,4.15,2.56
28.6590,0.07,0.10,-0.99,2.87,3.85,2.81
28.6680,0.07,0.11,-0.99,2.93,3.36,2.99
28.6840,0.07,0.10,-0.99,3.11,3.78,3.17
28.7060,0.06,0.09,-0.99,2.93,3.78,2.87
28.7210,0.07,0.09,-0.99,3.05,3.54,2.56
28.7370,0.07,0.10,-0.99,2.99,3.60,2.56
28.7530,0.07,0.10,-0.99,2.93,4.27,2.81
28.7680,0.07,0.10,-0.99,2.99,4.15,2.99
28.7830,0.07,0.10,-0.99,3.11,4.03,2.93
28.7970,0.07,0.09,-0.99,3.05,3.78,2.93
28.8070,0.06,0.10,-0.99,2.93,3.42,2.69
28.8240,0.07,0.10,-0.99,2.69,3.30,2.87
28.8430,0.07,0.10,-0.99,3.11,3.85,2.87
28.8600,0.07,0.10,-0.99,3.17,4.03,2.99
28.8750,0.07,0.10,-0.99,3.05,4.03,3.05
28.8910,0.07,0.10,-0.99,2.87,3.85,2.99
28.8950,0.07,0.10,-0.99,2.99,3.91,3.23
28.9110,0.07,0.09,-1.00,2.93,3.66,3.54
28.9260,0.07,0.10,-0.99,3.05,3.91,3.48
28.9490,0.06,0.10,-0.99,2.93,3.97,3.66
28.9650,0.07,0.10,-0.99,2.93,4.33,4.03
28.9820,0.07,0.10,-0.99,2.81,4.33,4.09
29.0000,0.06,0.09,-0.99,3.11,4.82,4.82
29.0150,0.06,0.09,-0.99,3.05,4.33,4.21
29.0300,0.06,0.09,-0.99,2.99,3.72,3.60
29.0360,0.06,0.09,-0.99,2.93,3.91,3.17
29.0520,0.06,0.09,-0.99,2.87,4.03,2.93
29.0760,0.06,0.09,-0.99,2.81,4.09,2.99
29.0920,0.06,0.10,-0.99,2.99,4.03,2.99
29.1080,0.06,0.10,-0.99,2.75,4.15,2.99
29.1230,0.06,0.10,-0.99,2.99,3.97,3.05
29.1250,0.06,0.10,-0.99,2.99,3.85,3.23
29.1410,0.06,0.09,-0.99,2.93,3.54,2.87
29.1700,0.06,0.09,-0.99,3.11,3.36,2.81
29.1850,0.06,0.09,-0.99,2.87,3.66,2.75
29.1960,0.06,0.10,-0.99,2.99,3.78,2.62
29.2120,0.06,0.10,-0.99,2.87,3.60,2.62
29.2290,0.06,0.11,-0.99,2.75,3.72,3.11
29.2460,0.06,0.10,-0.99,2.93,3.97,3.36
29.2620,0.06,0.10,-0.99,2.81,3.48,3.05
29.2780,0.06,0.09,-0.99,3.17,3.48,2.87
29.2930,0.06,0.10,-0.99,2.87,3.48,2.69
29.3080,0.06,0.10,-0.99,2.87,3.60,2.81
29.3240,0.07,0.10,-0.99,2.93,4.15,3.30
29.3290,0.06,0.10,-0.99,2.87,4.21,3.30
29.3460,0.06,0.09,-0.99,3.17,3.60,3.30
29.3680,0.07,0.09,-0.99,2.99,3.48,2.93
29.3850,0.06,0.09,-0.99,3.17,3.60,2.81
29.4020,0.07,0.09,-0.99,3.11,3.42,2.62
29.4170,0.06,0.10,-0.99,2.99,3.91,2.81
29.4330,0.06,0.10,-0.99,2.99,3.91,3.23
29.4480,0.06,0.10,-0.99,2.87,3.66,3.23
29.4650,0.06,0.10,-0.99,2.81,3.54,3.42
29.4800,0.06,0.09,-0.99,3.05,3.72,2.99
29.4950,0.07,0.09,-0.99,3.11,3.66,2.87
29.5110,0.06,0.10,-0.99,2.93,3.66,2.75
29.5290,0.06,0.10,-0.99,3.11,3.78,2.99
29.5440,0.06,0.10,-0.99,3.17,3.54,3.11
29.5510,0.06,0.10,-0.99,2.99,4.09,3.30
29.5670,0.06,0.09,-0.99,2.87,3.11,3.11
29.5900,0.06,0.09,-0.99,2.93,2.87,2.87
29.6060,0.06,0.09,-0.99,2.87,3.30,2.56
29.6220,0.07,0.10,-0.99,3.05,3.42,2.69
29.6380,0.07,0.10,-0.99,3.11,3.85,2.69
29.6540,0.06,0.10,-0.99,2.93,3.91,2.93
29.6690,0.06,0.10,-0.99,2.99,3.42,2.81
29.6840,0.06,0.10,-0.99,3.05,3.36,2.81
29.6980,0.06,0.09,-0.99,2.93,3.54,2.69
29.7060,0.06,0.10,-0.99,2.81,3.17,2.56
29.7280,0.06,0.10,-0.99,3.05,3.78,2.62
29.7390,0.06,0.10,-0.99,3.05,3.97,2.81
29.7550,0.07,0.10,-0.99,3.05,3.66,2.62
29.7720,0.06,0.10,-0.99,3.17,3.72,2.75
29.7890,0.07,0.10,-0.99,3.05,3.11,2.81
29.8050,0.07,0.09,-0.99,2.93,3.23,2.62
29.8210,0.06,0.10,-0.99,3.17,3.66,2.62
29.8360,0.06,0.09,-0.99,3.05,3.72,2.56
29.8510,0.06,0.10,-0.99,2.99,3.91,2.62
29.8660,0.07,0.10,-0.99,3.11,3.85,2.81
29.8820,0.06,0.10,-0.99,2.99,3.66,2.56
29.8960,0.06,0.10,-0.99,3.11,3.54,2.75
29.9110,0.06,0.10,-0.99,3.05,3.60,2.62
29.9230,0.06,0.10,-0.99,2.99,3.54,2.50
29.9400,0.06,0.10,-0.99,3.23,3.54,2.75
29.9550,0.06,0.10,-0.99,3.05,3.66,2.62
29.9720,0.07,0.10,-0.99,2.93,3.72,2.62
29.9880,0.07,0.10,-0.99,2.99,3.66,2.69
30.0050,0.06,0.10,-0.99,3.17,3.60,2.56
30.0210,0.06,0.10,-0.99,3.11,3.72,2.44
30.0370,0.06,0.10,-0.99,3.17,3.85,2.69
30.0530,0.06,0.10,-0.99,3.05,3.78,2.69
30.0680,0.07,0.10,-0.99,3.17,3.66,2.75
30.0840,0.06,0.09,-0.99,2.99,3.85,2.50
30.0890,0.07,0.10,-0.99,3.05,3.42,2.44
30.1050,0.07,0.10,-0.99,3.05,3.60,2.44
30.1260,0.07,0.10,-0.99,3.05,3.66,2.44
30.1420,0.06,0.10,-0.99,2.99,3.66,2.56
30.1590,0.07,0.10,-0.99,2.99,4.03,2.69
30.1750,0.06,0.10,-0.99,3.11,3.91,2.62
30.1900,0.06,0.10,-0.99,3.30,3.91,2.87
30.2060,0.07,0.10,-0.99,3.23,3.78,2.81
30.2220,0.07,0.10,-0.99,3.36,3.91,2.93
30.2260,0.06,0.10,-0.99,2.93,3.54,2.81
30.2410,0.06,0.10,-0.99,3.17,3.85,2.75
30.2650,0.06,0.10,-0.99,3.11,3.85,2.62
30.2830,0.06,0.10,-0.99,2.99,3.54,2.56
30.2980,0.06,0.10,-0.99,2.93,3.54,2.75
30.3140,0.06,0.10,-0.99,2.99,3.72,2.50
30.3310,0.06,0.10,-0.99,3.11,3.91,2.56
30.3460,0.07,0.10,-0.99,2.69,3.78,2.44
30.3610,0.07,0.10,-0.99,2.99,3.48,2.62
30.3650,0.06,0.10,-0.99,3.30,3.54,2.50
30.3830,0.06,0.10,-0.99,2.87,3.60,2.50
30.4040,0.06,0.09,-0.99,2.93,3.54,2.62
30.4200,0.07,0.09,-0.99,2.81,3.48,2.50
30.4370,0.07,0.10,-0.99,3.05,3.72,2.50
30.4530,0.07,0.10,-0.99,3.11,3.23,2.32
30.4690,0.07,0.10,-0.99,3.23,3.60,2.44
30.4840,0.07,0.10,-0.99,3.17,3.72,2.81
30.4990,0.07,0.10,-0.99,3.05,3.85,2.62
30.5140,0.06,0.10,-0.99,3.05,3.78,2.62
30.5290,0.06,0.11,-0.99,2.93,3.42,2.87
30.5370,0.06,0.10,-0.99,3.05,3.78,2.87
30.5520,0.06,0.09,-0.99,3.05,3.78,2.81
30.5740,0.07,0.09,-0.99,3.23,3.48,2.62
30.5890,0.07,0.10,-0.99,2.99,3.72,2.62
30.6060,0.07,0.10,-0.99,2.93,3.85,2.50
30.6220,0.07,0.10,-0.99,2.99,3.97,2.50
30.6370,0.06,0.10,-0.99,2.87,3.78,2.56
30.6520,0.06,0.10,-0.99,2.93,3.85,2.62
30.6680,0.06,0.10,-0.99,2.87,3.48,2.75
30.6830,0.06,0.10,-0.99,2.75,3.42,2.56
30.6900,0.07,0.09,-0.99,2.93,3.54,2.50
30.7060,0.07,0.10,-0.99,2.99,3.60,2.56
30.7270,0.07,0.10,-0.99,2.93,3.66,2.44
30.7420,0.07,0.10,-0.99,2.93,3.85,2.62
30.7580,0.07,0.10,-0.99,3.05,3.54,2.62
30.7740,0.07,0.10,-1.00,2.81,3.30,2.62
30.7840,0.06,0.10,-0.99,2.93,4.03,2.62
30.7930,0.07,0.10,-0.99,2.87,3.48,2.50
30.8100,0.07,0.10,-0.99,2.87,3.48,2.69
30.8260,0.07,0.09,-0.99,3.11,3.60,2.62
30.8470,0.07,0.10,-0.99,2.99,3.72,2.56
30.8630,0.07,0.10,-0.99,3.05,3.72,2.56
30.8810,0.07,0.10,-0.99,2.87,3.60,2.62
30.8840,0.06,0.11,-0.99,2.75,3.42,2.56
30.9130,0.06,0.10,-0.99,2.93,3.66,2.87
30.9140,0.06,0.09,-0.99,2.99,3.54,2.81
30.9440,0.07,0.09,-0.99,3.05,3.66,2.62
30.9600,0.06,0.10,-0.99,2.93,3.60,2.50
30.9630,0.07,0.10,-0.99,2.93,3.72,2.56
30.9840,0.07,0.10,-0.99,2.93,3.36,2.56
31.0050,0.07,0.09,-0.99,3.05,3.72,2.69
31.0170,0.07,0.09,-0.99,2.99,3.78,2.62
31.0340,0.07,0.10,-0.99,2.93,3.30,2.62
31.0500,0.06,0.10,-0.99,3.11,3.36,2.50
31.0660,0.06,0.10,-0.99,2.87,3.66,2.62
31.0810,0.06,0.10,-0.99,3.05,3.91,2.81
31.0970,0.06,0.10,-0.99,2.99,3.91,2.93
31.1130,0.07,0.09,-0.99,2.93,3.66,2.99
31.1170,0.07,0.10,-0.99,2.99,3.66,2.50
31.1330,0.07,0.10,-0.99,2.93,3.66,2.62
31.1550,0.07,0.10,-0.99,3.11,3.78,2.81
31.1710,0.07,0.10,-0.99,2.93,4.09,2.81
31.1880,0.07,0.10,-0.99,3.05,3.85,2.87
31.2050,0.06,0.10,-0.99,2.99,3.78,2.93
31.2210,0.07,0.09,-0.99,2.99,3.36,2.87
31.2360,0.07,0.09,-0.99,3.11,3.36,2.75
31.2520,0.07,0.10,-0.99,2.93,3.60,2.56
31.2680,0.07,0.10,-0.99,2.93,3.78,2.69
31.2830,0.07,0.10,-0.99,3.05,3.91,2.75
31.2880,0.07,0.10,-0.99,2.87,3.85,2.69
31.3040,0.07,0.10,-0.99,3.11,3.91,3.17
31.3290,0.07,0.09,-0.99,2.93,3.78,2.99
31.3410,0.07,0.09,-0.99,2.99,3.85,2.69
31.3570,0.07,0.10,-0.99,2.99,3.85,2.75
31.3740,0.07,0.10,-0.99,2.99,3.97,2.69
31.3900,0.07,0.10,-0.99,3.05,3.72,2.69
31.4050,0.07,0.10,-0.99,2.87,3.97,2.87
31.4070,0.07,0.10,-0.99,3.05,3.60,2.69
31.4230,0.07,0.10,-0.99,2.99,4.03,2.62
31.4450,0.07,0.10,-0.99,2.87,3.66,2.69
31.4620,0.07,0.10,-0.99,3.05,3.85,2.81
31.4780,0.07,0.10,-0.99,2.93,3.97,2.87
31.4960,0.07,0.10,-0.99,2.99,3.85,2.99
31.5110,0.07,0.10,-0.99,3.17,3.60,2.69
31.5130,0.06,0.10,-0.99,2.99,3.85,2.75
31.5440,0.07,0.10,-0.99,2.87,3.78,2.87
31.5600,0.07,0.10,-0.99,3.05,3.91,2.87
31.5760,0.07,0.10,-0.99,2.75,3.91,2.75
31.5920,0.07,0.10,-0.99,3.05,3.78,2.75
31.6060,0.07,0.09,-0.99,3.05,3.72,2.93
31.6220,0.07,0.10,-0.99,3.05,3.66,2.69
31.6380,0.07,0.10,-0.99,2.99,3.66,2.75
31.6530,0.07,0.10,-0.99,2.99,3.97,2.56
31.6620,0.07,0.10,-0.99,3.05,3.78,2.99
31.6780,0.07,0.10,-0.99,2.87,3.78,3.17
31.6990,0.07,0.09,-0.99,3.11,3.91,3.36
31.7150,0.07,0.10,-0.99,2.93,3.97,2.81
31.7190,0.06,0.10,-0.99,3.11,3.66,3.05
31.7350,0.06,0.10,-0.99,3.11,3.66,2.93
31.7570,0.07,0.10,-0.99,3.05,3.72,2.93
31.7750,0.07,0.10,-0.99,3.05,3.72,2.87
31.7850,0.06,0.10,-0.99,2.93,4.09,2.93
31.8050,0.06,0.10,-0.99,2.99,3.91,3.11
31.8120,0.07,0.10,-0.99,2.99,3.54,3.11
31.8290,0.07,0.10,-0.99,3.05,3.78,3.11
31.8450,0.06,0.10,-0.99,2.93,3.72,2.93
31.8680,0.07,0.10,-0.99,3.05,3.42,3.05
31.8830,0.06,0.10,-0.99,2.99,3.54,2.62
31.8980,0.07,0.10,-0.99,3.05,3.78,2.81
31.9130,0.07,0.10,-0.99,2.99,3.66,3.23
31.9300,0.07,0.10,-0.99,2.93,3.66,3.17
31.9460,0.07,0.10,-0.99,3.11,3.48,2.81
31.9610,0.07,0.09,-0.99,2.87,3.66,3.11
31.9760,0.07,0.09,-0.99,3.05,3.54,2.81
31.9850,0.07,0.10,-0.99,2.87,3.78,2.75
32.0010,0.06,0.10,-0.99,3.05,3.66,2.81
32.0220,0.06,0.10,-0.99,2.93,3.78,3.23
32.0380,0.06,0.10,-0.99,3.05,3.78,3.42
32.0540,0.07,0.09,-0.99,2.93,3.91,3.36
32.0700,0.07,0.09,-0.99,3.11,3.23,2.93
32.0840,0.06,0.10,-0.99,2.87,4.09,2.75
32.0990,0.07,0.10,-0.99,2.99,3.54,2.69
32.1130,0.07,0.10,-0.99,3.11,3.66,2.75
32.1290,0.07,0.10,-0.99,3.05,3.78,2.93
32.1440,0.06,0.10,-0.99,2.87,3.54,3.05
32.1550,0.06,0.10,-0.99,3.17,3.97,3.11
32.1720,0.06,0.10,-0.99,2.87,3.66,3.05
32.1890,0.07,0.09,-0.99,2.99,3.54,3.23
32.2060,0.06,0.10,-0.99,2.87,3.72,2.87
32.2220,0.07,0.10,-0.99,2.99,3.72,2.81
32.2380,0.07,0.10,-0.99,3.05,3.54,2.50
32.2540,0.07,0.10,-0.99,2.93,3.60,2.75
32.2700,0.07,0.10,-0.99,2.99,3.66,2.99
32.2840,0.07,0.09,-0.99,3.11,3.30,2.99
32.2990,0.06,0.09,-0.99,2.99,3.66,3.05
32.3050,0.06,0.09,-0.99,2.87,3.48,2.81
32.3210,0.07,0.10,-0.99,2.87,3.85,2.81
32.3440,0.07,0.10,-0.99,3.11,4.09,2.81
32.3600,0.07,0.10,-0.99,3.17,3.36,2.93
32.3770,0.07,0.10,-0.99,2.81,3.91,2.87
32.3920,0.06,0.10,-0.99,3.23,3.66,2.69
32.3950,0.07,0.10,-0.99,2.87,3.78,2.75
32.4100,0.07,0.10,-0.99,3.11,3.66,3.11
32.4260,0.06,0.10,-0.99,2.99,3.54,3.05
32.4490,0.07,0.10,-0.99,3.05,3.36,3.11
32.4650,0.07,0.09,-0.99,2.93,3.78,2.93
32.4810,0.06,0.09,-0.99,3.11,3.66,3.05
32.4980,0.06,0.10,-0.99,2.99,3.60,2.93
32.5140,0.07,0.10,-0.99,3.11,3.85,2.93
32.5300,0.07,0.10,-0.99,2.99,3.66,3.05
32.5460,0.07,0.10,-0.99,3.05,3.91,3.11
32.5620,0.06,0.10,-0.99,2.93,3.66,3.05
32.5780,0.07,0.10,-0.99,2.87,3.54,3.11
32.5940,0.07,0.09,-0.99,3.17,3.72,3.11
32.6090,0.07,0.09,-0.99,2.93,3.48,2.99
32.6240,0.07,0.10,-0.99,3.11,3.72,2.93
32.6360,0.07,0.10,-0.99,3.05,3.97,3.11
32.6520,0.07,0.10,-0.99,3.05,3.66,2.87
32.6690,0.07,0.10,-0.99,3.17,3.97,3.23
32.6860,0.06,0.10,-0.99,2.99,3.72,3.17
32.7010,0.07,0.09,-0.99,3.05,3.72,3.30
32.7160,0.06,0.09,-0.99,2.99,3.60,3.05
32.7310,0.07,0.10,-0.99,3.17,3.66,3.23
32.7470,0.06,0.10,-0.99,2.99,4.09,3.30
32.7630,0.06,0.10,-0.99,3.17,3.54,3.23
32.7780,0.07,0.10,-0.99,3.11,4.09,3.11
32.7930,0.07,0.10,-0.99,2.93,3.60,3.36
32.8020,0.06,0.10,-0.99,3.05,3.66,3.30
32.8180,0.06,0.09,-0.99,2.93,3.66,3.17
32.8400,0.07,0.10,-0.99,3.05,3.97,2.93
32.8420,0.06,0.10,-0.99,2.99,3.97,2.87
32.8720,0.07,0.10,-0.99,3.11,3.78,2.81
32.8880,0.07,0.10,-0.99,3.05,3.78,2.81
32.9040,0.07,0.10,-0.99,2.93,3.66,2.75
32.9200,0.06,0.10,-0.99,3.11,3.66,2.93
32.9350,0.06,0.10,-0.99,2.99,3.66,3.05
32.9490,0.06,0.10,-0.99,2.87,3.66,2.99
32.9570,0.06,0.09,-0.99,2.93,3.78,3.17
32.9730,0.06,0.10,-0.99,3.11,3.91,2.99
32.9950,0.07,0.10,-0.99,3.05,3.85,2.75
33.0110,0.07,0.10,-0.99,3.05,3.42,2.99
33.0260,0.07,0.10,-0.99,3.30,3.54,2.99
33.0420,0.07,0.09,-0.99,2.99,3.66,3.23
33.0580,0.06,0.09,-0.99,2.99,3.85,3.17
33.0630,0.07,0.10,-0.99,3.17,3.78,3.48
33.0890,0.07,0.09,-0.99,2.93,3.72,3.42
33.1040,0.07,0.09,-0.99,3.11,3.48,2.87
33.1130,0.07,0.10,-0.99,2.99,3.72,2.75
33.1300,0.07,0.10,-0.99,2.99,3.97,2.87
33.1480,0.06,0.10,-0.99,2.87,3.72,3.05
33.1640,0.07,0.09,-0.99,2.99,3.78,3.78
33.1800,0.06,0.09,-0.99,3.05,3.91,3.36
33.1960,0.06,0.09,-0.99,2.99,3.78,3.23
33.1980,0.06,0.10,-0.99,3.11,3.72,3.05
33.2280,0.07,0.10,-0.99,2.87,3.78,3.23
33.2430,0.07,0.10,-0.99,3.05,3.54,3.05
33.2590,0.07,0.10,-0.99,3.11,3.78,3.17
33.2650,0.07,0.10,-0.99,2.99,3.60,3.54
33.2850,0.07,0.10,-0.99,2.87,3.85,3.72
33.3010,0.06,0.09,-0.99,2.93,3.48,3.85
33.3180,0.06,0.09,-0.99,3.05,3.72,3.78
33.3330,0.06,0.10,-0.99,3.05,3.54,3.66
33.3490,0.06,0.10,-0.99,2.93,4.03,3.66
33.3650,0.06,0.10,-0.99,3.05,3.97,3.48
33.3680,0.07,0.10,-0.99,2.99,3.60,3.48
33.3850,0.07,0.10,-0.99,3.23,3.85,3.72
33.4060,0.06,0.09,-0.99,2.99,3.66,3.78
33.4230,0.06,0.09,-0.99,2.99,3.48,3.60
33.4390,0.06,0.09,-0.99,2.99,3.60,3.48
33.4570,0.06,0.10,-0.99,3.05,3.66,3.30
33.4730,0.06,0.10,-0.99,2.99,4.03,3.17
33.4890,0.07,0.10,-0.99,3.17,3.72,3.48
33.5060,0.06,0.10,-0.99,2.93,3.48,3.54
33.5220,0.06,0.09,-0.99,2.99,3.42,3.48
33.5380,0.06,0.09,-0.99,3.05,3.23,3.17
33.5540,0.06,0.09,-0.99,2.99,3.17,2.81
33.5680,0.06,0.10,-0.99,2.99,3.66,2.87
33.5830,0.06,0.10,-0.99,3.05,3.60,2.75
33.5990,0.07,0.10,-0.99,2.81,3.60,2.93
33.6130,0.06,0.10,-0.99,2.93,3.72,2.99
33.6280,0.06,0.10,-0.99,2.81,3.72,3.17
33.6390,0.07,0.09,-0.99,2.93,3.30,2.93
33.6560,0.07,0.09,-0.99,3.05,3.30,3.05
33.6730,0.06,0.10,-0.99,3.05,3.66,2.81
33.6890,0.06,0.10,-0.99,2.93,3.78,2.93
33.7060,0.06,0.10,-0.99,3.05,3.72,2.93
33.7220,0.06,0.10,-0.99,3.05,3.85,2.93
33.7380,0.06,0.10,-0.99,2.93,3.54,2.93
33.7540,0.06,0.10,-0.99,2.87,3.60,2.99
33.7700,0.07,0.09,-0.99,2.99,3.72,2.99
33.7840,0.06,0.10,-0.99,3.11,3.60,2.87
33.7890,0.07,0.10,-0.99,3.11,3.54,2.99
33.8050,0.06,0.10,-0.99,2.99,3.66,3.05
33.8270,0.06,0.10,-0.99,2.99,3.42,3.05
33.8440,0.06,0.10,-0.99,3.11,3.78,3.05
33.8610,0.06,0.10,-0.99,3.05,3.85,2.81
33.8770,0.07,0.10,-0.99,3.05,3.97,2.99
33.8920,0.07,0.09,-0.99,3.30,3.54,2.99
33.8950,0.06,0.09,-0.99,3.05,3.85,2.93
33.9220,0.06,0.10,-0.99,2.99,3.72,2.81
33.9370,0.06,0.10,-0.99,2.93,3.42,2.56
33.9450,0.07,0.10,-0.99,2.93,3.23,2.75
33.9660,0.07,0.10,-0.99,2.99,3.91,3.05
33.9770,0.06,0.10,-0.99,3.05,4.21,3.23
33.9940,0.06,0.10,-0.99,3.17,4.15,3.17
34.0110,0.06,0.10,-0.99,2.87,3.36,2.93
34.0270,0.07,0.09,-0.99,2.99,3.72,2.93
34.0430,0.07,0.09,-0.99,2.93,3.66,2.93
34.0580,0.07,0.09,-0.99,2.93,3.78,2.87
34.0730,0.07,0.10,-0.99,3.11,3.72,2.81
34.0860,0.07,0.10,-0.99,2.87,3.48,2.99
34.0930,0.07,0.10,-0.99,2.87,3.54,3.36
34.1170,0.07,0.10,-1.00,3.05,3.66,3.17
34.1330,0.06,0.10,-0.99,2.99,4.03,3.48
34.1490,0.07,0.10,-0.99,2.99,3.72,3.36
34.1640,0.06,0.09,-0.99,2.93,3.85,3.36
34.1810,0.07,0.10,-0.99,2.93,3.60,2.99
34.1950,0.06,0.10,-0.99,2.87,3.85,2.99
34.2120,0.06,0.10,-0.99,2.87,3.66,3.05
34.2280,0.07,0.10,-0.99,2.87,3.30,3.11
34.2440,0.06,0.09,-0.99,2.87,3.42,3.05
34.2590,0.07,0.09,-0.99,2.81,3.78,2.93
34.2750,0.06,0.10,-0.99,2.99,3.42,2.69
34.2860,0.07,0.10,-0.99,2.93,4.03,2.87
34.3050,0.07,0.10,-0.99,2.99,4.21,3.11
34.3170,0.06,0.09,-0.99,3.05,3.60,2.99
34.3330,0.06,0.09,-0.99,2.93,3.42,3.11
34.3490,0.06,0.09,-0.99,2.99,3.60,2.69
34.3680,0.06,0.09,-0.99,3.05,3.78,2.62
34.3830,0.07,0.10,-0.99,2.93,3.78,2.62
34.3990,0.06,0.10,-0.99,2.93,3.72,2.87
34.4040,0.06,0.10,-0.99,2.87,3.48,3.05
34.4200,0.06,0.07,-0.99,2.99,3.48,2.93
34.4440,0.06,0.09,-0.99,3.11,3.23,2.87
34.4600,0.07,0.10,-0.99,2.81,3.78,2.75
34.4760,0.06,0.10,-0.99,3.23,3.48,2.81
34.4920,0.07,0.10,-0.99,2.93,3.48,2.99
34.4940,0.07,0.09,-0.99,3.05,3.36,2.81
34.5240,0.06,0.10,-0.99,2.93,3.30,3.11
34.5270,0.07,0.10,-0.99,2.93,3.30,3.17
34.5420,0.06,0.10,-0.99,2.99,3.54,3.17
34.5700,0.07,0.09,-0.99,2.87,3.60,3.17
34.5810,0.06,0.09,-0.99,3.11,3.78,2.99
34.5970,0.06,0.10,-0.99,2.99,3.97,2.75
34.6170,0.07,0.10,-0.99,2.99,3.48,2.93
34.6320,0.07,0.10,-0.99,2.93,3.72,3.17
34.6470,0.07,0.10,-0.99,2.99,3.72,2.99
34.6640,0.07,0.09,-0.99,2.93,3.72,2.99
34.6800,0.06,0.09,-0.99,3.17,4.03,3.36
34.6960,0.07,0.10,-1.00,3.17,3.17,2.81
34.7010,0.06,0.10,-0.99,3.17,4.03,2.75
34.7170,0.06,0.10,-0.99,2.99,3.48,2.99
34.7410,0.07,0.10,-0.99,2.93,3.72,2.81
34.7560,0.07,0.09,-0.99,2.87,3.78,2.87
34.7730,0.07,0.09,-0.99,2.93,3.05,2.50
34.7890,0.07,0.10,-0.99,2.87,3.72,2.75
34.8050,0.07,0.10,-0.99,2.81,3.78,2.69
34.8070,0.07,0.10,-0.99,2.81,3.30,2.50
34.8230,0.07,0.10,-0.99,3.17,3.72,2.87
34.8450,0.07,0.10,-0.99,2.99,3.78,2.93
34.8620,0.07,0.09,-0.99,2.93,3.60,2.93
34.8790,0.07,0.09,-0.99,2.99,3.54,2.75
34.8950,0.07,0.09,-0.99,3.17,3.54,2.69
34.9120,0.07,0.10,-0.99,3.11,3.91,2.69
34.9280,0.07,0.10,-0.99,2.69,3.54,2.44
34.9450,0.07,0.10,-0.99,2.93,3.23,2.56
34.9610,0.07,0.10,-0.99,2.99,3.48,2.81
34.9760,0.07,0.10,-0.99,3.05,3.78,3.05
34.9910,0.07,0.09,-0.99,3.23,3.48,2.99
35.0060,0.07,0.09,-0.99,3.23,3.54,2.87
35.0220,0.07,0.10,-0.99,3.17,3.66,2.69
35.0290,0.07,0.10,-0.99,3.11,3.72,2.62
35.0450,0.07,0.10,-0.99,2.99,3.42,2.75
35.0680,0.07,0.10,-0.99,3.05,3.48,3.11
35.0840,0.06,0.10,-0.99,2.99,3.48,3.17
35.0990,0.06,0.09,-0.99,2.87,3.36,2.87
35.1150,0.06,0.09,-0.99,3.11,3.66,2.87
35.1310,0.07,0.09,-0.99,3.23,3.78,2.81
35.1470,0.07,0.09,-0.99,3.17,3.54,2.69
35.1620,0.07,0.10,-0.99,3.11,4.03,2.62
35.1770,0.07,0.10,-0.99,3.17,3.97,2.56
35.1890,0.07,0.10,-0.99,3.05,3.91,2.62
35.2010,0.07,0.10,-0.99,2.99,3.66,2.69
35.2220,0.07,0.10,-0.99,3.11,3.85,2.69
35.2400,0.07,0.10,-0.99,3.11,3.72,2.93
35.2560,0.06,0.09,-0.99,3.11,3.78,2.81
35.2720,0.06,0.09,-0.99,3.17,3.54,2.81
35.2880,0.06,0.10,-0.99,3.11,4.09,2.75
35.3040,0.06,0.10,-0.99,3.17,4.15,2.62
35.3200,0.07,0.10,-0.99,2.99,3.66,2.75
35.3350,0.06,0.10,-0.99,2.99,3.91,2.81
35.3500,0.06,0.10,-0.99,2.93,3.48,2.99
35.3660,0.07,0.09,-0.99,2.93,3.42,3.17
35.3810,0.07,0.09,-0.99,2.87,3.48,3.05
35.3960,0.07,0.09,-0.99,2.81,3.48,2.75
35.4060,0.07,0.10,-0.99,2.99,3.60,2.81
35.4230,0.07,0.10,-0.99,2.93,3.85,3.11
35.4440,0.07,0.09,-0.99,3.05,3.36,3.11
35.4460,0.07,0.10,-0.99,3.05,3.85,2.87
35.4760,0.07,0.10,-0.99,3.05,3.91,2.87
35.4890,0.07,0.10,-0.99,2.93,3.72,3.17
35.4950,0.06,0.10,-0.99,2.87,3.48,3.42
35.5110,0.06,0.10,-0.99,2.93,3.60,3.42
35.5330,0.06,0.10,-0.99,2.99,3.72,3.23
35.5500,0.07,0.10,-0.99,2.99,3.66,2.99
35.5670,0.07,0.10,-0.99,3.05,3.23,2.87
35.5830,0.07,0.10,-0.99,2.99,3.66,2.87
35.5990,0.07,0.10,-0.99,2.93,3.72,2.99
35.6150,0.07,0.10,-0.99,2.93,3.85,3.23
35.6300,0.07,0.10,-0.99,3.11,3.36,3.36
35.6450,0.06,0.10,-0.99,2.81,3.66,2.99
35.6610,0.07,0.10,-0.99,2.99,3.42,2.87
35.6760,0.07,0.09,-0.99,3.05,3.78,3.17
35.6890,0.07,0.09,-0.99,2.99,3.91,2.87
35.6990,0.06,0.10,-0.99,2.99,4.03,2.81
35.7210,0.07,0.10,-0.99,3.05,4.03,2.81
35.7370,0.07,0.10,-0.99,2.99,3.72,3.30
35.7540,0.06,0.09,-0.99,3.05,3.85,3.42
35.7700,0.07,0.09,-0.99,2.99,3.85,3.05
35.7850,0.07,0.10,-0.99,3.05,3.60,2.75
35.7890,0.06,0.10,-0.99,2.81,3.66,3.11
35.8040,0.07,0.10,-0.99,3.05,3.66,3.17
35.8260,0.07,0.09,-0.99,2.93,3.36,3.11
35.8430,0.07,0.10,-0.99,2.99,3.85,2.81
35.8600,0.07,0.10,-0.99,3.11,3.85,2.93
35.8770,0.06,0.10,-0.99,3.05,3.30,3.17
35.8930,0.07,0.10,-0.99,2.93,3.97,3.30
35.9090,0.06,0.10,-0.99,2.81,3.54,3.05
35.9250,0.06,0.10,-0.99,2.99,3.42,3.05
35.9410,0.06,0.10,-0.99,3.11,3.91,3.05
35.9570,0.07,0.10,-0.99,2.93,3.54,3.11
35.9600,0.06,0.10,-0.99,2.99,3.30,3.54
35.9760,0.06,0.10,-0.99,3.05,3.48,3.42
35.9980,0.06,0.10,-0.99,2.93,3.36,3.48
36.0140,0.06,0.10,-0.99,3.05,3.97,3.36
36.0310,0.07,0.09,-0.99,2.93,3.66,3.17
36.0470,0.07,0.10,-0.99,2.87,4.03,3.36
36.0630,0.07,0.09,-1.00,3.05,3.48,3.30
36.0790,0.07,0.10,-0.99,3.05,3.72,3.11
36.0950,0.07,0.10,-0.99,3.05,3.85,3.11
36.1110,0.06,0.10,-0.99,3.05,3.42,3.17
36.1260,0.06,0.10,-0.99,3.05,3.85,3.05
36.1420,0.06,0.09,-0.99,2.99,3.60,3.17
36.1480,0.06,0.09,-0.99,2.93,3.78,3.11
36.1640,0.06,0.10,-0.99,3.23,3.72,3.11
36.1840,0.06,0.10,-0.99,3.11,3.42,3.05
36.2010,0.07,0.10,-0.99,2.93,3.36,2.99
36.2170,0.07,0.10,-0.99,2.99,2.87,2.99
36.2330,0.07,0.10,-0.99,2.93,3.66,3.23
36.2490,0.07,0.10,-0.99,3.17,3.36,3.23
36.2640,0.07,0.09,-0.99,3.05,3.36,3.23
36.2670,0.07,0.10,-0.99,2.99,3.54,3.23
36.2900,0.06,0.10,-0.99,3.05,3.66,3.30
36.3050,0.06,0.10,-0.99,2.93,3.85,3.36
36.3220,0.06,0.10,-0.99,2.99,3.66,3.42
36.3390,0.06,0.10,-0.99,3.05,3.60,3.11
36.3540,0.06,0.10,-0.99,2.99,3.54,3.48
36.3710,0.07,0.10,-0.99,3.05,3.48,3.54
36.3880,0.07,0.09,-0.99,2.87,3.66,3.30
36.4030,0.06,0.09,-0.99,2.93,3.60,3.05
36.4180,0.07,0.10,-0.99,2.99,3.42,3.05
36.4330,0.07,0.10,-0.99,3.17,3.54,3.36
36.4490,0.07,0.09,-0.99,2.87,3.72,3.17
36.4650,0.06,0.10,-0.99,2.99,3.48,2.93
36.4720,0.06,0.10,-0.99,2.99,3.42,3.05
36.4900,0.06,0.10,-0.99,2.93,3.85,3.17
36.5100,0.06,0.10,-0.99,2.87,3.60,3.23
36.5250,0.07,0.10,-0.99,2.81,3.97,3.17
36.5400,0.07,0.10,-0.99,2.81,3.66,3.30
36.5550,0.06,0.10,-0.99,2.93,3.36,3.36
36.5700,0.07,0.09,-0.99,3.11,3.60,3.23
36.5850,0.06,0.10,-0.99,2.93,3.48,2.99
36.5950,0.07,0.10,-0.99,2.99,3.36,2.99
36.6120,0.07,0.10,-0.99,2.81,3.42,3.05
36.6280,0.07,0.10,-0.99,2.87,3.42,3.11
36.6450,0.06,0.09,-0.99,2.87,3.85,3.23
36.6610,0.06,0.09,-0.99,2.99,3.66,2.81
36.6770,0.06,0.10,-0.99,3.11,3.72,2.75
36.6930,0.06,0.10,-0.99,2.87,3.78,2.87
36.7090,0.06,0.10,-0.99,2.99,3.72,2.81
36.7120,0.06,0.10,-1.00,3.05,3.48,2.93
36.7280,0.06,0.10,-0.99,2.81,3.66,3.05
36.7540,0.06,0.10,-0.99,2.87,3.36,3.05
36.7690,0.06,0.09,-0.99,3.30,3.42,3.05
36.7860,0.07,0.10,-0.99,3.05,3.48,2.81
36.8010,0.07,0.10,-0.99,2.99,4.15,3.05
36.8160,0.07,0.10,-0.99,2.87,3.97,3.11
36.8320,0.07,0.09,-0.99,2.87,3.91,3.36
36.8480,0.06,0.09,-0.99,3.11,3.72,2.99
36.8640,0.06,0.09,-0.99,3.11,3.85,2.75
36.8690,0.06,0.10,-0.99,2.99,3.66,2.81
36.8900,0.07,0.09,-0.99,2.99,3.60,2.93
36.9090,0.07,0.10,-0.99,2.87,3.60,2.81
36.9250,0.06,0.10,-0.99,3.17,3.48,2.99
36.9410,0.06,0.10,-0.99,2.93,3.60,2.93
36.9580,0.06,0.10,-0.99,3.05,3.60,2.75
36.9730,0.06,0.10,-0.99,2.87,3.48,3.05
36.9900,0.06,0.09,-0.99,2.87,3.54,2.87
37.0060,0.06,0.09,-0.99,2.93,3.30,2.69
37.0210,0.07,0.10,-0.99,2.99,3.42,2.62
37.0240,0.07,0.10,-0.99,2.99,3.42,2.50
37.0510,0.07,0.10,-0.99,2.93,3.30,2.75
37.0620,0.07,0.10,-0.99,3.17,3.85,2.75
37.0790,0.06,0.10,-0.99,3.05,4.03,2.93
37.0950,0.06,0.09,-0.99,2.93,3.66,3.05
37.1130,0.06,0.12,-0.99,2.93,3.72,2.93
37.1290,0.06,0.09,-0.99,2.81,3.48,2.75
37.1300,0.06,0.09,-0.99,3.05,3.23,2.81
37.1620,0.06,0.10,-0.99,2.81,4.15,2.75
37.1780,0.07,0.10,-0.99,2.99,3.72,2.75
37.1940,0.07,0.10,-0.99,3.11,3.60,2.87
37.2100,0.07,0.09,-0.99,2.99,3.85,3.11
37.2120,0.06,0.09,-0.99,2.99,3.78,2.81
37.2280,0.07,0.09,-0.99,2.99,3.72,2.99
37.2520,0.07,0.09,-0.99,2.99,3.78,2.93
37.2700,0.07,0.10,-0.99,2.87,3.48,2.81
37.2860,0.07,0.10,-0.99,3.17,3.54,2.81
37.3020,0.07,0.10,-0.99,3.11,3.60,2.81
37.3170,0.06,0.10,-0.99,2.93,4.09,2.81
37.3320,0.06,0.10,-0.99,2.93,3.54,2.87
37.3360,0.07,0.10,-0.99,2.87,3.72,2.56
37.3510,0.06,0.10,-0.99,2.99,3.60,2.81
37.3750,0.07,0.10,-0.99,3.17,3.78,2.93
37.3910,0.07,0.09,-1.00,3.05,3.48,3.11
37.4080,0.06,0.10,-0.99,3.05,3.48,2.75
37.4240,0.07,0.10,-0.99,2.81,3.48,2.81
37.4420,0.07,0.10,-0.99,3.05,3.60,2.99
37.4570,0.07,0.10,-0.99,3.05,3.60,2.81
37.4740,0.07,0.09,-0.99,3.11,3.72,3.05
37.4910,0.06,0.10,-0.99,2.93,3.91,2.75
37.5070,0.06,0.10,-0.99,2.99,3.72,2.75
37.5230,0.07,0.10,-0.99,2.93,3.78,2.69
37.5380,0.06,0.10,-0.99,3.11,3.78,2.99
37.5530,0.07,0.10,-0.99,2.93,3.60,2.87
37.5580,0.07,0.10,-0.99,2.99,3.66,2.93
37.5740,0.07,0.10,-0.99,2.93,3.48,2.75
37.5980,0.06,0.10,-0.99,3.11,3.42,2.93
37.6140,0.07,0.09,-0.99,2.99,3.30,2.87
37.6290,0.07,0.09,-0.99,2.99,3.48,2.93
37.6450,0.07,0.10,-0.99,2.99,3.48,2.87
37.6620,0.07,0.10,-0.99,2.87,3.36,2.93
37.6640,0.07,0.10,-0.99,2.99,3.23,2.87
37.6930,0.07,0.10,-0.99,3.23,3.54,2.87
37.7090,0.07,0.10,-0.99,3.11,3.91,2.87
37.7250,0.07,0.10,-0.99,2.99,3.85,3.11
37.7400,0.06,0.10,-0.99,2.87,3.91,2.93
37.7550,0.06,0.10,-0.99,2.99,3.66,2.99
37.7670,0.06,0.10,-0.99,2.81,3.42,2.93
37.7830,0.06,0.10,-0.99,3.05,3.36,2.99
37.7990,0.07,0.10,-0.99,2.75,3.60,3.05
37.8160,0.06,0.10,-0.99,2.99,3.97,3.17
37.8320,0.06,0.10,-0.99,3.11,3.66,3.11
37.8470,0.06,0.10,-0.99,2.93,3.42,3.11
37.8630,0.07,0.10,-0.99,3.11,3.48,3.11
37.8790,0.06,0.10,-0.99,3.05,3.54,2.87
37.8950,0.07,0.09,-0.99,2.81,3.42,2.93
37.9110,0.07,0.10,-0.99,3.05,3.30,2.87
37.9270,0.07,0.10,-0.99,3.17,3.36,3.05
37.9420,0.07,0.10,-0.99,3.11,3.42,2.93
37.9590,0.07,0.09,-0.99,2.87,3.36,2.93
37.9740,0.07,0.10,-0.99,3.05,3.54,2.75
37.9890,0.07,0.10,-0.99,3.05,3.66,2.62
38.0000,0.07,0.10,-0.99,3.05,3.42,2.93
38.0160,0.07,0.10,-0.99,3.11,3.36,2.93
38.0320,0.06,0.10,-0.99,2.87,3.42,2.87
38.0520,0.06,0.10,-0.99,3.11,3.85,2.99
38.0670,0.06,0.10,-0.99,3.05,3.36,2.93
38.0820,0.06,0.10,-0.99,2.99,3.85,3.05
38.0980,0.06,0.10,-0.99,3.05,3.72,2.99
38.1120,0.07,0.10,-0.99,2.93,3.72,3.05
38.1230,0.07,0.10,-0.99,2.99,3.23,3.05
38.1380,0.07,0.10,-0.99,2.99,3.48,3.23
38.1590,0.07,0.09,-0.99,2.93,3.72,3.23
38.1600,0.06,0.09,-0.99,2.99,3.48,3.17
38.1760,0.06,0.10,-0.99,2.93,3.60,2.93
38.1930,0.06,0.10,-0.99,2.93,3.72,2.93
38.2090,0.07,0.10,-0.99,3.05,3.60,2.99
38.2380,0.06,0.10,-0.99,2.81,3.85,3.30
38.2540,0.06,0.10,-0.99,2.93,3.60,3.30
38.2600,0.06,0.09,-0.99,2.93,3.42,3.23
38.2760,0.06,0.10,-0.99,3.05,3.42,3.05
38.2950,0.07,0.10,-0.99,3.11,3.66,3.17
38.3120,0.07,0.10,-0.99,2.99,3.60,3.05
38.3290,0.07,0.10,-0.99,2.99,3.42,3.42
38.3460,0.07,0.10,-0.99,2.81,3.30,3.36
38.3620,0.07,0.10,-0.99,3.11,3.30,3.42
38.3790,0.07,0.10,-0.99,2.81,3.36,3.17
38.3950,0.07,0.09,-0.99,2.93,3.42,3.23
38.4100,0.06,0.09,-0.99,3.05,3.78,3.23
38.4270,0.06,0.09,-0.99,3.23,3.85,2.93
38.4290,0.06,0.10,-0.99,2.93,3.60,2.99
38.4450,0.06,0.10,-0.99,2.93,3.54,2.99
38.4690,0.07,0.10,-0.99,2.99,3.66,3.05
38.4850,0.07,0.10,-0.99,2.93,3.48,3.11
38.5020,0.07,0.10,-0.99,3.30,3.54,3.23
38.5190,0.06,0.10,-0.99,2.93,3.85,3.48
38.5350,0.07,0.09,-0.99,3.17,3.48,3.48
38.5500,0.06,0.09,-0.99,2.87,3.42,3.54
38.5650,0.06,0.09,-0.99,2.87,3.97,3.42
38.5800,0.07,0.10,-0.99,2.99,3.17,3.17
38.5920,0.07,0.10,-0.99,2.87,3.36,3.23
38.6020,0.07,0.10,-0.99,2.87,3.78,3.42
38.6230,0.07,0.10,-0.99,2.87,3.36,3.36
38.6390,0.06,0.10,-0.99,3.11,3.66,3.36
38.6550,0.06,0.09,-0.99,3.11,3.66,3.42
38.6730,0.06,0.09,-0.99,2.99,3.30,3.42
38.6890,0.06,0.10,-0.99,2.99,3.36,3.17
38.7060,0.07,0.10,-0.99,2.99,3.60,2.93
38.7210,0.07,0.10,-0.99,2.93,3.36,3.05
38.7370,0.07,0.10,-0.99,2.81,3.48,3.42
38.7540,0.07,0.10,-0.99,3.17,3.42,3.48
38.7700,0.07,0.10,-1.00,2.99,3.72,3.60
38.7850,0.07,0.10,-0.99,2.93,3.42,3.60
38.8000,0.07,0.10,-0.99,3.11,4.09,3.78
38.8160,0.07,0.10,-0.99,3.11,3.30,4.09
38.8220,0.06,0.10,-0.99,2.87,3.91,4.03
38.8380,0.07,0.10,-0.99,3.11,3.54,3.54
38.8610,0.07,0.10,-0.99,2.93,3.36,3.54
38.8770,0.07,0.10,-0.99,2.87,3.66,3.91
38.8940,0.06,0.10,-0.99,3.05,3.78,3.85
38.9100,0.06,0.10,-0.99,2.81,3.36,3.54
38.9260,0.06,0.10,-0.99,3.05,3.23,3.05
38.9440,0.06,0.10,-0.99,3.11,3.72,2.93
38.9590,0.06,0.10,-0.99,2.93,3.85,2.93
38.9760,0.06,0.10,-0.99,2.99,3.78,2.75
38.9920,0.07,0.10,-0.99,2.99,3.23,2.87
39.0080,0.07,0.10,-0.99,2.75,3.66,2.99
39.0240,0.07,0.10,-0.99,3.05,3.85,3.11
39.0400,0.06,0.10,-0.99,2.99,3.78,3.17
39.0560,0.06,0.09,-0.99,3.05,3.66,3.23
39.0720,0.06,0.10,-0.99,2.93,3.54,2.99
39.0770,0.06,0.10,-0.99,3.05,3.60,2.99
39.0930,0.07,0.10,-0.99,2.93,3.72,2.99
39.1150,0.07,0.10,-0.99,2.93,3.48,2.87
39.1320,0.07,0.10,-0.99,2.87,3.42,3.11
39.1490,0.07,0.10,-0.99,3.05,3.85,3.48
39.1500,0.07,0.09,-0.99,2.87,3.48,3.66
39.1800,0.07,0.10,-0.99,2.99,3.42,3.30
39.1960,0.06,0.10,-0.99,3.11,3.42,3.30
39.2120,0.07,0.10,-0.99,2.93,3.85,2.87
39.2280,0.07,0.10,-0.99,3.11,3.91,2.62
39.2440,0.07,0.10,-0.99,2.93,3.66,2.56
39.2600,0.07,0.09,-0.99,3.11,3.72,2.50
39.2750,0.07,0.10,-0.99,3.05,3.60,2.38
39.2820,0.06,0.10,-0.99,3.30,3.36,2.32
39.2970,0.06,0.10,-0.99,3.23,3.78,2.38
39.3180,0.06,0.10,-0.99,2.87,3.66,2.44
39.3340,0.06,0.10,-0.99,3.23,3.91,2.44
39.3510,0.06,0.10,-0.99,3.11,2.93,2.38
39.3670,0.06,0.10,-0.99,2.93,3.66,2.50
39.3830,0.07,0.10,-0.99,2.99,3.42,2.56
39.3990,0.06,0.10,-0.99,2.99,3.78,2.81
39.4150,0.06,0.10,-0.99,2.75,3.72,2.81
39.4170,0.07,0.10,-0.99,2.99,3.48,2.75
39.4330,0.07,0.10,-0.99,2.93,3.42,2.62
39.4600,0.07,0.10,-0.99,2.93,3.42,2.87
39.4710,0.07,0.10,-0.99,2.93,3.54,2.93
39.4880,0.07,0.10,-0.99,2.93,3.60,2.69
39.5060,0.07,0.10,-0.99,3.05,3.48,2.93
39.5210,0.07,0.10,-0.99,2.99,3.60,3.17
39.5350,0.06,0.10,-0.99,2.93,3.36,3.17
39.5430,0.06,0.10,-0.99,2.93,3.42,3.30
39.5660,0.06,0.09,-0.99,2.87,3.36,3.23
39.5770,0.06,0.09,-0.99,3.17,3.60,2.93
39.5940,0.07,0.10,-0.99,2.81,3.72,2.50
39.6100,0.07,0.10,-0.99,3.05,3.60,2.69
39.6260,0.07,0.10,-0.99,2.99,3.42,2.81
39.6420,0.06,0.10,-0.99,2.99,3.60,2.87
39.6580,0.07,0.10,-0.99,3.11,3.48,2.62
39.6730,0.07,0.09,-0.99,3.05,3.48,2.99
39.6880,0.06,0.09,-0.99,2.93,3.30,2.99
39.7030,0.06,0.09,-0.99,2.93,3.72,2.75
39.7180,0.07,0.10,-0.99,2.99,3.54,2.50
39.7260,0.07,0.10,-0.99,2.93,3.30,2.62
39.7430,0.07,0.10,-0.99,2.81,3.72,2.81
39.7600,0.07,0.10,-0.99,2.99,3.60,2.81
39.7760,0.07,0.10,-0.99,3.11,3.72,2.81
39.7940,0.07,0.10,-0.99,3.17,3.48,2.99
39.8100,0.07,0.09,-0.99,2.99,3.42,3.11
39.8270,0.06,0.09,-0.99,2.99,3.60,2.93
39.8420,0.07,0.10,-0.99,3.11,3.91,2.81
39.8440,0.07,0.10,-0.99,3.23,3.66,2.62
39.8750,0.07,0.10,-0.99,2.99,3.54,2.87
39.8910,0.07,0.10,-0.99,3.17,3.30,2.87
39.8940,0.07,0.09,-0.99,3.17,3.66,2.81
39.9090,0.07,0.10,-0.99,2.93,3.66,2.81
39.9370,0.06,0.10,-0.99,2.99,3.30,2.87
39.9480,0.06,0.10,-0.99,3.11,3.66,2.50
39.9650,0.06,0.10,-0.99,2.87,3.30,2.32
39.9820,0.06,0.10,-0.99,3.05,3.48,2.44
39.9970,0.07,0.10,-0.99,3.23,3.48,2.50
40.0120,0.07,0.10,-0.99,3.11,3.30,2.44
40.0290,0.07,0.10,-0.99,3.05,3.60,2.32
40.0450,0.07,0.10,-0.99,3.17,3.54,2.44
40.0610,0.07,0.09,-0.99,2.93,3.36,2.69
40.0660,0.07,0.09,-0.99,2.93,3.72,2.69
40.0810,0.07,0.09,-0.99,2.75,3.48,2.62
40.1030,0.07,0.10,-0.99,2.81,3.72,2.56
40.1210,0.07,0.09,-0.99,2.93,3.54,2.62
40.1220,0.07,0.10,-0.99,2.93,3.54,2.69
40.1530,0.07,0.10,-0.99,3.11,3.48,2.81
40.1690,0.07,0.09,-0.99,3.11,3.91,2.69
40.1860,0.07,0.09,-0.99,2.99,3.48,2.81
40.2020,0.07,0.09,-0.99,3.17,3.54,2.56
40.2170,0.07,0.09,-0.99,2.99,3.66,2.44
40.2320,0.07,0.10,-0.99,2.93,3.54,2.62
40.2480,0.07,0.10,-0.99,2.99,3.85,2.69
40.2640,0.07,0.10,-0.99,3.30,3.36,2.56
40.2790,0.07,0.10,-0.99,2.81,3.72,2.75
40.2940,0.07,0.10,-0.99,2.99,3.91,2.38
40.3090,0.07,0.10,-0.99,2.99,3.60,2.50
40.3210,0.07,0.10,-0.99,2.93,3.17,2.50
40.3370,0.07,0.10,-0.99,2.99,3.54,2.50
40.3540,0.07,0.10,-0.99,2.87,3.72,2.56
40.3700,0.07,0.10,-0.99,3.36,3.48,2.99
40.3870,0.07,0.09,-0.99,2.93,3.60,3.17
40.4030,0.07,0.09,-0.99,2.93,3.48,2.87
40.4180,0.07,0.09,-0.99,2.99,3.78,2.81
40.4340,0.07,0.09,-0.99,3.11,3.54,2.56
40.4490,0.07,0.10,-0.99,3.11,3.42,2.56
40.4550,0.07,0.10,-0.99,2.87,3.48,2.81
40.4710,0.07,0.09,-0.99,2.87,3.30,2.99
40.4950,0.07,0.09,-0.99,2.87,3.60,2.75
40.5100,0.07,0.09,-0.99,2.87,3.54,2.69
40.5260,0.07,0.09,-0.99,3.17,4.03,2.62
40.5430,0.07,0.09,-0.99,3.05,3.72,2.56
40.5590,0.07,0.10,-0.99,2.99,3.30,2.38
40.5750,0.07,0.10,-0.99,2.93,3.54,2.26
40.5910,0.07,0.10,-0.99,2.99,3.48,2.32
40.5950,0.07,0.10,-0.99,2.87,3.42,2.69
40.6080,0.07,0.10,-0.99,3.05,3.78,2.81
40.6310,0.07,0.09,-0.99,2.99,3.42,2.69
40.6480,0.07,0.09,-0.99,3.05,3.78,2.62
40.6630,0.07,0.09,-0.99,3.11,3.48,2.56
40.6810,0.07,0.10,-0.99,2.81,3.78,2.56
40.6970,0.07,0.10,-0.99,2.93,3.48,2.87
40.7120,0.07,0.10,-0.99,3.23,3.72,2.75
40.7290,0.07,0.09,-0.99,2.99,3.66,3.05
40.7440,0.07,0.09,-0.99,3.05,3.72,2.81
40.7600,0.07,0.10,-0.99,3.05,3.54,2.62
40.7640,0.07,0.10,-0.99,3.11,3.23,2.69
40.7800,0.07,0.10,-0.99,3.05,3.54,2.62
40.8020,0.07,0.09,-0.99,3.11,3.85,2.69
40.8190,0.07,0.09,-0.99,2.87,3.48,2.62
40.8350,0.07,0.09,-0.99,3.11,3.54,2.56
40.8530,0.07,0.10,-0.99,3.05,3.36,2.44
40.8680,0.07,0.10,-0.99,2.93,3.60,2.50
40.8830,0.07,0.10,-0.99,3.17,3.78,2.44
40.8990,0.07,0.10,-0.99,3.11,3.78,2.50
40.9020,0.07,0.09,-0.99,2.87,3.85,2.44
40.9170,0.07,0.09,-0.99,3.11,3.60,2.38
40.9410,0.07,0.09,-0.99,3.05,3.54,2.44
40.9570,0.07,0.10,-0.99,2.81,3.48,2.50
40.9740,0.07,0.10,-0.99,3.30,3.72,2.44
40.9900,0.07,0.10,-0.99,3.23,3.66,2.69
41.0070,0.07,0.09,-0.99,3.17,3.78,2.56
41.0230,0.07,0.09,-0.99,3.11,3.60,2.44
41.0400,0.07,0.10,-0.99,3.05,3.48,2.44
41.0560,0.07,0.10,-0.99,2.93,3.97,2.69
41.0720,0.06,0.09,-0.99,3.30,3.91,2.62
41.0880,0.07,0.10,-0.99,3.11,3.48,2.50
41.1040,0.07,0.09,-0.99,3.17,3.17,2.38
41.1200,0.07,0.10,-0.99,3.11,3.78,2.44
41.1230,0.07,0.10,-0.99,3.11,3.17,2.69
41.1400,0.07,0.10,-0.99,3.11,3.42,2.69
41.1620,0.07,0.09,-0.99,3.17,3.78,2.93
41.1790,0.07,0.10,-0.99,2.87,3.85,2.69
41.1960,0.07,0.09,-0.99,2.99,3.48,2.62
41.2120,0.07,0.10,-0.99,2.87,3.66,2.50
41.2280,0.07,0.10,-0.99,2.99,3.66,2.62
41.2440,0.07,0.09,-0.99,2.99,3.91,2.75
41.2600,0.07,0.09,-0.99,2.87,3.78,2.69
41.2760,0.07,0.09,-0.99,3.11,3.60,2.62
41.2790,0.07,0.09,-0.99,3.11,3.42,2.62
41.2960,0.07,0.10,-0.99,2.99,3.72,2.62
41.3190,0.07,0.10,-0.99,3.17,3.72,2.75
41.3360,0.07,0.10,-0.99,2.99,3.78,2.75
41.3520,0.07,0.09,-0.99,3.05,3.54,2.93
41.3680,0.07,0.09,-0.99,3.23,3.54,2.69
41.3830,0.07,0.09,-0.99,3.11,3.48,2.62
41.3990,0.07,0.10,-0.99,3.05,3.66,2.50
41.4030,0.07,0.09,-0.99,2.93,3.72,2.62
41.4180,0.07,0.09,-0.99,3.17,3.72,2.75
41.4430,0.07,0.10,-0.99,2.99,3.42,2.75
41.4590,0.07,0.10,-0.99,2.99,3.78,2.50
41.4750,0.07,0.10,-0.99,3.05,3.78,2.62
41.4910,0.07,0.10,-0.99,3.05,3.78,2.81
41.4960,0.07,0.09,-0.99,2.93,3.66,2.81
41.5090,0.07,0.09,-0.99,2.87,3.91,2.81
41.5260,0.07,0.09,-0.99,2.99,4.09,2.75
41.5430,0.07,0.09,-0.99,3.11,3.66,2.56
41.5580,0.07,0.10,-0.99,2.93,3.66,2.56
41.5740,0.07,0.10,-0.99,2.99,3.78,2.62
41.6020,0.07,0.10,-0.99,3.17,3.42,2.87
41.6120,0.07,0.09,-0.99,2.81,3.72,2.99
41.6290,0.07,0.09,-0.99,3.17,3.72,2.81
41.6470,0.07,0.09,-0.99,2.99,3.72,2.81
41.6620,0.07,0.09,-0.99,3.05,3.48,2.75
41.6790,0.07,0.10,-0.99,2.99,3.48,2.50
41.6950,0.07,0.10,-0.99,3.05,3.36,2.69
41.6970,0.07,0.10,-0.99,3.11,3.91,2.93
41.7270,0.07,0.10,-0.99,2.87,3.78,2.93
41.7420,0.07,0.09,-0.99,2.99,3.48,2.99
41.7470,0.07,0.09,-0.99,2.93,3.48,2.93
41.7740,0.07,0.09,-0.99,2.99,3.72,2.62
41.7790,0.07,0.10,-0.99,2.93,3.30,2.50
41.7970,0.07,0.10,-0.99,2.93,3.66,2.62
41.8150,0.07,0.10,-0.99,3.17,3.85,2.93
41.8310,0.07,0.10,-0.99,3.17,3.54,2.87
41.8480,0.07,0.09,-0.99,3.05,3.97,2.87
41.8650,0.07,0.09,-0.99,3.11,3.78,2.93
41.8810,0.07,0.09,-0.99,3.23,3.97,2.87
41.8950,0.07,0.09,-0.99,3.11,3.78,2.69
41.9120,0.07,0.10,-0.99,3.17,3.91,2.56
41.9280,0.07,0.10,-0.99,3.05,3.72,2.50
41.9440,0.07,0.10,-0.99,3.05,3.97,2.93
41.9590,0.07,0.10,-0.99,3.17,3.54,2.93
41.9750,0.07,0.10,-0.99,2.99,3.60,2.81
41.9820,0.07,0.09,-0.99,2.99,3.54,2.69
42.0050,0.07,0.09,-0.99,3.11,3.72,2.81
42.0200,0.07,0.09,-0.99,2.99,3.85,2.56
42.0320,0.07,0.10,-0.99,3.11,3.48,2.38
42.0480,0.07,0.10,-0.99,3.17,3.48,2.32
42.0650,0.07,0.10,-0.99,2.99,3.66,2.81
42.0810,0.07,0.09,-0.99,3.17,3.85,2.93
42.0970,0.07,0.09,-0.99,3.11,3.91,2.56
42.1120,0.07,0.09,-0.99,3.11,3.54,2.50
42.1280,0.07,0.09,-0.99,2.99,3.60,2.69
42.1440,0.07,0.10,-0.99,3.11,3.66,2.56
42.1590,0.07,0.10,-0.99,3.05,4.03,2.50
42.1660,0.07,0.10,-0.99,3.23,3.85,2.56
42.1910,0.07,0.10,-0.99,3.17,3.85,2.32
42.2060,0.07,0.10,-0.99,3.30,3.66,2.44
42.2210,0.07,0.10,-0.99,3.05,3.66,2.44
42.2320,0.07,0.10,-0.99,3.11,3.78,2.38
42.2500,0.07,0.09,-0.99,3.36,4.09,2.50
42.2650,0.07,0.10,-0.99,3.05,3.97,2.69
42.2810,0.07,0.10,-0.99,3.05,3.54,2.50
42.2970,0.07,0.10,-0.99,2.81,3.91,2.32
42.2990,0.07,0.09,-0.99,3.23,3.23,2.81
42.3150,0.07,0.09,-0.99,3.11,3.78,2.81
42.3440,0.07,0.09,-0.99,3.23,3.42,2.26
42.3590,0.07,0.10,-0.99,3.17,3.54,2.26
42.3690,0.07,0.10,-0.99,2.99,3.78,2.32
42.3850,0.07,0.10,-0.99,3.17,3.66,2.32
42.4050,0.07,0.10,-0.99,2.93,3.78,2.26
42.4210,0.07,0.10,-0.99,2.75,3.48,2.32
42.4380,0.07,0.10,-0.99,2.99,3.60,2.26
42.4540,0.07,0.10,-0.99,3.05,3.54,2.32
42.4690,0.07,0.10,-0.99,3.23,3.54,2.26
42.4850,0.07,0.10,-0.99,2.87,4.03,2.26
42.5000,0.07,0.10,-0.99,2.99,3.85,2.32
42.5150,0.07,0.10,-0.99,2.93,3.48,2.38
42.5300,0.07,0.10,-0.99,2.99,3.42,2.32
42.5450,0.07,0.10,-0.99,3.05,3.85,2.38
42.5600,0.07,0.09,-0.99,2.87,3.72,2.38
42.5720,0.07,0.09,-0.99,3.17,3.97,2.32
42.5890,0.07,0.10,-0.99,2.93,3.54,2.26
42.6060,0.07,0.10,-0.99,3.11,3.60,2.20
42.6210,0.07,0.10,-0.99,2.99,3.91,2.26
42.6380,0.07,0.10,-0.99,3.11,3.54,2.32
42.6550,0.07,0.10,-0.99,3.23,3.54,2.26
42.6720,0.07,0.10,-0.99,3.17,3.91,2.26
42.6870,0.07,0.10,-0.99,2.87,3.97,2.38
42.7040,0.07,0.09,-0.99,2.99,3.85,2.44
42.7200,0.07,0.10,-0.99,3.05,3.72,2.38
42.7350,0.07,0.09,-0.99,3.17,3.72,2.38
42.7510,0.07,0.10,-0.99,3.17,3.36,2.26
42.7660,0.07,0.10,-0.99,2.99,3.78,2.38
42.7810,0.07,0.10,-0.99,3.11,3.66,2.38
42.7970,0.07,0.10,-0.99,2.87,4.09,2.44
42.8140,0.07,0.10,-0.99,3.05,3.66,2.32
42.8290,0.07,0.10,-0.99,2.93,3.91,2.26
42.8390,0.07,0.10,-0.99,3.11,3.60,2.26
42.8550,0.07,0.09,-0.99,3.17,3.78,2.38
42.8750,0.07,0.10,-1.00,3.05,3.48,2.26
42.8900,0.07,0.10,-0.99,3.05,3.42,2.20
42.9050,0.07,0.10,-0.99,2.99,3.85,2.32
42.9100,0.07,0.10,-0.99,3.11,3.23,2.32
42.9260,0.07,0.10,-0.99,3.05,3.66,2.44
42.9500,0.07,0.10,-0.99,3.05,3.48,2.32
42.9660,0.07,0.10,-0.99,2.99,3.54,2.26
42.9820,0.07,0.10,-0.99,2.87,3.48,2.50
42.9970,0.07,0.10,-0.99,2.99,3.85,2.38
43.0000,0.07,0.10,-0.99,2.93,3.23,2.44
43.0150,0.07,0.09,-0.99,2.99,3.48,2.20
43.0440,0.07,0.10,-0.99,2.93,3.23,2.50
43.0590,0.07,0.09,-0.99,3.05,3.66,2.56
43.0700,0.07,0.09,-0.99,2.99,2.99,2.20
43.0870,0.07,0.10,-0.99,2.99,3.54,2.26
43.1030,0.07,0.09,-0.99,3.17,3.72,2.32
43.1200,0.07,0.10,-0.99,2.99,3.66,2.20
43.1370,0.07,0.10,-0.99,2.99,3.91,2.32
43.1530,0.07,0.09,-0.99,3.05,3.78,2.38
43.1690,0.07,0.09,-0.99,2.99,3.85,2.44
43.1850,0.07,0.09,-0.99,2.99,3.66,2.56
43.2010,0.07,0.09,-0.99,3.17,3.60,2.32
43.2160,0.07,0.10,-0.99,3.17,3.85,2.32
43.2210,0.07,0.10,-0.99,3.23,3.66,2.20
43.2360,0.07,0.10,-0.99,2.93,3.78,2.38
43.2590,0.07,0.10,-0.99,3.05,3.78,2.44
43.2750,0.07,0.10,-0.99,2.87,3.42,2.44
43.2930,0.07,0.09,-0.99,3.05,3.54,2.38
43.3090,0.07,0.10,-0.99,2.93,3.05,2.32
43.3250,0.07,0.10,-0.99,2.93,3.72,2.26
43.3410,0.07,0.10,-0.99,2.99,3.60,2.38
43.3570,0.07,0.10,-0.99,3.05,3.85,2.38
43.3730,0.07,0.10,-0.99,3.23,3.54,2.26
43.3890,0.07,0.09,-0.99,3.23,3.60,2.32
43.4040,0.07,0.10,-0.99,3.17,3.36,2.44
43.4100,0.07,0.10,-0.99,2.99,3.48,2.38
43.4250,0.07,0.10,-0.99,2.99,3.78,2.26
43.4490,0.07,0.09,-0.99,3.11,3.97,2.50
43.4650,0.07,0.10,-0.99,3.05,3.85,2.44
43.4810,0.07,0.10,-0.99,3.11,3.78,2.38
43.4970,0.07,0.10,-0.99,3.05,3.78,2.38
43.5120,0.07,0.10,-0.99,2.87,3.85,2.44
43.5270,0.07,0.10,-0.99,2.87,3.97,2.32
43.5420,0.07,0.10,-0.99,2.99,3.72,2.50
43.5500,0.07,0.09,-0.99,2.93,3.60,2.20
43.5650,0.07,0.09,-0.99,3.17,3.66,2.20
43.5880,0.07,0.09,-0.99,2.87,3.54,2.32
43.6030,0.07,0.10,-0.99,3.05,3.60,2.32
43.6190,0.07,0.10,-0.99,3.11,3.54,2.20
43.6220,0.07,0.10,-0.99,3.11,3.60,2.20
43.6500,0.07,0.10,-0.99,3.17,3.66,2.44
43.6610,0.07,0.10,-0.99,2.87,3.66,2.44
43.6770,0.07,0.09,-0.99,2.93,3.60,2.38
43.6930,0.07,0.09,-0.99,3.05,3.66,2.50
43.7100,0.07,0.09,-0.99,3.11,3.36,2.44
43.7270,0.07,0.10,-0.99,2.93,3.60,2.26
43.7430,0.07,0.10,-0.99,3.05,3.54,2.38
43.7450,0.07,0.10,-0.99,2.93,3.36,2.26
43.7760,0.07,0.10,-0.99,3.05,3.23,2.26
43.7910,0.07,0.09,-0.99,3.05,3.85,2.44
43.8080,0.07,0.09,-0.99,3.05,3.60,2.44
43.8100,0.07,0.09,-0.99,2.93,3.54,2.50
43.8270,0.07,0.10,-0.99,3.11,3.85,2.38
43.8430,0.07,0.10,-0.99,3.05,3.42,2.32
43.8640,0.07,0.10,-0.99,3.05,3.42,2.32
43.8810,0.07,0.10,-0.99,2.99,3.36,2.38
43.8990,0.07,0.09,-0.99,3.11,3.54,2.32
43.9150,0.07,0.10,-0.99,3.05,3.23,2.38
43.9310,0.07,0.10,-0.99,2.99,3.30,2.38
43.9460,0.07,0.10,-0.99,2.99,3.60,2.20
43.9630,0.07,0.10,-0.99,3.11,3.17,2.32
43.9790,0.08,0.09,-1.00,3.30,3.60,2.38
43.9950,0.07,0.10,-0.99,3.11,3.48,2.32
44.0120,0.07,0.10,-0.99,3.11,3.36,2.14
44.0270,0.07,0.10,-0.99,3.23,3.23,2.32
44.0430,0.07,0.10,-0.99,3.11,3.23,2.38
44.0590,0.07,0.10,-0.99,2.93,3.30,2.44
44.0740,0.07,0.09,-0.99,3.11,3.85,2.44
44.0810,0.07,0.10,-0.99,3.11,3.48,2.44
44.0990,0.07,0.10,-0.99,3.30,3.48,2.26
44.1130,0.07,0.10,-0.99,3.30,3.42,2.14
44.1320,0.08,0.10,-0.99,3.05,3.23,2.38
44.1490,0.07,0.10,-0.99,3.11,3.54,2.26
44.1650,0.08,0.10,-0.99,3.17,3.66,2.38
44.1810,0.08,0.09,-0.99,3.11,3.85,2.44
44.1960,0.07,0.09,-0.99,3.05,3.97,2.38
44.2130,0.07,0.10,-0.99,3.17,3.85,2.38
44.2280,0.07,0.10,-0.99,2.99,3.91,2.44
44.2440,0.07,0.10,-0.99,2.87,3.78,2.38
44.2590,0.08,0.09,-0.99,3.23,3.54,2.38
44.2750,0.07,0.09,-0.99,2.99,4.03,2.32
44.2830,0.07,0.10,-0.99,3.30,3.78,2.26
44.3000,0.07,0.10,-0.99,3.17,3.66,2.32
44.3210,0.07,0.10,-0.99,3.30,3.78,2.32
44.3370,0.07,0.10,-0.99,3.05,3.72,2.14
44.3540,0.07,0.10,-0.99,3.05,3.54,2.38
44.3700,0.07,0.10,-0.99,3.17,3.66,2.38
44.3860,0.07,0.09,-0.99,3.11,3.23,2.20
44.4030,0.08,0.09,-0.99,2.93,3.11,2.32
44.4050,0.07,0.10,-0.99,2.93,3.48,2.32
44.4200,0.08,0.10,-0.99,3.30,3.42,2.32
44.4490,0.07,0.10,-0.99,3.05,2.99,2.08
44.4650,0.08,0.10,-0.99,3.05,2.93,2.14
44.4760,0.08,0.09,-0.99,3.11,3.66,2.38
44.4920,0.08,0.09,-0.99,2.99,3.78,2.44
44.5090,0.07,0.09,-0.99,3.11,3.97,2.38
44.5250,0.08,0.10,-0.99,3.17,3.97,2.50
44.5420,0.08,0.10,-0.99,3.23,3.78,2.38
44.5590,0.07,0.10,-0.99,3.11,3.85,2.38
44.5750,0.06,0.09,-0.97,2.93,3.72,2.32
44.5910,0.07,0.10,-0.99,2.99,3.66,2.56
44.6060,0.07,0.09,-0.99,2.87,3.54,2.38
44.6220,0.07,0.09,-0.99,3.05,3.72,2.50
44.6260,0.08,0.10,-0.99,3.30,3.78,2.62
44.6420,0.11,0.10,-1.02,3.48,4.09,2.56
44.6650,0.07,0.09,-0.98,3.11,5.98,2.99
44.6810,0.08,0.10,-0.99,2.93,5.43,2.62
44.6990,0.08,0.09,-0.99,2.93,5.43,2.62
44.7140,0.07,0.09,-0.99,2.99,5.00,2.26
44.7310,0.07,0.10,-0.99,3.05,4.09,1.53
44.7460,0.07,0.09,-0.99,2.93,4.39,2.56
44.7630,0.07,0.10,-0.99,3.36,3.85,2.14
44.7780,0.07,0.10,-0.99,3.11,3.48,2.26
44.7950,0.07,0.10,-0.99,2.87,3.48,2.38
44.8110,0.07,0.10,-0.99,2.99,3.54,2.08
44.8260,0.07,0.10,-0.99,3.17,3.66,2.26
44.8430,0.07,0.10,-0.99,2.93,3.60,2.38
44.8580,0.07,0.10,-0.99,2.99,3.60,2.50
44.8730,0.07,0.10,-0.99,2.93,3.91,2.26
44.8880,0.07,0.09,-0.99,3.11,3.42,2.32
44.9000,0.07,0.10,-0.99,2.87,3.42,2.38
44.9200,0.07,0.09,-0.99,2.99,3.54,2.26
44.9320,0.08,0.10,-0.99,3.11,3.36,2.14
44.9480,0.07,0.10,-0.99,3.05,3.60,2.32
44.9660,0.07,0.10,-0.99,3.30,3.54,2.32
44.9710,0.07,0.10,-0.99,3.17,3.30,2.20
44.9970,0.07,0.10,-0.99,3.05,3.66,2.44
45.0120,0.07,0.10,-0.99,3.23,3.72,2.38
45.0280,0.07,0.10,-0.99,3.05,3.66,2.44
45.0430,0.07,0.10,-0.99,3.05,3.97,2.26
45.0580,0.07,0.09,-0.99,2.87,3.48,2.32
45.0700,0.07,0.10,-0.99,3.17,3.78,2.20
45.0860,0.07,0.10,-0.99,2.93,3.91,2.38
45.1060,0.07,0.10,-0.99,3.36,3.42,2.50
45.1210,0.07,0.10,-0.99,3.11,3.48,2.44
45.1250,0.07,0.10,-0.99,3.05,3.66,2.32
45.1420,0.07,0.09,-0.99,3.17,3.66,2.44
45.1580,0.07,0.09,-0.99,2.87,3.60,2.14
45.1740,0.07,0.09,-0.99,3.23,3.23,2.20
45.1980,0.07,0.10,-0.99,3.17,3.72,2.20
45.2140,0.07,0.10,-0.99,3.05,3.42,2.20
45.2300,0.07,0.10,-0.99,3.30,3.42,2.20
45.2460,0.07,0.10,-0.99,3.11,3.78,2.38
45.2630,0.07,0.10,-0.99,2.87,4.09,2.50
45.2780,0.07,0.09,-0.99,3.05,3.91,2.50
45.2950,0.07,0.09,-0.99,2.87,3.48,2.32
45.3120,0.07,0.09,-0.99,3.05,3.91,2.44
45.3280,0.07,0.10,-0.99,2.99,3.72,2.26
45.3430,0.07,0.10,-0.99,2.99,3.60,2.32
45.3580,0.07,0.10,-0.99,2.99,3.66,2.38
45.3640,0.08,0.10,-0.99,3.05,3.72,2.32
45.3800,0.07,0.09,-0.99,3.11,3.85,2.38
45.4020,0.07,0.09,-0.99,2.93,3.72,2.56
45.4180,0.07,0.09,-0.99,3.05,3.66,2.56
45.4340,0.07,0.10,-0.99,3.05,3.66,2.44
45.4510,0.07,0.10,-0.99,3.05,3.85,2.32
45.4660,0.07,0.10,-0.99,2.99,3.85,2.44
45.4700,0.07,0.10,-0.99,2.99,4.03,2.44
45.4860,0.08,0.09,-0.99,3.17,3.85,2.38
45.5070,0.07,0.09,-0.99,3.11,3.91,2.44
45.5240,0.07,0.09,-0.99,2.93,3.91,2.50
45.5410,0.07,0.09,-0.99,3.17,4.03,2.50
45.5570,0.07,0.10,-0.99,2.75,3.72,2.50
45.5740,0.07,0.10,-0.99,2.99,3.91,2.56
45.5750,0.07,0.10,-0.99,2.81,3.66,2.56
45.6070,0.07,0.10,-0.99,3.11,3.48,2.62
45.6240,0.07,0.09,-0.99,3.05,3.66,2.56
45.6240,0.07,0.09,-0.99,3.05,3.72,2.50
45.6550,0.07,0.10,-0.99,3.11,3.72,2.44
45.6710,0.08,0.10,-0.99,2.81,3.54,2.50
45.6730,0.07,0.10,-0.99,2.87,3.66,2.62
45.7000,0.07,0.10,-0.99,2.99,3.85,2.56
45.7180,0.07,0.09,-0.99,2.93,3.72,2.56
45.7280,0.07,0.09,-0.99,2.93,3.42,2.56
45.7460,0.07,0.09,-0.99,2.87,3.54,2.38
45.7620,0.07,0.10,-0.99,3.17,3.54,2.56
45.7790,0.07,0.10,-0.99,3.05,3.60,2.56
45.7950,0.07,0.10,-0.99,2.99,3.78,2.62
45.8100,0.07,0.10,-0.99,3.11,3.91,2.69
45.8120,0.07,0.10,-0.99,2.87,4.03,2.81
45.8430,0.07,0.09,-0.99,2.99,3.78,2.81
45.8590,0.07,0.09,-0.99,2.93,3.85,2.81
45.8750,0.07,0.10,-0.99,2.87,3.91,2.87
45.8900,0.08,0.10,-0.99,3.05,4.21,2.81
45.9010,0.07,0.10,-0.99,3.11,4.09,3.05
45.9110,0.07,0.10,-0.99,2.99,3.91,2.87
45.9350,0.07,0.10,-0.99,3.17,3.78,2.99
45.9500,0.07,0.09,-0.99,3.17,3.85,3.42
45.9650,0.07,0.09,-0.99,2.93,3.66,2.93
45.9800,0.07,0.10,-0.99,3.05,4.03,2.99
45.9950,0.07,0.09,-0.99,3.11,3.78,3.11
46.0110,0.07,0.10,-0.99,2.99,4.21,2.62
46.0270,0.07,0.10,-0.99,2.99,3.97,2.81
46.0420,0.07,0.10,-0.99,3.11,3.54,2.93
46.0520,0.07,0.10,-0.99,3.05,3.60,2.99
46.0690,0.07,0.09,-0.99,2.81,3.54,2.99
46.0860,0.07,0.09,-0.99,2.87,3.54,2.87
46.1030,0.07,0.09,-0.99,3.11,3.54,2.81
46.1180,0.07,0.09,-0.99,3.05,3.60,3.23
46.1330,0.07,0.09,-0.99,2.93,3.97,3.05
46.1480,0.07,0.09,-0.99,2.99,4.09,2.99
46.1530,0.07,0.09,-0.99,2.99,3.78,2.81
46.1790,0.08,0.10,-0.99,3.05,3.60,2.87
46.1860,0.07,0.10,-0.99,3.11,4.09,2.99
46.2020,0.07,0.10,-0.99,2.99,3.66,2.93
46.2220,0.07,0.09,-0.99,2.93,4.21,3.05
46.2390,0.07,0.09,-0.99,3.11,3.36,2.93
46.2550,0.07,0.10,-0.99,3.11,3.72,2.87
46.2720,0.07,0.10,-0.99,3.17,3.97,3.05
46.2880,0.07,0.09,-0.99,3.05,3.54,2.87
46.3030,0.07,0.10,-0.99,2.99,3.54,2.69
46.3190,0.07,0.09,-0.99,2.93,3.48,2.44
46.3220,0.08,0.09,-0.99,3.11,3.36,2.32
46.3370,0.07,0.10,-0.99,3.05,3.30,2.81
46.3610,0.08,0.10,-1.00,3.11,3.72,3.11
46.3780,0.07,0.09,-0.99,3.11,3.78,3.91
46.3960,0.07,0.09,-0.99,3.11,3.72,3.91
46.4120,0.07,0.09,-0.99,3.11,3.72,3.60
46.4270,0.07,0.10,-0.99,3.05,3.66,2.93
46.4430,0.07,0.10,-0.99,2.87,3.97,2.93
46.4590,0.07,0.10,-0.99,2.93,4.09,3.42
46.4610,0.07,0.09,-0.99,3.11,3.78,3.42
46.4780,0.07,0.09,-0.99,2.93,3.60,3.36
46.5050,0.07,0.10,-0.99,3.05,3.23,3.42
46.5160,0.07,0.09,-0.99,2.93,3.66,3.78
46.5330,0.07,0.09,-0.99,2.87,3.78,3.91
46.5500,0.07,0.10,-0.99,2.87,3.72,3.42
46.5660,0.08,0.09,-0.99,2.93,4.09,3.11
46.5810,0.07,0.09,-0.99,2.93,3.54,3.17
46.5970,0.07,0.09,-0.99,2.99,3.42,2.87
46.6130,0.07,0.10,-0.99,3.17,3.54,2.32
46.6280,0.07,0.10,-1.00,3.17,3.78,2.56
46.6440,0.07,0.10,-0.99,2.93,3.85,2.93
46.6580,0.07,0.10,-0.99,3.11,3.85,2.93
46.6730,0.07,0.09,-0.99,2.81,3.66,2.75
46.6880,0.07,0.10,-0.99,3.17,3.42,2.20
46.7030,0.07,0.10,-0.99,3.36,4.03,2.32
46.7160,0.07,0.10,-0.99,3.30,3.91,2.38
46.7340,0.07,0.10,-0.99,3.05,3.66,2.44
46.7500,0.07,0.09,-0.99,3.30,3.54,2.32
46.7650,0.07,0.09,-0.99,2.87,3.91,2.38
46.7810,0.08,0.10,-0.99,3.11,3.30,2.20
46.7970,0.07,0.09,-0.99,2.87,3.66,2.32
46.8120,0.08,0.10,-1.00,3.17,3.85,2.50
46.8270,0.08,0.09,-0.99,3.11,4.27,3.05
46.8420,0.08,0.10,-0.99,3.42,3.36,2.69
46.8500,0.07,0.10,-0.99,3.48,3.72,2.32
46.8660,0.07,0.10,-0.99,3.17,3.97,2.56
46.8870,0.07,0.09,-0.99,2.99,3.97,2.44
46.9030,0.07,0.09,-0.99,3.30,3.66,2.08
46.9190,0.07,0.09,-0.99,3.05,3.97,1.89
46.9210,0.07,0.10,-0.99,2.99,3.85,2.01
46.9500,0.07,0.09,-0.99,3.17,4.27,2.14
46.9650,0.07,0.09,-0.99,3.30,3.72,2.26
46.9740,0.07,0.10,-0.99,3.36,3.78,2.14
46.9900,0.07,0.10,-0.99,3.17,4.09,2.01
47.0070,0.07,0.10,-0.99,3.23,3.48,1.95
47.0240,0.07,0.10,-1.00,3.23,3.60,1.65
47.0410,0.07,0.10,-0.99,3.05,3.97,2.50
47.0560,0.07,0.10,-0.99,3.11,3.54,2.20
47.0730,0.07,0.09,-0.99,3.05,3.54,2.32
47.0890,0.07,0.09,-0.99,2.93,3.60,2.20
47.1050,0.07,0.10,-1.00,3.05,3.85,2.08
47.1210,0.07,0.10,-0.99,3.23,4.15,2.14
47.1370,0.07,0.10,-0.99,3.11,4.27,2.32
47.1530,0.07,0.09,-0.99,3.23,3.91,2.14
47.1680,0.07,0.09,-0.99,3.23,3.05,1.83
47.1730,0.07,0.10,-0.99,3.30,3.72,2.38
47.1890,0.07,0.10,-0.99,2.99,4.03,2.44
47.2100,0.07,0.10,-0.99,3.23,3.91,2.14
47.2260,0.07,0.09,-0.99,2.99,3.97,1.83
47.2430,0.07,0.10,-0.99,3.23,3.97,1.95
47.2590,0.07,0.09,-0.99,3.30,3.78,2.20
47.2750,0.08,0.09,-0.99,3.36,3.54,2.01
47.2900,0.07,0.10,-0.99,2.99,3.30,2.01
47.3040,0.07,0.09,-0.99,3.17,3.72,2.32
47.3090,0.07,0.10,-0.99,3.17,3.78,2.26
47.3330,0.07,0.10,-0.99,3.36,4.21,2.50
47.3500,0.07,0.10,-0.99,3.30,4.46,2.69
47.3660,0.07,0.10,-0.99,3.36,4.09,2.32
47.3820,0.07,0.09,-0.99,2.99,3.97,2.26
47.3970,0.07,0.09,-0.99,3.05,3.78,2.08
47.4040,0.07,0.10,-0.99,3.60,4.15,2.08
47.4150,0.07,0.10,-0.99,3.30,4.03,1.95
47.4370,0.07,0.10,-0.99,3.17,3.97,2.26
47.4550,0.07,0.10,-0.99,3.11,4.33,2.44
47.4710,0.07,0.10,-0.99,3.05,4.15,2.32
47.4880,0.07,0.09,-0.99,3.17,3.97,2.14
47.5040,0.07,0.09,-0.99,3.30,3.72,2.20
47.5220,0.07,0.09,-0.99,3.36,4.03,2.26
47.5380,0.07,0.10,-0.99,3.11,4.09,2.01
47.5550,0.07,0.10,-0.99,3.23,3.78,1.89
47.5700,0.07,0.10,-0.99,3.11,4.03,2.01
47.5870,0.07,0.10,-0.99,3.17,4.03,2.08
47.6020,0.07,0.10,-0.99,3.17,3.91,1.95
47.6180,0.07,0.10,-0.99,2.81,3.54,2.32
47.6330,0.07,0.10,-0.99,3.36,3.60,2.44
47.6480,0.07,0.10,-0.99,3.11,3.97,2.20
47.6540,0.07,0.10,-1.00,3.23,4.03,2.26
47.6700,0.07,0.10,-0.99,3.17,4.21,2.38
47.6930,0.07,0.10,-0.99,3.23,3.78,2.14
47.7090,0.07,0.10,-0.99,3.11,3.48,2.20
47.7250,0.07,0.09,-0.99,3.11,4.09,2.14
47.7410,0.07,0.10,-0.99,3.17,3.72,2.14
47.7570,0.07,0.10,-0.99,3.11,3.78,2.26
47.7610,0.07,0.09,-0.99,2.99,3.72,2.75
47.7770,0.07,0.10,-0.99,2.99,3.91,2.32
47.8010,0.07,0.10,-0.99,3.11,3.91,2.38
47.8180,0.07,0.09,-0.99,3.23,4.03,2.26
47.8340,0.07,0.10,-0.99,3.05,3.85,2.26
47.8500,0.07,0.10,-0.99,3.23,3.54,2.14
47.8650,0.07,0.10,-0.99,3.30,4.03,2.20
47.8810,0.07,0.10,-0.99,3.11,3.85,2.08
47.8840,0.07,0.10,-0.99,3.17,4.03,2.26
47.9040,0.07,0.09,-0.99,3.23,3.91,2.20
