Timestamp, AccX, AccY, AccZ, GyroX, GyroY, GyroZ
0.0100,0.07,0.13,-0.98,3.36,3.36,1.77
0.0230,0.08,0.13,-0.98,3.05,3.60,1.89
0.0340,0.08,0.13,-0.98,3.23,3.11,1.77
0.0510,0.08,0.13,-0.98,3.23,3.72,1.77
0.0690,0.08,0.13,-0.98,3.23,3.42,1.77
0.0840,0.08,0.12,-0.98,3.17,3.30,1.71
0.1000,0.08,0.13,-0.98,3.11,3.36,1.95
0.1150,0.08,0.12,-0.98,3.30,2.99,1.83
0.1300,0.08,0.12,-0.98,3.17,3.11,1.89
0.1450,0.08,0.13,-0.98,3.11,3.30,1.77
0.1600,0.08,0.12,-0.98,3.05,3.42,1.77
0.1750,0.08,0.13,-0.98,3.30,3.66,1.95
0.1900,0.08,0.12,-0.98,3.17,3.17,1.83
0.2050,0.08,0.13,-0.98,3.17,3.48,1.83
0.2170,0.08,0.12,-0.98,3.30,3.36,2.01
0.2340,0.08,0.12,-0.98,3.17,3.11,1.89
0.2500,0.08,0.13,-0.98,3.23,2.81,1.77
0.2650,0.08,0.12,-0.98,3.42,3.23,1.95
0.2670,0.08,0.12,-0.98,3.42,3.17,1.89
0.2950,0.08,0.12,-0.98,3.36,3.23,1.95
0.3100,0.08,0.12,-0.98,2.99,3.36,1.77
0.3250,0.08,0.12,-0.98,3.36,3.30,1.89
0.3400,0.08,0.13,-0.98,3.36,3.17,1.83
0.3550,0.08,0.13,-0.98,3.17,3.23,1.95
0.3660,0.08,0.12,-0.98,2.93,3.17,1.95
0.3840,0.08,0.13,-0.98,3.11,3.23,1.71
0.4000,0.08,0.13,-0.98,3.17,3.11,1.83
0.4010,0.08,0.12,-0.98,3.30,3.42,1.77
0.4300,0.08,0.12,-0.98,3.17,3.36,1.89
0.4450,0.08,0.12,-0.98,2.99,3.30,1.65
0.4600,0.08,0.12,-0.98,3.36,2.87,1.77
0.4760,0.08,0.12,-0.98,3.17,3.30,1.89
0.4900,0.08,0.13,-0.98,3.11,3.23,1.83
0.5050,0.08,0.13,-0.98,3.17,3.36,1.83
0.5160,0.08,0.13,-0.98,3.17,3.36,1.95
0.5330,0.08,0.12,-0.98,3.11,2.93,1.71
0.5500,0.08,0.12,-0.98,3.23,2.99,1.83
0.5660,0.08,0.12,-0.98,3.23,2.87,1.95
0.5800,0.08,0.12,-0.98,3.17,3.36,1.71
0.5950,0.08,0.13,-0.98,3.17,3.11,1.83
0.6100,0.08,0.12,-0.98,3.30,2.99,1.77
0.6250,0.08,0.13,-0.98,3.11,3.30,1.77
0.6400,0.08,0.13,-0.98,3.30,3.05,1.89
0.6550,0.08,0.12,-0.98,3.42,3.23,1.77
0.6670,0.08,0.12,-0.98,3.17,3.36,1.77
0.6830,0.08,0.12,-0.98,3.05,2.99,1.89
0.7000,0.08,0.13,-0.98,2.99,2.87,1.83
0.7150,0.08,0.12,-0.98,3.17,3.23,1.77
0.7300,0.08,0.13,-0.98,3.11,3.23,2.14
0.7340,0.08,0.13,-0.98,3.23,3.36,1.95
0.7600,0.08,0.12,-0.98,3.11,3.30,1.83
0.7750,0.08,0.13,-0.98,3.36,3.48,1.71
0.7850,0.08,0.12,-0.98,3.23,3.23,1.89
0.8000,0.08,0.12,-0.98,3.23,3.23,1.89
0.8170,0.08,0.12,-0.98,3.17,3.23,1.89
0.8330,0.08,0.13,-0.98,2.93,3.42,1.83
0.8500,0.08,0.13,-0.98,3.05,3.11,2.01
0.8650,0.08,0.12,-0.98,3.11,3.30,1.71
0.8800,0.08,0.13,-0.98,3.23,3.30,1.77
0.8950,0.08,0.12,-0.98,3.36,3.05,1.77
0.9100,0.08,0.13,-0.98,3.30,3.05,1.83
0.9250,0.08,0.12,-0.98,3.11,3.23,1.83
0.9400,0.08,0.13,-0.98,3.30,2.93,1.83
0.9550,0.08,0.13,-0.98,3.30,3.30,1.95
0.9670,0.08,0.12,-0.98,3.11,3.11,1.95
0.9840,0.08,0.12,-0.98,3.23,3.36,1.89
0.9990,0.08,0.12,-0.98,3.23,2.99,1.83
1.0010,0.08,0.12,-0.98,3.17,3.11,1.95
1.0300,0.08,0.13,-0.98,3.30,2.99,1.71
1.0450,0.08,0.12,-0.98,3.36,3.05,1.89
1.0600,0.08,0.13,-0.98,3.23,3.23,1.71
1.0750,0.08,0.12,-0.98,3.05,3.17,1.89
1.0900,0.08,0.13,-0.98,3.42,3.36,1.89
1.1050,0.08,0.12,-0.98,3.36,3.17,1.83
1.1170,0.08,0.13,-0.98,3.11,2.87,1.77
1.1330,0.08,0.13,-0.98,3.30,2.81,1.71
1.1500,0.08,0.12,-0.98,3.36,3.11,1.89
1.1650,0.08,0.13,-0.98,3.36,2.99,1.77
1.1800,0.08,0.12,-0.98,3.23,2.93,1.89
1.1950,0.08,0.12,-0.98,3.11,3.30,1.95
1.2100,0.08,0.12,-0.98,3.36,3.17,1.89
1.2250,0.08,0.13,-0.98,3.17,3.48,1.83
1.2400,0.08,0.12,-0.98,3.17,2.99,1.83
1.2550,0.08,0.12,-0.98,3.17,3.11,1.77
1.2680,0.08,0.13,-0.98,3.42,3.11,1.83
1.2830,0.08,0.12,-0.98,3.30,3.23,1.83
1.3000,0.08,0.12,-0.98,3.17,3.30,1.89
1.3150,0.08,0.12,-0.98,3.23,3.11,1.71
1.3300,0.08,0.12,-0.98,3.17,3.23,1.71
1.3450,0.08,0.12,-0.98,3.17,3.42,1.89
1.3600,0.08,0.13,-0.98,3.36,3.48,1.83
1.3670,0.08,0.13,-0.98,3.17,3.05,1.71
1.3840,0.08,0.12,-0.98,3.17,2.99,1.77
1.4000,0.08,0.13,-0.98,3.36,2.93,1.89
1.4160,0.08,0.12,-0.98,3.17,3.42,1.95
1.4340,0.08,0.12,-0.98,3.11,3.30,1.83
1.4500,0.08,0.13,-0.98,3.30,3.30,2.01
1.4650,0.08,0.13,-0.98,3.30,3.05,1.77
1.4670,0.08,0.13,-0.98,3.36,3.23,1.71
1.4950,0.08,0.12,-0.98,3.17,3.11,1.77
1.5100,0.08,0.12,-0.98,3.11,2.93,1.89
1.5250,0.08,0.13,-0.98,2.99,2.87,1.77
1.5330,0.08,0.12,-0.98,3.05,3.48,1.65
1.5500,0.08,0.12,-0.98,3.05,3.30,1.77
1.5670,0.08,0.12,-0.98,3.11,3.48,1.77
1.5840,0.08,0.13,-0.98,3.42,2.99,1.77
1.5990,0.08,0.12,-0.98,3.30,3.17,1.71
1.6150,0.08,0.13,-0.98,3.05,3.36,1.83
1.6300,0.08,0.12,-0.98,3.11,3.05,1.95
1.6450,0.08,0.12,-0.98,3.42,3.30,1.89
1.6590,0.08,0.12,-0.98,3.23,3.30,1.83
1.6750,0.08,0.13,-0.98,3.17,3.42,1.95
1.6910,0.08,0.12,-0.98,3.17,2.99,1.83
1.7050,0.08,0.12,-0.98,3.17,2.87,1.77
1.7170,0.08,0.13,-0.98,3.30,3.60,1.95
1.7340,0.08,0.12,-0.98,3.30,3.36,1.95
1.7500,0.08,0.12,-0.98,3.11,3.48,1.89
1.7650,0.08,0.13,-0.98,2.87,3.48,1.89
1.7800,0.08,0.12,-0.98,3.11,3.42,1.83
1.7950,0.08,0.12,-0.98,3.23,3.48,1.89
1.8100,0.08,0.12,-0.98,3.11,3.42,1.95
1.8250,0.08,0.12,-0.98,3.23,3.17,1.95
1.8400,0.08,0.13,-0.98,3.17,3.05,1.89
1.8510,0.08,0.12,-0.98,3.23,3.36,1.89
1.8670,0.08,0.13,-0.98,3.17,3.66,1.95
1.8840,0.08,0.13,-0.98,3.30,3.23,1.59
1.8990,0.08,0.13,-0.98,3.23,3.17,1.83
1.9010,0.08,0.12,-0.98,3.23,3.54,1.83
1.9300,0.08,0.12,-0.98,3.36,2.87,1.77
1.9450,0.08,0.12,-0.98,3.11,3.30,1.83
1.9600,0.08,0.12,-0.98,3.11,3.42,1.83
1.9750,0.08,0.13,-0.98,3.17,3.30,1.95
1.9900,0.08,0.13,-0.98,3.23,3.17,1.83
2.0050,0.08,0.12,-0.98,3.30,3.11,1.77
2.0170,0.08,0.13,-0.98,3.23,3.23,1.89
2.0340,0.08,0.12,-0.98,3.23,3.17,1.83
2.0500,0.08,0.12,-0.98,3.30,3.17,1.89
2.0650,0.08,0.12,-0.98,3.11,3.11,1.83
2.0800,0.08,0.12,-0.98,3.30,2.87,1.89
2.0960,0.08,0.12,-0.98,3.17,3.11,1.65
2.1110,0.08,0.12,-0.98,3.30,3.17,1.83
2.1270,0.08,0.12,-0.98,3.17,3.30,1.77
2.1410,0.08,0.13,-0.98,3.11,3.11,1.77
2.1560,0.08,0.13,-0.98,3.36,2.81,1.71
2.1660,0.08,0.12,-0.98,3.17,3.17,1.89
2.1830,0.08,0.12,-0.98,3.05,3.17,1.77
2.2000,0.08,0.12,-0.98,3.17,3.23,1.83
2.2160,0.08,0.12,-0.98,3.05,3.54,1.77
2.2320,0.08,0.12,-0.98,3.30,3.05,1.95
2.2460,0.08,0.13,-0.98,3.17,3.23,1.77
2.2610,0.08,0.12,-0.98,3.23,3.36,1.71
2.2760,0.08,0.12,-0.98,3.36,3.17,1.89
2.2910,0.08,0.12,-0.98,3.23,3.42,1.83
2.3060,0.08,0.13,-0.98,3.17,3.48,1.95
2.3170,0.08,0.12,-0.98,3.11,3.23,1.83
2.3340,0.08,0.13,-0.98,3.11,3.17,1.89
2.3500,0.08,0.13,-0.98,3.23,2.99,1.83
2.3660,0.08,0.12,-0.98,3.30,3.11,1.89
2.3670,0.08,0.12,-0.98,3.05,3.54,1.83
2.3960,0.08,0.12,-0.98,3.11,3.30,1.89
2.4110,0.08,0.12,-0.98,3.11,3.17,1.71
2.4260,0.08,0.13,-0.98,3.30,3.05,1.83
2.4410,0.08,0.12,-0.98,3.17,3.30,1.83
2.4570,0.08,0.12,-0.98,3.42,3.36,1.83
2.4670,0.08,0.13,-0.98,3.17,3.23,1.89
2.4840,0.08,0.13,-0.98,3.23,3.05,1.89
2.5010,0.08,0.12,-0.98,3.17,2.81,1.83
2.5160,0.08,0.12,-0.98,3.17,3.42,1.95
2.5310,0.08,0.12,-0.98,3.30,2.99,1.95
2.5460,0.08,0.12,-0.98,3.30,2.99,1.77
2.5610,0.08,0.13,-0.98,3.23,3.23,1.83
2.5760,0.08,0.13,-0.98,3.05,3.05,1.89
2.5910,0.08,0.13,-0.98,3.23,3.42,1.89
2.6060,0.08,0.13,-0.98,3.05,3.30,1.83
2.6170,0.08,0.12,-0.98,3.23,2.93,1.83
2.6340,0.08,0.12,-0.98,3.23,2.99,1.95
2.6510,0.08,0.12,-0.98,3.30,3.23,1.89
2.6660,0.08,0.12,-0.98,3.23,3.23,1.89
2.6810,0.08,0.12,-0.98,3.36,3.23,1.83
2.6960,0.08,0.12,-0.98,3.23,3.23,1.89
2.7110,0.08,0.12,-0.98,3.36,3.66,1.83
2.7260,0.08,0.12,-0.98,3.30,3.17,2.01
2.7410,0.08,0.13,-0.98,3.23,3.05,1.83
2.7560,0.08,0.13,-0.98,3.30,3.36,1.89
2.7670,0.08,0.12,-0.98,3.17,3.42,2.01
2.7850,0.08,0.12,-0.98,3.36,3.17,1.95
2.8010,0.08,0.12,-0.98,3.23,3.42,1.89
2.8160,0.08,0.12,-0.98,3.23,3.36,1.89
2.8320,0.08,0.13,-0.98,3.05,3.30,1.89
2.8460,0.08,0.12,-0.98,3.11,3.17,1.83
2.8610,0.08,0.12,-0.98,3.11,3.17,1.77
2.8680,0.08,0.13,-0.98,3.05,3.54,1.89
2.8910,0.08,0.13,-0.98,3.11,3.23,2.01
2.9010,0.08,0.12,-0.98,3.17,3.36,1.89
2.9170,0.08,0.13,-0.98,3.11,3.17,1.71
2.9340,0.08,0.12,-0.98,3.11,3.23,1.95
2.9500,0.08,0.12,-0.98,3.42,3.30,1.95
2.9670,0.08,0.12,-0.98,3.05,3.48,1.89
2.9820,0.08,0.12,-0.98,3.17,3.42,1.77
2.9970,0.08,0.13,-0.98,3.11,3.17,1.89
3.0130,0.08,0.12,-0.98,3.11,3.23,1.89
3.0270,0.08,0.12,-0.98,3.23,3.42,2.01
3.0430,0.08,0.12,-0.98,2.99,3.30,1.77
3.0580,0.08,0.13,-0.98,3.30,3.17,1.83
3.0720,0.08,0.13,-0.98,3.30,2.75,1.77
3.0840,0.08,0.12,-0.98,3.17,3.23,2.01
3.1000,0.08,0.12,-0.98,3.36,3.17,1.95
3.1160,0.08,0.12,-0.98,3.36,3.30,1.77
3.1330,0.08,0.12,-0.98,3.36,3.23,1.83
3.1340,0.08,0.12,-0.98,3.23,3.23,1.95
3.1630,0.08,0.13,-0.98,3.36,3.11,1.77
3.1780,0.08,0.12,-0.98,3.30,3.30,1.83
3.1930,0.08,0.12,-0.98,3.11,3.23,1.83
3.2070,0.08,0.12,-0.98,3.23,2.99,1.71
3.2180,0.08,0.12,-0.98,3.30,3.30,1.77
3.2340,0.08,0.13,-0.98,3.11,3.36,1.95
3.2510,0.08,0.12,-0.98,3.30,3.23,1.83
3.2660,0.08,0.13,-0.98,3.30,3.30,1.89
3.2840,0.08,0.12,-0.98,3.23,3.42,1.95
3.3000,0.08,0.13,-0.98,3.36,3.11,1.77
3.3160,0.08,0.13,-0.98,3.23,3.17,1.83
3.3300,0.08,0.13,-0.98,3.05,2.99,1.89
3.3450,0.08,0.12,-0.98,3.30,2.69,1.95
3.3600,0.08,0.12,-0.98,3.11,2.93,1.59
3.3750,0.08,0.13,-0.98,3.05,3.48,1.83
3.3890,0.08,0.12,-0.98,3.23,3.30,1.89
3.4050,0.08,0.13,-0.98,3.23,3.30,1.77
3.4170,0.08,0.12,-0.98,3.36,3.05,1.83
3.4330,0.08,0.13,-0.98,3.17,3.11,1.89
3.4500,0.08,0.12,-0.98,3.42,3.11,1.95
3.4650,0.08,0.13,-0.98,3.11,3.42,1.95
3.4800,0.08,0.12,-0.98,3.17,3.17,1.83
3.4950,0.08,0.13,-0.98,3.23,3.30,1.89
3.5110,0.08,0.12,-0.98,3.05,2.87,1.77
3.5260,0.08,0.12,-0.98,3.17,2.87,1.89
3.5410,0.08,0.12,-0.98,3.05,3.42,1.83
3.5560,0.08,0.12,-0.98,3.17,3.17,1.77
3.5710,0.08,0.13,-0.98,3.11,2.99,1.83
3.5840,0.08,0.12,-0.98,3.23,2.93,1.65
3.6000,0.08,0.12,-0.98,3.23,3.30,1.83
3.6170,0.08,0.13,-0.98,3.30,2.99,1.77
3.6340,0.08,0.12,-0.98,3.54,2.93,1.77
3.6500,0.08,0.13,-0.98,2.93,3.48,1.83
3.6650,0.08,0.12,-0.98,2.99,3.48,1.83
3.6790,0.08,0.12,-0.98,3.30,3.17,1.89
3.6940,0.08,0.12,-0.98,3.11,3.42,1.95
3.7090,0.08,0.12,-0.98,3.05,3.30,1.95
3.7240,0.08,0.12,-0.98,3.11,3.11,1.95
3.7390,0.08,0.12,-0.98,3.17,3.48,1.89
3.7500,0.08,0.12,-0.98,3.05,3.17,1.89
3.7670,0.08,0.13,-0.98,3.11,3.36,1.89
3.7840,0.08,0.13,-0.98,3.17,3.30,1.71
3.7840,0.08,0.12,-0.98,2.93,3.11,1.83
3.8140,0.08,0.12,-0.98,3.42,3.30,1.83
3.8290,0.08,0.13,-0.98,3.23,3.60,1.89
3.8450,0.08,0.12,-0.98,3.30,3.11,1.77
3.8590,0.08,0.12,-0.98,3.11,3.23,1.77
3.8740,0.08,0.12,-0.98,3.05,3.54,1.95
3.8890,0.08,0.12,-0.98,2.99,3.36,1.77
3.9010,0.08,0.13,-0.98,3.23,3.42,1.77
3.9170,0.08,0.12,-0.98,3.23,3.11,1.83
3.9340,0.08,0.12,-0.98,3.30,3.48,1.83
3.9490,0.08,0.12,-0.98,3.23,3.23,1.83
3.9640,0.08,0.12,-0.98,3.23,3.23,1.89
3.9790,0.08,0.13,-0.98,3.30,3.11,1.77
3.9940,0.08,0.12,-0.98,3.11,3.11,1.77
4.0090,0.08,0.12,-0.98,3.23,3.23,1.83
4.0240,0.08,0.12,-0.98,3.48,3.11,1.83
4.0390,0.08,0.12,-0.98,3.23,3.05,1.83
4.0510,0.08,0.13,-0.98,3.36,2.93,1.89
4.0670,0.08,0.13,-0.98,3.30,3.17,1.83
4.0840,0.08,0.13,-0.98,3.54,3.48,1.89
4.0850,0.08,0.12,-0.98,3.36,3.42,1.95
4.1150,0.08,0.12,-0.98,3.42,3.23,1.83
4.1290,0.08,0.12,-0.98,3.11,3.23,1.95
4.1440,0.08,0.12,-0.98,2.99,3.17,2.01
4.1590,0.08,0.13,-0.98,3.05,3.23,1.77
4.1740,0.08,0.12,-0.98,3.17,3.48,1.71
4.1890,0.08,0.12,-0.98,3.30,2.93,1.83
4.2010,0.08,0.12,-0.98,3.17,3.36,1.83
4.2170,0.08,0.12,-0.98,3.05,3.23,1.89
4.2330,0.08,0.13,-0.98,3.17,3.05,1.95
4.2490,0.08,0.12,-0.98,3.17,3.48,1.89
4.2510,0.08,0.13,-0.98,3.23,3.72,2.01
4.2780,0.08,0.12,-0.98,3.30,3.42,1.95
4.2940,0.08,0.13,-0.98,3.36,3.36,1.77
4.3090,0.08,0.13,-0.98,3.48,3.30,1.83
4.3240,0.08,0.12,-0.98,3.48,3.23,1.89
4.3340,0.08,0.13,-0.98,3.36,3.05,1.83
4.3510,0.08,0.13,-0.98,3.11,3.17,1.77
4.3670,0.08,0.12,-0.98,3.05,2.81,1.77
4.3840,0.08,0.12,-0.98,3.11,3.11,1.89
4.3990,0.08,0.12,-0.98,3.17,3.36,1.77
4.4140,0.08,0.12,-0.98,3.36,3.48,1.89
4.4290,0.08,0.12,-0.98,3.23,3.23,1.83
4.4440,0.08,0.12,-0.98,3.17,3.36,1.77
4.4510,0.08,0.12,-0.98,3.42,3.60,1.89
4.4740,0.08,0.12,-0.98,3.30,2.81,1.83
4.4890,0.08,0.12,-0.98,3.17,2.93,1.89
4.5000,0.08,0.12,-0.98,3.23,3.17,1.89
4.5160,0.08,0.12,-0.98,3.42,3.30,1.89
4.5330,0.08,0.13,-0.98,3.30,3.17,1.95
4.5500,0.08,0.13,-0.98,3.11,3.11,1.89
4.5640,0.08,0.12,-0.98,3.11,3.17,1.89
4.5790,0.08,0.12,-0.98,3.17,3.05,1.95
4.5940,0.08,0.12,-0.98,3.17,3.54,1.77
4.6100,0.08,0.12,-0.98,3.23,2.93,1.89
4.6170,0.08,0.12,-0.98,2.99,2.93,1.95
4.6390,0.08,0.16,-0.98,3.17,3.23,1.77
4.6500,0.08,0.12,-0.98,3.23,2.93,1.77
4.6680,0.08,0.12,-0.98,3.23,3.23,1.71
4.6840,0.08,0.13,-0.98,2.93,3.17,1.89
4.6990,0.08,0.12,-0.98,3.11,3.17,1.71
4.7140,0.08,0.12,-0.98,3.23,3.05,1.83
4.7270,0.08,0.12,-0.98,3.42,3.42,1.77
4.7440,0.08,0.13,-0.98,3.23,3.11,1.89
4.7590,0.08,0.13,-0.98,3.17,3.60,1.89
4.7740,0.08,0.13,-0.98,3.23,3.30,1.83
4.7840,0.08,0.13,-0.98,3.23,3.42,2.01
4.8010,0.08,0.12,-0.98,3.11,2.99,1.89
4.8170,0.08,0.13,-0.99,3.36,3.60,1.89
4.8340,0.08,0.12,-0.98,3.23,3.05,1.83
4.8490,0.08,0.13,-0.98,3.30,3.42,1.83
4.8510,0.08,0.12,-0.98,3.23,3.30,1.77
4.8790,0.08,0.12,-0.98,3.42,3.05,1.95
4.8940,0.08,0.13,-0.98,3.30,3.17,1.83
4.9090,0.08,0.12,-0.98,3.42,3.11,2.08
4.9240,0.08,0.13,-0.98,3.30,3.23,1.89
4.9340,0.08,0.13,-0.98,3.11,3.30,1.83
4.9500,0.07,0.12,-0.99,3.05,3.23,1.89
4.9680,0.08,0.12,-0.98,3.23,3.60,1.77
4.9830,0.08,0.12,-0.98,3.05,3.54,2.01
4.9990,0.08,0.12,-0.98,3.17,3.42,1.89
5.0140,0.08,0.12,-0.98,3.23,3.17,1.95
5.0290,0.08,0.12,-0.98,3.11,3.36,1.77
5.0440,0.08,0.13,-0.98,3.30,2.93,1.89
5.0590,0.08,0.12,-0.98,3.23,3.42,2.01
5.0740,0.08,0.13,-0.98,3.11,3.54,1.89
5.0880,0.08,0.13,-0.98,3.05,3.54,1.95
5.1010,0.08,0.13,-0.98,3.36,3.05,1.89
5.1160,0.08,0.12,-0.98,3.17,3.05,1.83
5.1340,0.08,0.12,-0.98,3.23,3.23,1.89
5.1490,0.08,0.12,-0.98,3.17,3.05,1.89
5.1630,0.08,0.12,-0.98,3.05,3.11,2.01
5.1790,0.08,0.13,-0.98,3.05,3.66,1.89
5.1940,0.08,0.13,-0.98,3.23,3.36,1.95
5.2090,0.08,0.13,-0.98,3.11,3.17,1.89
5.2240,0.08,0.13,-0.98,3.05,3.36,1.83
5.2390,0.08,0.12,-0.98,3.11,3.36,1.95
5.2500,0.08,0.12,-0.98,3.23,3.42,1.77
5.2670,0.08,0.13,-0.98,3.17,3.05,1.83
5.2830,0.08,0.13,-0.98,3.30,3.48,1.77
5.2990,0.07,0.12,-0.98,2.99,3.30,1.89
5.3140,0.08,0.12,-0.98,3.17,3.60,2.01
5.3290,0.08,0.12,-0.98,3.11,3.11,2.01
5.3440,0.08,0.12,-0.98,3.30,2.99,1.77
5.3590,0.08,0.12,-0.98,3.11,3.48,1.89
5.3680,0.08,0.12,-0.98,3.11,3.23,1.83
5.3890,0.08,0.12,-0.98,3.11,3.30,1.83
5.4000,0.08,0.13,-0.98,3.42,3.36,1.89
5.4180,0.08,0.12,-0.98,3.42,3.42,1.83
5.4340,0.08,0.12,-0.98,3.48,3.23,1.95
5.4490,0.08,0.13,-0.98,3.05,3.17,1.95
5.4640,0.08,0.13,-0.98,3.11,3.17,1.89
5.4790,0.08,0.13,-0.98,3.30,3.11,1.77
5.4930,0.08,0.12,-0.98,3.30,3.42,1.89
5.5090,0.08,0.13,-0.98,3.23,3.17,1.89
5.5240,0.08,0.13,-0.98,3.48,3.48,2.01
5.5390,0.08,0.12,-0.98,3.17,3.54,1.89
5.5500,0.08,0.13,-0.98,3.36,3.36,1.95
5.5680,0.08,0.12,-0.98,3.17,3.11,1.83
5.5830,0.08,0.12,-0.98,3.23,3.30,1.95
5.5990,0.08,0.13,-0.98,3.30,3.36,2.01
5.6140,0.08,0.12,-0.98,3.30,3.36,1.89
5.6300,0.08,0.13,-0.98,3.30,3.17,1.83
5.6450,0.08,0.13,-0.98,3.11,3.05,1.77
5.6600,0.08,0.13,-0.98,3.17,3.36,1.83
5.6750,0.08,0.12,-0.98,3.11,3.23,1.77
5.6910,0.08,0.12,-0.98,3.17,2.99,1.95
5.7050,0.08,0.12,-0.98,2.99,3.30,1.89
5.7170,0.08,0.12,-0.98,3.11,3.30,1.83
5.7340,0.08,0.13,-0.98,2.93,3.23,1.89
5.7500,0.08,0.13,-0.98,3.17,2.93,1.95
5.7650,0.08,0.12,-0.98,3.11,3.48,2.08
5.7800,0.08,0.13,-0.98,2.93,3.36,1.89
5.7950,0.08,0.13,-0.98,2.87,3.23,1.77
5.8100,0.08,0.12,-0.98,3.23,3.05,1.89
5.8250,0.08,0.13,-0.98,3.36,3.30,1.77
5.8400,0.08,0.13,-0.98,3.36,3.42,1.95
5.8550,0.08,0.12,-0.98,3.23,3.23,1.95
5.8670,0.08,0.12,-0.98,2.99,3.11,1.89
5.8840,0.08,0.12,-0.98,3.23,3.30,1.95
5.9000,0.08,0.12,-0.98,3.36,3.23,1.95
5.9150,0.08,0.12,-0.98,3.42,2.87,1.77
5.9300,0.08,0.12,-0.98,3.42,3.36,1.89
5.9450,0.08,0.13,-0.98,3.30,3.30,1.95
5.9590,0.08,0.12,-0.98,3.23,3.23,1.95
5.9750,0.08,0.13,-0.98,3.17,3.05,1.77
5.9910,0.08,0.13,-0.98,3.23,2.93,1.95
6.0000,0.08,0.13,-0.98,3.36,3.05,1.83
6.0170,0.08,0.12,-0.98,3.17,3.23,2.14
6.0340,0.08,0.12,-0.98,3.42,2.93,1.83
6.0500,0.08,0.13,-0.98,3.23,2.99,1.89
6.0660,0.08,0.12,-0.98,3.48,3.17,1.77
6.0810,0.08,0.12,-0.98,3.23,3.17,1.77
6.0960,0.08,0.12,-0.98,3.11,3.36,1.77
6.1110,0.08,0.12,-0.98,3.17,3.48,1.83
6.1260,0.08,0.13,-0.98,3.30,3.30,1.77
6.1410,0.08,0.13,-0.98,3.11,3.30,1.89
6.1550,0.08,0.12,-0.98,3.23,3.30,1.83
6.1660,0.08,0.13,-0.98,3.05,3.11,1.95
6.1840,0.08,0.13,-0.98,3.30,3.11,1.77
6.2010,0.08,0.13,-0.98,2.99,3.23,1.89
6.2160,0.08,0.12,-0.98,3.17,3.11,1.83
6.2310,0.08,0.13,-0.98,3.30,3.05,1.89
6.2460,0.08,0.13,-0.98,3.23,3.48,1.83
6.2610,0.08,0.13,-0.98,3.17,3.54,1.83
6.2760,0.08,0.12,-0.98,3.23,3.05,1.89
6.2910,0.08,0.13,-0.98,3.17,3.36,1.77
6.3070,0.08,0.12,-0.98,3.11,3.48,1.77
6.3220,0.08,0.12,-0.98,3.30,3.48,1.83
6.3340,0.08,0.12,-0.98,3.17,3.54,1.83
6.3500,0.08,0.13,-0.98,3.23,3.78,1.95
6.3660,0.08,0.13,-0.98,3.17,3.36,1.95
6.3830,0.08,0.12,-0.98,3.11,3.42,1.95
6.3840,0.08,0.12,-0.98,3.23,3.48,1.83
6.4130,0.08,0.12,-0.98,3.11,3.36,1.89
6.4280,0.08,0.13,-0.98,3.30,3.30,1.95
6.4430,0.08,0.12,-0.98,3.23,3.42,1.83
6.4580,0.08,0.12,-0.98,3.11,3.48,2.08
6.4730,0.08,0.15,-0.98,3.05,3.30,1.95
6.4850,0.08,0.12,-0.98,3.17,3.30,1.83
6.5010,0.08,0.12,-0.98,2.99,3.36,1.89
6.5170,0.08,0.12,-0.98,3.05,3.66,1.83
6.5320,0.08,0.12,-0.98,3.23,3.11,1.89
6.5340,0.08,0.13,-0.98,3.11,3.60,1.83
6.5640,0.08,0.13,-0.98,2.81,3.36,1.89
6.5780,0.08,0.19,-0.97,2.50,2.38,7.08
6.5930,0.07,0.18,-0.98,2.14,1.53,12.70
6.6080,0.07,0.17,-0.98,1.71,0.55,18.86
6.6230,0.07,0.16,-0.98,1.59,0.12,22.89
6.6340,0.11,0.11,-0.98,0.61,-1.10,29.60
6.6510,0.10,0.09,-0.99,1.22,0.37,22.89
6.6670,0.07,0.09,-0.99,1.83,1.40,13.98
6.6830,0.07,0.10,-0.99,1.83,1.46,14.22
6.6980,0.07,0.11,-0.99,1.95,0.98,15.08
6.7130,0.06,0.12,-0.99,1.65,1.22,16.42
6.7290,0.07,0.13,-0.98,1.28,0.61,20.20
6.7420,0.07,0.13,-0.98,1.10,0.24,22.46
6.7580,0.07,0.14,-0.98,1.22,0.00,23.01
6.7730,0.08,0.17,-0.98,1.16,-0.12,26.61
6.7840,0.08,0.16,-0.98,0.61,-0.98,30.27
6.8010,0.09,0.16,-0.98,0.49,-1.22,32.47
6.8170,0.09,0.15,-0.98,0.49,-1.34,34.91
6.8330,0.09,0.12,-0.99,0.12,-1.34,35.10
6.8490,0.11,0.08,-0.99,-0.24,-0.79,29.36
6.8640,0.09,0.10,-0.98,1.34,1.04,19.04
6.8780,0.08,0.11,-0.99,1.77,0.98,16.17
6.8930,0.06,0.09,-0.99,2.08,0.98,15.93
6.9090,0.05,0.08,-0.99,2.01,1.22,16.30
6.9240,0.07,0.12,-0.98,1.59,1.16,17.58
6.9340,0.06,0.12,-0.99,1.77,1.10,17.46
6.9520,0.07,0.14,-0.98,1.53,0.92,19.10
6.9670,0.07,0.16,-0.97,1.65,0.55,19.84
6.9840,0.08,0.19,-0.97,1.46,0.37,19.35
6.9990,0.09,0.14,-0.98,1.83,0.31,18.98
7.0010,0.09,0.14,-0.98,1.89,0.79,18.68
7.0290,0.08,0.12,-0.98,1.46,0.49,19.65
7.0440,0.08,0.13,-0.98,1.59,0.12,20.81
7.0590,0.08,0.13,-0.98,1.46,0.24,21.42
7.0670,0.09,0.11,-0.98,1.10,0.31,24.72
7.0890,0.08,0.11,-0.98,1.10,-0.24,26.00
7.1010,0.08,0.11,-0.98,1.16,0.00,24.11
7.1160,0.09,0.12,-0.98,1.40,0.24,22.40
7.1340,0.08,0.12,-0.98,1.71,0.31,21.06
7.1490,0.13,0.14,-0.98,1.71,0.61,20.02
7.1510,0.13,0.10,-0.98,3.11,2.87,3.97
7.1790,0.09,0.07,-0.99,4.09,4.94,-9.28
7.1840,0.04,0.07,-0.99,4.21,5.07,-9.83
7.2000,0.05,0.10,-0.99,3.48,4.33,-3.85
7.2240,0.05,0.12,-0.99,2.93,3.23,1.10
7.2340,0.05,0.11,-0.99,2.81,2.93,4.94
7.2510,0.05,0.11,-0.99,2.81,2.75,6.90
7.2680,0.07,0.11,-0.99,2.50,2.50,8.85
7.2830,0.07,0.11,-0.98,2.56,2.44,8.73
7.2990,0.08,0.10,-0.99,2.26,2.50,6.77
7.3140,0.08,0.11,-0.98,2.81,2.99,4.52
7.3280,0.09,0.13,-0.98,2.93,2.87,4.09
7.3440,0.09,0.14,-0.98,3.17,3.05,2.50
7.3580,0.07,0.12,-0.98,3.30,3.11,2.01
7.3730,0.08,0.12,-0.99,2.87,3.23,2.44
7.3890,0.07,0.11,-0.98,3.48,3.11,1.22
7.4000,0.07,0.10,-0.99,3.17,3.42,1.59
7.4170,0.08,0.12,-0.98,3.42,3.30,1.89
7.4340,0.08,0.12,-0.98,3.42,3.42,1.95
7.4500,0.08,0.13,-0.98,3.17,3.23,1.71
7.4650,0.09,0.14,-0.98,2.99,3.48,0.55
7.4800,0.07,0.11,-0.99,3.60,3.78,-0.43
7.4950,0.09,0.11,-0.98,3.54,3.85,-0.43
7.5010,0.08,0.11,-0.98,3.60,3.91,-3.05
7.5250,0.07,0.13,-0.98,3.72,4.27,-3.11
7.5390,0.07,0.14,-0.98,3.48,4.03,-1.95
7.5510,0.13,0.14,-0.98,3.30,3.85,-0.37
7.5670,0.12,0.13,-0.98,3.91,4.88,-6.71
7.5840,0.05,0.07,-0.99,4.64,5.74,-12.88
7.6000,0.04,0.07,-0.99,4.52,5.92,-14.65
7.6150,0.07,0.13,-0.98,4.58,6.04,-15.20
7.6300,0.05,0.15,-0.98,4.52,5.49,-11.47
7.6450,0.07,0.15,-0.98,3.72,4.09,-1.46
7.6600,0.08,0.12,-0.98,2.99,3.36,1.89
7.6750,0.08,0.12,-0.98,3.05,3.72,1.89
7.6840,0.08,0.12,-0.98,3.17,3.30,1.89
7.7010,0.05,0.09,-0.99,3.23,3.23,2.08
7.7170,0.06,0.11,-0.99,2.75,2.99,5.25
7.7330,0.09,0.14,-0.97,2.93,2.62,5.74
7.7500,0.09,0.15,-0.98,2.93,2.81,4.52
7.7650,0.08,0.12,-0.98,3.36,3.36,2.75
7.7800,0.08,0.13,-0.98,3.17,3.05,2.56
7.7940,0.08,0.13,-0.98,2.87,3.36,2.20
7.8100,0.08,0.12,-0.98,3.05,3.17,1.95
7.8250,0.08,0.12,-0.98,3.36,3.48,1.89
7.8340,0.08,0.12,-0.98,3.11,3.48,1.89
7.8550,0.08,0.12,-0.98,3.23,3.36,1.83
7.8660,0.08,0.12,-0.98,3.17,3.30,2.01
7.8840,0.08,0.12,-0.98,3.23,3.66,1.95
7.8990,0.08,0.12,-0.98,3.23,3.42,2.01
7.9010,0.08,0.12,-0.98,3.23,3.05,1.71
7.9300,0.08,0.12,-0.98,3.36,3.23,1.77
7.9450,0.08,0.12,-0.98,3.11,2.99,1.89
7.9590,0.08,0.12,-0.98,3.23,3.48,2.01
7.9750,0.08,0.12,-0.98,3.30,3.11,1.89
7.9900,0.08,0.12,-0.98,3.36,3.17,1.77
8.0000,0.08,0.12,-0.98,3.23,3.05,1.89
8.0180,0.08,0.12,-0.98,3.23,3.36,1.89
8.0330,0.08,0.13,-0.98,2.99,3.17,1.77
8.0500,0.08,0.12,-0.98,2.87,3.36,1.89
8.0650,0.08,0.12,-0.98,2.99,3.30,1.71
8.0800,0.08,0.12,-0.98,2.99,3.30,1.83
8.0950,0.08,0.12,-0.98,2.99,3.11,1.83
8.1100,0.07,0.13,-0.99,3.05,3.17,1.83
8.1250,0.08,0.12,-0.98,2.99,3.17,1.83
8.1400,0.08,0.12,-0.98,3.11,3.36,1.95
8.1550,0.08,0.12,-0.98,3.30,3.42,1.89
8.1670,0.08,0.12,-0.98,3.17,3.17,1.89
8.1840,0.08,0.12,-0.98,3.05,3.72,1.77
8.2000,0.08,0.12,-0.98,3.11,3.60,1.89
8.2150,0.08,0.12,-0.98,3.42,3.23,1.95
8.2300,0.08,0.12,-0.98,3.17,3.11,1.95
8.2450,0.08,0.12,-0.98,3.05,3.72,1.89
8.2600,0.08,0.12,-0.98,3.17,3.11,1.89
8.2760,0.08,0.12,-0.98,3.11,3.05,1.83
8.2910,0.08,0.12,-0.98,3.11,3.30,1.95
8.3060,0.08,0.12,-0.98,3.30,3.23,1.71
8.3170,0.08,0.12,-0.98,3.05,3.36,1.83
8.3340,0.08,0.12,-0.98,3.30,3.17,1.89
8.3510,0.08,0.12,-0.98,2.99,3.30,1.89
8.3660,0.08,0.12,-0.98,3.17,3.11,1.77
8.3800,0.08,0.13,-0.98,3.30,2.99,1.77
8.3950,0.08,0.12,-0.98,2.93,3.23,1.89
8.4010,0.08,0.12,-0.98,3.23,3.17,1.83
8.4260,0.08,0.12,-0.98,2.99,3.17,1.89
8.4410,0.08,0.12,-0.98,3.17,3.11,1.89
8.4560,0.08,0.12,-0.98,3.23,2.69,1.77
8.4670,0.08,0.12,-0.98,2.93,3.30,1.77
8.4830,0.08,0.12,-0.98,3.17,3.30,1.77
8.5000,0.08,0.12,-0.98,3.23,3.66,1.89
8.5020,0.08,0.12,-0.98,3.30,3.05,1.83
8.5300,0.08,0.12,-0.99,3.30,3.11,1.77
8.5470,0.08,0.12,-0.98,3.23,3.36,1.89
8.5600,0.08,0.12,-0.98,3.17,3.42,1.89
8.5760,0.08,0.13,-0.98,3.30,3.11,1.83
8.5910,0.08,0.12,-0.98,3.11,3.11,1.83
8.6050,0.08,0.12,-0.98,3.30,3.66,1.95
8.6160,0.08,0.13,-0.98,3.30,3.36,1.89
8.6340,0.08,0.13,-0.98,3.17,3.36,1.89
8.6510,0.09,0.12,-0.97,2.87,3.36,1.89
8.6660,0.07,0.12,-0.98,2.87,3.30,1.71
8.6670,0.08,0.12,-0.98,3.23,3.66,1.77
8.6960,0.08,0.12,-0.98,3.11,3.30,1.95
8.7100,0.08,0.12,-0.98,3.05,3.54,2.01
8.7260,0.08,0.12,-0.98,3.23,3.11,1.89
8.7400,0.08,0.12,-0.98,3.11,3.42,1.95
8.7560,0.08,0.12,-0.98,3.17,3.42,1.89
8.7670,0.08,0.12,-0.98,3.23,2.93,1.95
8.7830,0.08,0.12,-0.98,3.23,3.42,2.01
8.8000,0.08,0.12,-0.98,3.23,3.36,1.83
8.8150,0.08,0.12,-0.98,3.11,3.17,1.95
8.8310,0.08,0.12,-0.98,3.17,3.48,1.83
8.8450,0.08,0.12,-0.98,3.11,3.23,1.83
8.8610,0.08,0.12,-0.98,3.05,3.23,1.95
8.8750,0.08,0.12,-0.98,3.11,3.17,1.83
8.8910,0.08,0.12,-0.98,3.30,3.17,1.77
8.9060,0.08,0.12,-0.98,3.23,3.54,1.83
8.9170,0.08,0.12,-0.98,2.93,3.11,1.89
8.9340,0.08,0.12,-0.98,3.05,3.42,1.89
8.9500,0.08,0.12,-0.98,3.42,3.23,1.83
8.9660,0.08,0.12,-0.98,3.17,3.30,1.77
8.9810,0.08,0.12,-0.98,3.17,3.48,1.89
8.9960,0.08,0.12,-0.98,3.17,3.11,1.89
9.0110,0.08,0.12,-0.98,2.99,3.23,1.83
9.0260,0.08,0.12,-0.98,3.11,3.11,1.77
9.0420,0.08,0.12,-0.98,3.17,3.30,1.83
9.0560,0.08,0.12,-0.98,3.23,3.11,1.83
9.0670,0.08,0.12,-0.98,3.23,2.99,1.77
9.0850,0.08,0.12,-0.98,3.30,2.87,1.95
9.1000,0.08,0.12,-0.98,3.23,3.36,1.83
9.1170,0.08,0.12,-0.98,3.17,3.17,1.83
9.1320,0.08,0.12,-0.98,2.99,3.66,1.95
9.1460,0.08,0.12,-0.98,3.11,3.30,1.83
9.1610,0.08,0.12,-0.98,3.23,3.48,2.01
9.1770,0.08,0.12,-0.98,3.05,3.05,1.83
9.1910,0.08,0.12,-0.98,3.23,3.17,1.83
9.2060,0.08,0.12,-0.98,3.36,3.36,1.83
9.2220,0.08,0.12,-0.98,3.17,3.36,1.83
9.2340,0.08,0.12,-0.98,3.17,3.17,1.71
9.2500,0.08,0.12,-0.98,3.11,3.05,2.01
9.2660,0.08,0.12,-0.98,3.23,3.30,1.89
9.2820,0.08,0.12,-0.98,3.05,3.23,1.95
9.2960,0.08,0.12,-0.98,3.30,3.30,1.89
9.3120,0.08,0.12,-0.98,3.42,3.30,1.95
9.3270,0.08,0.13,-0.98,3.30,3.54,1.95
9.3430,0.08,0.12,-0.98,3.23,3.17,1.83
9.3580,0.08,0.12,-0.98,3.30,2.93,1.89
9.3730,0.08,0.12,-0.98,3.36,2.93,1.89
9.3850,0.08,0.12,-0.98,3.17,2.99,1.83
9.4000,0.08,0.12,-0.98,3.05,3.23,1.89
9.4180,0.08,0.12,-0.98,3.11,3.05,1.77
9.4350,0.08,0.12,-0.98,3.30,3.05,1.83
9.4510,0.08,0.12,-0.98,3.23,3.17,1.89
9.4660,0.08,0.12,-0.98,3.17,3.30,2.01
9.4810,0.08,0.12,-0.98,3.36,3.17,1.89
9.4960,0.08,0.12,-0.98,3.17,3.42,1.83
9.5110,0.08,0.12,-0.98,3.42,2.99,1.95
9.5250,0.08,0.12,-0.98,3.36,3.11,1.83
9.5410,0.08,0.12,-0.98,3.23,3.11,1.89
9.5550,0.08,0.12,-0.98,3.23,3.11,1.95
9.5670,0.08,0.12,-0.98,3.23,3.42,1.83
9.5840,0.08,0.12,-0.98,3.23,3.23,1.89
9.6010,0.08,0.12,-0.98,3.30,3.60,1.89
9.6010,0.08,0.12,-0.98,3.11,3.30,1.89
9.6300,0.08,0.12,-0.98,3.30,3.23,1.71
9.6450,0.08,0.12,-0.98,3.05,3.11,1.89
9.6610,0.08,0.12,-0.98,3.11,3.36,1.95
9.6750,0.08,0.12,-0.98,3.05,3.17,1.77
9.6900,0.08,0.12,-0.98,3.11,3.42,1.83
9.7010,0.08,0.12,-0.98,3.30,3.11,1.89
9.7170,0.08,0.12,-0.98,3.23,3.05,1.83
9.7340,0.08,0.12,-0.98,3.23,3.17,1.83
9.7500,0.08,0.12,-0.98,3.42,3.42,1.77
9.7650,0.08,0.12,-0.98,3.23,3.36,1.71
9.7810,0.08,0.12,-0.98,3.23,3.17,1.95
9.7850,0.08,0.12,-0.98,3.36,3.11,1.77
9.8110,0.08,0.12,-0.98,3.17,3.36,1.71
9.8250,0.08,0.12,-0.98,3.17,3.42,1.89
9.8400,0.08,0.12,-0.98,3.05,3.91,1.77
9.8510,0.08,0.12,-0.98,3.17,3.11,1.83
9.8670,0.08,0.12,-0.98,3.17,2.93,1.83
9.8830,0.08,0.12,-0.98,3.05,3.30,1.77
9.9010,0.08,0.12,-0.98,3.17,2.93,1.71
9.9160,0.08,0.12,-0.98,3.05,3.11,1.89
9.9310,0.08,0.12,-0.98,3.30,3.11,1.89
9.9460,0.08,0.12,-0.98,3.17,3.05,1.89
9.9600,0.08,0.12,-0.98,3.36,3.42,2.01
9.9680,0.08,0.12,-0.98,3.42,3.36,1.77
9.9900,0.08,0.12,-0.98,2.99,3.36,1.89
10.0060,0.08,0.12,-0.98,3.23,3.30,1.83
10.0170,0.08,0.12,-0.98,3.23,3.30,1.89
10.0350,0.08,0.12,-0.98,3.17,3.48,1.83
10.0500,0.08,0.12,-0.98,3.11,2.81,1.77
10.0660,0.08,0.12,-0.98,3.30,3.54,1.89
10.0800,0.08,0.12,-0.98,3.30,3.42,1.77
10.0960,0.08,0.12,-0.98,3.30,3.23,1.89
10.1100,0.08,0.12,-0.98,2.99,3.17,1.77
10.1260,0.08,0.12,-0.98,3.23,3.42,1.95
10.1350,0.08,0.16,-0.98,3.17,3.23,1.77
10.1560,0.08,0.13,-0.98,3.17,3.30,1.77
10.1670,0.08,0.12,-0.98,3.17,3.17,2.01
10.1830,0.08,0.12,-0.98,3.05,3.23,1.83
10.2000,0.08,0.12,-0.98,3.36,2.87,1.83
10.2160,0.13,0.13,-0.98,3.17,2.99,1.04
10.2310,0.21,0.14,-0.97,3.17,3.48,-0.61
10.2460,0.16,0.13,-0.98,3.54,4.09,-3.54
10.2520,0.08,0.11,-0.99,3.97,4.09,-4.46
10.2670,0.08,0.12,-0.98,3.72,4.27,-4.52
10.2910,0.09,0.13,-0.98,3.78,4.39,-5.37
10.3010,0.13,0.15,-0.97,3.91,4.76,-8.06
10.3180,0.15,0.17,-0.97,4.33,5.92,-14.53
10.3340,0.09,0.11,-0.98,4.94,6.90,-21.12
10.3510,0.04,0.09,-0.99,5.19,6.96,-21.91
10.3670,-0.05,0.09,-1.00,5.00,6.71,-18.92
10.3820,-0.02,0.11,-1.00,4.39,5.25,-11.41
10.3970,0.08,0.14,-0.98,4.15,5.07,-8.73
10.4010,0.15,0.14,-0.97,4.27,5.43,-10.68
10.4260,0.14,0.11,-0.98,4.52,5.74,-13.92
10.4420,0.07,0.12,-0.98,4.39,5.62,-14.22
10.4520,-0.01,0.11,-0.99,4.39,5.68,-12.45
10.4670,-0.01,0.12,-0.99,4.15,4.88,-7.14
10.4840,0.04,0.12,-0.99,3.66,4.33,-3.85
10.5020,0.10,0.13,-0.98,3.72,4.27,-3.91
10.5170,0.15,0.14,-0.98,3.78,4.70,-5.98
10.5320,0.08,0.12,-0.99,4.33,5.25,-9.77
10.5340,0.01,0.11,-0.99,4.09,4.70,-7.51
10.5620,0.02,0.12,-0.99,3.97,4.27,-4.46
10.5760,0.04,0.12,-0.99,3.72,3.85,-3.48
10.5920,0.10,0.13,-0.98,3.60,3.85,-3.36
10.6070,0.17,0.11,-0.98,3.48,4.09,-3.17
10.6170,0.16,0.12,-0.97,3.23,4.39,-4.27
10.6350,0.10,0.12,-0.98,3.72,4.33,-4.76
10.6510,-0.01,0.12,-0.99,3.78,3.97,-3.66
10.6670,-0.03,0.13,-0.99,3.42,3.66,-0.37
10.6810,0.06,0.13,-0.98,3.42,3.48,1.04
10.6960,0.16,0.13,-0.97,2.75,3.30,1.77
10.7120,0.20,0.16,-0.97,3.23,3.30,-14.53
10.7270,0.14,0.15,-0.97,3.54,3.91,-2.14
10.7410,0.02,0.10,-0.99,4.09,4.21,-4.94
10.7570,-0.01,0.11,-0.99,3.30,4.21,-2.99
10.7720,-0.00,0.07,-0.99,3.23,3.60,0.06
10.7840,0.04,0.10,-0.99,3.11,3.42,0.85
10.8000,0.08,0.12,-0.98,3.42,3.23,1.95
10.8170,0.08,0.13,-0.98,3.36,3.42,1.77
10.8310,0.08,0.12,-0.98,3.23,3.11,1.77
10.8340,0.08,0.12,-0.98,3.23,3.05,1.89
10.8610,0.08,0.12,-0.98,3.17,3.42,1.83
10.8770,0.08,0.12,-0.98,2.93,3.30,1.83
10.8920,0.08,0.12,-0.98,3.17,3.17,1.89
10.9010,0.08,0.12,-0.98,3.42,3.17,2.01
10.9170,0.08,0.12,-0.98,3.23,2.99,1.89
10.9340,0.08,0.12,-0.98,3.30,3.36,1.83
10.9520,0.08,0.12,-0.98,3.36,2.99,1.83
10.9670,0.08,0.12,-0.98,3.17,3.36,1.77
10.9820,0.08,0.12,-0.98,2.99,3.42,1.46
10.9850,0.08,0.12,-0.98,3.11,3.48,1.65
11.0120,0.08,0.12,-0.98,3.36,3.30,1.71
11.0270,0.08,0.12,-0.98,3.36,3.11,1.77
11.0420,0.08,0.12,-0.98,3.48,3.42,0.43
11.0560,0.08,0.13,-0.98,3.48,3.78,-0.31
11.0680,0.07,0.13,-0.98,3.23,3.23,-0.06
11.0830,0.08,0.12,-0.98,3.66,3.60,1.71
11.1000,0.08,0.12,-0.98,3.17,3.42,1.83
11.1170,0.08,0.12,-0.98,3.17,3.30,1.89
11.1180,0.08,0.12,-0.98,2.99,3.54,1.83
11.1350,0.08,0.12,-0.98,2.99,3.17,1.89
11.1610,0.08,0.12,-0.98,3.23,3.42,1.77
11.1770,0.08,0.12,-0.98,2.99,2.99,1.89
11.1910,0.08,0.12,-0.98,3.30,2.99,1.83
11.2070,0.08,0.13,-0.98,3.42,3.30,1.89
11.2170,0.08,0.12,-0.97,3.60,3.23,1.46
11.2330,0.08,0.13,-0.99,3.36,3.17,1.89
11.2510,0.08,0.13,-0.98,3.05,3.23,2.01
11.2670,0.08,0.13,-0.99,2.81,3.48,1.71
11.2820,0.08,0.12,-0.98,3.17,3.17,1.95
11.2960,0.08,0.13,-0.98,3.05,3.30,1.89
11.3110,0.08,0.12,-0.98,3.42,3.23,1.95
11.3270,0.08,0.12,-0.98,3.36,3.30,1.71
11.3420,0.08,0.12,-0.98,3.17,3.23,1.77
11.3570,0.08,0.12,-0.98,3.17,3.36,1.95
11.3670,0.08,0.12,-0.98,3.17,3.11,1.95
11.3830,0.08,0.12,-0.98,3.11,3.11,1.89
11.4010,0.08,0.12,-0.98,3.17,3.17,1.95
11.4170,0.08,0.12,-0.98,3.23,3.05,1.95
11.4180,0.08,0.12,-0.98,3.05,3.17,1.77
11.4340,0.08,0.12,-0.98,3.17,3.48,2.01
11.4620,0.08,0.12,-0.98,3.11,3.36,1.89
11.4770,0.08,0.12,-0.98,3.23,3.60,1.83
11.4920,0.08,0.12,-0.98,3.05,3.30,2.01
11.5070,0.08,0.13,-0.98,3.05,3.36,1.71
11.5170,0.08,0.12,-0.98,3.11,3.17,1.77
11.5340,0.08,0.12,-0.98,3.11,3.23,2.01
11.5510,0.08,0.12,-0.98,3.17,3.36,1.83
11.5670,0.08,0.12,-0.98,3.30,3.42,2.01
11.5680,0.08,0.12,-0.98,3.23,3.54,1.95
11.5970,0.08,0.12,-0.98,3.11,3.36,1.89
11.6110,0.08,0.12,-0.98,3.05,3.23,1.83
11.6260,0.08,0.12,-0.98,3.23,3.23,1.83
11.6340,0.08,0.12,-0.98,2.99,3.42,1.89
11.6570,0.08,0.12,-0.98,2.93,3.30,1.89
11.6670,0.08,0.12,-0.98,3.30,3.11,1.77
11.6840,0.08,0.12,-0.98,3.30,3.23,1.77
11.7010,0.08,0.12,-0.98,3.17,3.42,1.89
11.7170,0.08,0.12,-0.98,3.23,2.99,1.77
11.7320,0.08,0.12,-0.98,2.99,3.11,2.01
11.7350,0.08,0.12,-0.98,2.99,3.42,1.83
11.7610,0.08,0.12,-0.98,2.93,2.93,1.77
11.7760,0.08,0.12,-0.98,3.30,3.42,1.89
11.7920,0.08,0.12,-0.98,3.36,3.36,1.77
11.8010,0.08,0.12,-0.98,3.30,3.17,1.83
11.8160,0.08,0.12,-0.98,3.11,2.93,1.89
11.8340,0.08,0.12,-0.98,3.05,3.23,1.83
11.8520,0.08,0.13,-0.98,3.11,3.23,1.89
11.8520,0.08,0.13,-0.98,3.23,3.23,1.95
11.8820,0.08,0.12,-0.98,3.30,3.23,2.01
11.8850,0.08,0.12,-0.98,3.05,3.42,2.01
11.9120,0.08,0.13,-0.98,2.99,3.30,2.08
11.9270,0.08,0.12,-0.98,2.99,3.05,1.77
11.9420,0.08,0.12,-0.98,3.23,2.93,1.95
11.9560,0.08,0.12,-0.98,3.23,3.23,1.77
11.9720,0.08,0.12,-0.98,2.99,3.42,2.01
11.9840,0.08,0.12,-0.98,2.99,3.42,1.65
12.0010,0.08,0.12,-0.98,3.11,3.36,1.95
12.0170,0.08,0.12,-0.98,3.17,3.23,1.83
12.0320,0.08,0.12,-0.98,3.23,3.23,1.89
12.0350,0.08,0.12,-0.98,2.93,3.30,1.83
12.0620,0.08,0.12,-0.98,3.17,3.66,1.71
12.0770,0.08,0.12,-0.98,3.23,3.36,1.77
12.0920,0.08,0.12,-0.98,3.05,3.23,1.83
12.1060,0.08,0.12,-0.98,3.17,3.66,1.95
12.1170,0.08,0.12,-0.98,3.05,3.30,1.71
12.1340,0.08,0.12,-0.98,3.11,3.30,1.83
12.1500,0.08,0.12,-0.98,2.99,3.17,1.89
12.1670,0.08,0.12,-0.98,3.11,3.30,1.77
12.1820,0.08,0.12,-0.98,3.30,3.30,1.95
12.1960,0.08,0.12,-0.98,3.17,3.36,1.95
12.2120,0.08,0.12,-0.98,3.05,2.99,1.89
12.2260,0.08,0.12,-0.99,3.17,2.99,1.77
12.2410,0.08,0.12,-0.98,3.17,3.11,1.77
12.2570,0.08,0.12,-0.98,3.23,3.05,1.71
12.2670,0.08,0.12,-0.98,3.17,3.42,1.95
12.2830,0.08,0.12,-0.98,3.48,3.05,1.83
12.3000,0.08,0.12,-0.98,3.11,3.42,1.89
12.3170,0.08,0.12,-0.98,3.17,3.11,1.71
12.3310,0.08,0.12,-0.98,3.05,3.48,1.77
12.3460,0.08,0.12,-0.98,3.17,3.30,1.77
12.3620,0.08,0.12,-0.98,3.11,2.99,1.77
12.3770,0.08,0.12,-0.98,3.17,3.05,1.89
12.3920,0.08,0.12,-0.98,3.23,3.23,1.89
12.4070,0.08,0.12,-0.98,3.05,2.99,1.83
12.4170,0.08,0.12,-0.98,2.87,2.93,1.77
12.4340,0.08,0.12,-0.98,3.05,3.23,1.83
12.4520,0.08,0.12,-0.98,2.87,3.36,1.95
12.4680,0.08,0.12,-0.98,3.23,3.30,1.95
12.4830,0.08,0.12,-0.98,2.99,3.17,1.77
12.4850,0.08,0.12,-0.98,2.93,3.30,1.89
12.5130,0.08,0.12,-0.98,2.99,3.30,1.83
12.5280,0.08,0.12,-0.98,3.48,3.54,1.89
12.5420,0.08,0.12,-0.98,3.36,3.11,1.89
12.5570,0.08,0.12,-0.98,3.36,3.30,1.77
12.5720,0.08,0.12,-0.98,3.17,2.99,1.71
12.5830,0.08,0.12,-0.98,3.11,3.17,1.71
12.6000,0.08,0.12,-0.98,3.30,3.36,1.83
12.6170,0.08,0.12,-0.98,3.30,3.66,1.71
12.6320,0.08,0.12,-0.98,2.93,2.99,1.83
12.6480,0.08,0.12,-0.98,3.11,3.36,1.77
12.6620,0.08,0.12,-0.98,3.17,3.23,1.77
12.6780,0.08,0.12,-0.98,3.05,3.30,1.83
12.6920,0.08,0.12,-0.98,3.23,3.23,1.65
12.7020,0.08,0.12,-0.98,3.17,3.11,1.77
12.7170,0.08,0.12,-0.98,3.17,3.23,1.89
12.7340,0.08,0.13,-0.99,3.11,3.60,1.71
12.7510,0.08,0.12,-0.98,3.11,3.05,1.83
12.7680,0.08,0.12,-0.98,3.17,3.05,1.89
12.7830,0.08,0.13,-0.98,3.11,3.30,1.83
12.7850,0.08,0.12,-0.98,3.05,3.30,1.77
12.8130,0.08,0.12,-0.98,3.11,3.17,1.83
12.8270,0.08,0.12,-0.98,3.30,3.48,1.95
12.8430,0.08,0.12,-0.98,3.11,3.36,1.89
12.8580,0.08,0.12,-0.98,3.30,3.36,1.77
12.8730,0.08,0.13,-0.98,3.30,3.30,1.83
12.8840,0.08,0.12,-0.99,2.81,3.05,1.83
12.9010,0.08,0.12,-0.98,3.11,3.36,1.83
12.9180,0.08,0.12,-0.98,3.05,3.23,1.95
12.9320,0.08,0.12,-0.98,3.23,3.42,1.95
12.9470,0.08,0.12,-0.98,3.23,3.17,1.95
12.9510,0.08,0.11,-0.97,2.93,3.30,1.83
12.9780,0.08,0.12,-0.98,3.23,3.42,1.77
12.9920,0.08,0.12,-0.98,2.87,3.05,1.77
13.0010,0.08,0.12,-0.98,3.11,3.23,1.71
13.0180,0.08,0.12,-0.98,3.23,3.30,1.89
13.0340,0.08,0.12,-0.98,3.05,3.60,1.89
13.0500,0.08,0.13,-0.98,2.99,3.17,1.83
13.0680,0.08,0.12,-0.98,2.99,3.36,1.71
13.0830,0.08,0.12,-0.98,3.30,3.23,1.65
13.0850,0.08,0.12,-0.98,3.36,3.17,1.77
13.1130,0.08,0.13,-0.98,3.05,2.93,1.89
13.1270,0.08,0.12,-0.98,2.99,3.48,1.65
13.1420,0.08,0.12,-0.98,3.17,3.23,1.71
13.1510,0.08,0.13,-0.98,3.30,3.05,1.89
13.1680,0.08,0.13,-0.98,3.05,3.23,1.77
13.1840,0.08,0.12,-0.98,2.93,3.36,1.95
13.2000,0.08,0.12,-0.98,3.30,3.17,1.83
13.2180,0.08,0.12,-0.98,3.30,3.60,1.77
13.2330,0.08,0.12,-0.98,3.05,3.42,1.89
13.2340,0.08,0.12,-0.98,3.30,3.23,1.71
13.2630,0.08,0.12,-0.98,3.11,2.99,1.83
13.2780,0.08,0.12,-0.98,3.05,3.11,1.65
13.2920,0.08,0.12,-0.98,3.11,2.99,1.77
13.3070,0.08,0.13,-0.98,3.17,3.23,1.83
13.3230,0.08,0.12,-0.98,3.17,3.54,1.83
13.3340,0.08,0.12,-0.98,2.99,3.23,1.71
13.3510,0.08,0.12,-0.98,3.11,3.42,1.83
13.3680,0.08,0.12,-0.98,2.93,3.30,1.83
13.3680,0.08,0.12,-0.98,2.93,3.54,1.95
13.3970,0.08,0.12,-0.98,3.23,3.42,1.83
13.4130,0.08,0.12,-0.98,2.99,3.54,1.89
13.4280,0.08,0.12,-0.98,2.99,3.17,1.83
13.4430,0.08,0.12,-0.98,2.87,3.30,1.95
13.4570,0.08,0.13,-0.98,3.42,3.36,1.83
13.4670,0.08,0.12,-0.98,3.05,3.60,1.95
13.4840,0.08,0.12,-0.98,3.11,3.42,1.77
13.5020,0.08,0.12,-0.98,3.30,3.23,1.83
13.5170,0.08,0.12,-0.98,3.17,3.42,1.65
13.5330,0.08,0.12,-0.98,3.36,3.05,1.77
13.5470,0.08,0.12,-0.98,3.17,3.23,1.83
13.5510,0.08,0.13,-0.98,3.23,3.48,1.89
13.5790,0.08,0.12,-0.98,3.17,2.87,1.83
13.5930,0.08,0.12,-0.98,2.99,3.30,1.83
13.6090,0.08,0.12,-0.98,3.30,3.23,1.83
13.6240,0.08,0.12,-0.98,3.30,3.23,1.77
13.6350,0.08,0.12,-0.98,3.23,3.23,2.01
13.6530,0.08,0.12,-0.98,3.30,3.42,1.71
13.6680,0.08,0.12,-0.98,3.17,3.23,1.83
13.6680,0.08,0.12,-0.98,3.23,3.42,1.95
13.6980,0.08,0.12,-0.98,3.23,3.42,1.83
13.7140,0.08,0.11,-0.99,3.23,3.05,1.65
13.7290,0.08,0.11,-0.98,3.42,3.78,-1.59
13.7350,0.08,0.11,-0.99,3.42,3.91,-1.10
13.7590,0.07,0.13,-0.98,3.11,3.36,1.16
13.7730,0.07,0.13,-0.98,3.17,3.48,1.83
13.7890,0.07,0.14,-0.98,3.05,3.54,1.28
13.8000,0.07,0.13,-0.98,2.93,3.36,1.22
13.8170,0.08,0.12,-0.99,3.23,3.36,1.53
13.8340,0.09,0.11,-0.98,3.60,3.91,-0.67
13.8490,0.08,0.11,-0.98,3.42,3.78,-1.89
13.8630,0.07,0.11,-0.98,3.48,3.72,-0.92
13.8790,0.07,0.11,-0.98,3.17,3.42,1.89
13.8940,0.07,0.14,-0.98,2.99,3.60,1.71
13.9080,0.08,0.14,-0.98,2.99,3.54,1.28
13.9240,0.08,0.14,-0.98,3.17,3.30,0.92
13.9350,0.08,0.14,-0.98,3.11,3.54,1.28
13.9510,0.08,0.13,-0.98,3.05,3.23,2.08
13.9680,0.08,0.12,-0.98,3.36,3.42,1.53
13.9840,0.08,0.12,-0.98,3.23,3.17,1.28
13.9990,0.08,0.12,-0.98,3.36,3.54,0.92
14.0140,0.07,0.13,-0.98,3.17,3.42,0.79
14.0290,0.08,0.12,-0.98,3.05,3.23,1.22
14.0430,0.08,0.12,-0.98,3.42,3.42,0.43
14.0590,0.08,0.11,-0.99,3.23,3.72,-0.31
14.0730,0.07,0.11,-0.98,3.72,3.91,-2.38
14.0830,0.08,0.12,-0.98,3.78,3.72,-1.28
14.1010,0.08,0.14,-0.98,3.05,3.05,2.50
14.1170,0.08,0.14,-0.98,3.11,3.17,2.75
14.1340,0.08,0.13,-0.98,3.36,3.36,1.53
14.1360,0.08,0.13,-0.98,3.30,3.48,1.16
14.1640,0.08,0.13,-0.98,2.93,3.85,0.73
14.1790,0.08,0.12,-0.98,3.30,3.60,0.24
14.1940,0.08,0.12,-0.98,3.11,3.54,-0.12
14.2100,0.08,0.11,-0.98,3.48,3.66,-0.85
14.2180,0.07,0.12,-0.98,3.60,4.33,-3.54
14.2350,0.07,0.12,-0.98,3.91,4.52,-4.27
14.2520,0.07,0.12,-0.98,3.36,4.03,-2.81
14.2670,0.08,0.13,-0.98,3.48,4.03,-1.40
14.2840,0.08,0.14,-0.98,3.30,3.48,1.04
14.2850,0.08,0.14,-0.98,3.48,3.23,1.46
14.3140,0.08,0.12,-0.98,3.23,3.60,0.73
14.3300,0.08,0.13,-0.98,3.23,3.66,1.04
14.3440,0.08,0.12,-0.98,3.11,3.30,0.37
14.3590,0.08,0.11,-0.98,3.23,3.78,-0.55
14.3740,0.07,0.11,-0.98,3.54,4.03,-2.81
14.3850,0.07,0.12,-0.98,3.66,4.33,-5.19
14.4020,0.07,0.12,-0.98,3.78,4.52,-4.82
14.4170,0.08,0.14,-0.98,3.54,3.97,-2.14
14.4360,0.08,0.13,-0.98,3.36,3.72,0.49
14.4500,0.08,0.13,-0.98,2.93,3.54,1.71
14.4660,0.08,0.12,-0.98,3.23,3.48,0.67
14.4680,0.08,0.12,-0.98,3.30,3.78,-0.55
14.4960,0.07,0.12,-0.98,3.48,3.23,-0.37
14.5100,0.08,0.13,-0.98,3.17,3.42,1.34
14.5260,0.08,0.11,-0.98,3.23,3.23,1.77
14.5410,0.08,0.13,-0.98,3.17,3.91,-1.40
14.5510,0.07,0.12,-0.98,3.42,4.09,-2.69
14.5670,0.07,0.12,-0.98,3.85,4.39,-3.54
14.5840,0.07,0.12,-0.98,3.91,4.21,-3.23
14.6010,0.07,0.12,-0.98,3.60,4.15,-2.62
14.6010,0.08,0.13,-0.98,3.60,3.48,-0.98
14.6310,0.08,0.12,-0.98,3.60,3.60,-0.98
14.6460,0.08,0.13,-0.98,3.78,3.60,-1.71
14.6600,0.08,0.13,-0.98,3.60,3.78,-1.04
14.6760,0.08,0.13,-0.98,3.30,3.66,0.06
14.6910,0.08,0.12,-0.98,3.42,3.17,0.12
14.7060,0.08,0.11,-0.98,3.48,3.42,-0.31
14.7180,0.07,0.12,-0.98,3.60,4.09,-3.42
14.7350,0.08,0.12,-0.98,3.85,4.58,-4.33
14.7510,0.08,0.13,-0.98,3.72,4.52,-3.85
14.7510,0.08,0.13,-0.98,3.54,4.09,-2.62
14.7800,0.08,0.13,-0.98,3.17,3.72,-0.37
14.7950,0.08,0.14,-0.98,3.30,3.48,0.31
14.8110,0.08,0.13,-0.98,3.17,3.17,-0.18
14.8270,0.08,0.13,-0.98,3.17,3.48,-0.43
14.8360,0.08,0.12,-0.98,3.36,3.66,-0.55
14.8510,0.08,0.12,-0.98,3.36,3.36,-1.46
14.8690,0.08,0.12,-0.98,3.42,4.27,-1.77
14.8850,0.08,0.12,-0.98,3.30,3.66,-1.34
14.9000,0.08,0.12,-0.98,3.60,3.60,-2.01
14.9170,0.07,0.13,-0.98,3.66,3.66,-2.20
14.9320,0.07,0.12,-0.98,3.42,3.78,-0.98
14.9470,0.08,0.13,-0.98,3.17,3.30,0.37
14.9620,0.08,0.12,-0.98,3.30,3.30,0.73
14.9770,0.08,0.11,-0.98,3.42,3.54,-0.67
14.9910,0.08,0.12,-0.99,3.60,4.27,-3.91
15.0010,0.07,0.12,-0.98,3.91,4.52,-5.49
15.0190,0.08,0.13,-0.98,3.85,4.58,-3.91
15.0360,0.07,0.13,-0.98,3.54,3.72,-0.49
15.0510,0.08,0.13,-0.98,3.48,3.60,0.00
15.0660,0.09,0.13,-0.98,3.48,3.60,-0.79
15.0680,0.08,0.12,-0.98,3.48,4.21,-2.75
15.0970,0.07,0.12,-0.98,3.54,3.97,-3.30
15.1010,0.07,0.13,-0.98,3.17,4.21,-2.69
15.1270,0.08,0.14,-0.98,3.48,3.72,-0.92
15.1430,0.08,0.12,-0.98,2.93,3.23,2.44
15.1570,0.08,0.13,-0.98,2.99,2.81,2.81
15.1670,0.08,0.13,-0.98,3.05,3.48,0.98
15.1850,0.08,0.13,-0.98,3.36,3.54,-0.37
15.2000,0.08,0.12,-0.98,3.36,3.66,-0.67
15.2170,0.07,0.12,-0.98,3.23,3.78,-1.16
15.2180,0.07,0.12,-0.98,3.17,3.72,-0.18
15.2480,0.07,0.12,-0.99,3.36,3.42,0.55
15.2620,0.07,0.12,-0.98,3.17,3.60,0.00
15.2780,0.07,0.12,-0.98,3.36,3.78,-0.92
15.2930,0.08,0.13,-0.98,3.72,3.72,-0.85
15.3010,0.08,0.13,-0.98,3.48,3.48,0.24
15.3180,0.08,0.12,-0.98,3.11,3.17,2.08
15.3370,0.08,0.12,-0.98,3.17,3.23,1.71
15.3510,0.08,0.12,-0.99,3.30,3.54,-0.31
15.3670,0.08,0.12,-0.98,3.30,3.97,-1.59
15.3840,0.07,0.12,-0.98,3.36,3.97,-1.34
15.3990,0.08,0.13,-0.98,3.60,3.66,0.00
15.4010,0.08,0.13,-0.98,3.17,3.54,1.10
15.4310,0.08,0.13,-0.98,3.17,3.72,0.98
15.4370,0.08,0.13,-0.98,3.36,4.03,-0.31
15.4620,0.08,0.12,-0.98,3.66,3.66,-1.28
15.4680,0.08,0.13,-0.99,3.42,3.85,-0.92
15.4930,0.08,0.13,-0.98,3.48,3.66,-0.73
15.5080,0.08,0.13,-0.98,3.48,3.85,-0.31
15.5230,0.08,0.11,-0.98,3.54,4.03,-1.10
15.5370,0.08,0.12,-0.98,3.72,4.21,-2.75
15.5510,0.08,0.12,-0.98,3.54,3.48,-1.53
15.5680,0.07,0.12,-0.98,3.54,3.85,-1.28
15.5830,0.07,0.13,-0.98,3.54,3.66,-1.46
15.5990,0.08,0.12,-0.98,3.60,3.97,-2.87
15.6150,0.08,0.13,-0.98,3.78,4.09,-2.69
15.6190,0.08,0.13,-0.98,3.17,3.54,-0.55
15.6460,0.08,0.13,-0.98,3.42,3.42,1.16
15.6600,0.08,0.14,-0.98,3.23,3.36,1.71
15.6750,0.08,0.13,-0.98,3.17,3.48,1.53
15.6910,0.08,0.13,-0.98,3.11,3.30,1.40
15.7010,0.08,0.13,-0.98,3.23,2.99,1.53
15.7180,0.08,0.12,-0.98,3.23,3.30,1.95
15.7350,0.08,0.13,-0.98,3.11,3.11,2.26
15.7500,0.08,0.13,-0.98,3.17,3.23,1.83
15.7660,0.08,0.13,-0.98,2.99,3.36,1.83
15.7810,0.08,0.12,-0.98,3.11,3.30,1.16
15.7850,0.08,0.12,-0.98,3.48,3.54,0.61
15.8100,0.08,0.12,-0.98,3.36,3.91,-0.73
15.8260,0.08,0.11,-0.98,3.36,3.85,-1.59
15.8410,0.08,0.12,-0.98,3.54,3.85,-2.87
15.8510,0.08,0.13,-0.98,3.42,3.85,-1.40
15.8680,0.08,0.13,-0.98,3.48,3.91,0.00
15.8850,0.08,0.13,-0.98,3.54,3.48,-0.85
15.9000,0.08,0.12,-0.98,3.48,3.66,-1.77
15.9160,0.08,0.12,-0.98,3.60,4.39,-2.99
15.9180,0.08,0.12,-0.98,3.48,4.27,-2.20
15.9460,0.08,0.13,-0.98,3.48,3.78,-0.31
15.9610,0.08,0.13,-0.98,3.36,3.66,-0.06
15.9750,0.08,0.12,-0.98,3.30,3.85,-1.28
15.9840,0.07,0.13,-0.98,3.66,4.03,-2.75
16.0010,0.07,0.14,-0.98,3.66,4.15,-3.05
16.0170,0.08,0.14,-0.98,3.17,3.30,-0.43
16.0340,0.08,0.13,-0.98,2.87,3.23,0.85
16.0510,0.08,0.12,-0.98,3.05,3.36,2.01
16.0520,0.08,0.12,-0.98,3.30,3.48,-0.61
16.0670,0.08,0.12,-0.98,3.60,4.03,-2.38
16.0960,0.08,0.12,-0.98,3.60,4.15,-2.69
16.1010,0.08,0.13,-0.98,3.42,3.72,-1.89
16.1260,0.07,0.13,-0.98,3.30,3.66,-0.18
16.1370,0.08,0.12,-0.98,3.66,3.72,-1.22
16.1510,0.08,0.12,-0.98,3.78,4.33,-4.21
16.1690,0.08,0.12,-0.98,3.91,4.39,-4.82
16.1840,0.08,0.12,-0.98,3.66,4.33,-4.09
16.2010,0.07,0.11,-0.99,3.54,4.09,-1.53
16.2160,0.08,0.15,-0.98,3.23,3.54,-0.12
16.2180,0.08,0.14,-0.98,3.36,3.66,-1.04
16.2460,0.08,0.13,-0.98,3.48,4.15,-1.77
16.2610,0.07,0.12,-0.98,3.72,4.09,-2.93
16.2680,0.07,0.12,-0.98,3.54,4.09,-2.81
16.2850,0.07,0.13,-0.98,3.48,3.72,-1.28
16.3010,0.08,0.13,-0.98,3.23,3.36,-0.31
16.3170,0.08,0.12,-0.98,3.36,3.54,-0.49
16.3340,0.08,0.12,-0.99,3.54,3.85,-2.99
16.3500,0.08,0.12,-0.98,3.48,4.21,-4.58
16.3650,0.07,0.14,-0.98,3.48,3.91,-3.05
16.3680,0.07,0.13,-0.98,3.48,3.97,-1.22
16.3950,0.08,0.14,-0.98,3.11,3.05,2.01
16.4010,0.08,0.12,-0.98,3.11,2.99,1.95
16.4270,0.08,0.13,-0.98,3.23,3.60,-0.18
16.4410,0.08,0.13,-0.98,3.11,3.72,-1.34
16.4570,0.07,0.12,-0.98,3.30,3.78,-1.95
16.4670,0.07,0.12,-0.98,3.36,3.66,-1.40
16.4850,0.08,0.13,-0.98,3.17,3.05,0.00
16.5010,0.08,0.13,-0.98,3.11,3.60,-0.31
16.5160,0.08,0.13,-0.98,3.42,3.78,-1.71
16.5320,0.08,0.13,-0.98,3.42,3.85,-2.08
16.5470,0.08,0.13,-0.98,3.48,3.97,-1.53
16.5610,0.08,0.12,-0.98,3.48,3.54,0.43
16.5760,0.08,0.12,-0.98,3.23,3.54,1.34
16.5920,0.08,0.12,-0.98,3.23,3.66,0.61
16.6010,0.08,0.13,-0.98,3.30,3.85,-0.92
16.6170,0.07,0.13,-0.98,3.17,3.66,-1.40
16.6380,0.07,0.13,-0.98,3.42,3.72,-0.37
16.6500,0.08,0.13,-0.98,3.05,3.60,0.73
16.6670,0.08,0.13,-0.98,3.17,3.23,1.28
16.6840,0.08,0.11,-0.98,3.36,3.60,0.55
16.6990,0.07,0.11,-0.99,3.54,4.27,-3.11
16.7140,0.08,0.12,-0.98,3.66,4.46,-4.76
16.7300,0.07,0.12,-0.98,3.78,4.33,-4.15
16.7460,0.07,0.13,-0.98,3.78,3.91,-3.48
16.7520,0.08,0.14,-0.98,3.66,3.91,-2.14
16.7670,0.08,0.13,-0.98,3.30,3.60,-2.01
16.7840,0.08,0.13,-0.98,3.54,4.33,-3.60
16.8020,0.08,0.13,-0.98,3.48,4.21,-3.42
16.8170,0.07,0.12,-0.98,3.54,3.54,-1.77
16.8340,0.07,0.12,-0.98,3.48,3.78,-1.40
16.8500,0.08,0.12,-0.98,3.30,3.60,-1.77
16.8510,0.08,0.12,-0.98,3.91,4.21,-2.93
16.8810,0.08,0.13,-0.98,3.72,4.27,-3.78
16.8950,0.08,0.12,-0.98,3.72,4.09,-3.42
16.9110,0.07,0.12,-0.98,3.54,3.97,-2.99
16.9260,0.07,0.13,-0.98,3.54,3.85,-2.69
16.9410,0.08,0.12,-0.98,3.60,4.03,-2.93
16.9520,0.08,0.13,-0.98,3.54,4.15,-3.42
16.9670,0.08,0.12,-0.98,3.78,3.97,-2.56
16.9840,0.08,0.13,-0.98,3.54,4.03,-2.44
17.0010,0.08,0.13,-0.98,3.42,3.78,-2.62
17.0170,0.07,0.12,-0.98,3.72,4.03,-2.26
17.0190,0.08,0.12,-0.98,3.48,4.15,-2.81
17.0470,0.08,0.13,-0.98,3.66,3.78,-2.81
17.0610,0.08,0.13,-0.98,3.60,3.60,-1.65
17.0760,0.08,0.13,-0.98,3.42,3.91,0.00
17.0920,0.08,0.12,-0.98,3.36,3.42,-0.61
17.1020,0.08,0.12,-0.98,3.60,3.72,-0.85
17.1180,0.07,0.12,-0.98,3.48,3.85,-0.79
17.1340,0.08,0.13,-0.98,3.54,3.60,-0.55
17.1510,0.08,0.13,-0.98,3.48,3.48,0.18
17.1670,0.08,0.13,-0.98,3.30,3.54,0.98
17.1830,0.08,0.12,-0.98,3.11,3.30,1.28
17.1970,0.08,0.12,-0.98,3.30,3.23,1.10
17.2130,0.08,0.11,-0.98,3.23,3.54,0.18
17.2270,0.08,0.11,-0.98,3.60,3.85,-2.08
17.2430,0.08,0.12,-0.98,3.78,4.39,-3.11
17.2580,0.08,0.12,-0.98,3.91,4.09,-3.30
17.2730,0.08,0.14,-0.98,3.85,4.21,-2.75
17.2840,0.08,0.14,-0.98,3.36,3.72,0.12
17.3020,0.08,0.12,-0.98,3.23,3.60,1.28
17.3170,0.08,0.12,-0.98,3.54,3.60,-0.12
17.3320,0.08,0.12,-0.98,3.30,3.66,-1.10
17.3470,0.08,0.11,-0.98,3.60,4.15,-1.89
17.3520,0.07,0.13,-0.98,3.48,3.91,-2.01
17.3780,0.08,0.13,-0.98,3.42,3.72,-0.98
17.3920,0.08,0.13,-0.98,3.60,3.97,-1.10
17.4070,0.08,0.13,-0.98,3.78,3.48,-1.53
17.4170,0.08,0.13,-0.98,3.72,3.91,-2.26
17.4380,0.07,0.13,-0.98,3.66,4.03,-2.69
17.4510,0.07,0.13,-0.98,3.48,3.72,-0.49
17.4680,0.08,0.12,-0.98,3.36,3.60,0.79
17.4840,0.08,0.13,-0.98,3.36,3.54,0.85
17.4850,0.08,0.13,-0.98,3.48,3.66,0.31
17.5130,0.08,0.13,-0.98,3.42,3.23,1.22
17.5180,0.08,0.12,-0.98,3.30,3.42,1.59
17.5390,0.08,0.12,-0.99,3.36,3.23,1.10
17.5510,0.08,0.12,-0.98,3.42,3.48,0.85
17.5740,0.08,0.11,-0.98,3.54,3.66,-1.40
17.5840,0.08,0.13,-0.98,3.60,4.21,-2.87
17.6010,0.07,0.13,-0.98,3.60,3.78,-2.44
17.6170,0.07,0.14,-0.98,3.72,3.42,-0.24
17.6340,0.08,0.14,-0.98,2.93,3.48,1.59
17.6480,0.08,0.12,-0.98,3.23,3.05,2.26
17.6630,0.08,0.11,-0.98,3.23,3.48,1.28
17.6790,0.09,0.11,-0.98,3.48,3.72,-2.20
17.6930,0.08,0.11,-0.98,3.42,3.78,-3.30
17.7090,0.07,0.13,-0.98,3.78,3.97,-3.36
17.7170,0.07,0.14,-0.98,3.36,3.85,-1.77
17.7390,0.08,0.13,-0.98,3.23,3.48,0.24
17.7510,0.08,0.13,-0.98,3.11,3.66,0.12
17.7670,0.08,0.13,-0.98,3.36,3.60,-0.24
17.7840,0.07,0.12,-0.98,3.54,3.72,-0.73
17.7990,0.07,0.12,-0.98,3.30,3.78,-0.98
17.8130,0.08,0.12,-0.98,3.30,3.23,0.61
17.8290,0.08,0.12,-0.98,3.30,3.36,0.98
17.8430,0.08,0.12,-0.98,3.23,3.48,-0.55
17.8580,0.08,0.13,-0.98,3.54,3.78,-2.14
17.8740,0.08,0.12,-0.98,3.72,4.03,-2.69
17.8850,0.07,0.13,-0.98,3.60,4.09,-0.55
17.9000,0.08,0.13,-0.98,3.42,3.60,1.59
17.9180,0.08,0.12,-0.98,3.17,3.11,2.38
17.9340,0.08,0.14,-0.98,3.23,3.60,0.12
17.9480,0.08,0.14,-0.98,3.42,3.54,0.12
17.9640,0.07,0.13,-0.98,3.42,3.72,0.85
17.9780,0.08,0.13,-0.98,3.17,3.54,1.40
17.9930,0.08,0.11,-0.99,3.60,3.72,1.04
18.0080,0.08,0.11,-0.98,3.30,4.09,-2.56
18.0230,0.08,0.13,-0.98,3.78,4.21,-4.82
18.0340,0.07,0.13,-0.98,3.48,4.27,-4.09
18.0510,0.07,0.14,-0.98,3.36,3.78,-0.73
18.0670,0.08,0.13,-0.98,3.17,3.42,1.46
18.0830,0.08,0.12,-0.98,3.17,3.11,1.40
18.0990,0.08,0.12,-0.98,3.30,3.78,-0.37
18.1140,0.08,0.11,-0.99,3.78,3.78,-1.83
18.1290,0.07,0.12,-0.99,3.48,4.15,-2.50
18.1450,0.07,0.13,-0.98,3.60,3.91,-1.77
18.1590,0.08,0.13,-0.98,3.72,3.85,-1.40
18.1740,0.08,0.12,-0.98,3.60,4.03,-2.87
18.1840,0.08,0.13,-0.98,3.91,3.72,-3.30
18.2010,0.08,0.13,-0.98,3.54,4.46,-4.15
18.2190,0.08,0.12,-0.98,3.54,3.97,-2.01
18.2350,0.08,0.13,-0.98,3.42,3.91,-0.73
18.2390,0.08,0.13,-0.98,3.30,3.72,-0.98
18.2650,0.08,0.13,-0.98,3.23,3.48,-0.55
18.2790,0.08,0.13,-0.98,3.23,3.54,-0.24
18.2850,0.08,0.13,-0.98,3.66,3.91,-0.85
18.3090,0.08,0.12,-0.98,3.54,3.48,-1.65
18.3180,0.08,0.13,-0.98,3.72,3.78,-2.26
18.3390,0.08,0.13,-0.98,3.42,3.85,-0.85
18.3510,0.08,0.13,-0.98,3.36,3.48,-0.49
18.3680,0.08,0.13,-0.98,3.60,3.36,0.43
18.3830,0.08,0.13,-0.98,3.17,3.30,1.04
18.4000,0.08,0.13,-0.98,3.48,3.30,1.04
18.4010,0.08,0.12,-0.98,3.11,3.42,0.37
18.4300,0.08,0.12,-0.98,3.30,3.85,-1.65
18.4450,0.08,0.12,-0.98,3.48,4.03,-2.14
18.4620,0.07,0.12,-0.98,3.48,3.91,-1.28
18.4760,0.07,0.13,-0.98,3.36,3.66,-0.92
18.4850,0.08,0.12,-0.98,3.66,3.78,-1.77
18.5020,0.08,0.12,-0.98,3.72,4.15,-3.36
18.5180,0.08,0.12,-0.98,3.97,4.21,-4.27
18.5340,0.08,0.11,-0.98,3.85,4.64,-5.25
18.5520,0.07,0.12,-0.98,4.03,4.39,-6.29
18.5520,0.08,0.14,-0.98,3.72,4.58,-4.94
18.5820,0.08,0.13,-0.98,3.72,3.72,-1.95
18.5970,0.08,0.13,-0.98,3.42,3.78,-1.59
18.6110,0.08,0.13,-0.98,3.54,3.97,-1.83
18.6270,0.08,0.12,-0.98,3.42,3.97,-2.20
18.6410,0.07,0.11,-0.98,3.72,4.03,-3.42
18.6570,0.08,0.14,-0.98,3.60,4.03,-2.81
18.6670,0.08,0.13,-0.98,3.17,3.23,0.61
18.6840,0.08,0.13,-0.98,3.23,3.17,1.40
18.7000,0.08,0.13,-0.98,3.11,3.66,0.92
18.7160,0.08,0.12,-0.99,3.30,3.72,-0.43
18.7320,0.08,0.11,-0.99,3.66,3.78,-2.99
18.7460,0.07,0.11,-0.99,3.60,4.58,-4.52
18.7510,0.07,0.13,-0.98,3.36,3.91,-2.69
18.7760,0.08,0.14,-0.98,3.11,3.11,2.50
18.7910,0.08,0.13,-0.98,2.99,3.05,3.48
18.8060,0.08,0.15,-0.98,3.54,3.60,0.49
18.8170,0.08,0.14,-0.98,3.42,3.78,0.61
18.8340,0.08,0.12,-0.98,3.23,3.54,0.92
18.8520,0.08,0.12,-0.98,3.23,3.85,0.92
18.8520,0.08,0.11,-0.98,3.36,3.42,1.16
18.8810,0.08,0.12,-0.98,3.05,3.36,1.65
18.8850,0.08,0.13,-0.98,3.36,3.30,0.73
18.9120,0.08,0.13,-0.98,3.30,3.36,0.00
18.9180,0.08,0.12,-0.98,3.23,3.48,0.79
18.9420,0.08,0.11,-0.98,2.99,3.36,1.46
18.9510,0.08,0.11,-0.98,3.42,3.42,1.59
18.9680,0.08,0.12,-0.98,3.42,3.36,0.37
18.9840,0.07,0.13,-0.98,3.42,4.09,-2.56
19.0010,0.07,0.15,-0.98,3.54,4.33,-2.93
19.0170,0.07,0.14,-0.98,3.30,3.60,0.67
19.0310,0.08,0.13,-0.98,3.05,3.11,2.01
19.0460,0.08,0.10,-0.99,3.36,3.11,2.38
19.0610,0.08,0.13,-0.98,3.42,2.75,3.97
19.0760,0.08,0.13,-0.98,3.54,3.54,0.67
19.0920,0.07,0.13,-0.98,3.17,3.60,0.31
19.1010,0.08,0.13,-0.98,2.93,3.30,1.10
19.1190,0.08,0.12,-0.98,3.30,3.11,1.46
19.1350,0.08,0.12,-0.98,3.54,3.23,-0.12
19.1510,0.08,0.13,-0.98,3.54,3.85,-1.83
19.1680,0.07,0.13,-0.98,3.54,4.03,-1.65
19.1680,0.07,0.14,-0.98,3.60,3.72,0.31
19.1980,0.08,0.13,-0.98,3.23,3.66,1.53
19.2140,0.08,0.12,-0.99,2.99,3.23,2.20
19.2180,0.09,0.10,-0.99,3.30,3.66,-1.16
19.2430,0.08,0.12,-0.98,4.03,4.33,-5.37
19.2580,0.07,0.13,-0.98,3.78,4.21,-5.25
19.2730,0.06,0.14,-0.98,3.72,3.91,-2.87
19.2850,0.08,0.14,-0.98,3.23,3.48,1.77
19.3010,0.08,0.12,-0.98,3.11,3.42,2.44
19.3180,0.08,0.12,-0.98,3.05,3.42,1.16
19.3330,0.08,0.11,-0.98,3.36,3.72,0.06
19.3400,0.07,0.13,-0.98,3.36,4.70,-2.62
19.3510,0.07,0.13,-0.98,3.36,3.78,-0.79
19.3780,0.08,0.13,-0.98,3.30,2.93,2.20
19.3940,0.08,0.12,-0.98,3.17,3.11,2.50
19.4090,0.08,0.13,-0.98,3.30,3.42,0.85
19.4180,0.08,0.11,-0.98,3.36,3.85,-2.01
19.4390,0.07,0.11,-0.99,3.85,4.09,-3.60
19.4510,0.06,0.15,-0.98,3.36,3.72,-1.71
19.4690,0.07,0.14,-0.98,3.42,3.42,0.43
19.4690,0.07,0.12,-0.98,3.42,3.05,3.54
19.4850,0.09,0.15,-0.98,3.36,3.48,1.40
19.5140,0.08,0.13,-0.98,3.17,3.66,0.49
19.5280,0.08,0.13,-0.98,3.05,3.30,0.12
19.5430,0.07,0.12,-0.98,3.42,3.48,0.55
19.5510,0.07,0.12,-0.98,3.36,2.93,1.89
19.5740,0.08,0.12,-0.99,3.17,2.93,2.44
19.5850,0.08,0.14,-0.98,3.11,3.60,-0.18
19.6010,0.08,0.14,-0.98,3.30,3.72,-0.98
19.6190,0.08,0.13,-0.98,3.36,3.60,-0.61
19.6190,0.07,0.13,-0.98,3.54,3.48,-0.37
19.6410,0.07,0.11,-0.98,3.36,3.30,2.01
19.6630,0.07,0.12,-0.98,3.23,3.17,2.99
19.6780,0.08,0.12,-0.98,3.30,3.36,2.32
19.6930,0.08,0.13,-0.98,3.36,3.60,0.12
19.7020,0.08,0.13,-0.98,3.17,3.36,0.24
19.7240,0.08,0.13,-0.98,3.30,3.17,1.10
19.7340,0.08,0.13,-0.98,3.17,3.36,1.77
19.7520,0.08,0.11,-0.98,3.42,3.30,1.40
19.7670,0.08,0.12,-0.98,3.17,3.72,-1.59
19.7830,0.09,0.11,-0.98,3.54,4.33,-3.23
19.7840,0.06,0.12,-0.99,3.91,4.27,-4.64
19.8010,0.07,0.14,-0.98,3.60,4.21,-3.66
19.8170,0.08,0.14,-0.98,3.30,3.54,0.00
19.8440,0.08,0.13,-0.98,3.23,3.17,0.61
19.8590,0.08,0.12,-0.98,3.36,3.91,-0.55
19.8740,0.08,0.11,-0.98,3.48,3.60,-2.38
19.8840,0.07,0.12,-0.99,3.72,3.85,-2.87
19.9010,0.07,0.13,-0.98,3.42,3.85,-2.20
19.9180,0.08,0.14,-0.98,3.42,3.42,0.92
19.9190,0.08,0.12,-0.98,3.36,3.11,1.22
19.9490,0.08,0.13,-0.98,3.42,3.48,-0.37
19.9520,0.08,0.13,-0.98,3.54,4.27,-1.34
19.9790,0.07,0.13,-0.98,3.60,3.60,-0.55
19.9850,0.08,0.13,-0.98,3.23,3.36,1.83
20.0080,0.07,0.11,-0.98,3.05,2.81,3.36
20.0170,0.08,0.14,-0.98,3.11,3.05,3.78
20.0350,0.08,0.13,-0.98,3.23,3.30,2.44
20.0510,0.08,0.13,-0.98,3.11,3.23,1.89
20.0690,0.08,0.13,-0.98,3.23,3.11,1.89
20.0840,0.08,0.13,-0.98,3.11,3.36,2.08
20.0980,0.08,0.13,-0.98,3.36,3.48,2.08
20.1130,0.08,0.13,-0.98,3.05,3.23,2.01
20.1280,0.08,0.13,-0.98,2.99,3.05,1.77
20.1440,0.08,0.12,-0.98,3.11,2.99,1.83
20.1590,0.08,0.13,-0.98,3.30,3.36,2.01
20.1740,0.08,0.12,-0.98,3.17,3.42,1.95
20.1890,0.08,0.13,-0.98,2.99,3.17,1.95
20.2020,0.08,0.12,-0.98,3.11,3.17,1.83
20.2170,0.08,0.13,-0.98,2.99,2.62,1.83
20.2340,0.08,0.13,-0.98,3.05,3.05,1.83
20.2490,0.08,0.13,-0.98,2.99,3.42,1.83
20.2640,0.08,0.13,-0.98,3.36,3.66,1.89
20.2800,0.08,0.13,-0.98,3.30,3.72,2.14
20.2940,0.08,0.12,-0.98,3.23,3.42,1.95
20.3010,0.08,0.13,-0.98,3.36,3.60,1.89
20.3240,0.08,0.13,-0.98,3.17,3.42,1.95
20.3350,0.08,0.12,-0.98,3.05,3.05,1.89
20.3500,0.08,0.13,-0.98,3.11,3.05,2.01
20.3680,0.08,0.13,-0.98,3.30,3.11,1.95
20.3850,0.08,0.13,-0.98,3.30,3.54,1.77
20.4000,0.08,0.13,-0.98,2.87,3.54,1.89
20.4010,0.08,0.13,-0.98,3.05,3.17,1.89
20.4300,0.08,0.13,-0.98,2.99,3.17,1.95
20.4460,0.08,0.13,-0.98,3.17,3.30,1.83
20.4520,0.08,0.13,-0.98,3.11,3.30,1.83
20.4760,0.08,0.13,-0.98,3.11,3.42,1.89
20.4900,0.08,0.13,-0.98,3.23,3.23,1.89
20.5010,0.08,0.13,-0.98,2.93,3.60,2.08
20.5180,0.08,0.13,-0.98,2.87,3.72,1.95
20.5350,0.08,0.13,-0.98,3.11,3.30,2.01
20.5510,0.08,0.13,-0.98,2.99,3.11,2.01
20.5660,0.08,0.13,-0.98,3.05,3.30,1.95
20.5800,0.08,0.13,-0.98,3.05,3.42,1.83
20.5960,0.08,0.13,-0.98,3.11,3.36,1.95
20.6100,0.08,0.13,-0.98,3.11,3.42,1.95
20.6250,0.08,0.13,-0.98,3.11,3.36,1.89
20.6410,0.08,0.13,-0.98,3.23,3.42,1.95
20.6520,0.08,0.13,-0.98,2.93,3.30,1.95
20.6670,0.08,0.13,-0.98,3.11,3.42,1.95
20.6850,0.08,0.13,-0.98,3.23,3.42,1.95
20.7010,0.08,0.13,-0.98,3.05,3.72,1.95
20.7150,0.08,0.13,-0.98,2.99,3.42,1.83
20.7190,0.08,0.13,-0.98,3.17,3.23,1.83
20.7450,0.08,0.13,-0.98,2.81,3.48,2.01
20.7510,0.08,0.13,-0.98,3.11,3.23,1.83
20.7680,0.08,0.13,-0.98,3.23,3.42,2.08
20.7860,0.08,0.13,-0.98,3.11,3.23,2.08
20.8020,0.08,0.13,-0.98,3.11,3.17,2.01
20.8190,0.08,0.13,-0.98,2.87,3.60,1.95
20.8350,0.08,0.13,-0.98,3.05,3.42,1.77
20.8510,0.08,0.13,-0.98,3.36,3.72,2.08
20.8660,0.08,0.13,-0.98,3.36,3.42,1.95
20.8810,0.08,0.13,-0.98,3.17,3.36,2.01
20.8850,0.08,0.13,-0.98,3.05,3.42,1.95
20.9110,0.08,0.13,-0.98,3.30,3.23,1.95
20.9250,0.08,0.12,-0.98,2.87,3.48,2.14
20.9410,0.08,0.13,-0.98,3.17,3.36,2.01
20.9500,0.08,0.13,-0.98,3.11,3.48,1.83
20.9670,0.08,0.13,-0.98,3.23,3.42,2.08
20.9850,0.08,0.13,-0.98,3.17,3.48,1.95
21.0000,0.08,0.13,-0.98,2.99,3.60,2.08
21.0010,0.08,0.13,-0.98,3.05,3.54,1.83
21.0300,0.07,0.13,-0.98,3.17,3.42,1.95
21.0450,0.05,0.13,-0.98,3.11,3.48,2.20
21.0600,0.08,0.13,-0.98,3.48,3.54,1.34
21.0760,0.07,0.12,-0.98,3.48,3.85,0.92
21.0910,0.08,0.13,-0.98,3.36,3.54,0.31
21.1000,0.09,0.13,-0.98,3.60,3.54,-0.06
21.1170,0.08,0.13,-0.98,3.36,3.54,0.79
21.1350,0.08,0.13,-0.98,3.42,3.60,1.10
21.1500,0.07,0.13,-0.98,3.23,3.78,1.40
21.1650,0.08,0.12,-0.98,3.36,3.42,1.34
21.1800,0.08,0.13,-0.98,3.23,3.54,1.22
21.1950,0.08,0.13,-0.98,3.23,3.54,1.22
21.2100,0.08,0.12,-0.98,3.11,3.11,1.34
21.2260,0.07,0.12,-0.98,3.36,3.23,1.28
21.2350,0.07,0.12,-0.98,3.60,3.66,1.34
21.2510,0.08,0.13,-0.98,3.23,3.42,0.98
21.2680,0.08,0.13,-0.98,3.30,3.05,1.28
21.2850,0.07,0.13,-0.98,3.17,3.23,1.46
21.3000,0.07,0.12,-0.98,3.05,3.36,1.59
21.3150,0.08,0.12,-0.98,2.99,3.48,1.40
21.3300,0.08,0.13,-0.98,3.17,3.23,1.65
21.3450,0.08,0.13,-0.98,2.99,3.17,1.40
21.3510,0.07,0.13,-0.98,3.30,2.99,1.40
21.3760,0.06,0.13,-0.98,3.11,3.36,1.53
21.3900,0.07,0.13,-0.98,3.23,3.36,1.53
21.4010,0.08,0.12,-0.98,3.11,3.48,1.46
21.4180,0.08,0.12,-0.98,3.36,3.48,1.40
21.4350,0.08,0.13,-0.98,3.05,3.66,1.59
21.4410,0.07,0.13,-0.98,3.05,3.54,1.77
21.4510,0.07,0.13,-0.98,3.11,3.23,1.71
21.4810,0.07,0.12,-0.98,3.48,3.54,1.95
21.4950,0.07,0.12,-0.98,3.36,3.54,1.95
21.5020,0.08,0.12,-0.99,3.11,3.60,1.40
21.5260,0.09,0.13,-0.98,3.48,3.30,0.85
21.5350,0.09,0.13,-0.98,3.36,3.23,1.28
21.5510,0.08,0.13,-0.98,3.36,3.23,1.46
21.5690,0.07,0.13,-0.98,3.17,3.54,1.65
21.5840,0.07,0.12,-0.98,2.93,3.72,1.77
21.6000,0.08,0.13,-0.98,3.11,3.36,1.77
21.6150,0.07,0.13,-0.98,2.87,3.23,1.65
21.6300,0.07,0.13,-0.98,2.99,3.48,1.77
21.6450,0.08,0.12,-0.98,2.69,3.17,1.71
21.6610,0.08,0.12,-0.98,3.05,3.54,1.77
21.6680,0.08,0.13,-0.98,3.23,3.36,1.46
21.6900,0.08,0.13,-0.98,3.17,3.30,1.46
21.7020,0.08,0.13,-0.98,3.05,3.17,1.65
21.7170,0.08,0.12,-0.98,3.17,3.17,1.65
21.7350,0.08,0.13,-0.98,3.11,3.17,1.59
21.7500,0.08,0.13,-0.98,2.81,3.05,1.71
21.7520,0.08,0.12,-0.98,3.30,3.30,1.83
21.7680,0.08,0.13,-0.98,3.36,3.11,1.83
21.7850,0.08,0.13,-0.98,2.99,3.36,2.01
21.8010,0.08,0.13,-0.98,2.99,2.93,2.01
21.8180,0.07,0.13,-0.98,3.05,3.23,1.95
21.8400,0.08,0.13,-0.98,3.17,3.30,2.01
21.8510,0.08,0.13,-0.98,3.05,3.23,1.65
21.8680,0.08,0.13,-0.98,2.93,3.11,1.83
21.8850,0.07,0.13,-0.98,3.05,3.11,1.77
21.9000,0.07,0.13,-0.98,2.99,3.23,1.89
21.9020,0.08,0.12,-0.98,3.36,3.30,2.08
21.9310,0.08,0.13,-0.98,3.17,3.23,2.01
21.9410,0.08,0.13,-0.98,3.30,3.48,2.08
21.9600,0.08,0.13,-0.98,2.99,3.17,2.20
21.9750,0.07,0.13,-0.98,3.05,3.42,2.26
21.9850,0.06,0.13,-0.98,2.87,3.05,2.87
22.0020,0.09,0.13,-0.98,2.87,3.23,3.42
22.0170,0.08,0.13,-0.98,3.05,3.11,2.93
22.0340,0.08,0.13,-0.98,3.05,2.87,2.56
22.0500,0.07,0.13,-0.98,2.99,3.66,2.56
22.0510,0.07,0.13,-0.98,3.05,3.42,2.75
22.0680,0.07,0.13,-0.98,3.11,2.81,3.48
22.0850,0.08,0.12,-0.98,3.23,2.93,4.15
22.1020,0.08,0.13,-0.98,2.87,3.05,4.21
22.1190,0.09,0.12,-0.98,2.99,3.36,3.97
22.1350,0.07,0.13,-0.98,2.87,3.17,3.11
22.1520,0.08,0.12,-0.98,2.87,3.17,3.23
22.1680,0.07,0.13,-0.98,3.17,3.17,3.23
22.1850,0.08,0.12,-0.98,3.05,2.99,3.17
22.2010,0.08,0.13,-0.98,3.17,3.17,3.23
22.2020,0.09,0.12,-0.98,2.87,2.81,2.99
22.2310,0.09,0.12,-0.98,2.93,3.17,2.56
22.2460,0.08,0.13,-0.98,3.23,3.11,2.26
22.2620,0.06,0.13,-0.98,3.23,2.99,2.20
22.2690,0.06,0.13,-0.98,3.23,3.36,2.69
22.2910,0.07,0.13,-0.98,3.05,3.48,3.36
22.3010,0.08,0.12,-0.98,3.05,3.23,3.78
22.3170,0.09,0.12,-0.98,2.99,2.93,3.54
22.3350,0.09,0.12,-0.98,3.05,2.99,3.30
22.3510,0.08,0.12,-0.98,3.23,3.11,2.75
22.3660,0.07,0.13,-0.98,3.11,3.11,2.75
22.3680,0.06,0.13,-0.98,2.99,3.36,2.87
22.3850,0.07,0.12,-0.98,3.11,3.11,3.17
22.4110,0.07,0.12,-0.98,2.87,2.99,3.23
22.4180,0.09,0.13,-0.98,3.05,2.93,2.75
22.4410,0.08,0.13,-0.98,2.99,3.48,2.50
22.4560,0.08,0.12,-0.98,3.23,3.17,2.69
22.4670,0.08,0.13,-0.98,3.23,3.30,2.62
22.4840,0.07,0.12,-0.98,3.17,3.23,2.87
22.5010,0.08,0.12,-0.98,2.93,2.93,3.23
22.5010,0.09,0.13,-0.98,2.93,3.11,2.69
22.5310,0.09,0.13,-0.98,3.11,3.11,2.50
22.5460,0.08,0.13,-0.98,2.75,3.54,2.08
22.5620,0.07,0.13,-0.98,3.05,3.48,2.01
22.5680,0.07,0.12,-0.98,3.42,3.54,2.50
22.5840,0.07,0.12,-0.98,2.93,2.93,2.81
22.6020,0.08,0.12,-0.98,3.30,3.05,2.75
22.6180,0.08,0.13,-0.98,3.05,3.54,2.87
22.6360,0.09,0.13,-0.98,2.99,3.11,2.32
22.6510,0.08,0.13,-0.98,3.30,3.23,2.26
22.6670,0.07,0.12,-0.98,3.30,3.23,2.38
22.6680,0.07,0.12,-0.98,3.17,2.75,2.20
22.6970,0.06,0.12,-0.99,2.99,3.11,2.50
22.7120,0.07,0.13,-0.99,3.05,3.54,2.93
22.7270,0.08,0.13,-0.98,2.93,3.11,2.93
22.7420,0.08,0.13,-0.98,2.99,3.11,2.93
22.7570,0.08,0.13,-0.98,3.05,3.11,2.56
22.7720,0.06,0.12,-0.98,2.93,3.05,2.75
22.7840,0.05,0.12,-0.98,3.05,3.17,3.17
22.8010,0.07,0.12,-0.98,2.93,2.81,3.97
22.8170,0.08,0.12,-0.98,3.17,3.23,4.09
22.8190,0.10,0.13,-0.98,3.11,3.30,3.60
22.8470,0.09,0.13,-0.98,3.23,3.23,2.93
22.8620,0.08,0.13,-0.98,2.81,3.17,2.75
22.8690,0.07,0.12,-0.98,3.11,3.36,2.69
22.8920,0.07,0.12,-0.98,3.11,3.36,3.05
22.9020,0.08,0.12,-0.98,2.99,2.75,3.60
22.9180,0.09,0.13,-0.98,3.11,2.99,3.48
22.9350,0.09,0.13,-0.98,2.93,3.11,2.69
22.9510,0.08,0.13,-0.98,2.81,3.36,2.01
22.9670,0.07,0.12,-0.98,2.99,3.36,2.08
22.9680,0.06,0.12,-0.98,3.30,3.36,2.50
22.9970,0.06,0.12,-0.99,2.93,2.99,3.54
23.0130,0.08,0.12,-0.98,3.05,3.05,3.78
23.0280,0.08,0.13,-0.98,3.11,3.23,3.48
23.0410,0.09,0.13,-0.98,3.11,3.36,3.17
23.0580,0.08,0.13,-0.98,2.87,2.87,2.81
23.0670,0.07,0.12,-0.98,2.87,3.36,2.50
23.0850,0.07,0.12,-0.98,3.11,3.42,3.05
23.1010,0.08,0.13,-0.98,3.30,3.23,3.23
23.1170,0.07,0.13,-0.98,3.17,2.99,2.75
23.1180,0.07,0.13,-0.98,3.05,2.99,2.87
23.1470,0.07,0.13,-0.98,3.05,3.11,3.42
23.1630,0.07,0.13,-0.98,3.23,3.05,3.72
23.1680,0.07,0.12,-0.98,3.05,3.11,3.91
23.1920,0.08,0.13,-0.98,3.11,3.11,3.72
23.2070,0.08,0.13,-0.98,3.11,2.87,3.17
23.2170,0.08,0.13,-0.98,2.99,3.17,2.81
23.2350,0.08,0.12,-0.98,2.81,3.05,2.81
23.2510,0.08,0.13,-0.98,2.93,3.05,2.93
23.2670,0.08,0.13,-0.98,2.93,2.99,2.62
23.2690,0.08,0.13,-0.98,3.30,3.23,2.44
23.2980,0.07,0.13,-0.98,3.11,3.66,2.50
23.3010,0.08,0.13,-0.98,3.05,3.23,2.56
23.3270,0.08,0.13,-0.98,2.99,3.23,2.50
23.3420,0.08,0.13,-0.98,3.11,3.17,2.75
23.3510,0.08,0.13,-0.98,3.17,3.11,2.56
23.3680,0.08,0.13,-0.98,3.30,3.36,2.56
23.3860,0.08,0.13,-0.98,2.87,3.60,2.69
23.4020,0.07,0.13,-0.98,3.17,3.05,2.56
23.4170,0.07,0.13,-0.98,3.11,3.11,2.81
23.4180,0.06,0.13,-0.98,3.42,2.99,3.78
23.4470,0.07,0.12,-0.98,3.36,2.93,4.09
23.4510,0.07,0.13,-0.98,3.05,2.99,4.15
23.4680,0.09,0.12,-0.98,3.30,3.30,4.15
23.4850,0.09,0.12,-0.98,3.17,3.30,3.72
23.5020,0.08,0.12,-0.98,3.05,3.30,3.23
23.5170,0.08,0.12,-0.98,2.93,2.99,2.99
23.5350,0.08,0.12,-0.98,3.17,3.17,3.17
23.5520,0.09,0.12,-0.98,2.99,3.17,2.62
23.5670,0.08,0.13,-0.98,3.17,3.30,2.20
23.5820,0.08,0.13,-0.98,3.17,3.30,2.08
23.5960,0.08,0.12,-0.98,3.36,2.93,2.08
23.6130,0.08,0.12,-0.98,3.23,3.23,2.01
23.6180,0.07,0.13,-0.98,3.11,3.36,2.01
23.6420,0.07,0.13,-0.98,3.17,3.23,2.20
23.6510,0.07,0.12,-0.98,3.23,3.11,2.01
23.6670,0.08,0.13,-0.98,3.17,3.23,2.20
23.6840,0.08,0.12,-0.98,3.30,3.17,2.26
23.7010,0.07,0.13,-0.98,3.17,3.11,2.32
23.7180,0.08,0.13,-0.98,3.05,3.17,2.44
23.7320,0.08,0.12,-0.98,3.05,3.17,2.38
23.7470,0.08,0.13,-0.98,3.17,3.17,2.38
23.7620,0.08,0.12,-0.98,3.30,3.05,2.26
23.7770,0.08,0.12,-0.98,2.99,3.11,2.26
23.7920,0.07,0.13,-0.98,3.30,3.30,2.20
23.8070,0.07,0.12,-0.98,2.99,3.48,2.50
23.8180,0.07,0.13,-0.98,3.05,3.05,2.62
23.8340,0.08,0.13,-0.98,2.75,3.17,2.81
23.8510,0.08,0.13,-0.98,2.93,3.17,2.62
23.8670,0.08,0.13,-0.98,2.93,3.05,2.44
23.8820,0.08,0.13,-0.98,3.30,3.11,2.50
23.8970,0.08,0.12,-0.98,3.30,3.30,2.26
23.9120,0.07,0.13,-0.98,3.36,2.93,2.26
23.9180,0.07,0.13,-0.98,3.11,3.17,2.56
23.9340,0.08,0.12,-0.98,2.87,3.17,2.62
23.9510,0.08,0.13,-0.98,3.05,3.17,2.38
23.9670,0.08,0.13,-0.98,3.23,2.99,2.26
23.9850,0.07,0.13,-0.98,3.05,3.05,2.32
24.0030,0.07,0.13,-0.98,3.05,3.42,2.38
24.0170,0.07,0.13,-0.98,3.23,2.99,2.69
24.0320,0.08,0.12,-0.98,3.11,3.30,3.11
24.0440,0.09,0.12,-0.98,3.11,3.36,2.81
24.0510,0.09,0.12,-0.98,3.36,3.17,2.56
24.0770,0.09,0.12,-0.98,3.17,3.36,2.32
24.0920,0.08,0.12,-0.98,2.99,2.99,2.26
24.1070,0.07,0.13,-0.98,3.23,3.17,2.20
24.1180,0.07,0.13,-0.98,3.42,3.42,2.38
24.1360,0.07,0.13,-0.98,3.23,3.05,2.38
24.1510,0.08,0.12,-0.98,3.11,3.17,2.50
24.1670,0.08,0.12,-0.98,3.30,3.23,2.20
24.1680,0.07,0.13,-0.98,3.42,3.42,2.01
24.1970,0.08,0.12,-0.98,3.11,3.11,2.14
24.2120,0.08,0.12,-0.98,3.17,3.17,2.14
24.2280,0.08,0.12,-0.98,3.23,3.36,2.32
24.2420,0.09,0.12,-0.98,3.30,3.23,2.32
24.2570,0.07,0.13,-0.98,2.99,2.87,2.20
24.2680,0.08,0.12,-0.98,3.05,3.30,2.38
24.2840,0.07,0.12,-0.98,3.23,2.93,2.44
24.3020,0.08,0.12,-0.98,3.17,3.11,2.75
24.3170,0.07,0.13,-0.98,3.17,3.23,2.50
24.3320,0.08,0.13,-0.98,3.17,3.17,2.50
24.3470,0.07,0.12,-0.98,2.81,3.30,2.38
24.3520,0.07,0.12,-0.98,3.05,2.99,2.75
24.3770,0.08,0.12,-0.98,3.05,3.23,2.69
24.3920,0.08,0.13,-0.98,3.05,2.93,2.69
24.4020,0.08,0.12,-0.98,3.11,3.05,2.62
24.4180,0.07,0.12,-0.98,3.05,3.11,2.50
24.4360,0.07,0.12,-0.98,2.99,3.05,2.50
24.4510,0.07,0.12,-0.98,3.05,3.23,2.69
24.4670,0.08,0.15,-0.98,2.99,3.48,2.69
24.4830,0.09,0.13,-0.98,3.11,3.11,2.56
24.4860,0.08,0.13,-0.98,3.17,3.05,2.20
24.5120,0.08,0.13,-0.98,3.05,3.05,2.14
24.5180,0.06,0.12,-0.98,2.99,3.05,2.14
24.5420,0.06,0.12,-0.99,3.17,3.17,2.75
24.5510,0.08,0.12,-0.98,3.11,2.87,2.93
24.5680,0.07,0.13,-0.98,2.99,3.42,2.50
24.5840,0.08,0.13,-0.98,3.17,3.42,2.32
24.6020,0.06,0.12,-0.98,2.99,2.75,2.26
24.6170,0.06,0.12,-0.98,2.99,3.36,2.38
24.6320,0.06,0.13,-0.99,2.87,2.93,3.11
24.6450,0.07,0.13,-0.98,2.99,2.99,3.72
24.6630,0.09,0.12,-0.98,3.05,3.05,3.85
24.6690,0.09,0.12,-0.98,2.87,3.17,3.23
24.6920,0.09,0.12,-0.98,2.93,2.93,2.99
24.7010,0.08,0.12,-0.98,2.99,2.81,2.81
24.7180,0.07,0.12,-0.98,3.11,3.05,3.11
24.7360,0.07,0.13,-0.98,3.05,2.99,3.11
24.7520,0.08,0.13,-0.98,3.36,2.75,3.05
24.7670,0.08,0.13,-0.98,3.30,2.99,2.99
24.7820,0.07,0.12,-0.98,3.05,3.05,2.26
24.7850,0.08,0.13,-0.98,2.87,3.23,2.32
24.8120,0.07,0.13,-0.98,3.17,3.23,2.56
24.8270,0.07,0.13,-0.98,3.17,2.99,2.81
24.8420,0.08,0.12,-0.98,3.11,2.93,3.17
24.8520,0.08,0.12,-0.98,3.17,3.11,3.05
24.8680,0.08,0.13,-0.98,3.23,3.11,2.44
24.8840,0.08,0.12,-0.98,3.30,2.56,2.01
24.9020,0.07,0.12,-0.98,3.42,3.11,2.08
24.9020,0.07,0.12,-0.98,3.42,3.17,2.44
24.9320,0.06,0.12,-0.98,3.30,3.23,3.11
24.9450,0.06,0.12,-0.98,2.99,2.75,3.48
24.9620,0.07,0.13,-0.98,2.81,2.50,3.72
24.9690,0.08,0.13,-0.98,3.05,2.93,3.54
24.9850,0.08,0.12,-0.98,3.11,2.93,2.99
25.0070,0.08,0.12,-0.98,3.17,3.42,2.50
25.0190,0.07,0.12,-0.98,3.23,3.11,2.08
25.0340,0.07,0.13,-0.98,3.11,3.48,1.95
25.0520,0.08,0.13,-0.98,2.99,3.23,1.89
25.0520,0.08,0.13,-0.98,3.23,3.48,1.65
25.0820,0.09,0.12,-0.98,3.30,3.17,1.83
25.0860,0.09,0.12,-0.98,3.42,3.11,1.83
25.1010,0.08,0.12,-0.98,3.11,2.93,1.89
25.1180,0.08,0.12,-0.98,3.42,2.87,1.95
25.1350,0.07,0.12,-0.98,3.17,3.54,2.20
25.1570,0.07,0.12,-0.98,3.11,3.42,2.44
25.1680,0.07,0.13,-0.98,3.05,2.99,2.75
25.1850,0.09,0.13,-0.98,2.99,2.93,2.81
25.2010,0.08,0.12,-0.98,2.93,2.87,2.56
25.2170,0.06,0.12,-0.98,2.99,3.17,2.56
25.2180,0.07,0.13,-0.98,3.30,3.11,2.81
25.2470,0.07,0.12,-0.98,3.23,3.30,2.87
25.2620,0.08,0.12,-0.98,3.30,3.48,2.87
25.2770,0.09,0.13,-0.98,3.23,2.75,2.62
25.2850,0.08,0.12,-0.98,3.23,2.93,2.32
25.3070,0.07,0.13,-0.98,3.42,3.11,2.26
25.3180,0.06,0.13,-0.98,3.17,3.17,2.38
25.3360,0.07,0.12,-0.98,2.99,3.11,2.44
25.3510,0.08,0.12,-0.98,3.36,3.17,2.44
25.3670,0.08,0.13,-0.98,3.17,2.99,2.38
25.3820,0.09,0.12,-0.98,3.17,3.05,2.14
25.3970,0.08,0.12,-0.98,3.23,3.05,2.20
25.4120,0.07,0.12,-0.98,3.11,2.93,2.08
25.4280,0.06,0.13,-0.99,3.17,3.11,2.20
25.4350,0.06,0.13,-0.99,3.17,3.05,2.14
25.4560,0.09,0.12,-0.98,3.30,2.99,2.01
25.4680,0.08,0.13,-0.98,3.05,3.17,1.95
25.4860,0.08,0.12,-0.98,3.11,3.42,2.20
25.5010,0.08,0.12,-0.98,3.23,2.87,2.08
25.5170,0.07,0.13,-0.98,3.30,2.75,1.83
25.5320,0.07,0.13,-0.98,3.11,3.30,1.83
25.5470,0.08,0.13,-0.98,3.30,2.99,1.71
25.5520,0.08,0.13,-0.98,3.36,2.99,1.77
25.5770,0.08,0.12,-0.98,3.23,2.75,1.83
25.5920,0.08,0.12,-0.98,3.30,2.93,1.83
25.6010,0.08,0.12,-0.98,3.23,3.48,1.89
25.6180,0.07,0.13,-0.98,3.17,2.93,1.89
25.6350,0.07,0.13,-0.98,3.23,3.23,1.77
25.6510,0.07,0.13,-0.98,3.30,2.87,1.83
25.6670,0.07,0.12,-0.98,3.30,3.23,1.95
25.6680,0.08,0.12,-0.98,3.23,3.05,2.01
25.6850,0.08,0.12,-0.98,3.30,2.69,2.20
25.7120,0.08,0.12,-0.98,3.23,3.11,2.56
25.7270,0.08,0.12,-0.98,3.05,3.11,2.32
25.7420,0.08,0.13,-0.98,3.30,3.48,2.26
25.7510,0.07,0.12,-0.98,3.30,2.99,2.20
25.7700,0.08,0.12,-0.98,3.17,3.05,2.01
25.7850,0.08,0.12,-0.98,3.11,3.11,1.83
25.8020,0.08,0.12,-0.98,3.23,3.17,1.83
25.8170,0.08,0.13,-0.98,3.30,3.36,2.01
25.8320,0.08,0.12,-0.98,3.42,3.11,1.77
25.8460,0.08,0.13,-0.98,3.30,3.23,1.65
25.8520,0.08,0.13,-0.98,3.11,3.42,1.65
25.8770,0.08,0.13,-0.98,3.23,2.99,1.71
25.8920,0.07,0.13,-0.98,3.30,3.30,1.77
25.9080,0.08,0.12,-0.98,3.42,3.36,1.83
25.9180,0.08,0.13,-0.98,3.17,3.30,1.77
25.9350,0.09,0.12,-0.98,3.30,3.30,1.89
25.9520,0.08,0.12,-0.98,3.17,3.36,1.89
25.9670,0.07,0.12,-0.98,3.11,3.17,1.59
25.9820,0.08,0.12,-0.98,3.23,3.42,1.71
25.9980,0.08,0.13,-0.98,3.36,2.87,1.71
26.0020,0.08,0.13,-0.98,3.30,3.05,1.65
26.0270,0.08,0.12,-0.98,3.17,2.87,1.83
26.0420,0.08,0.12,-0.98,3.30,3.05,2.01
26.0520,0.08,0.16,-0.98,3.30,3.17,2.01
26.0680,0.08,0.12,-0.98,3.36,2.93,1.89
26.0850,0.07,0.13,-0.98,3.11,3.23,1.89
26.1020,0.07,0.12,-0.98,3.17,2.99,1.77
26.1020,0.07,0.12,-0.98,3.30,3.48,1.89
26.1320,0.08,0.12,-0.98,3.36,2.99,1.89
26.1470,0.07,0.13,-0.98,3.23,3.23,2.08
26.1620,0.07,0.12,-0.98,3.42,3.30,2.20
26.1770,0.07,0.13,-0.98,3.17,3.36,2.44
26.1920,0.08,0.12,-0.98,3.36,3.17,2.32
26.2020,0.08,0.12,-0.98,3.30,3.17,2.08
26.2200,0.09,0.12,-0.98,3.05,3.36,2.08
26.2350,0.08,0.12,-0.98,3.23,2.93,2.26
26.2520,0.07,0.13,-0.98,2.99,2.93,2.26
26.2670,0.06,0.12,-0.98,3.30,2.81,2.69
26.2820,0.06,0.13,-0.98,3.23,3.05,2.75
26.2970,0.07,0.12,-0.99,2.87,3.48,2.75
26.3120,0.07,0.12,-0.98,3.11,2.87,2.69
26.3270,0.08,0.12,-0.98,2.81,3.66,3.05
26.3420,0.08,0.12,-0.98,2.81,3.48,2.93
26.3510,0.08,0.12,-0.98,3.17,3.05,2.93
26.3680,0.08,0.12,-0.98,2.93,3.11,2.81
26.3850,0.08,0.12,-0.98,2.81,3.30,2.75
26.4020,0.08,0.12,-0.98,3.23,3.23,2.62
26.4180,0.08,0.12,-0.98,2.99,3.30,2.87
26.4190,0.09,0.12,-0.98,3.11,3.17,2.56
26.4470,0.08,0.12,-0.98,3.17,3.36,2.26
26.4620,0.08,0.13,-0.98,3.30,3.11,1.95
26.4770,0.08,0.12,-0.98,3.42,2.81,1.65
26.4920,0.08,0.12,-0.98,3.48,2.62,1.71
26.5070,0.08,0.12,-0.98,3.23,3.23,1.89
26.5180,0.08,0.12,-0.98,3.36,3.11,1.83
26.5350,0.08,0.12,-0.98,3.23,3.17,1.83
26.5520,0.08,0.13,-0.98,3.23,3.11,1.65
26.5520,0.08,0.12,-0.98,3.30,3.05,1.71
26.5820,0.08,0.12,-0.98,3.17,3.36,1.71
26.5970,0.08,0.12,-0.98,3.48,2.93,1.71
26.6120,0.07,0.12,-0.98,3.72,3.05,1.83
26.6270,0.06,0.13,-0.98,3.36,2.69,1.89
26.6420,0.09,0.12,-0.98,3.30,2.87,3.11
26.6520,0.08,0.12,-0.98,3.23,2.93,2.32
26.6680,0.08,0.12,-0.98,3.48,3.05,1.83
26.6830,0.08,0.12,-0.98,3.30,2.87,1.65
26.7030,0.08,0.12,-0.98,3.30,2.99,1.65
26.7190,0.08,0.12,-0.98,2.81,2.93,1.71
26.7330,0.08,0.13,-0.98,2.99,2.99,1.65
26.7480,0.08,0.12,-0.98,2.93,3.17,1.77
26.7630,0.08,0.12,-0.98,3.23,2.87,1.77
26.7780,0.08,0.12,-0.98,3.42,2.62,1.71
26.7930,0.08,0.12,-0.98,3.42,2.56,1.71
26.8080,0.08,0.12,-0.98,3.11,3.05,1.65
26.8190,0.08,0.12,-0.98,3.23,2.93,1.77
26.8360,0.08,0.12,-0.98,3.36,2.93,1.71
26.8530,0.07,0.13,-0.98,3.85,3.66,1.95
26.8530,0.08,0.12,-0.99,3.72,3.78,1.77
26.8830,0.07,0.13,-0.98,3.72,3.54,1.89
26.8850,0.08,0.13,-0.98,3.30,3.78,1.83
26.9030,0.08,0.13,-0.98,3.17,3.60,1.95
26.9190,0.08,0.12,-0.98,3.11,3.11,1.89
26.9380,0.08,0.12,-0.98,3.23,3.54,1.89
26.9540,0.08,0.13,-0.98,3.23,3.42,1.89
26.9720,0.08,0.13,-0.98,3.11,3.23,1.89
26.9880,0.08,0.12,-0.98,3.30,2.99,1.83
27.0030,0.08,0.12,-0.98,3.30,3.36,1.95
27.0180,0.08,0.12,-0.98,2.93,3.48,1.77
27.0320,0.08,0.12,-0.98,3.17,3.23,1.89
27.0480,0.08,0.12,-0.98,3.05,3.23,1.77
27.0550,0.07,0.12,-0.98,3.36,3.36,1.89
27.0710,0.08,0.13,-0.98,3.11,3.60,1.89
27.0880,0.08,0.12,-0.98,3.30,3.11,1.89
27.1040,0.08,0.12,-0.98,3.23,3.23,1.77
27.1210,0.07,0.12,-0.98,3.42,2.99,1.71
27.1380,0.08,0.13,-0.98,3.48,3.23,1.95
27.1530,0.08,0.13,-0.98,3.48,3.30,1.77
27.1550,0.08,0.13,-0.98,3.66,3.36,1.89
27.1720,0.08,0.13,-0.98,3.72,3.23,1.83
27.1980,0.08,0.13,-0.98,3.23,3.23,1.71
27.2130,0.08,0.12,-0.98,3.05,2.93,1.89
27.2210,0.07,0.12,-0.99,3.30,2.69,1.59
27.2390,0.07,0.13,-0.98,3.11,2.38,1.59
27.2550,0.08,0.12,-0.98,3.11,2.69,1.71
27.2720,0.08,0.13,-0.98,3.30,2.87,1.83
27.2880,0.08,0.13,-0.98,2.99,2.87,1.77
27.3040,0.08,0.13,-0.98,2.99,3.05,1.95
27.3180,0.08,0.12,-0.98,3.05,3.05,1.77
27.3210,0.08,0.12,-0.98,2.93,3.23,1.89
27.3470,0.08,0.13,-0.98,3.23,3.17,2.01
27.3550,0.08,0.12,-0.98,2.99,3.23,1.83
27.3720,0.08,0.12,-0.98,3.23,3.17,1.83
27.3890,0.08,0.12,-0.98,3.30,2.93,2.01
27.4050,0.08,0.13,-0.98,3.17,3.23,1.95
27.4230,0.08,0.13,-0.98,3.17,3.30,1.89
27.4380,0.08,0.13,-0.98,3.17,3.48,1.77
27.4530,0.08,0.13,-0.98,3.36,3.23,1.89
27.4550,0.08,0.13,-0.98,3.23,3.54,2.01
27.4710,0.08,0.12,-0.98,3.48,3.48,1.89
27.4880,0.08,0.13,-0.98,2.99,3.17,1.95
27.5050,0.08,0.12,-0.98,3.30,3.05,2.01
27.5300,0.08,0.12,-0.98,3.36,3.30,1.89
27.5380,0.08,0.12,-0.98,3.36,3.23,1.95
27.5550,0.08,0.13,-0.98,2.99,3.42,2.01
27.5720,0.08,0.13,-0.98,3.30,3.60,2.01
27.5880,0.08,0.13,-0.98,3.17,3.11,2.08
27.6040,0.08,0.12,-0.98,3.05,3.36,1.89
27.6190,0.08,0.12,-0.98,3.11,3.54,1.77
27.6210,0.08,0.13,-0.98,3.36,2.87,1.89
27.6480,0.08,0.12,-0.98,2.99,3.23,2.01
27.6550,0.08,0.13,-0.98,3.23,2.99,1.89
27.6720,0.08,0.13,-0.98,3.17,3.11,1.83
27.6900,0.08,0.12,-0.98,3.30,3.66,1.89
27.7060,0.08,0.13,-0.98,3.05,3.11,1.83
27.7210,0.08,0.13,-0.98,2.99,3.30,1.83
27.7390,0.08,0.13,-0.98,2.93,3.17,1.95
27.7540,0.08,0.13,-0.98,3.05,3.30,1.95
27.7550,0.08,0.13,-0.98,2.99,2.93,1.83
27.7830,0.08,0.13,-0.98,2.99,2.99,1.89
27.7880,0.08,0.13,-0.98,3.17,3.42,1.89
27.8130,0.08,0.12,-0.98,3.17,3.30,1.83
27.8290,0.08,0.13,-0.98,3.17,3.48,1.95
27.8380,0.08,0.12,-0.98,3.48,3.42,1.83
27.8550,0.08,0.13,-0.98,3.36,3.42,1.89
27.8720,0.08,0.13,-0.98,3.30,3.11,1.89
27.8870,0.08,0.13,-0.98,3.30,3.23,1.77
27.9040,0.08,0.13,-0.98,2.69,3.30,1.83
27.9050,0.08,0.13,-0.98,3.05,3.72,1.89
27.9340,0.08,0.13,-0.98,2.99,3.36,1.83
27.9480,0.08,0.13,-0.98,3.05,3.30,1.83
27.9550,0.08,0.12,-0.98,3.11,3.17,1.95
27.9720,0.08,0.13,-0.98,3.17,3.42,2.01
27.9890,0.08,0.13,-0.98,3.17,2.99,2.01
28.0050,0.08,0.13,-0.98,3.23,3.11,1.95
28.0210,0.08,0.13,-0.98,3.36,3.36,1.71
28.0390,0.08,0.12,-0.98,3.11,3.11,1.89
28.0540,0.08,0.12,-0.98,3.42,3.23,1.89
28.0550,0.08,0.13,-0.98,3.11,2.99,1.95
28.0720,0.08,0.12,-0.98,3.30,3.66,1.95
28.0990,0.08,0.13,-0.98,3.23,3.36,1.89
28.1050,0.08,0.12,-0.98,3.11,3.17,1.83
28.1290,0.08,0.13,-0.98,3.23,3.30,1.89
28.1390,0.08,0.13,-0.98,3.17,2.99,1.95
28.1550,0.08,0.13,-0.98,3.11,3.05,1.89
28.1720,0.08,0.13,-0.98,3.17,3.11,2.01
28.1890,0.08,0.12,-0.98,3.36,3.17,1.83
28.2040,0.08,0.13,-0.98,3.11,3.42,1.95
28.2050,0.08,0.13,-0.98,3.17,3.42,1.89
28.2340,0.08,0.13,-0.98,3.23,3.17,1.83
28.2480,0.08,0.13,-0.98,3.17,3.05,1.77
28.2550,0.08,0.13,-0.98,3.36,2.87,1.83
28.2790,0.08,0.13,-0.98,3.23,3.17,1.83
28.2880,0.08,0.12,-0.98,3.54,3.36,1.83
28.3050,0.08,0.13,-0.98,3.42,3.42,1.95
28.3210,0.08,0.13,-0.98,3.11,3.30,1.95
28.3400,0.08,0.13,-0.98,3.05,2.99,1.89
28.3550,0.08,0.13,-0.98,3.48,3.11,1.89
28.3560,0.08,0.13,-0.98,3.23,3.36,2.01
28.3850,0.08,0.13,-0.98,3.17,3.36,1.89
28.4000,0.08,0.13,-0.98,3.23,3.30,2.01
28.4150,0.08,0.13,-0.98,3.17,3.23,1.77
28.4210,0.08,0.13,-0.98,3.42,3.36,1.95
28.4390,0.08,0.12,-0.98,3.05,3.23,1.95
28.4550,0.08,0.13,-0.98,3.11,3.42,1.83
28.4710,0.08,0.13,-0.98,3.30,3.17,1.77
28.4880,0.08,0.13,-0.98,2.99,3.17,1.95
28.5050,0.08,0.13,-0.98,3.17,3.42,1.95
28.5050,0.08,0.13,-0.98,3.11,3.48,1.83
28.5220,0.08,0.13,-0.98,3.05,3.17,1.89
28.5480,0.08,0.12,-0.98,3.05,3.30,1.77
28.5650,0.08,0.13,-0.98,3.36,3.36,1.83
28.5800,0.08,0.13,-0.98,3.36,3.30,2.08
28.5880,0.08,0.13,-0.98,3.36,2.99,1.95
28.6050,0.08,0.13,-0.98,3.17,3.54,1.83
28.6220,0.08,0.12,-0.98,3.30,3.11,1.83
28.6380,0.08,0.12,-0.98,3.30,3.17,1.83
28.6550,0.08,0.13,-0.98,3.30,3.17,1.89
28.6710,0.08,0.13,-0.98,3.30,2.99,1.83
28.6720,0.08,0.12,-0.98,3.05,3.42,1.89
28.6880,0.08,0.13,-0.98,3.23,3.30,1.89
28.7050,0.08,0.13,-0.98,3.23,3.05,1.83
28.7220,0.08,0.12,-0.98,3.17,3.23,1.89
28.7390,0.08,0.13,-0.98,3.05,3.05,1.83
28.7560,0.08,0.13,-0.98,3.11,3.54,1.89
28.7720,0.08,0.13,-0.98,3.54,3.23,1.95
28.7890,0.08,0.13,-0.98,3.42,3.05,2.08
28.8050,0.08,0.12,-0.98,3.23,3.17,1.95
28.8060,0.08,0.12,-0.98,3.11,3.30,1.95
28.8350,0.08,0.12,-0.98,3.11,3.23,1.89
28.8490,0.08,0.12,-0.98,3.23,3.30,1.89
28.8550,0.08,0.13,-0.98,3.17,3.30,1.89
28.8720,0.08,0.13,-0.98,2.93,3.36,2.01
28.8890,0.08,0.13,-0.98,3.30,3.17,1.95
28.9060,0.08,0.13,-0.98,3.30,3.36,1.89
28.9210,0.08,0.13,-0.98,3.23,2.99,1.89
28.9390,0.08,0.12,-0.98,3.23,3.05,1.95
28.9550,0.08,0.12,-0.98,3.30,3.30,2.01
28.9550,0.08,0.12,-0.98,3.23,3.17,1.77
28.9850,0.08,0.12,-0.98,3.17,3.60,2.08
28.9880,0.08,0.12,-0.98,3.30,3.54,1.83
29.0050,0.08,0.13,-0.98,3.42,3.23,1.95
29.0220,0.08,0.12,-0.98,3.23,3.54,1.89
29.0380,0.08,0.13,-0.98,3.30,3.23,1.83
29.0560,0.08,0.12,-0.98,3.11,3.23,1.83
29.0710,0.08,0.13,-0.98,3.54,3.36,1.71
29.0900,0.08,0.13,-0.98,2.87,3.54,1.83
29.1060,0.08,0.13,-0.98,3.11,3.30,1.89
29.1210,0.08,0.13,-0.98,3.05,3.36,1.83
29.1360,0.08,0.13,-0.98,3.17,3.23,1.89
29.1510,0.08,0.13,-0.98,3.17,3.23,1.89
29.1550,0.08,0.12,-0.98,3.30,3.36,2.08
29.1720,0.08,0.13,-0.98,3.30,3.17,1.83
29.1960,0.08,0.12,-0.98,3.17,3.54,1.89
29.2040,0.08,0.13,-0.98,3.30,3.48,1.89
29.2210,0.08,0.12,-0.98,3.36,3.11,1.83
29.2400,0.08,0.13,-0.98,3.23,3.17,1.77
29.2550,0.08,0.13,-0.98,2.99,3.72,2.01
29.2710,0.08,0.13,-0.98,3.36,3.11,1.77
29.2860,0.08,0.12,-0.98,3.42,3.05,1.77
29.3010,0.08,0.13,-0.98,3.11,3.30,2.01
29.3050,0.08,0.12,-0.98,3.17,3.23,2.01
29.3310,0.08,0.12,-0.98,3.11,3.42,1.95
29.3380,0.08,0.13,-0.98,3.30,3.42,2.01
29.3550,0.08,0.13,-0.98,3.23,3.30,1.83
29.3720,0.08,0.13,-0.98,3.17,3.48,1.89
29.3890,0.08,0.13,-0.98,3.17,3.72,1.83
29.4060,0.08,0.12,-0.98,3.30,3.17,1.71
29.4210,0.08,0.13,-0.98,3.42,3.11,1.89
29.4360,0.08,0.13,-0.98,3.17,3.17,1.89
29.4510,0.08,0.13,-0.98,3.17,3.23,1.71
29.4550,0.08,0.13,-0.98,2.93,3.30,2.01
29.4810,0.08,0.13,-0.98,3.23,2.87,1.83
29.4880,0.08,0.12,-0.98,3.11,3.54,2.01
29.5050,0.08,0.13,-0.98,3.05,3.23,1.89
29.5230,0.08,0.12,-0.98,3.11,3.42,1.89
29.5390,0.08,0.12,-0.98,3.30,3.17,1.89
29.5550,0.08,0.13,-0.98,3.05,3.11,1.95
29.5720,0.08,0.13,-0.98,3.30,3.42,2.01
29.5880,0.08,0.13,-0.98,3.36,3.36,1.89
29.6030,0.08,0.13,-0.98,3.17,2.99,2.08
29.6050,0.08,0.12,-0.98,3.17,2.99,2.08
29.6220,0.08,0.13,-0.98,3.36,3.54,1.95
29.6390,0.08,0.13,-0.98,3.23,3.30,1.95
29.6630,0.08,0.12,-0.98,3.23,3.23,1.89
29.6710,0.08,0.13,-0.98,3.30,3.30,1.83
29.6880,0.08,0.13,-0.98,3.17,3.23,1.89
29.7050,0.08,0.12,-0.98,3.30,3.11,1.77
29.7220,0.08,0.12,-0.98,3.30,3.17,1.89
29.7380,0.08,0.13,-0.98,3.36,3.23,1.89
29.7530,0.08,0.13,-0.98,2.99,3.11,1.83
29.7680,0.08,0.13,-0.98,3.23,3.42,1.83
29.7720,0.08,0.13,-0.98,3.05,3.48,1.89
29.7980,0.08,0.13,-0.98,3.17,3.11,1.83
29.8040,0.08,0.13,-0.98,3.23,2.93,1.89
29.8220,0.08,0.13,-0.98,3.11,3.30,1.95
29.8460,0.08,0.13,-0.98,3.05,3.11,1.89
29.8550,0.08,0.13,-0.98,3.17,3.11,1.77
29.8720,0.08,0.13,-0.98,3.30,2.87,1.77
29.8900,0.08,0.13,-0.98,3.17,3.30,1.77
29.9060,0.08,0.13,-0.98,3.17,3.05,1.77
29.9210,0.08,0.12,-0.98,3.11,3.42,1.89
29.9220,0.08,0.13,-0.98,3.05,3.23,1.83
29.9510,0.08,0.13,-0.99,3.23,3.17,1.89
29.9550,0.08,0.13,-0.98,3.42,3.11,1.89
29.9720,0.08,0.13,-0.98,3.23,2.93,1.83
29.9960,0.08,0.13,-0.98,3.23,3.05,1.95
30.0050,0.08,0.13,-0.98,3.36,3.42,1.89
30.0230,0.08,0.13,-0.98,3.23,3.60,1.95
30.0380,0.08,0.12,-0.98,3.23,3.11,1.89
30.0550,0.08,0.13,-0.98,3.48,3.05,2.01
30.0710,0.08,0.13,-0.98,3.17,3.11,1.77
30.0860,0.08,0.12,-0.98,3.17,3.23,1.89
30.0890,0.08,0.12,-0.98,3.42,2.99,1.83
30.1160,0.08,0.13,-0.98,3.48,3.42,1.83
30.1220,0.08,0.13,-0.98,3.05,3.42,1.83
30.1390,0.08,0.13,-0.98,2.93,3.11,1.95
30.1560,0.08,0.12,-0.98,3.17,3.11,1.89
30.1710,0.08,0.13,-0.98,3.36,3.11,2.01
30.1890,0.08,0.12,-0.98,3.17,3.05,2.01
30.2050,0.08,0.12,-0.98,3.36,3.60,1.83
30.2210,0.08,0.12,-0.98,3.05,3.48,1.95
30.2360,0.08,0.12,-0.98,3.11,3.17,1.89
30.2500,0.08,0.13,-0.98,3.30,3.11,1.83
30.2560,0.08,0.13,-0.98,3.17,3.36,1.95
30.2810,0.08,0.13,-0.98,3.23,3.05,1.95
30.2880,0.08,0.13,-0.98,3.17,3.42,1.83
30.3050,0.08,0.12,-0.98,3.17,3.30,1.89
30.3220,0.08,0.12,-0.98,3.05,3.42,1.89
30.3390,0.08,0.12,-0.98,3.11,3.17,1.89
30.3550,0.08,0.16,-0.98,3.42,3.30,1.89
30.3710,0.08,0.13,-0.98,3.23,3.42,1.77
30.3860,0.08,0.12,-0.98,3.05,3.11,1.89
30.4010,0.08,0.13,-0.98,3.23,3.23,1.89
30.4050,0.08,0.13,-0.98,3.23,3.05,1.83
30.4220,0.08,0.12,-0.98,3.11,3.23,2.01
30.4460,0.08,0.13,-0.98,3.05,3.54,2.01
30.4550,0.09,0.14,-0.98,3.17,3.17,3.05
30.4720,0.08,0.13,-0.98,2.75,3.05,5.07
30.4890,0.08,0.13,-0.98,2.75,2.38,5.92
30.5040,0.09,0.13,-0.98,2.75,2.62,5.37
30.5210,0.07,0.12,-0.98,2.75,3.17,3.85
30.5360,0.07,0.12,-0.98,3.17,3.17,2.99
30.5500,0.07,0.12,-0.98,2.93,2.99,2.44
30.5550,0.08,0.12,-0.98,3.17,3.30,2.38
30.5710,0.07,0.13,-0.98,3.23,3.36,2.50
30.5880,0.08,0.13,-0.98,2.93,2.87,3.60
30.6060,0.08,0.12,-0.98,2.99,3.23,4.09
30.6210,0.08,0.12,-0.98,3.05,3.17,3.54
30.6390,0.08,0.13,-0.98,3.23,3.05,2.87
30.6560,0.07,0.12,-0.98,2.99,3.23,2.93
30.6710,0.08,0.13,-0.98,3.05,3.17,2.93
30.6710,0.08,0.13,-0.98,3.23,3.17,2.81
30.6890,0.08,0.12,-0.98,2.99,3.17,2.93
30.7160,0.08,0.12,-0.98,3.05,3.05,2.75
30.7300,0.08,0.12,-0.98,3.23,3.23,2.99
30.7390,0.08,0.13,-0.98,2.93,3.11,2.75
30.7560,0.08,0.13,-0.98,3.17,3.05,2.99
30.7710,0.08,0.13,-0.98,3.05,3.36,3.36
30.7890,0.08,0.12,-0.98,3.23,3.36,3.11
30.8050,0.07,0.12,-0.99,3.23,3.48,2.01
30.8200,0.08,0.12,-0.98,3.42,3.48,1.46
30.8220,0.07,0.12,-0.98,3.17,3.66,1.40
30.8510,0.07,0.12,-0.99,3.23,3.60,1.46
30.8560,0.08,0.13,-0.98,3.17,3.66,1.83
30.8720,0.08,0.13,-0.98,2.99,3.23,2.20
30.8890,0.08,0.12,-0.98,3.23,3.05,2.32
30.9040,0.08,0.13,-0.98,3.11,3.05,1.83
30.9210,0.08,0.12,-0.98,3.23,3.30,1.65
30.9390,0.08,0.13,-0.98,3.17,3.36,1.34
30.9560,0.09,0.13,-0.98,3.30,3.48,1.28
30.9710,0.07,0.12,-0.98,3.11,3.30,1.28
30.9710,0.07,0.12,-0.98,3.30,3.11,1.83
30.9880,0.07,0.12,-0.98,3.23,3.17,1.77
31.0150,0.07,0.12,-0.98,3.36,3.17,1.71
31.0210,0.07,0.12,-0.98,3.23,3.11,1.53
31.0380,0.07,0.13,-0.98,3.36,3.36,1.71
31.0570,0.08,0.13,-0.98,3.36,2.99,1.83
31.0720,0.07,0.12,-0.98,3.11,3.36,1.89
31.0880,0.08,0.12,-0.98,3.30,2.99,2.20
31.1060,0.08,0.13,-0.98,3.48,3.11,2.14
31.1210,0.08,0.12,-0.98,3.30,3.36,2.20
31.1220,0.08,0.13,-0.98,3.17,3.30,2.14
31.1510,0.08,0.12,-0.98,3.30,2.99,2.14
31.1550,0.08,0.13,-0.98,3.17,3.11,2.08
31.1810,0.08,0.12,-0.98,2.99,2.93,2.32
31.1880,0.08,0.13,-0.98,3.11,2.87,2.44
31.2050,0.08,0.13,-0.98,3.11,3.11,2.62
31.2210,0.07,0.12,-0.98,2.93,3.30,2.32
31.2390,0.07,0.12,-0.98,2.93,3.42,2.20
31.2550,0.08,0.13,-0.98,3.17,3.30,2.56
31.2710,0.08,0.14,-0.98,3.23,3.36,2.93
31.2860,0.07,0.11,-0.98,2.81,2.93,3.42
31.2890,0.08,0.13,-0.98,3.11,3.54,2.38
31.3160,0.07,0.12,-0.98,2.99,3.23,2.32
31.3220,0.07,0.12,-0.98,3.36,2.87,2.20
31.3460,0.08,0.13,-0.98,3.17,2.75,2.56
31.3550,0.08,0.13,-0.98,2.93,2.93,3.11
31.3720,0.08,0.12,-0.98,3.17,3.05,3.48
31.3880,0.07,0.12,-0.98,2.99,3.11,2.81
31.4050,0.08,0.12,-0.98,3.30,2.81,2.62
31.4210,0.08,0.12,-0.98,3.23,3.05,2.14
31.4220,0.08,0.12,-0.98,3.11,3.17,2.08
31.4510,0.08,0.12,-0.98,3.11,2.99,2.20
31.4550,0.08,0.12,-0.98,2.93,3.30,2.44
31.4720,0.08,0.13,-0.98,2.81,3.17,2.62
31.4900,0.08,0.12,-0.98,2.99,3.36,3.72
31.5050,0.08,0.12,-0.98,3.11,3.17,2.75
31.5220,0.08,0.12,-0.98,3.30,2.93,1.95
31.5380,0.07,0.12,-0.98,3.36,3.17,1.89
31.5550,0.08,0.12,-0.98,3.30,3.42,1.83
31.5710,0.08,0.13,-0.98,3.23,3.23,1.95
31.5720,0.08,0.13,-0.98,3.11,3.23,2.08
31.5900,0.08,0.13,-0.98,3.11,3.17,2.75
31.6160,0.08,0.12,-0.98,3.23,3.30,2.69
31.6310,0.08,0.12,-0.98,3.23,3.42,2.20
31.6380,0.07,0.12,-0.98,3.30,3.17,1.89
31.6550,0.07,0.12,-0.98,3.23,2.99,2.01
31.6710,0.07,0.13,-0.98,3.17,3.05,2.38
31.6880,0.08,0.13,-0.98,3.11,3.42,2.81
31.7050,0.08,0.12,-0.98,2.87,3.42,2.87
31.7210,0.08,0.12,-0.98,3.23,3.23,1.77
31.7220,0.08,0.13,-0.98,3.48,3.23,1.34
31.7390,0.08,0.12,-0.98,3.54,3.30,1.28
31.7650,0.09,0.13,-0.98,3.23,3.17,1.46
31.7710,0.07,0.12,-0.98,3.30,3.48,1.22
31.7880,0.08,0.12,-0.98,3.30,3.17,1.59
31.8050,0.07,0.12,-0.98,3.30,3.11,1.71
31.8210,0.08,0.12,-0.98,3.30,3.05,1.89
31.8380,0.07,0.12,-0.98,3.23,3.23,2.32
31.8550,0.08,0.13,-0.98,3.36,3.05,2.75
31.8710,0.08,0.12,-0.98,3.23,3.11,3.05
31.8860,0.08,0.12,-0.98,2.99,3.17,2.44
31.8880,0.08,0.12,-0.98,3.11,3.17,1.95
31.9050,0.07,0.12,-0.98,3.36,3.17,1.95
31.9310,0.08,0.12,-0.98,3.05,3.36,1.89
31.9380,0.08,0.16,-0.98,3.23,3.30,2.01
31.9560,0.08,0.13,-0.98,3.11,3.23,2.32
31.9710,0.08,0.13,-0.98,2.75,3.17,2.87
31.9900,0.08,0.13,-0.98,2.87,3.11,3.48
32.0060,0.08,0.12,-0.98,2.99,2.99,3.91
32.0200,0.08,0.12,-0.98,3.11,3.11,3.36
32.0220,0.08,0.12,-0.98,2.93,3.05,2.93
32.0380,0.07,0.12,-0.98,3.05,3.23,3.05
32.0650,0.07,0.13,-0.98,2.75,2.99,4.15
32.0710,0.08,0.12,-0.99,2.99,2.99,4.58
32.0960,0.08,0.13,-0.98,3.23,2.93,4.15
32.1040,0.08,0.12,-0.98,2.99,3.30,4.21
32.1220,0.07,0.13,-0.98,2.99,2.93,3.42
32.1380,0.08,0.14,-0.98,3.05,2.81,4.33
32.1550,0.08,0.13,-0.98,2.81,2.81,5.68
32.1710,0.09,0.13,-0.98,2.44,2.99,5.55
32.1860,0.08,0.11,-0.98,3.17,3.30,3.05
32.2000,0.07,0.12,-0.98,3.30,3.36,1.40
32.2050,0.08,0.13,-0.98,3.30,3.42,1.16
32.2310,0.08,0.13,-0.98,2.99,3.48,1.28
32.2460,0.07,0.12,-0.98,3.11,3.48,1.65
32.2560,0.07,0.12,-0.98,3.17,3.30,1.89
32.2720,0.08,0.13,-0.98,3.11,3.23,2.20
32.2900,0.08,0.13,-0.98,3.30,3.42,2.75
32.3040,0.08,0.14,-0.98,3.17,3.05,2.99
32.3200,0.08,0.13,-0.98,3.17,3.05,4.21
32.3210,0.07,0.12,-0.99,3.17,2.93,3.17
32.3380,0.07,0.12,-0.99,3.48,3.85,2.20
32.3550,0.07,0.12,-0.98,3.30,3.30,2.01
32.3720,0.08,0.12,-0.98,3.11,3.36,1.83
32.3890,0.08,0.12,-0.98,3.30,3.23,1.89
32.4050,0.08,0.13,-0.98,3.23,3.36,2.01
32.4220,0.08,0.13,-0.98,3.17,3.17,1.71
32.4380,0.08,0.12,-0.98,3.36,3.11,1.59
32.4550,0.08,0.12,-0.98,3.36,3.30,1.65
32.4710,0.08,0.13,-0.98,3.30,3.66,1.77
32.4720,0.08,0.13,-0.98,2.93,2.99,2.14
32.4890,0.08,0.13,-0.98,3.23,2.99,2.38
32.5050,0.08,0.12,-0.98,3.05,3.54,2.69
32.5220,0.08,0.12,-0.98,3.17,2.87,2.44
32.5460,0.07,0.12,-0.98,3.36,3.36,2.26
32.5550,0.08,0.13,-0.98,3.11,3.30,2.14
32.5710,0.07,0.12,-0.98,3.11,3.11,2.26
32.5880,0.08,0.12,-0.98,3.05,3.36,2.32
32.6060,0.08,0.13,-0.98,3.05,3.23,2.44
32.6210,0.08,0.12,-0.98,2.99,3.23,2.62
32.6360,0.08,0.13,-0.98,3.23,3.36,2.01
32.6510,0.08,0.13,-0.98,3.42,3.23,1.53
32.6540,0.08,0.12,-0.98,3.23,3.30,1.22
32.6720,0.07,0.12,-0.98,3.23,3.36,1.40
32.6890,0.08,0.12,-0.98,3.17,3.36,1.53
32.7060,0.07,0.12,-0.98,3.11,3.30,1.83
32.7210,0.08,0.13,-0.98,3.17,3.36,2.01
32.7390,0.08,0.12,-0.99,3.30,3.36,2.38
32.7560,0.08,0.13,-0.98,2.93,2.87,2.44
32.7710,0.08,0.13,-0.98,2.99,3.30,2.81
32.7860,0.07,0.12,-0.98,2.99,3.23,2.99
32.8010,0.08,0.13,-0.98,2.87,3.11,3.36
32.8050,0.08,0.12,-0.98,3.17,3.30,3.23
32.8220,0.07,0.12,-0.98,3.11,2.99,2.26
32.8390,0.08,0.13,-0.98,3.11,3.30,1.83
32.8560,0.08,0.12,-0.98,3.23,3.42,1.65
32.8710,0.07,0.12,-0.98,3.05,3.54,1.71
32.8880,0.08,0.13,-0.98,2.75,3.17,2.26
32.9050,0.07,0.13,-0.98,3.11,3.42,2.93
32.9210,0.08,0.13,-0.98,3.05,3.17,3.72
32.9220,0.08,0.13,-0.98,2.93,3.23,4.21
32.9380,0.08,0.12,-0.98,2.99,3.11,4.33
32.9660,0.08,0.13,-0.98,2.99,3.05,4.15
32.9710,0.08,0.13,-0.98,3.11,2.93,5.13
32.9890,0.07,0.12,-0.98,2.87,2.69,5.25
33.0050,0.09,0.12,-0.98,3.05,2.81,5.25
33.0220,0.07,0.12,-0.99,2.93,3.30,3.05
33.0380,0.08,0.12,-0.98,3.05,3.23,2.08
33.0560,0.07,0.12,-0.98,3.05,3.11,1.83
33.0560,0.07,0.12,-0.98,3.11,3.30,1.83
33.0860,0.08,0.13,-0.98,3.23,3.23,1.89
33.0880,0.08,0.13,-0.98,2.99,2.99,2.14
33.1060,0.08,0.13,-0.98,2.93,3.30,3.72
33.1310,0.08,0.13,-0.98,2.87,2.93,3.91
33.1380,0.08,0.12,-0.98,2.99,2.93,4.15
33.1560,0.08,0.13,-0.98,3.05,3.17,3.48
33.1710,0.07,0.12,-0.98,3.17,2.93,3.60
33.1880,0.08,0.12,-0.98,2.75,3.05,3.42
33.2060,0.07,0.13,-0.98,2.99,3.11,3.54
33.2210,0.08,0.13,-0.98,2.87,3.23,4.03
33.2220,0.08,0.12,-0.98,2.69,2.99,5.00
33.2510,0.08,0.12,-0.98,2.93,3.11,4.64
33.2550,0.09,0.12,-0.98,2.99,3.54,2.20
33.2720,0.08,0.12,-0.99,3.48,3.42,1.65
33.2960,0.08,0.12,-0.98,3.42,3.42,0.98
33.3050,0.07,0.12,-0.98,3.36,3.48,1.28
33.3240,0.08,0.12,-0.98,3.42,3.23,1.46
33.3390,0.08,0.12,-0.98,3.17,3.42,1.53
33.3540,0.08,0.12,-0.98,3.30,3.54,1.65
33.3710,0.09,0.13,-0.98,3.23,3.23,1.77
33.3860,0.09,0.13,-0.98,3.23,3.30,1.22
33.3890,0.07,0.12,-0.98,3.30,3.72,1.04
33.4170,0.07,0.12,-0.98,3.05,3.42,1.16
33.4220,0.07,0.12,-0.98,3.36,3.54,1.34
33.4390,0.07,0.12,-0.98,3.11,3.42,1.65
33.4560,0.09,0.14,-0.98,2.99,3.05,2.20
33.4720,0.08,0.13,-0.98,3.23,3.05,2.32
33.4890,0.08,0.13,-0.98,3.36,3.36,1.89
33.5050,0.09,0.13,-0.98,3.54,3.78,0.98
33.5220,0.07,0.12,-0.98,3.17,3.54,0.55
33.5360,0.07,0.12,-0.99,3.23,3.36,0.85
33.5520,0.07,0.12,-0.98,3.11,3.54,1.46
33.5660,0.06,0.11,-0.98,3.05,3.42,1.71
33.5820,0.07,0.12,-0.98,2.93,3.48,2.01
33.5890,0.08,0.12,-0.98,3.23,3.11,1.95
33.6070,0.08,0.13,-0.98,3.17,3.36,1.77
33.6220,0.08,0.13,-0.98,3.17,3.30,1.89
33.6400,0.07,0.12,-0.98,3.17,3.60,1.95
33.6560,0.08,0.13,-0.98,3.30,3.17,1.71
33.6720,0.08,0.13,-0.98,2.99,3.30,1.77
33.6720,0.08,0.14,-0.98,3.11,3.48,2.62
33.7020,0.08,0.13,-0.98,3.17,3.05,3.36
33.7170,0.08,0.13,-0.98,3.11,2.99,3.78
33.7220,0.08,0.12,-0.99,2.99,2.99,3.17
33.7460,0.08,0.12,-0.98,3.30,3.30,2.87
33.7550,0.08,0.12,-0.98,3.42,3.48,2.81
33.7720,0.08,0.13,-0.98,2.93,3.11,2.75
33.7890,0.08,0.12,-0.98,3.11,3.05,3.30
33.8050,0.07,0.13,-0.98,3.05,2.93,4.15
33.8220,0.08,0.13,-0.98,2.81,3.05,5.68
33.8370,0.08,0.14,-0.98,2.87,3.05,5.80
33.8520,0.09,0.13,-0.98,2.87,2.26,6.90
33.8670,0.08,0.12,-0.98,2.87,2.62,6.16
33.8820,0.08,0.12,-0.99,2.93,3.17,3.91
33.8970,0.07,0.12,-0.98,2.87,2.87,3.30
33.9050,0.07,0.11,-0.99,2.81,2.99,3.23
33.9220,0.07,0.12,-0.98,3.17,2.93,3.23
33.9390,0.07,0.12,-0.98,3.05,3.54,2.99
33.9550,0.08,0.12,-0.98,3.23,3.42,3.17
33.9720,0.08,0.13,-0.98,3.23,3.42,2.99
33.9720,0.08,0.13,-0.98,3.11,3.48,2.38
33.9890,0.08,0.13,-0.98,3.17,3.23,1.95
34.0060,0.08,0.12,-0.98,3.17,3.05,2.44
34.0310,0.07,0.12,-0.98,2.99,3.42,3.48
34.0380,0.07,0.12,-0.98,2.99,3.17,3.72
34.0560,0.08,0.12,-0.98,3.36,3.17,3.60
34.0720,0.09,0.13,-0.98,3.42,3.66,2.08
34.0890,0.09,0.13,-0.98,3.60,3.60,0.31
34.1050,0.07,0.12,-0.99,3.42,3.54,-0.06
34.1220,0.07,0.12,-0.98,3.42,3.72,0.06
34.1370,0.07,0.12,-0.98,3.17,3.36,0.98
34.1530,0.06,0.11,-0.98,3.11,3.42,1.34
34.1550,0.07,0.12,-0.98,3.05,3.48,2.01
34.1720,0.08,0.12,-0.98,3.30,3.48,1.83
34.1970,0.09,0.13,-0.98,3.36,3.23,1.77
34.2130,0.09,0.14,-0.98,3.23,3.48,1.46
34.2220,0.08,0.13,-0.98,3.17,3.23,1.16
34.2390,0.07,0.12,-0.98,3.23,3.11,1.46
34.2560,0.07,0.12,-0.98,3.05,3.30,1.83
34.2730,0.07,0.11,-0.99,3.23,3.17,1.95
34.2880,0.08,0.12,-0.98,3.30,3.48,1.89
34.2890,0.08,0.12,-0.98,3.36,3.78,1.89
34.3180,0.08,0.13,-0.98,3.11,3.23,1.65
34.3330,0.09,0.13,-0.98,3.54,3.23,1.59
34.3390,0.08,0.13,-0.98,3.42,3.36,1.59
34.3570,0.07,0.12,-0.99,3.17,3.36,1.59
34.3720,0.08,0.12,-0.98,3.11,3.60,1.89
34.3890,0.07,0.12,-0.98,2.99,3.66,1.89
34.4050,0.08,0.13,-0.98,2.99,3.23,1.89
34.4230,0.08,0.13,-0.98,3.17,3.42,1.77
34.4380,0.09,0.13,-0.98,3.23,3.11,2.26
34.4380,0.08,0.13,-0.98,3.17,3.30,2.62
34.4550,0.07,0.13,-0.98,2.93,3.11,3.17
34.4710,0.08,0.12,-0.98,2.93,3.11,4.27
34.4980,0.08,0.13,-0.98,3.05,3.36,3.30
34.5050,0.08,0.13,-0.98,2.87,3.30,3.42
34.5240,0.08,0.12,-0.98,3.17,2.99,2.87
34.5390,0.08,0.13,-0.99,3.17,3.17,2.69
34.5570,0.08,0.13,-0.98,3.17,3.11,3.11
34.5720,0.09,0.13,-0.98,2.93,3.23,3.60
34.5880,0.07,0.12,-0.99,2.87,3.17,4.09
34.6030,0.07,0.12,-0.99,2.75,2.99,4.09
34.6180,0.07,0.12,-0.98,2.99,3.11,3.85
34.6320,0.08,0.12,-0.99,2.99,3.23,3.36
34.6390,0.08,0.12,-0.98,2.99,2.99,2.99
34.6570,0.08,0.13,-0.98,3.11,3.17,3.36
34.6730,0.08,0.13,-0.98,2.93,3.30,3.36
34.6890,0.08,0.13,-0.98,3.05,3.23,3.54
34.7050,0.08,0.12,-0.99,3.30,3.05,3.85
34.7230,0.08,0.13,-0.98,3.05,3.23,3.85
34.7380,0.07,0.12,-0.98,2.99,3.05,3.97
34.7380,0.08,0.12,-0.98,3.30,3.05,4.39
34.7550,0.08,0.12,-0.99,3.05,2.93,4.46
34.7720,0.08,0.12,-0.98,2.93,3.11,4.27
34.7880,0.08,0.13,-0.98,2.93,2.93,4.52
34.8050,0.07,0.12,-0.98,2.99,3.17,4.76
34.8220,0.09,0.13,-0.98,2.69,2.69,5.43
34.8400,0.08,0.12,-0.98,2.81,3.11,4.58
34.8550,0.08,0.12,-0.98,3.17,3.36,3.66
34.8720,0.07,0.12,-0.98,3.11,3.11,3.48
34.8880,0.07,0.12,-0.98,3.11,3.05,3.60
34.8890,0.08,0.12,-0.98,3.05,3.17,3.30
34.9050,0.09,0.13,-0.98,2.99,2.93,3.11
34.9220,0.08,0.13,-0.98,3.23,3.11,2.14
34.9480,0.08,0.12,-0.98,3.11,3.30,1.83
34.9570,0.07,0.12,-0.98,3.42,3.30,1.10
34.9720,0.07,0.12,-0.98,3.30,3.54,1.53
34.9880,0.07,0.12,-0.98,3.36,3.60,1.53
35.0060,0.07,0.12,-0.99,3.17,3.30,1.77
35.0220,0.08,0.13,-0.98,3.30,3.42,1.71
35.0380,0.08,0.13,-0.98,3.11,3.66,1.65
35.0530,0.08,0.12,-0.98,3.48,3.42,1.46
35.0680,0.07,0.12,-0.98,3.30,3.60,1.34
35.0830,0.07,0.11,-0.99,3.36,3.72,1.22
35.0880,0.09,0.13,-0.98,3.05,3.42,1.34
35.1130,0.07,0.12,-0.98,3.30,3.48,1.28
35.1220,0.07,0.12,-0.99,3.17,3.30,1.46
35.1390,0.08,0.13,-0.98,3.23,3.54,1.28
35.1550,0.08,0.13,-0.98,3.30,3.36,0.92
35.1730,0.08,0.12,-0.98,3.23,3.54,0.98
35.1880,0.08,0.12,-0.98,3.30,3.30,0.98
35.2030,0.07,0.12,-0.98,3.36,3.36,1.40
35.2180,0.07,0.12,-0.98,3.11,3.05,1.71
35.2230,0.07,0.12,-0.98,3.23,2.99,1.65
35.2490,0.08,0.13,-0.98,3.30,3.30,1.89
35.2550,0.08,0.13,-0.98,3.30,3.60,2.01
35.2730,0.08,0.13,-0.98,3.05,3.36,1.77
35.2880,0.07,0.12,-0.98,2.87,2.99,2.56
35.3060,0.08,0.12,-0.98,2.62,3.36,3.11
35.3220,0.07,0.12,-0.98,2.93,3.23,3.30
35.3390,0.08,0.12,-0.98,2.93,3.05,3.54
35.3540,0.08,0.12,-0.98,2.87,3.17,2.87
35.3560,0.08,0.13,-0.98,2.93,3.30,2.81
35.3830,0.08,0.13,-0.98,3.30,3.11,2.56
35.3880,0.09,0.13,-0.98,2.93,3.11,2.69
35.4050,0.07,0.13,-0.99,3.11,3.05,3.42
35.4290,0.07,0.10,-0.98,2.99,3.11,3.78
35.4380,0.06,0.12,-0.98,2.87,3.11,4.15
35.4560,0.08,0.12,-0.99,2.87,2.93,4.58
35.4730,0.07,0.11,-0.98,3.11,3.11,3.23
35.4890,0.07,0.11,-0.98,3.23,2.99,2.81
35.5040,0.07,0.12,-0.98,3.42,3.23,2.26
35.5190,0.08,0.13,-0.98,3.30,3.17,2.20
35.5220,0.08,0.13,-0.98,3.30,3.11,2.38
35.5490,0.08,0.13,-0.98,3.23,2.87,2.69
35.5640,0.08,0.13,-0.98,3.11,3.17,3.17
35.5790,0.08,0.13,-0.98,3.05,2.99,3.36
35.5890,0.07,0.12,-0.98,3.23,2.87,3.23
35.6050,0.07,0.12,-0.99,3.23,3.05,2.69
35.6220,0.08,0.12,-0.98,3.23,3.36,2.56
35.6390,0.08,0.12,-0.98,2.99,3.11,2.50
35.6540,0.08,0.13,-0.98,3.23,2.93,2.69
35.6690,0.08,0.13,-0.98,2.87,2.99,3.85
35.6840,0.08,0.12,-0.98,2.75,2.50,4.52
35.6890,0.08,0.12,-0.98,3.17,2.99,3.72
35.7130,0.08,0.12,-0.98,3.23,3.05,2.99
35.7220,0.07,0.12,-0.98,3.17,3.54,2.99
35.7400,0.07,0.12,-0.98,3.17,3.36,3.05
35.7560,0.07,0.12,-0.98,3.23,2.99,2.87
35.7720,0.08,0.13,-0.98,3.23,3.17,2.20
35.7880,0.09,0.13,-0.98,3.36,3.23,1.95
35.8040,0.09,0.13,-0.98,3.17,3.23,1.77
35.8060,0.07,0.13,-0.99,3.30,3.23,1.53
35.8230,0.08,0.13,-0.98,3.23,3.42,1.83
35.8390,0.07,0.12,-0.99,3.05,3.23,2.14
35.8630,0.07,0.12,-0.99,3.17,2.93,2.38
35.8720,0.07,0.11,-0.98,3.23,3.48,2.26
35.8890,0.07,0.12,-0.99,3.30,3.48,2.20
35.9050,0.08,0.13,-0.98,3.17,3.54,2.14
35.9220,0.08,0.13,-0.98,3.23,3.42,2.20
35.9380,0.08,0.13,-0.98,2.93,3.30,2.62
35.9540,0.08,0.13,-0.98,2.81,3.11,2.87
35.9690,0.08,0.12,-0.98,3.11,2.93,3.17
35.9840,0.08,0.12,-0.98,2.93,3.11,2.62
35.9890,0.08,0.13,-0.98,3.11,3.05,2.56
36.0070,0.08,0.13,-0.98,3.17,3.05,2.26
36.0290,0.07,0.12,-0.99,3.17,3.05,2.32
36.0380,0.07,0.12,-0.99,2.99,3.30,2.08
36.0560,0.08,0.12,-0.98,2.87,3.05,2.01
36.0720,0.07,0.12,-0.99,3.17,3.48,1.83
36.0880,0.08,0.12,-0.98,3.23,3.30,1.89
36.0890,0.08,0.13,-0.98,3.42,3.48,1.34
36.1190,0.08,0.13,-0.98,3.36,3.30,1.59
36.1340,0.08,0.13,-0.98,3.23,2.99,1.77
36.1380,0.08,0.13,-0.98,3.30,3.42,3.36
36.1630,0.07,0.13,-0.98,3.05,3.17,3.72
36.1730,0.06,0.11,-0.98,2.75,3.11,3.91
36.1880,0.07,0.12,-0.99,2.75,2.81,4.03
36.2060,0.08,0.13,-0.98,2.93,2.87,3.60
36.2220,0.08,0.12,-0.98,3.30,3.42,3.17
36.2390,0.08,0.13,-0.98,2.99,3.23,3.05
36.2390,0.07,0.12,-0.98,3.11,2.93,2.87
36.2570,0.08,0.12,-0.98,3.05,3.05,2.99
36.2830,0.07,0.12,-0.98,3.17,2.81,2.44
36.2880,0.07,0.12,-0.98,2.99,3.17,2.20
36.3050,0.07,0.12,-0.98,3.11,2.99,2.14
36.3220,0.07,0.12,-0.98,2.99,3.66,1.65
36.3390,0.08,0.13,-0.98,3.23,3.23,1.53
36.3570,0.08,0.13,-0.98,3.17,3.36,1.59
36.3720,0.08,0.13,-0.98,3.05,3.30,2.32
36.3890,0.08,0.13,-0.98,2.93,2.93,3.54
36.4040,0.07,0.13,-0.98,2.93,3.23,4.09
36.4050,0.07,0.12,-0.99,3.11,2.81,3.66
36.4220,0.08,0.12,-0.98,3.11,3.23,3.60
36.4390,0.08,0.12,-0.98,3.05,2.93,2.75
36.4640,0.08,0.12,-0.98,2.99,3.17,2.38
36.4800,0.08,0.12,-0.98,2.93,3.17,2.38
36.4900,0.08,0.13,-0.98,2.99,3.48,2.50
36.5060,0.07,0.12,-0.98,3.05,2.99,2.69
36.5220,0.08,0.12,-0.98,2.93,3.05,3.11
36.5390,0.07,0.12,-0.98,2.99,3.11,2.75
36.5540,0.07,0.12,-0.99,3.17,3.36,2.75
36.5570,0.08,0.13,-0.98,3.30,3.36,2.75
36.5840,0.07,0.12,-0.98,3.36,3.36,2.93
36.5890,0.08,0.13,-0.98,2.99,3.11,3.17
36.6050,0.08,0.13,-0.98,3.11,3.17,3.91
36.6300,0.08,0.12,-0.98,2.99,3.17,3.72
36.6390,0.08,0.12,-0.98,2.87,3.66,2.69
36.6570,0.07,0.12,-0.98,3.23,3.66,2.08
36.6730,0.08,0.13,-0.98,3.30,3.48,1.65
36.6890,0.08,0.13,-0.98,3.11,3.48,1.71
36.7050,0.07,0.12,-0.98,3.17,3.23,2.01
36.7200,0.07,0.12,-0.98,2.99,3.54,2.38
36.7350,0.08,0.12,-0.98,3.11,3.42,2.50
36.7390,0.07,0.12,-0.98,3.30,3.36,2.44
36.7570,0.08,0.12,-0.98,3.17,2.93,2.26
36.7710,0.08,0.13,-0.98,3.23,3.48,1.95
36.7880,0.09,0.14,-0.98,2.99,3.36,2.62
36.8110,0.08,0.14,-0.98,3.05,2.75,4.76
36.8220,0.07,0.12,-0.98,2.75,2.69,5.80
36.8380,0.07,0.12,-0.98,2.62,2.93,6.04
36.8560,0.08,0.12,-0.98,2.81,2.62,6.23
36.8570,0.07,0.11,-0.99,2.93,2.62,5.07
36.8860,0.05,0.09,-0.99,2.93,2.62,3.42
36.8890,0.06,0.11,-0.99,3.30,3.66,1.89
36.9150,0.08,0.13,-0.98,3.17,3.54,1.77
36.9300,0.07,0.12,-0.98,3.17,3.60,1.71
36.9390,0.08,0.12,-0.98,3.11,3.30,1.65
36.9570,0.08,0.12,-0.98,3.11,3.23,1.65
36.9720,0.08,0.13,-0.98,3.11,3.36,1.89
36.9890,0.08,0.13,-0.98,3.23,3.11,1.46
37.0060,0.08,0.13,-0.98,3.17,3.54,0.98
37.0210,0.08,0.13,-0.98,3.05,3.42,0.79
37.0360,0.07,0.12,-0.99,3.23,3.42,1.10
37.0390,0.07,0.12,-0.98,3.36,3.42,1.28
37.0570,0.08,0.12,-0.98,3.17,3.30,1.59
37.0810,0.08,0.13,-0.98,2.93,3.05,1.71
37.0880,0.08,0.13,-0.98,3.30,3.36,1.34
37.1050,0.08,0.13,-0.98,3.05,3.17,1.16
37.1230,0.08,0.13,-0.98,3.36,3.66,1.10
37.1390,0.07,0.12,-0.98,3.23,3.54,1.16
37.1560,0.07,0.12,-0.98,3.11,3.60,1.53
37.1700,0.07,0.12,-0.98,3.17,3.48,1.65
37.1720,0.07,0.12,-0.98,3.05,3.36,1.59
37.1890,0.07,0.12,-0.98,3.23,3.17,1.59
37.2150,0.09,0.13,-0.98,2.99,3.23,1.46
37.2310,0.08,0.13,-0.98,3.42,3.36,1.22
37.2400,0.08,0.13,-0.98,3.30,3.54,1.22
37.2580,0.08,0.13,-0.98,3.36,3.66,1.40
37.2730,0.07,0.12,-0.98,3.11,3.23,0.98
37.2880,0.07,0.12,-0.98,3.30,3.11,1.16
37.3050,0.07,0.11,-0.99,2.93,3.36,1.65
37.3210,0.07,0.12,-0.99,2.87,3.23,1.83
37.3350,0.08,0.12,-0.98,3.11,3.05,1.77
37.3380,0.08,0.12,-0.98,3.23,3.17,1.83
37.3580,0.08,0.12,-0.98,3.48,3.48,1.95
37.3810,0.08,0.13,-0.98,3.17,3.48,1.83
37.3880,0.08,0.13,-0.98,3.17,3.30,1.95
37.4050,0.08,0.13,-0.98,3.11,3.30,2.26
37.4210,0.08,0.13,-0.98,3.11,3.05,3.60
37.4400,0.08,0.12,-0.98,3.11,3.17,4.09
37.4560,0.08,0.13,-0.99,2.93,3.11,3.91
37.4700,0.08,0.12,-0.98,3.05,2.87,3.60
37.4720,0.08,0.13,-0.98,2.93,3.42,2.75
37.5010,0.08,0.13,-0.98,3.23,3.11,3.17
37.5050,0.08,0.13,-0.98,2.99,2.93,3.97
37.5220,0.07,0.12,-0.98,3.05,2.99,4.15
37.5400,0.07,0.12,-0.98,2.81,3.11,4.15
37.5580,0.08,0.12,-0.98,3.17,3.05,3.36
37.5730,0.08,0.13,-0.98,3.05,2.99,3.85
37.5880,0.08,0.14,-0.98,2.87,2.69,6.84
37.6050,0.09,0.14,-0.98,2.62,2.50,8.48
37.6210,0.09,0.13,-0.98,2.50,2.20,9.95
37.6360,0.08,0.13,-0.98,2.32,2.56,7.69
37.6390,0.07,0.11,-0.98,2.81,3.05,6.10
37.6660,0.06,0.10,-0.99,2.75,3.11,4.21
37.6730,0.06,0.11,-0.99,3.11,2.99,3.23
37.6890,0.07,0.12,-0.98,3.36,3.66,2.26
37.7070,0.08,0.13,-0.98,3.23,3.23,2.38
37.7220,0.09,0.14,-0.98,2.99,2.87,2.44
37.7390,0.10,0.14,-0.98,2.93,3.17,2.81
37.7560,0.07,0.12,-0.98,3.05,3.42,2.08
37.7710,0.08,0.12,-0.98,3.11,3.11,1.77
37.7860,0.07,0.12,-0.98,3.23,3.48,1.40
37.8000,0.08,0.13,-0.98,3.17,3.36,2.08
37.8060,0.08,0.13,-0.98,3.17,3.36,2.44
37.8310,0.07,0.12,-0.98,3.11,3.17,3.48
37.8380,0.07,0.12,-0.98,3.11,3.42,3.30
37.8590,0.07,0.11,-0.98,3.11,3.36,2.75
37.8720,0.07,0.11,-0.98,3.17,3.72,2.44
37.8880,0.08,0.12,-0.98,3.36,3.17,1.89
37.9050,0.08,0.13,-0.98,3.48,3.05,1.65
37.9210,0.08,0.13,-0.98,3.05,3.30,1.89
37.9350,0.08,0.09,-0.98,3.11,3.11,2.08
37.9510,0.08,0.12,-0.98,2.81,3.23,2.38
37.9580,0.07,0.12,-0.98,3.23,3.42,2.50
37.9800,0.07,0.12,-0.98,3.11,3.17,2.38
37.9880,0.08,0.13,-0.98,3.23,3.23,2.26
38.0050,0.08,0.13,-0.98,3.17,3.05,2.32
38.0240,0.09,0.13,-0.98,3.17,3.17,2.38
38.0380,0.08,0.13,-0.98,2.87,3.17,3.05
38.0560,0.08,0.13,-0.98,3.05,3.36,4.03
38.0710,0.07,0.11,-0.99,2.99,2.69,4.15
38.0860,0.07,0.12,-0.99,2.93,3.05,4.21
38.1010,0.07,0.11,-0.99,3.17,3.23,3.72
38.1150,0.08,0.13,-0.98,2.81,3.42,2.69
38.1220,0.08,0.13,-0.98,3.11,3.11,2.87
38.1460,0.09,0.13,-0.98,3.11,3.23,2.69
38.1580,0.08,0.13,-0.98,3.11,3.05,2.26
38.1740,0.08,0.13,-0.98,3.11,3.30,1.77
38.1880,0.07,0.12,-0.98,3.23,3.42,1.40
38.2060,0.06,0.11,-0.99,3.05,3.11,2.01
38.2210,0.07,0.12,-0.99,3.17,3.17,2.32
38.2220,0.07,0.12,-0.98,2.99,3.11,2.26
38.2390,0.08,0.12,-0.98,3.11,2.99,2.01
38.2590,0.08,0.12,-0.98,2.99,3.36,1.83
38.2800,0.08,0.13,-0.98,3.36,3.11,1.77
38.2890,0.08,0.13,-0.98,3.23,3.30,1.83
38.3070,0.08,0.13,-0.98,3.17,3.36,1.89
38.3210,0.08,0.13,-0.98,2.75,2.99,2.44
38.3390,0.08,0.12,-0.98,3.11,2.75,3.66
38.3550,0.08,0.13,-0.98,2.93,3.05,3.78
38.3720,0.08,0.13,-0.98,2.99,2.99,4.27
38.3880,0.08,0.13,-0.98,3.05,2.81,4.58
38.3890,0.08,0.12,-0.98,3.05,2.99,4.21
38.4050,0.07,0.12,-0.99,2.99,2.99,3.60
38.4220,0.08,0.12,-0.98,3.05,3.05,3.42
38.4480,0.07,0.12,-0.98,3.17,3.11,3.60
38.4630,0.08,0.13,-0.98,2.99,3.11,3.78
38.4720,0.08,0.13,-0.98,2.93,2.75,5.43
38.4890,0.08,0.13,-0.98,2.69,2.56,5.86
38.5070,0.08,0.12,-0.98,2.93,2.93,4.46
38.5220,0.07,0.12,-0.98,2.69,3.23,3.91
38.5390,0.07,0.12,-0.99,2.93,3.11,3.60
38.5390,0.07,0.12,-0.98,2.87,2.99,2.93
38.5690,0.08,0.13,-0.98,3.11,3.23,3.36
38.5720,0.08,0.14,-0.98,2.87,2.56,6.10
38.5990,0.09,0.14,-0.98,2.75,2.01,8.24
38.6050,0.09,0.13,-0.99,2.38,2.50,7.57
38.6240,0.08,0.12,-0.98,2.99,2.62,5.68
38.6390,0.07,0.11,-0.98,2.87,2.87,4.15
38.6590,0.06,0.11,-0.99,2.93,3.05,3.17
38.6710,0.07,0.12,-0.98,3.05,2.99,2.87
38.6890,0.07,0.12,-0.98,3.05,3.23,2.75
38.7070,0.08,0.12,-0.98,3.05,3.30,2.75
38.7210,0.08,0.13,-0.98,3.05,3.05,2.26
38.7370,0.08,0.12,-0.98,2.99,3.23,2.01
38.7520,0.08,0.12,-0.98,3.23,3.23,1.83
38.7590,0.08,0.12,-0.98,3.23,3.17,2.01
38.7720,0.09,0.13,-0.98,3.17,3.17,2.38
38.7970,0.10,0.14,-0.98,2.93,3.05,2.62
38.8060,0.09,0.14,-0.98,3.30,3.30,1.71
38.8230,0.07,0.13,-0.99,3.05,3.54,0.92
38.8390,0.06,0.11,-0.99,3.23,3.36,0.79
38.8550,0.07,0.12,-0.98,3.17,3.17,1.28
38.8710,0.06,0.11,-0.98,3.05,3.05,1.53
38.8720,0.08,0.12,-0.98,3.23,3.23,1.83
38.9010,0.07,0.12,-0.98,3.11,3.36,1.83
38.9050,0.08,0.13,-0.98,3.05,3.17,1.89
38.9320,0.08,0.13,-0.98,3.11,3.23,1.65
38.9390,0.09,0.13,-0.98,3.23,3.11,1.65
38.9590,0.09,0.13,-0.98,3.36,3.42,1.40
38.9720,0.08,0.13,-0.98,3.36,3.48,1.65
38.9890,0.06,0.12,-0.99,3.36,3.30,1.34
39.0050,0.07,0.12,-0.99,3.11,3.17,1.59
39.0210,0.06,0.11,-0.99,3.17,3.30,1.71
39.0220,0.07,0.12,-0.98,3.17,3.42,1.89
39.0390,0.08,0.13,-0.98,3.23,3.48,1.89
39.0590,0.09,0.13,-0.98,3.30,3.30,1.46
39.0720,0.09,0.13,-0.98,3.48,3.54,0.73
39.0970,0.07,0.12,-0.98,2.99,3.78,0.49
39.1060,0.07,0.12,-0.98,3.30,3.72,0.67
39.1220,0.06,0.11,-0.99,3.05,2.93,1.53
39.1390,0.07,0.12,-0.98,3.23,3.36,1.83
39.1550,0.08,0.13,-0.98,2.99,2.93,2.20
39.1710,0.09,0.13,-0.98,3.05,3.36,3.17
39.1880,0.08,0.13,-0.98,3.05,3.30,3.54
39.2020,0.08,0.12,-0.98,2.99,2.87,3.05
39.2050,0.07,0.12,-0.98,2.99,3.05,2.38
39.2220,0.07,0.12,-0.98,3.30,3.11,2.26
39.2390,0.07,0.12,-0.98,3.11,3.42,2.32
39.2590,0.08,0.13,-0.98,3.23,3.30,2.38
39.2740,0.09,0.13,-0.98,3.11,3.30,2.38
39.2890,0.11,0.15,-0.98,2.99,2.87,4.09
39.3060,0.08,0.14,-0.98,2.87,3.11,3.91
39.3230,0.07,0.11,-0.99,2.87,3.11,3.42
39.3370,0.05,0.10,-0.99,2.87,3.11,3.60
39.3520,0.06,0.11,-0.99,3.11,2.99,3.30
39.3590,0.09,0.13,-0.98,3.36,3.17,2.69
39.3820,0.06,0.15,-0.98,3.05,3.30,2.44
39.3980,0.10,0.14,-0.98,3.30,3.05,2.81
39.4060,0.09,0.15,-0.98,2.75,2.44,6.96
39.4240,0.08,0.12,-0.98,2.69,2.50,7.08
39.4390,0.06,0.11,-0.99,2.81,2.62,6.71
39.4590,0.06,0.11,-0.99,2.99,2.56,5.49
39.4740,0.06,0.11,-0.99,2.93,2.99,3.36
39.4900,0.06,0.11,-0.98,2.87,3.23,2.44
39.5060,0.08,0.13,-0.98,3.17,3.48,1.83
39.5060,0.08,0.13,-0.98,3.17,3.30,2.32
39.5350,0.08,0.13,-0.98,3.05,3.11,3.17
39.5390,0.08,0.13,-0.98,2.99,2.81,3.48
39.5650,0.08,0.12,-0.98,3.11,2.99,3.30
39.5720,0.07,0.12,-0.98,3.11,3.05,2.99
39.5960,0.07,0.12,-0.98,2.93,3.17,2.56
39.6110,0.08,0.13,-0.98,3.05,3.23,2.56
39.6230,0.08,0.12,-0.98,3.05,3.30,2.62
39.6390,0.08,0.12,-0.98,3.17,3.17,2.56
39.6560,0.08,0.13,-0.98,3.05,3.48,2.32
39.6600,0.08,0.13,-0.98,3.05,3.17,2.87
39.6720,0.09,0.14,-0.98,3.11,2.62,5.55
39.7000,0.08,0.14,-0.98,2.75,2.14,7.63
39.7160,0.07,0.13,-0.98,2.32,2.26,10.31
39.7230,0.08,0.11,-0.98,2.50,2.14,8.97
39.7380,0.06,0.10,-0.99,2.99,3.30,5.00
39.7600,0.07,0.11,-0.99,3.11,3.11,2.08
39.7730,0.08,0.12,-0.98,3.36,3.66,1.77
39.7900,0.08,0.13,-0.98,3.23,3.42,1.77
39.8060,0.08,0.13,-0.98,3.05,2.99,2.69
39.8220,0.09,0.14,-0.98,2.99,3.11,3.66
39.8380,0.07,0.12,-0.98,2.99,2.87,3.85
39.8520,0.07,0.12,-0.98,3.05,2.87,3.17
39.8600,0.07,0.11,-0.99,3.23,3.23,2.14
39.8740,0.07,0.12,-0.98,3.23,3.48,1.53
39.8890,0.07,0.12,-0.98,3.30,3.60,1.71
39.9060,0.07,0.12,-0.98,3.42,3.48,1.71
39.9230,0.07,0.12,-0.98,3.23,3.54,1.65
39.9400,0.08,0.13,-0.98,3.17,3.60,1.46
39.9560,0.08,0.13,-0.98,3.36,3.17,1.46
39.9720,0.08,0.13,-0.98,3.30,2.87,2.26
39.9870,0.08,0.13,-0.98,3.23,3.05,4.15
39.9890,0.08,0.14,-0.98,2.93,3.05,5.19
40.0180,0.07,0.12,-0.98,2.56,2.32,6.29
40.0330,0.07,0.11,-0.99,2.81,2.87,5.31
40.0480,0.07,0.11,-0.99,2.81,3.17,3.72
40.0600,0.08,0.12,-0.98,3.23,3.05,3.11
40.0730,0.08,0.12,-0.98,3.30,3.11,3.36
40.0890,0.08,0.12,-0.98,2.87,3.17,3.23
40.1070,0.08,0.13,-0.98,3.17,3.05,2.75
40.1220,0.07,0.12,-0.98,3.17,3.30,2.81
40.1390,0.07,0.12,-0.98,3.30,2.99,2.81
40.1400,0.08,0.13,-0.98,3.11,2.75,3.17
40.1680,0.09,0.14,-0.98,3.11,2.99,4.21
40.1720,0.08,0.14,-0.98,2.62,2.32,7.57
40.1890,0.09,0.10,-0.98,2.38,2.56,8.18
40.2060,0.08,0.12,-0.98,2.69,2.69,7.57
40.2230,0.07,0.11,-0.99,2.81,2.69,5.55
40.2400,0.07,0.11,-0.99,3.11,3.54,3.11
40.2550,0.08,0.12,-0.98,3.23,3.30,2.08
40.2740,0.09,0.14,-0.98,3.30,3.36,2.14
40.2900,0.09,0.13,-0.98,3.11,2.87,2.99
40.2900,0.09,0.13,-0.98,2.81,2.93,4.46
40.3190,0.10,0.13,-0.98,2.69,3.36,4.39
40.3220,0.06,0.11,-0.99,2.99,2.99,3.85
40.3390,0.06,0.11,-0.99,3.17,3.17,3.05
40.3640,0.06,0.11,-0.99,2.87,3.17,3.30
40.3720,0.08,0.12,-0.98,2.93,3.17,2.99
40.3890,0.08,0.13,-0.98,2.87,3.17,4.27
40.4070,0.07,0.12,-0.99,2.87,3.30,3.91
40.4230,0.07,0.12,-0.98,2.93,3.11,3.36
40.4390,0.07,0.11,-0.99,3.05,3.23,2.56
40.4390,0.08,0.13,-0.98,3.23,3.11,2.08
40.4700,0.08,0.13,-0.98,3.17,3.05,2.87
40.4730,0.08,0.13,-0.98,2.93,2.62,4.27
40.4990,0.08,0.13,-0.98,2.93,2.87,5.00
40.5150,0.07,0.12,-0.98,2.93,3.05,4.88
40.5220,0.07,0.11,-0.98,2.99,3.23,3.30
40.5450,0.07,0.12,-0.98,3.05,3.36,2.32
40.5610,0.08,0.13,-0.98,3.23,3.54,2.38
40.5730,0.08,0.13,-0.98,3.11,3.11,2.93
40.5900,0.08,0.13,-0.98,2.75,2.93,3.60
40.6060,0.07,0.12,-0.98,2.93,2.93,4.58
40.6220,0.07,0.12,-0.98,3.17,3.17,3.23
40.6360,0.07,0.12,-0.98,3.11,3.42,2.56
40.6390,0.08,0.13,-0.98,3.30,3.30,2.20
40.6610,0.09,0.16,-0.98,3.17,2.87,4.33
40.6730,0.09,0.16,-0.97,2.44,1.83,13.79
40.6890,0.08,0.14,-0.98,1.83,0.79,18.49
40.7060,0.09,0.12,-0.98,2.01,1.22,16.17
40.7240,0.06,0.09,-0.99,1.95,1.71,13.31
40.7390,0.04,0.08,-0.99,2.38,2.56,6.59
40.7560,0.07,0.12,-0.98,3.11,3.11,2.20
40.7720,0.08,0.12,-0.98,3.36,3.36,1.65
40.7730,0.08,0.12,-0.98,3.17,3.05,1.77
40.7900,0.08,0.12,-0.98,2.99,3.42,1.83
40.8170,0.08,0.12,-0.98,3.23,3.30,1.89
40.8230,0.08,0.12,-0.98,3.05,3.54,1.95
40.8410,0.08,0.12,-0.98,3.05,3.54,1.65
40.8610,0.08,0.12,-0.98,3.11,2.99,1.77
40.8730,0.08,0.12,-0.98,3.05,3.23,1.83
40.8900,0.08,0.12,-0.98,3.23,2.93,1.83
40.9070,0.08,0.12,-0.98,3.30,3.23,1.95
40.9220,0.08,0.12,-0.98,2.99,3.42,1.89
40.9230,0.08,0.12,-0.98,2.99,3.30,1.71
40.9520,0.08,0.12,-0.98,3.11,3.54,1.95
40.9620,0.08,0.12,-0.98,3.05,3.23,1.83
40.9820,0.08,0.12,-0.98,3.11,3.66,1.71
40.9890,0.08,0.12,-0.98,3.42,3.72,1.83
41.0060,0.08,0.12,-0.98,3.36,3.66,1.83
41.0230,0.08,0.12,-0.98,3.36,3.11,2.01
41.0390,0.08,0.12,-0.98,3.11,3.36,1.83
41.0560,0.08,0.12,-0.98,2.93,3.54,1.95
41.0730,0.08,0.12,-0.98,3.11,3.23,1.77
41.0900,0.08,0.12,-0.98,3.11,3.36,1.95
41.0900,0.08,0.12,-0.98,3.23,3.30,1.83
41.1200,0.08,0.12,-0.98,2.99,3.48,1.89
41.1350,0.08,0.12,-0.98,3.17,3.11,1.65
41.1500,0.08,0.12,-0.98,3.30,3.30,1.89
41.1620,0.08,0.12,-0.98,3.23,3.17,1.89
41.1750,0.08,0.12,-0.98,3.23,3.30,1.95
41.1890,0.08,0.12,-0.98,3.30,3.36,1.77
41.2060,0.07,0.13,-0.99,3.42,3.42,1.83
41.2240,0.08,0.12,-0.98,3.05,3.42,1.71
41.2390,0.08,0.12,-0.98,3.11,3.30,1.89
41.2560,0.08,0.12,-0.98,3.23,3.11,1.83
41.2720,0.08,0.13,-0.98,3.17,3.36,1.77
41.2730,0.08,0.13,-0.98,3.23,3.42,1.77
41.3010,0.08,0.12,-0.98,3.36,3.42,1.77
41.3170,0.08,0.12,-0.98,3.17,3.05,2.01
41.3230,0.08,0.12,-0.98,3.23,3.36,1.95
41.3390,0.08,0.12,-0.98,3.42,3.11,1.71
41.3620,0.08,0.12,-0.98,3.11,3.30,1.83
41.3720,0.08,0.13,-0.99,3.05,3.30,1.89
41.3910,0.08,0.12,-0.98,3.17,2.50,1.89
41.4060,0.08,0.12,-0.98,3.23,3.30,1.71
41.4230,0.08,0.12,-0.98,3.05,3.30,1.83
41.4390,0.08,0.12,-0.98,2.81,2.93,1.89
41.4400,0.08,0.12,-0.98,3.23,3.48,1.83
41.4690,0.08,0.12,-0.98,3.11,3.42,1.71
41.4840,0.08,0.12,-0.98,3.17,3.42,1.77
41.4890,0.08,0.13,-0.98,3.11,3.60,1.77
41.5140,0.07,0.12,-0.98,2.99,3.66,1.71
41.5220,0.08,0.12,-0.98,2.99,3.85,1.89
41.5390,0.08,0.12,-0.98,3.30,3.42,1.83
41.5560,0.08,0.13,-0.99,3.17,3.54,1.83
41.5730,0.08,0.12,-0.98,3.11,3.60,1.83
41.5900,0.08,0.13,-0.98,3.17,3.48,1.89
41.6040,0.08,0.12,-0.98,2.87,3.48,1.71
41.6190,0.08,0.12,-0.98,3.17,3.42,1.89
41.6220,0.08,0.12,-0.98,2.99,3.66,1.77
41.6490,0.08,0.12,-0.98,3.23,3.11,1.71
41.6640,0.08,0.12,-0.98,2.93,3.48,1.83
41.6730,0.08,0.12,-0.98,2.87,3.36,1.83
41.6890,0.08,0.12,-0.98,3.05,3.78,1.89
41.7060,0.08,0.12,-0.98,2.99,3.54,1.71
41.7230,0.08,0.12,-0.98,2.99,3.23,1.95
41.7400,0.08,0.12,-0.98,3.17,3.30,1.89
41.7540,0.08,0.12,-0.98,3.42,3.11,1.95
41.7630,0.08,0.12,-0.98,3.36,2.99,1.77
41.7840,0.08,0.13,-0.98,3.30,3.36,1.71
41.7900,0.08,0.12,-0.98,3.11,3.36,1.83
41.8150,0.08,0.12,-0.98,3.11,3.42,1.83
41.8240,0.08,0.12,-0.98,3.17,3.36,1.83
41.8400,0.08,0.12,-0.98,3.11,3.54,1.77
41.8560,0.08,0.12,-0.98,3.30,3.36,1.77
41.8730,0.08,0.12,-0.98,3.17,3.17,1.95
41.8900,0.08,0.09,-0.98,3.17,3.23,1.83
41.9040,0.08,0.12,-0.98,2.99,3.23,1.83
41.9060,0.08,0.12,-0.98,3.30,3.66,1.77
41.9340,0.08,0.12,-0.98,3.17,3.30,1.83
41.9500,0.08,0.12,-0.98,3.23,3.23,1.89
41.9630,0.08,0.12,-0.98,3.05,3.42,1.77
41.9740,0.08,0.12,-0.98,3.17,3.36,1.83
41.9900,0.08,0.12,-0.98,3.30,3.54,1.71
42.0060,0.08,0.12,-0.98,3.11,3.42,1.77
42.0230,0.08,0.12,-0.98,3.05,3.54,1.95
42.0390,0.08,0.12,-0.98,3.23,3.42,2.01
42.0540,0.08,0.12,-0.98,3.23,3.30,1.89
42.0640,0.08,0.13,-0.98,3.54,3.97,1.95
42.0840,0.08,0.12,-0.98,3.17,3.48,1.83
42.0890,0.08,0.12,-0.98,3.30,3.72,1.71
42.1060,0.08,0.12,-0.99,3.48,3.66,0.67
42.1230,0.07,0.13,-0.98,3.72,3.91,-1.46
42.1390,0.08,0.12,-0.98,3.42,3.72,-1.16
42.1560,0.08,0.13,-0.98,3.48,3.91,-1.65
42.1730,0.08,0.12,-0.98,3.60,4.03,-1.59
42.1900,0.08,0.13,-0.98,3.42,3.97,-1.89
42.2040,0.07,0.13,-0.98,3.48,3.78,-1.16
42.2190,0.08,0.12,-0.98,3.48,3.78,-0.49
42.2220,0.08,0.13,-0.98,3.17,3.60,-0.67
42.2490,0.08,0.12,-0.98,3.42,3.54,-0.55
42.2640,0.07,0.13,-0.98,3.30,3.48,-0.24
42.2740,0.08,0.12,-0.98,3.30,3.54,-0.06
42.2900,0.08,0.12,-0.98,3.42,3.42,0.55
42.3060,0.07,0.13,-0.98,3.23,3.30,1.28
42.3230,0.08,0.12,-0.98,3.36,3.30,1.28
42.3390,0.07,0.13,-0.98,3.23,3.60,0.67
42.3550,0.07,0.13,-0.98,3.05,3.60,0.43
42.3640,0.08,0.12,-0.98,3.05,3.23,1.34
42.3860,0.08,0.12,-0.98,3.23,3.60,1.28
42.3890,0.08,0.12,-0.98,3.23,3.42,0.98
42.4060,0.08,0.12,-0.98,3.36,3.72,0.73
42.4220,0.08,0.13,-0.98,3.05,3.30,0.31
42.4410,0.07,0.13,-0.98,3.05,3.72,-0.37
42.4560,0.07,0.13,-0.98,3.11,3.66,0.18
42.4730,0.07,0.13,-0.98,3.17,3.78,0.85
42.4910,0.08,0.13,-0.98,2.99,3.42,1.65
42.5070,0.08,0.12,-0.98,3.30,3.17,1.65
42.5220,0.08,0.12,-0.98,3.30,3.60,0.92
42.5380,0.08,0.12,-0.99,3.30,3.72,-0.37
42.5520,0.08,0.12,-0.98,3.17,3.66,-0.98
42.5680,0.07,0.13,-0.98,3.48,3.60,-0.98
42.5730,0.07,0.13,-0.98,3.17,3.54,0.18
42.5970,0.07,0.13,-0.98,3.05,3.60,1.34
42.6060,0.08,0.13,-0.98,3.05,3.42,1.59
42.6240,0.08,0.12,-0.98,3.05,3.42,1.40
42.6390,0.08,0.12,-0.98,3.36,3.66,0.24
42.6560,0.07,0.13,-0.98,3.23,3.60,-0.73
42.6730,0.07,0.12,-0.98,3.42,3.72,0.37
42.6730,0.07,0.12,-0.99,3.36,3.42,1.04
42.7020,0.08,0.12,-0.98,3.17,3.54,1.59
42.7060,0.08,0.13,-0.98,3.11,3.30,1.77
42.7230,0.08,0.12,-0.98,3.05,3.60,1.65
42.7470,0.08,0.12,-0.99,3.23,3.78,0.98
42.7560,0.08,0.12,-0.98,3.30,3.66,0.61
42.7730,0.08,0.12,-0.98,3.23,3.23,0.24
42.7920,0.08,0.13,-0.98,3.48,3.48,0.85
42.8050,0.08,0.13,-0.98,2.75,3.30,1.40
42.8220,0.08,0.13,-0.98,3.17,3.23,1.71
42.8370,0.08,0.13,-0.98,3.23,3.30,1.71
42.8390,0.08,0.12,-0.98,3.30,3.17,1.89
42.8640,0.08,0.12,-0.98,3.42,3.23,1.65
42.8820,0.08,0.12,-0.99,3.17,3.23,1.16
42.8890,0.08,0.12,-0.98,3.30,3.11,0.92
42.9070,0.08,0.12,-0.98,3.30,3.97,-0.37
42.9230,0.07,0.12,-0.98,3.66,4.03,-1.95
42.9410,0.07,0.13,-0.98,3.30,4.03,-1.40
42.9560,0.08,0.13,-0.98,3.36,3.78,-0.12
42.9720,0.08,0.13,-0.98,3.23,3.60,0.12
42.9870,0.08,0.13,-0.98,3.23,3.54,0.79
43.0020,0.08,0.13,-0.98,3.17,3.54,1.16
43.0060,0.08,0.13,-0.98,3.36,3.48,1.71
43.0320,0.08,0.12,-0.98,3.17,3.48,1.89
43.0390,0.08,0.12,-0.98,3.17,3.42,2.20
43.0560,0.08,0.13,-0.98,3.30,3.60,1.59
43.0730,0.08,0.12,-0.98,3.23,3.54,1.34
43.0890,0.08,0.13,-0.98,3.11,3.36,0.98
43.1070,0.08,0.13,-0.98,3.36,3.66,0.55
43.1230,0.08,0.12,-0.99,3.36,3.66,-0.37
43.1380,0.08,0.12,-0.98,3.42,3.48,-0.37
43.1520,0.08,0.13,-0.98,3.17,3.66,-0.24
43.1640,0.08,0.13,-0.98,3.30,3.42,0.67
43.1820,0.07,0.13,-0.98,2.99,3.17,1.10
43.1980,0.08,0.12,-0.98,3.42,3.78,1.28
43.2070,0.08,0.12,-0.98,3.23,3.85,0.85
43.2240,0.08,0.12,-0.98,3.23,3.97,0.67
43.2410,0.08,0.12,-0.98,3.36,3.91,0.49
43.2570,0.08,0.12,-0.98,3.17,3.60,0.49
43.2720,0.08,0.13,-0.98,3.48,3.60,0.92
43.2870,0.08,0.13,-0.98,3.23,3.48,1.04
43.3030,0.08,0.12,-0.98,3.05,3.30,1.10
43.3060,0.07,0.12,-0.98,3.11,3.30,0.85
43.3330,0.07,0.12,-0.98,3.11,3.05,1.28
43.3480,0.08,0.13,-0.98,3.17,3.30,1.16
43.3560,0.08,0.12,-0.98,3.17,3.48,1.04
43.3730,0.08,0.12,-0.98,3.23,3.36,1.22
43.3910,0.08,0.12,-0.98,3.23,3.54,0.79
43.4070,0.08,0.13,-0.98,3.36,3.66,-0.06
43.4230,0.08,0.12,-0.98,3.17,3.91,-0.24
43.4390,0.08,0.12,-0.98,3.30,3.48,-0.49
43.4540,0.08,0.12,-0.98,3.30,3.36,-0.55
43.4690,0.08,0.13,-0.98,3.42,3.60,-0.43
43.4830,0.08,0.13,-0.98,3.17,3.48,0.37
43.4980,0.08,0.13,-0.98,3.23,2.99,1.46
43.5060,0.08,0.12,-0.98,3.11,3.11,1.89
43.5240,0.08,0.12,-0.98,3.23,3.11,2.01
43.5390,0.08,0.12,-0.98,3.30,3.30,1.28
43.5570,0.07,0.11,-0.98,3.30,3.23,0.85
43.5730,0.07,0.12,-0.98,3.30,3.42,0.37
43.5880,0.07,0.12,-0.98,3.17,3.42,0.61
43.6030,0.08,0.14,-0.98,3.42,3.54,0.37
43.6180,0.08,0.13,-0.98,3.17,3.72,0.98
43.6220,0.08,0.13,-0.98,3.48,3.42,0.24
43.6480,0.08,0.12,-0.98,3.17,3.85,-0.24
43.6560,0.08,0.12,-0.98,3.30,4.09,-0.37
43.6740,0.07,0.12,-0.98,3.66,3.36,-0.37
43.6900,0.08,0.13,-0.98,3.42,3.60,1.22
43.7060,0.08,0.13,-0.98,3.30,3.30,1.89
43.7230,0.08,0.13,-0.98,3.23,3.30,1.65
43.7390,0.08,0.12,-0.98,3.36,3.17,1.46
43.7530,0.08,0.12,-0.98,3.54,3.60,1.40
43.7680,0.08,0.12,-0.98,3.54,3.60,0.49
43.7830,0.08,0.12,-0.98,3.48,3.36,0.73
43.7890,0.08,0.13,-0.98,3.48,2.87,1.28
43.8140,0.08,0.12,-0.98,3.36,3.11,1.46
43.8230,0.08,0.13,-0.98,3.17,3.36,1.59
43.8410,0.08,0.12,-0.98,3.05,3.54,1.04
43.8560,0.08,0.12,-0.98,3.30,3.48,0.85
43.8730,0.08,0.12,-0.98,3.11,3.48,0.98
43.8890,0.08,0.12,-0.98,3.23,3.66,0.79
43.8890,0.08,0.12,-0.98,3.17,3.30,1.04
43.9190,0.08,0.12,-0.98,3.36,3.36,0.73
43.9340,0.08,0.12,-0.98,3.36,3.60,0.61
43.9390,0.09,0.14,-0.98,2.99,3.42,0.55
43.9650,0.07,0.12,-0.98,3.36,3.54,-0.43
43.9800,0.08,0.13,-0.98,3.48,3.42,0.37
43.9900,0.08,0.12,-0.98,3.42,3.54,0.67
44.0070,0.08,0.11,-0.98,3.23,3.36,0.61
44.0230,0.08,0.13,-0.98,3.11,3.42,0.67
44.0390,0.08,0.13,-0.98,3.54,3.42,0.92
44.0540,0.08,0.12,-0.98,3.42,3.48,1.46
44.0650,0.08,0.13,-0.98,3.17,3.60,1.34
44.0850,0.08,0.13,-0.98,3.11,3.36,0.92
44.0990,0.08,0.12,-0.98,3.23,3.66,0.79
44.1060,0.08,0.12,-0.98,3.42,3.54,-0.37
44.1240,0.08,0.12,-0.98,3.17,3.78,-0.24
44.1390,0.07,0.12,-0.98,3.60,3.30,0.49
44.1580,0.07,0.13,-0.98,3.36,3.30,1.10
44.1730,0.08,0.13,-0.98,3.23,3.60,1.46
44.1900,0.08,0.13,-0.98,3.05,3.42,1.65
44.2050,0.08,0.12,-0.98,3.17,3.11,1.34
44.2200,0.08,0.12,-0.98,3.17,3.36,0.98
44.2220,0.08,0.12,-0.98,3.11,3.66,0.98
44.2490,0.08,0.13,-0.98,3.17,3.66,0.49
44.2650,0.08,0.12,-0.98,3.36,3.42,0.55
44.2730,0.08,0.13,-0.98,3.30,3.54,-0.12
44.2910,0.08,0.13,-0.98,3.36,3.78,-0.37
44.3060,0.08,0.13,-0.98,3.23,3.78,-0.06
44.3230,0.08,0.12,-0.98,3.30,3.78,0.37
44.3400,0.08,0.12,-0.98,3.54,3.72,0.06
44.3550,0.07,0.12,-0.98,3.42,3.66,0.00
44.3650,0.07,0.13,-0.98,3.36,3.66,0.12
44.3840,0.07,0.12,-0.98,3.42,3.23,0.61
44.3890,0.08,0.13,-0.98,3.36,3.48,1.34
44.4150,0.08,0.13,-0.98,3.30,3.42,1.46
44.4230,0.08,0.13,-0.98,3.11,3.54,1.04
44.4400,0.08,0.12,-0.98,3.36,3.60,0.55
44.4560,0.08,0.12,-0.98,3.30,3.97,-0.55
44.4730,0.07,0.12,-0.98,3.36,3.48,-0.49
44.4890,0.08,0.13,-0.98,3.30,3.42,0.18
44.5050,0.07,0.13,-0.98,3.30,3.36,0.55
44.5200,0.08,0.12,-0.98,3.05,3.48,1.40
44.5230,0.08,0.12,-0.98,2.99,3.17,1.53
44.5500,0.08,0.12,-0.98,3.23,3.78,0.73
44.5560,0.08,0.12,-0.98,3.23,3.72,0.49
44.5730,0.08,0.13,-0.98,3.30,3.72,0.37
44.5910,0.08,0.13,-0.98,3.17,3.48,0.85
44.6060,0.08,0.13,-0.98,3.05,3.48,1.59
44.6230,0.08,0.12,-0.98,3.23,3.54,1.53
44.6390,0.08,0.12,-0.98,3.17,3.48,0.79
44.6390,0.08,0.12,-0.98,3.30,3.54,0.12
44.6690,0.07,0.12,-0.99,3.23,3.66,-1.46
44.6850,0.07,0.13,-0.98,3.54,3.72,-1.28
44.6890,0.08,0.13,-0.98,3.42,3.48,0.79
44.7150,0.08,0.13,-0.98,3.23,3.17,1.46
44.7220,0.08,0.14,-0.98,3.23,3.17,1.34
44.7390,0.08,0.13,-0.98,3.17,3.42,1.53
44.7560,0.08,0.12,-0.98,3.17,3.30,1.28
44.7730,0.08,0.12,-0.98,3.17,3.97,0.92
44.7890,0.08,0.12,-0.98,3.30,3.66,0.79
44.8050,0.08,0.13,-0.98,3.23,3.54,0.92
44.8060,0.08,0.13,-0.98,3.23,3.60,1.10
44.8230,0.08,0.13,-0.98,3.30,3.36,0.85
44.8390,0.08,0.12,-0.98,3.30,3.23,0.98
44.8650,0.08,0.12,-0.99,3.17,3.54,0.49
44.8720,0.07,0.12,-0.98,3.36,3.54,-0.49
44.8910,0.08,0.13,-0.98,3.30,3.54,-0.49
44.9060,0.08,0.14,-0.98,3.36,3.72,0.18
44.9240,0.08,0.13,-0.98,3.23,3.42,0.73
44.9400,0.08,0.13,-0.98,3.30,3.54,0.79
44.9550,0.08,0.13,-0.98,3.36,3.78,0.55
44.9650,0.08,0.12,-0.99,3.30,3.72,0.37
44.9850,0.07,0.12,-0.99,3.54,3.78,-0.18
45.0000,0.07,0.12,-0.98,3.54,3.66,-0.18
45.0070,0.08,0.12,-0.98,3.23,3.60,0.98
45.0250,0.08,0.13,-0.98,3.30,3.72,1.34
45.0390,0.08,0.13,-0.98,3.30,3.85,0.98
45.0570,0.08,0.12,-0.98,3.48,3.72,0.49
45.0730,0.08,0.12,-0.98,3.36,3.66,0.43
45.0900,0.07,0.12,-0.98,3.36,3.72,0.31
45.1070,0.07,0.13,-0.98,2.93,3.54,0.73
45.1220,0.08,0.12,-0.98,3.17,3.54,1.71
45.1230,0.08,0.12,-0.98,3.30,3.42,1.28
45.1400,0.08,0.12,-0.98,3.42,3.54,1.16
45.1660,0.08,0.13,-0.98,3.30,3.42,-0.24
45.1820,0.07,0.12,-0.98,3.36,3.72,-1.59
45.1890,0.07,0.12,-0.98,3.60,3.54,-0.18
45.2070,0.07,0.12,-0.98,3.42,3.36,1.16
45.2230,0.08,0.13,-0.98,3.30,3.36,1.46
45.2400,0.08,0.13,-0.98,3.36,3.48,1.40
45.2560,0.08,0.13,-0.98,3.17,3.36,0.73
45.2720,0.07,0.09,-0.98,3.17,3.17,0.98
45.2860,0.08,0.12,-0.98,3.17,3.11,1.59
45.3010,0.08,0.12,-0.98,3.30,3.05,1.28
45.3160,0.08,0.12,-0.98,3.36,3.78,0.49
45.3230,0.08,0.12,-0.98,3.23,3.23,0.43
45.3400,0.08,0.12,-0.98,3.36,3.48,0.43
45.3560,0.07,0.13,-0.98,3.30,3.36,1.04
45.3740,0.08,0.12,-0.98,3.05,3.30,1.95
45.3900,0.08,0.12,-0.98,3.05,3.66,1.22
45.4060,0.08,0.12,-0.98,3.42,3.66,0.43
45.4220,0.07,0.12,-0.98,3.54,4.03,-0.06
45.4230,0.07,0.13,-0.98,3.23,3.42,0.06
45.4390,0.08,0.13,-0.98,3.30,3.66,0.49
45.4660,0.08,0.13,-0.98,3.42,3.30,1.28
45.4730,0.07,0.12,-0.98,3.23,3.42,0.31
45.4910,0.08,0.12,-0.98,3.23,3.78,0.24
45.5070,0.08,0.12,-0.98,3.72,3.85,-1.77
45.5230,0.07,0.12,-0.99,3.54,4.03,-2.93
45.5400,0.08,0.14,-0.98,3.36,3.78,-1.46
45.5560,0.07,0.13,-0.99,3.54,3.42,0.79
45.5710,0.08,0.13,-0.98,3.11,3.23,1.65
45.5860,0.08,0.13,-0.98,2.99,3.17,2.14
45.5890,0.08,0.12,-0.98,3.17,3.11,2.14
45.6160,0.08,0.12,-0.98,3.17,3.30,1.40
45.6310,0.08,0.12,-0.98,3.05,3.36,0.67
45.6390,0.08,0.13,-0.98,3.36,3.66,0.55
45.6560,0.08,0.12,-0.98,3.11,3.17,2.01
45.6730,0.08,0.12,-0.98,3.30,3.66,1.71
45.6900,0.08,0.13,-0.98,3.30,3.30,1.16
45.7060,0.08,0.13,-0.98,3.23,3.54,0.85
45.7210,0.08,0.12,-0.98,3.36,3.60,0.61
45.7370,0.07,0.12,-0.98,3.36,3.54,-0.18
45.7510,0.07,0.13,-0.98,3.30,3.11,0.31
45.7670,0.07,0.13,-0.98,3.11,3.30,0.67
45.7730,0.07,0.12,-0.98,3.36,3.54,0.92
45.7910,0.08,0.12,-0.98,3.36,3.36,0.73
45.8070,0.08,0.13,-0.98,3.30,3.42,-0.85
45.8240,0.08,0.12,-0.98,3.36,3.60,-0.31
45.8390,0.08,0.13,-0.98,3.36,3.36,0.37
45.8560,0.07,0.13,-0.98,3.36,3.36,1.53
45.8730,0.08,0.13,-0.98,3.30,3.42,2.01
45.8880,0.08,0.12,-0.98,3.05,3.30,1.65
45.9030,0.08,0.11,-0.98,3.17,3.30,0.85
45.9070,0.08,0.11,-0.99,3.36,3.72,-1.16
45.9330,0.08,0.12,-0.99,3.30,3.85,-1.59
45.9480,0.07,0.13,-0.98,3.36,3.78,-0.79
45.9630,0.08,0.13,-0.98,3.48,3.42,1.16
45.9730,0.08,0.14,-0.98,3.23,3.54,1.71
45.9890,0.08,0.13,-0.98,3.23,3.17,2.32
46.0070,0.08,0.12,-0.98,3.30,3.54,1.59
46.0230,0.07,0.12,-0.99,3.30,3.48,1.16
46.0380,0.08,0.13,-0.98,3.42,3.85,1.16
46.0540,0.08,0.13,-0.98,3.23,3.36,0.43
46.0680,0.07,0.13,-0.99,3.17,3.85,-0.12
46.0830,0.08,0.12,-0.98,3.42,3.91,-1.40
46.0890,0.07,0.10,-0.99,3.60,4.39,-3.42
46.1070,0.07,0.12,-0.99,3.66,4.27,-3.36
46.1230,0.07,0.12,-0.98,3.66,3.91,-2.44
46.1400,0.08,0.12,-0.98,3.30,3.42,0.31
46.1560,0.08,0.14,-0.98,3.30,3.36,1.22
46.1730,0.08,0.13,-0.99,3.05,3.17,2.20
46.1880,0.08,0.14,-0.98,3.11,2.99,2.44
46.2030,0.08,0.14,-0.98,3.23,2.75,2.50
46.2060,0.07,0.12,-0.99,3.05,2.75,2.50
46.2340,0.07,0.11,-0.99,3.11,2.81,2.69
46.2480,0.08,0.12,-0.99,3.23,3.54,1.40
46.2560,0.08,0.12,-0.98,3.42,3.72,-1.71
46.2730,0.08,0.13,-0.98,3.66,3.66,-2.08
46.2890,0.07,0.12,-0.98,3.48,3.60,-1.10
46.3060,0.08,0.13,-0.98,3.23,3.42,-0.12
