Timestamp, AccX, AccY, AccZ, GyroX, GyroY, GyroZ
0.0120,0.10,0.12,-0.98,3.11,1.59,1.59
0.0270,0.10,0.12,-0.98,3.23,1.10,1.83
0.0420,0.10,0.12,-0.98,3.23,2.01,1.83
0.0570,0.10,0.12,-0.98,3.17,1.59,1.71
0.0720,0.10,0.12,-0.98,3.17,1.46,1.77
0.0840,0.10,0.12,-0.98,3.11,1.46,1.59
0.1000,0.10,0.12,-0.98,3.23,1.53,1.77
0.1170,0.10,0.12,-0.98,2.99,1.34,1.59
0.1330,0.10,0.12,-0.98,3.11,1.59,1.65
0.1480,0.10,0.12,-0.98,3.11,1.46,1.65
0.1510,0.10,0.12,-0.98,2.99,1.40,1.65
0.1780,0.10,0.12,-0.98,3.42,1.71,1.77
0.1940,0.10,0.12,-0.98,3.17,1.71,1.65
0.2090,0.10,0.12,-0.98,3.42,1.53,1.59
0.2230,0.10,0.12,-0.98,3.72,1.28,1.71
0.2390,0.10,0.12,-0.98,3.85,1.22,1.71
0.2490,0.10,0.12,-0.98,3.72,1.53,1.77
0.2670,0.10,0.12,-0.98,3.23,1.04,1.89
0.2830,0.13,0.14,-0.97,2.81,0.79,2.26
0.2990,0.10,0.12,-0.98,3.42,1.34,1.65
0.3150,0.10,0.12,-0.98,3.48,0.98,1.65
0.3310,0.10,0.12,-0.98,3.54,1.04,1.71
0.3340,0.10,0.12,-0.98,2.81,1.34,1.53
0.3640,0.10,0.12,-0.98,2.50,1.46,1.46
0.3790,0.10,0.12,-0.98,2.69,1.22,1.40
0.3870,0.09,0.13,-0.98,2.87,1.28,1.16
0.4030,0.10,0.15,-0.97,2.81,1.71,0.67
0.4250,0.10,0.15,-0.97,3.23,1.53,0.49
0.4410,0.10,0.13,-0.98,3.05,1.40,1.95
0.4570,0.10,0.12,-0.98,3.54,1.28,2.56
0.4600,0.10,0.10,-0.98,4.15,1.28,1.16
0.4760,0.10,0.09,-0.98,3.91,1.71,0.67
0.4970,0.10,0.09,-0.98,3.91,1.40,0.73
0.5150,0.10,0.11,-0.98,3.66,1.59,0.92
0.5320,0.09,0.12,-0.98,3.66,1.65,2.26
0.5470,0.10,0.12,-0.98,3.78,1.10,2.69
0.5630,0.10,0.12,-0.98,3.48,1.40,2.14
0.5780,0.10,0.12,-0.98,3.17,1.34,2.01
0.5930,0.10,0.11,-0.98,3.42,1.34,2.20
0.6090,0.10,0.11,-0.98,3.23,1.28,1.77
0.6250,0.10,0.12,-0.98,3.42,1.40,1.77
0.6340,0.10,0.12,-0.98,3.36,1.04,1.77
0.6470,0.10,0.12,-0.98,3.23,1.46,1.59
0.6690,0.10,0.12,-0.98,3.66,1.28,1.77
0.6870,0.10,0.12,-0.98,3.17,1.40,1.59
0.7040,0.10,0.12,-0.98,3.30,1.22,1.65
0.7190,0.10,0.12,-0.98,3.23,0.92,1.59
0.7360,0.10,0.12,-0.98,3.17,1.53,1.65
0.7520,0.10,0.12,-0.98,3.54,1.22,1.95
0.7680,0.11,0.11,-0.98,3.36,1.16,1.83
0.7710,0.10,0.12,-0.98,3.54,1.46,1.77
0.7990,0.10,0.12,-0.98,3.54,1.34,1.65
0.8030,0.10,0.12,-0.98,3.30,1.28,1.53
0.8200,0.10,0.12,-0.98,3.05,1.46,1.65
0.8360,0.10,0.12,-0.98,3.17,1.53,1.95
0.8630,0.09,0.13,-0.98,3.36,1.16,3.17
0.8740,0.10,0.14,-0.98,2.99,1.28,4.94
0.8900,0.10,0.13,-0.98,2.75,0.79,6.35
0.9070,0.09,0.13,-0.98,2.56,0.49,7.08
0.9230,0.10,0.12,-0.98,2.56,0.24,8.24
0.9400,0.10,0.10,-0.98,3.30,0.79,6.35
0.9560,0.10,0.09,-0.98,3.17,0.98,3.85
0.9720,0.10,0.10,-0.98,3.60,1.22,1.77
0.9880,0.10,0.12,-0.98,3.60,0.92,1.65
1.0040,0.10,0.12,-0.98,3.48,1.34,1.77
1.0200,0.10,0.13,-0.98,3.60,1.16,2.69
1.0350,0.10,0.13,-0.98,3.54,1.34,2.87
1.0410,0.10,0.12,-0.98,3.36,0.92,2.87
1.0560,0.10,0.12,-0.98,3.36,1.10,2.75
1.0790,0.10,0.13,-0.98,3.17,1.16,3.05
1.0950,0.10,0.13,-0.98,3.17,0.98,4.27
1.1100,0.10,0.12,-0.98,3.05,0.79,4.64
1.1130,0.10,0.11,-0.98,2.99,1.10,4.33
1.1350,0.10,0.11,-0.98,3.17,1.10,3.91
1.1510,0.10,0.11,-0.98,3.17,0.98,2.81
1.1680,0.10,0.11,-0.98,3.11,1.34,2.08
1.1850,0.10,0.12,-0.98,3.23,1.04,1.83
1.2010,0.10,0.13,-0.98,3.23,1.46,2.08
1.2180,0.10,0.12,-0.98,3.36,1.28,3.05
1.2330,0.10,0.12,-0.98,3.17,1.34,2.99
1.2490,0.10,0.12,-0.98,3.23,1.04,2.50
1.2530,0.10,0.12,-0.98,3.30,1.22,2.20
1.2800,0.10,0.12,-0.98,3.30,1.34,1.77
1.2850,0.10,0.12,-0.98,3.11,1.10,1.71
1.3010,0.10,0.12,-0.98,3.30,1.53,1.77
1.3240,0.10,0.12,-0.98,3.23,1.34,1.95
1.3400,0.10,0.11,-0.98,3.17,1.22,1.95
1.3570,0.10,0.11,-0.98,3.36,1.28,1.71
1.3740,0.10,0.12,-0.98,3.36,1.46,1.59
1.3900,0.10,0.12,-0.98,3.23,1.16,1.40
1.4060,0.10,0.12,-0.98,3.36,1.16,1.40
1.4220,0.10,0.12,-0.98,3.36,0.98,1.53
1.4370,0.10,0.11,-0.98,3.54,1.16,2.20
1.4530,0.10,0.11,-0.98,3.48,1.10,1.95
1.4680,0.10,0.12,-0.98,3.60,1.16,1.71
1.4730,0.10,0.12,-0.98,3.66,1.40,1.71
1.4880,0.10,0.12,-0.98,3.66,1.22,1.71
1.5110,0.10,0.12,-0.98,3.60,0.98,1.77
1.5270,0.10,0.12,-0.98,3.60,1.53,1.77
1.5420,0.10,0.12,-0.98,3.30,1.46,1.59
1.5440,0.10,0.12,-0.98,3.54,1.22,1.59
1.5740,0.10,0.12,-0.98,3.54,1.04,1.77
1.5900,0.10,0.12,-0.98,3.42,0.98,1.71
1.6060,0.10,0.12,-0.98,3.42,1.65,1.83
1.6220,0.10,0.12,-0.98,3.66,1.34,1.71
1.6390,0.10,0.12,-0.98,3.48,1.34,1.71
1.6550,0.10,0.12,-0.98,3.60,1.10,1.59
1.6700,0.10,0.12,-0.98,3.36,1.22,1.71
1.6860,0.10,0.12,-0.98,3.23,1.40,1.77
1.6940,0.10,0.12,-0.98,3.36,1.40,1.95
1.7090,0.10,0.12,-0.98,3.42,1.22,1.77
1.7320,0.10,0.12,-0.98,3.23,1.40,1.71
1.7490,0.10,0.12,-0.98,3.17,1.16,1.77
1.7640,0.10,0.12,-0.98,3.23,1.16,1.71
1.7800,0.10,0.12,-0.98,3.23,1.34,1.71
1.7960,0.10,0.12,-0.98,3.23,1.22,1.71
1.8110,0.10,0.12,-0.98,3.17,1.34,3.23
1.8260,0.10,0.12,-0.98,3.05,1.46,3.72
1.8410,0.10,0.12,-0.98,3.05,1.04,2.93
1.8550,0.10,0.12,-0.98,3.30,1.34,2.56
1.8700,0.10,0.12,-0.98,3.30,0.85,3.05
1.8820,0.10,0.12,-0.98,3.23,1.16,2.56
1.8990,0.10,0.12,-0.98,3.17,1.16,2.44
1.9160,0.10,0.12,-0.98,3.36,1.28,2.56
1.9320,0.10,0.12,-0.98,3.17,1.10,2.81
1.9480,0.10,0.12,-0.98,3.30,0.79,2.69
1.9640,0.10,0.12,-0.98,3.23,1.34,2.38
1.9810,0.10,0.12,-0.98,3.17,1.22,1.89
1.9960,0.10,0.12,-0.98,3.23,1.22,2.01
2.0100,0.10,0.12,-0.98,3.36,1.04,2.32
2.0260,0.10,0.12,-0.98,3.36,1.04,2.38
2.0360,0.10,0.12,-0.98,3.23,1.46,2.01
2.0480,0.10,0.12,-0.98,3.42,1.16,2.08
2.0720,0.10,0.12,-0.98,3.54,0.73,2.32
2.0890,0.10,0.12,-0.98,3.05,0.98,2.87
2.1040,0.10,0.12,-0.98,3.11,0.79,3.30
2.1200,0.10,0.12,-0.98,3.23,0.67,3.42
2.1350,0.10,0.12,-0.98,3.17,0.79,3.30
2.1510,0.10,0.12,-0.98,2.99,0.98,3.30
2.1670,0.10,0.12,-0.98,3.05,1.04,2.81
2.1820,0.10,0.12,-0.98,2.93,1.22,3.11
2.1970,0.10,0.12,-0.98,3.36,0.79,3.11
2.2130,0.10,0.12,-0.98,3.30,0.85,3.54
2.2230,0.10,0.13,-0.98,3.23,0.67,3.97
2.2380,0.10,0.12,-0.98,3.23,1.22,4.58
2.2570,0.10,0.11,-0.98,3.17,0.79,4.88
2.2630,0.09,0.11,-0.98,2.93,0.98,3.54
2.2880,0.10,0.11,-0.98,3.17,0.67,3.54
2.3020,0.10,0.11,-0.98,3.36,1.28,2.93
2.3130,0.10,0.12,-0.98,3.17,1.28,2.38
2.3300,0.10,0.12,-0.98,3.17,0.92,2.81
2.3470,0.10,0.12,-0.98,3.17,1.10,2.87
2.3620,0.10,0.12,-0.98,3.11,0.79,2.81
2.3770,0.10,0.12,-0.98,3.23,1.04,3.05
2.3920,0.10,0.12,-0.98,2.99,1.22,2.69
2.4070,0.10,0.12,-0.98,3.11,1.28,2.75
2.4230,0.10,0.12,-0.98,3.30,1.10,3.17
2.4370,0.10,0.12,-0.98,3.30,1.28,3.66
2.4520,0.10,0.12,-0.98,3.23,1.28,3.54
2.4630,0.10,0.12,-0.98,3.11,1.28,2.99
2.4810,0.09,0.12,-0.98,3.05,1.71,2.87
2.4980,0.10,0.11,-0.98,2.93,1.59,3.23
2.5140,0.10,0.11,-0.98,3.23,1.34,3.17
2.5300,0.10,0.12,-0.98,3.05,1.22,2.50
2.5450,0.10,0.12,-0.98,3.23,1.16,2.44
2.5600,0.10,0.12,-0.98,3.42,1.22,2.26
2.5760,0.10,0.12,-0.98,3.23,1.40,3.17
2.5920,0.10,0.12,-0.98,3.30,1.16,3.05
2.6090,0.10,0.12,-0.98,3.30,1.16,2.81
2.6260,0.10,0.12,-0.98,2.93,1.16,2.99
2.6420,0.10,0.12,-0.98,3.05,1.46,2.93
2.6580,0.10,0.11,-0.98,3.36,0.92,2.99
2.6730,0.10,0.12,-0.98,3.23,1.22,2.69
2.6890,0.10,0.11,-0.98,3.30,1.28,2.20
2.7040,0.10,0.11,-0.98,3.36,1.40,1.77
2.7140,0.10,0.12,-0.98,3.48,1.28,2.08
2.7300,0.10,0.11,-0.98,3.42,1.10,2.26
2.7480,0.10,0.12,-0.98,3.11,1.53,2.38
2.7640,0.10,0.12,-0.98,3.11,1.59,2.69
2.7790,0.10,0.12,-0.98,2.99,1.53,2.81
2.7950,0.10,0.12,-0.98,3.11,1.16,2.75
2.8100,0.10,0.12,-0.98,3.23,0.67,2.56
2.8140,0.10,0.12,-0.98,3.17,1.04,2.50
2.8370,0.10,0.12,-0.98,3.23,1.34,2.75
2.8520,0.10,0.12,-0.98,3.11,1.46,2.81
2.8700,0.10,0.12,-0.98,3.42,1.10,3.05
2.8850,0.10,0.12,-0.98,3.36,1.34,2.81
2.9000,0.10,0.12,-0.98,3.36,1.40,3.05
2.9020,0.10,0.12,-0.98,3.30,1.22,3.54
2.9300,0.10,0.12,-0.98,3.23,1.28,2.69
2.9370,0.10,0.11,-0.98,3.23,1.40,3.05
2.9600,0.10,0.11,-0.98,3.11,1.40,2.93
2.9750,0.10,0.11,-0.98,3.30,1.10,2.62
2.9850,0.10,0.12,-0.98,3.11,1.28,2.69
3.0040,0.10,0.12,-0.98,3.42,1.40,2.69
3.0190,0.10,0.12,-0.98,3.36,1.28,2.69
3.0360,0.10,0.13,-0.98,3.36,0.73,2.87
3.0520,0.10,0.12,-0.98,3.11,1.16,3.42
3.0680,0.10,0.12,-0.98,3.30,1.34,3.23
3.0840,0.10,0.12,-0.98,3.17,1.04,3.17
3.0860,0.10,0.12,-0.98,3.30,0.98,3.36
3.1020,0.10,0.12,-0.98,3.23,1.04,3.42
3.1200,0.10,0.11,-0.98,3.30,1.46,3.54
3.1460,0.10,0.11,-0.98,3.23,1.10,3.36
3.1610,0.10,0.11,-0.98,3.30,1.28,3.17
3.1750,0.10,0.12,-0.98,3.36,0.73,2.81
3.1850,0.10,0.12,-0.98,2.87,1.22,3.11
3.2020,0.10,0.12,-0.98,3.54,1.40,3.54
3.2200,0.10,0.11,-0.98,3.42,1.16,3.72
3.2350,0.10,0.12,-0.98,3.17,1.34,3.48
3.2510,0.10,0.11,-0.98,2.99,1.28,3.11
3.2520,0.10,0.12,-0.98,3.11,1.22,2.38
3.2690,0.10,0.12,-0.98,3.36,1.34,2.26
3.2860,0.10,0.12,-0.98,3.30,1.28,2.44
3.3020,0.10,0.12,-0.98,3.17,1.53,2.62
3.3190,0.10,0.12,-0.98,3.11,1.10,2.87
3.3380,0.10,0.12,-0.98,2.87,0.98,3.05
3.3520,0.10,0.11,-0.98,3.05,1.16,3.05
3.3690,0.10,0.11,-0.98,3.11,1.34,2.87
3.3870,0.10,0.11,-0.98,3.23,1.28,2.62
3.4020,0.10,0.12,-0.98,3.30,0.79,2.62
3.4200,0.10,0.12,-0.98,3.42,1.34,2.75
3.4360,0.10,0.12,-0.98,3.36,1.04,3.23
3.4380,0.10,0.12,-0.98,3.17,1.34,3.11
3.4530,0.10,0.12,-0.98,3.17,0.92,2.93
3.4820,0.10,0.11,-0.98,3.17,0.79,2.81
3.4860,0.10,0.12,-0.98,3.48,1.34,2.75
3.5020,0.10,0.12,-0.98,3.42,1.10,2.56
3.5190,0.10,0.13,-0.98,3.17,1.22,3.17
3.5380,0.10,0.12,-0.98,2.81,1.04,3.30
3.5530,0.10,0.12,-0.98,3.05,0.73,3.48
3.5680,0.10,0.11,-0.98,3.05,1.28,3.23
3.5900,0.10,0.12,-0.98,3.36,1.34,2.32
3.6060,0.10,0.12,-0.98,3.48,1.40,2.38
3.6240,0.10,0.12,-0.98,3.42,1.16,2.44
3.6400,0.10,0.12,-0.98,3.42,1.10,2.81
3.6550,0.10,0.12,-0.98,3.17,1.16,2.62
3.6710,0.10,0.12,-0.98,3.23,1.34,2.62
3.6730,0.10,0.12,-0.98,3.17,1.34,2.56
3.6890,0.09,0.12,-0.98,3.30,0.92,2.99
3.7160,0.10,0.12,-0.98,3.30,1.22,3.23
3.7280,0.09,0.12,-0.98,3.54,1.65,2.38
3.7440,0.10,0.12,-0.98,3.42,1.46,2.99
3.7610,0.10,0.12,-0.98,3.54,0.85,2.93
3.7770,0.10,0.11,-0.98,3.30,1.16,2.75
3.7920,0.10,0.11,-0.98,2.99,1.40,2.75
3.8080,0.10,0.11,-0.98,3.30,1.28,2.38
3.8110,0.10,0.12,-0.98,3.36,1.46,1.95
3.8380,0.10,0.12,-0.98,3.30,1.46,2.01
3.8500,0.09,0.13,-0.98,3.42,1.53,2.14
3.8660,0.09,0.12,-0.98,3.30,1.46,2.26
3.8830,0.10,0.12,-0.98,3.30,1.22,2.69
3.9000,0.10,0.12,-0.98,3.48,1.28,2.75
3.9150,0.10,0.11,-0.98,3.36,0.73,3.05
3.9310,0.09,0.12,-0.98,3.54,1.34,2.62
3.9390,0.09,0.12,-0.98,3.30,1.53,2.01
3.9500,0.09,0.13,-0.98,3.97,1.40,2.01
3.9770,0.10,0.11,-0.98,3.36,1.65,2.62
3.9880,0.10,0.11,-0.98,3.48,1.40,2.14
4.0040,0.10,0.12,-0.98,3.42,1.65,2.14
4.0210,0.10,0.12,-0.98,3.23,1.16,2.26
4.0390,0.09,0.12,-0.98,3.23,1.46,2.75
4.0540,0.10,0.12,-0.98,3.17,1.83,2.87
4.0700,0.10,0.12,-0.98,3.48,1.28,2.38
4.0860,0.10,0.12,-0.98,3.72,1.28,1.95
4.1020,0.10,0.12,-0.98,3.30,1.40,1.89
4.1190,0.10,0.13,-0.98,3.05,1.59,2.50
4.1350,0.10,0.12,-0.98,3.42,0.98,3.05
4.1520,0.10,0.12,-0.98,3.48,1.22,3.05
4.1660,0.10,0.12,-0.98,3.30,0.79,2.87
4.1820,0.10,0.12,-0.98,3.23,0.98,2.75
4.1970,0.10,0.12,-0.98,3.36,0.92,2.62
4.2040,0.10,0.12,-0.98,3.36,1.28,2.69
4.2200,0.10,0.12,-0.98,3.42,1.59,2.32
4.2420,0.10,0.12,-0.98,3.30,1.22,2.75
4.2580,0.10,0.12,-0.98,3.17,1.34,2.81
4.2740,0.10,0.12,-0.98,3.11,1.40,2.99
4.2900,0.10,0.12,-0.98,3.30,1.71,2.87
4.3060,0.10,0.12,-0.98,3.30,1.28,2.56
4.3220,0.10,0.12,-0.98,2.93,1.22,2.50
4.3380,0.10,0.12,-0.98,3.17,1.46,2.44
4.3550,0.10,0.11,-0.98,3.42,1.16,2.69
4.3700,0.10,0.12,-0.98,3.36,1.10,2.38
4.3760,0.10,0.12,-0.98,3.36,1.10,2.50
4.3910,0.10,0.12,-0.98,3.23,1.34,2.75
4.4150,0.10,0.12,-0.98,3.23,1.59,2.62
4.4310,0.10,0.12,-0.98,3.54,1.28,2.62
4.4460,0.10,0.12,-0.98,3.23,1.22,2.62
4.4610,0.10,0.12,-0.98,3.23,1.22,2.75
4.4770,0.10,0.12,-0.98,2.99,1.28,2.56
4.4910,0.10,0.12,-0.98,3.23,1.34,2.62
4.4980,0.10,0.12,-0.98,3.36,1.34,2.81
4.5140,0.10,0.12,-0.98,3.42,0.85,3.05
4.5360,0.10,0.12,-0.98,3.05,1.40,3.30
4.5540,0.10,0.12,-0.98,3.42,1.53,2.99
4.5700,0.10,0.11,-0.98,3.30,0.92,3.17
4.5860,0.10,0.11,-0.98,3.54,1.10,2.99
4.6020,0.10,0.11,-0.98,3.36,1.16,2.56
4.6180,0.10,0.12,-0.98,3.17,1.34,2.75
4.6210,0.10,0.12,-0.98,3.23,0.98,3.36
4.6500,0.10,0.12,-0.98,3.30,0.92,3.91
4.6540,0.10,0.12,-0.98,3.17,1.04,4.15
4.6840,0.10,0.12,-0.98,2.99,1.16,4.15
4.6980,0.10,0.12,-0.98,3.48,0.92,4.52
4.7130,0.10,0.12,-0.98,3.11,0.85,4.52
4.7280,0.10,0.12,-0.98,3.11,0.92,4.46
4.7390,0.10,0.12,-0.98,3.17,1.04,4.52
4.7580,0.10,0.12,-0.98,3.30,1.16,3.60
4.7700,0.09,0.11,-0.98,3.23,1.34,3.23
4.7850,0.10,0.11,-0.98,3.23,0.98,3.17
4.8050,0.10,0.11,-0.98,2.99,1.16,2.87
4.8210,0.10,0.11,-0.98,2.99,1.46,2.99
4.8370,0.10,0.12,-0.98,3.17,1.22,2.20
4.8520,0.10,0.12,-0.98,3.30,1.16,2.20
4.8680,0.10,0.12,-0.98,3.42,1.53,2.38
4.8840,0.10,0.12,-0.98,3.30,1.28,2.93
4.9000,0.10,0.12,-0.98,3.17,1.28,2.62
4.9060,0.10,0.12,-0.98,3.30,1.53,2.75
4.9220,0.10,0.12,-0.98,3.30,1.40,2.81
4.9450,0.10,0.12,-0.98,3.30,1.46,2.62
4.9600,0.10,0.12,-0.98,3.36,1.22,2.56
4.9760,0.10,0.12,-0.98,3.60,1.22,3.11
4.9910,0.10,0.12,-0.98,3.23,1.34,3.17
5.0050,0.10,0.12,-0.98,2.99,1.65,3.54
5.0220,0.10,0.12,-0.98,3.17,0.92,3.42
5.0270,0.10,0.13,-0.98,3.11,1.28,3.54
5.0430,0.10,0.12,-0.98,3.23,1.40,3.72
5.0640,0.10,0.12,-0.98,3.17,1.53,3.60
5.0810,0.10,0.11,-0.98,3.17,1.46,3.17
5.0970,0.09,0.11,-0.98,3.05,1.53,2.62
5.1140,0.10,0.12,-0.98,2.81,1.53,2.32
5.1300,0.10,0.12,-0.98,3.17,1.71,2.62
5.1460,0.10,0.13,-0.98,3.42,0.98,3.48
5.1610,0.10,0.13,-0.98,2.93,0.98,4.52
5.1640,0.10,0.12,-0.98,2.93,1.28,4.33
5.1800,0.10,0.12,-0.98,2.99,0.98,4.76
5.2020,0.10,0.12,-0.98,3.05,0.55,5.00
5.2180,0.10,0.12,-0.98,3.05,0.79,4.88
5.2370,0.10,0.12,-0.98,2.87,1.22,4.39
5.2510,0.10,0.12,-0.98,3.11,0.92,4.58
5.2670,0.10,0.12,-0.98,2.99,0.92,4.46
5.2840,0.10,0.12,-0.98,2.93,1.04,4.03
5.3000,0.10,0.12,-0.98,2.99,1.10,3.60
5.3030,0.10,0.11,-0.98,3.30,1.22,2.99
5.3190,0.10,0.11,-0.98,3.23,1.28,2.87
5.3400,0.10,0.11,-0.98,3.30,1.46,3.11
5.3520,0.10,0.12,-0.98,3.11,1.04,2.99
5.3690,0.10,0.12,-0.98,3.11,1.28,2.69
5.3870,0.10,0.12,-0.98,3.30,1.59,2.56
5.4020,0.10,0.13,-0.98,3.36,1.59,2.75
5.4170,0.10,0.12,-0.98,3.23,1.22,3.60
5.4370,0.10,0.12,-0.98,3.17,1.04,3.72
5.4530,0.10,0.11,-0.98,3.30,1.22,3.42
5.4680,0.10,0.11,-0.98,3.36,1.28,2.56
5.4840,0.10,0.12,-0.98,3.17,1.40,2.56
5.4990,0.10,0.13,-0.98,3.17,0.92,3.30
5.5160,0.10,0.12,-0.98,3.17,0.85,4.03
5.5300,0.10,0.12,-0.98,2.99,1.16,3.85
5.5460,0.10,0.11,-0.98,3.30,1.65,3.23
5.5560,0.10,0.12,-0.98,3.36,1.53,3.11
5.5720,0.10,0.11,-0.98,3.48,1.65,3.23
5.5890,0.10,0.12,-0.98,3.11,1.34,3.30
5.6050,0.10,0.12,-0.98,3.30,1.16,3.97
5.6220,0.10,0.12,-0.98,3.11,1.04,4.03
5.6370,0.10,0.12,-0.98,2.93,1.04,3.66
5.6520,0.10,0.12,-0.98,3.11,0.92,3.42
5.6680,0.10,0.12,-0.98,3.36,1.34,3.23
5.6820,0.10,0.12,-0.98,3.66,0.98,3.42
5.6890,0.10,0.12,-0.98,3.54,0.85,3.48
5.7050,0.10,0.12,-0.98,3.05,1.10,3.48
5.7270,0.10,0.12,-0.98,3.36,1.22,3.48
5.7430,0.10,0.12,-0.98,3.48,1.10,3.78
5.7590,0.10,0.12,-0.98,3.36,1.04,4.70
5.7740,0.10,0.12,-0.98,3.11,1.10,4.46
5.7900,0.10,0.12,-0.98,2.81,1.10,3.42
5.7930,0.10,0.12,-0.98,3.17,1.10,3.23
5.8090,0.10,0.12,-0.98,3.17,1.28,2.87
5.8360,0.10,0.12,-0.98,3.42,1.16,2.56
5.8470,0.10,0.12,-0.98,3.78,1.04,3.11
5.8630,0.10,0.12,-0.98,3.23,1.28,3.05
5.8800,0.10,0.12,-0.98,3.30,1.22,2.93
5.8960,0.10,0.12,-0.98,3.30,0.98,2.93
5.9130,0.10,0.11,-0.98,3.23,1.40,2.75
5.9290,0.10,0.12,-0.98,3.30,1.04,2.44
5.9440,0.10,0.13,-0.98,3.48,1.46,2.93
5.9590,0.10,0.12,-0.98,3.23,1.10,3.66
5.9750,0.10,0.11,-0.98,3.30,1.16,3.42
5.9890,0.10,0.12,-0.98,3.17,1.10,3.42
6.0040,0.10,0.13,-0.98,3.23,1.10,3.48
6.0190,0.10,0.12,-0.98,2.99,1.34,3.78
6.0350,0.10,0.12,-0.98,3.17,1.10,3.30
6.0470,0.10,0.12,-0.98,3.42,0.73,2.93
6.0640,0.10,0.12,-0.98,3.60,1.10,2.69
6.0800,0.10,0.12,-0.98,3.36,1.16,2.75
6.0970,0.10,0.13,-0.98,3.42,0.98,3.42
6.1140,0.10,0.12,-0.98,3.30,0.79,4.15
6.1300,0.10,0.12,-0.98,3.05,1.22,4.27
6.1460,0.10,0.12,-0.98,3.05,1.22,4.21
6.1610,0.10,0.12,-0.98,3.11,1.04,4.09
6.1760,0.10,0.11,-0.98,3.23,1.16,3.48
6.1920,0.10,0.11,-0.98,3.36,1.16,2.62
6.1970,0.10,0.12,-0.98,3.05,1.59,2.56
6.2130,0.10,0.12,-0.98,3.30,1.59,2.87
6.2350,0.10,0.12,-0.98,3.30,1.59,3.11
6.2520,0.10,0.12,-0.98,3.17,1.22,3.30
6.2690,0.10,0.12,-0.98,3.05,1.46,3.17
6.2840,0.10,0.12,-0.98,3.17,1.34,3.17
6.3000,0.10,0.12,-0.98,3.17,1.46,2.99
6.3020,0.10,0.12,-0.98,3.17,1.40,3.05
6.3200,0.10,0.13,-0.98,3.05,1.46,3.23
6.3410,0.10,0.13,-0.98,3.11,0.92,3.36
6.3660,0.10,0.12,-0.98,3.17,1.53,3.97
6.3680,0.10,0.12,-0.98,3.05,1.34,3.85
6.3860,0.10,0.11,-0.98,2.99,1.34,3.48
6.4020,0.10,0.11,-0.98,3.23,1.34,3.05
6.4190,0.10,0.12,-0.98,3.05,1.59,2.26
6.4410,0.10,0.12,-0.98,3.11,1.46,2.44
6.4530,0.10,0.12,-0.98,3.36,1.65,2.56
6.4680,0.10,0.12,-0.98,3.05,1.34,2.69
6.4850,0.10,0.12,-0.98,3.11,0.98,2.50
6.5020,0.10,0.12,-0.98,3.30,1.53,2.69
6.5190,0.10,0.12,-0.98,3.30,1.22,2.69
6.5340,0.10,0.12,-0.98,3.05,0.92,2.32
6.5510,0.10,0.12,-0.98,3.30,1.22,2.01
6.5680,0.10,0.13,-0.98,3.36,1.59,2.56
6.5840,0.10,0.12,-0.98,3.23,1.28,2.99
6.5850,0.10,0.12,-0.98,2.99,1.22,3.72
6.6030,0.10,0.12,-0.98,2.87,1.04,3.42
6.6200,0.10,0.12,-0.98,2.99,1.10,3.36
6.6410,0.10,0.12,-0.98,3.23,1.04,3.72
6.6530,0.10,0.12,-0.98,3.17,1.16,3.66
6.6680,0.10,0.12,-0.98,3.11,1.16,3.30
6.6950,0.10,0.12,-0.98,2.87,1.34,2.62
6.7100,0.10,0.11,-0.98,3.17,1.16,2.50
6.7180,0.10,0.12,-0.98,3.23,1.22,2.32
6.7350,0.10,0.13,-0.98,3.11,0.85,2.62
6.7510,0.10,0.13,-0.98,3.05,1.10,2.81
6.7680,0.10,0.12,-0.98,3.30,1.16,2.93
6.7850,0.10,0.12,-0.98,3.42,1.22,2.75
6.8020,0.10,0.12,-0.98,3.36,1.22,2.81
6.8030,0.10,0.12,-0.98,3.36,1.22,3.05
6.8340,0.10,0.12,-0.98,2.99,1.28,2.93
6.8410,0.10,0.12,-0.98,3.05,1.22,2.87
6.8520,0.10,0.12,-0.98,2.99,1.10,3.11
6.8690,0.10,0.12,-0.98,3.17,1.22,3.11
6.8850,0.10,0.12,-0.98,2.87,1.28,3.78
6.9030,0.10,0.12,-0.98,2.99,0.61,3.54
6.9190,0.10,0.12,-0.98,3.05,1.04,4.03
6.9440,0.10,0.12,-0.98,2.99,1.04,3.66
6.9550,0.10,0.12,-0.98,3.17,0.85,3.66
6.9710,0.10,0.11,-0.98,3.17,0.79,3.36
6.9900,0.10,0.12,-0.98,2.93,1.28,2.93
6.9900,0.10,0.12,-0.98,2.99,1.16,3.05
7.0050,0.10,0.12,-0.98,3.05,1.16,3.17
7.0350,0.10,0.12,-0.98,3.23,1.34,2.99
7.0410,0.10,0.12,-0.98,3.42,1.10,3.42
7.0540,0.10,0.12,-0.98,3.60,0.92,3.85
7.0780,0.10,0.12,-0.98,3.42,1.22,3.85
7.0950,0.10,0.12,-0.98,3.36,1.46,4.27
7.1100,0.10,0.11,-0.98,3.17,0.85,3.91
7.1270,0.10,0.12,-0.98,3.23,0.85,3.60
7.1420,0.10,0.12,-0.98,3.42,0.79,3.85
7.1580,0.10,0.11,-0.98,3.36,1.04,3.60
7.1740,0.10,0.11,-0.98,3.17,0.92,3.05
7.1890,0.10,0.11,-0.98,2.87,1.04,2.62
7.2050,0.10,0.12,-0.98,3.11,1.16,2.32
7.2200,0.10,0.12,-0.98,3.42,1.28,2.50
7.2370,0.10,0.12,-0.98,3.11,0.98,2.50
7.2460,0.10,0.12,-0.98,3.54,1.10,2.50
7.2610,0.10,0.12,-0.98,3.54,1.28,3.17
7.2820,0.10,0.12,-0.98,3.23,1.10,2.99
7.2970,0.10,0.13,-0.98,3.11,0.85,2.99
7.3150,0.10,0.12,-0.98,3.42,1.28,3.60
7.3310,0.10,0.12,-0.98,3.05,1.16,3.91
7.3470,0.10,0.12,-0.98,3.17,1.22,3.60
7.3620,0.10,0.12,-0.98,3.23,1.16,3.60
7.3650,0.10,0.12,-0.98,3.05,1.16,3.72
7.3800,0.10,0.12,-0.98,3.11,1.10,3.54
7.4020,0.10,0.12,-0.98,3.17,0.85,3.36
7.4180,0.10,0.12,-0.98,3.17,1.16,3.36
7.4330,0.10,0.12,-0.98,3.17,1.34,3.17
7.4550,0.10,0.12,-0.98,2.81,1.04,3.23
7.4710,0.10,0.12,-0.98,2.93,1.04,2.93
7.4870,0.10,0.12,-0.98,2.93,1.22,3.05
7.5020,0.10,0.13,-0.98,3.23,1.10,3.48
7.5180,0.10,0.12,-0.98,3.23,0.98,3.66
7.5230,0.10,0.12,-0.98,3.36,0.92,3.60
7.5420,0.10,0.11,-0.98,2.87,1.16,3.36
7.5640,0.10,0.12,-0.98,2.99,0.92,3.05
7.5800,0.10,0.12,-0.97,3.11,1.04,2.69
7.5960,0.10,0.12,-0.98,3.23,0.92,3.54
7.6120,0.10,0.12,-0.98,3.11,1.28,3.42
7.6280,0.10,0.12,-0.98,3.23,1.22,3.23
7.6420,0.10,0.11,-0.98,2.87,1.10,3.42
7.6470,0.10,0.11,-0.98,3.42,1.04,2.75
7.6620,0.10,0.11,-0.98,3.05,1.53,2.26
7.6850,0.10,0.12,-0.98,3.17,1.46,2.44
7.7020,0.10,0.12,-0.98,3.23,1.16,2.62
7.7030,0.10,0.12,-0.98,3.05,1.34,2.87
7.7180,0.10,0.11,-0.98,3.42,1.16,2.81
7.7420,0.10,0.11,-0.98,3.23,1.16,2.93
7.7530,0.10,0.12,-0.98,3.17,0.92,2.69
7.7690,0.10,0.12,-0.98,3.36,1.16,2.93
7.7840,0.10,0.12,-0.98,2.99,1.22,3.17
7.8060,0.10,0.12,-0.98,3.48,1.04,3.78
7.8230,0.10,0.12,-0.98,3.48,0.92,4.09
7.8390,0.10,0.12,-0.98,3.23,1.04,3.78
7.8560,0.10,0.12,-0.98,3.30,0.98,3.78
7.8720,0.10,0.11,-0.98,3.36,1.22,3.72
7.8880,0.10,0.12,-0.98,3.30,1.04,3.11
7.9040,0.10,0.12,-0.98,3.48,1.28,2.87
7.9200,0.10,0.12,-0.98,3.11,0.98,2.93
7.9350,0.10,0.12,-0.98,3.30,1.28,2.75
7.9430,0.10,0.12,-0.98,3.48,1.04,2.93
7.9560,0.10,0.12,-0.98,3.42,1.04,2.81
7.9790,0.10,0.12,-0.98,3.05,1.10,3.11
7.9950,0.10,0.11,-0.98,3.30,1.22,2.93
8.0120,0.10,0.12,-0.98,3.23,1.04,2.69
8.0280,0.10,0.12,-0.98,3.48,1.40,2.87
8.0440,0.10,0.12,-0.98,3.48,0.67,2.93
8.0590,0.10,0.12,-0.98,3.11,1.10,3.05
8.0750,0.10,0.12,-0.98,3.17,1.10,3.54
8.0900,0.10,0.12,-0.98,3.17,1.28,4.15
8.1050,0.10,0.13,-0.98,2.93,1.22,3.78
8.1210,0.10,0.11,-0.98,2.62,1.28,3.78
8.1360,0.10,0.11,-0.98,2.93,1.28,2.87
8.1510,0.10,0.11,-0.98,3.11,0.73,2.56
8.1620,0.10,0.12,-0.98,3.36,1.10,2.62
8.1780,0.10,0.12,-0.98,3.30,1.34,2.75
8.1990,0.10,0.12,-0.98,3.36,1.65,3.17
8.2140,0.10,0.12,-0.98,3.23,1.16,3.48
8.2280,0.10,0.12,-0.98,3.36,1.22,3.48
8.2430,0.10,0.11,-0.98,3.48,0.92,3.36
8.2580,0.10,0.11,-0.98,3.23,1.46,3.17
8.2670,0.10,0.12,-0.98,3.05,1.34,2.93
8.2820,0.10,0.12,-0.98,3.17,1.16,3.23
8.3040,0.10,0.12,-0.98,3.17,1.28,3.23
8.3170,0.10,0.12,-0.98,3.23,1.46,3.23
8.3340,0.10,0.11,-0.98,3.36,1.16,3.11
8.3490,0.10,0.12,-0.98,3.42,1.40,2.81
8.3600,0.10,0.12,-0.98,3.48,1.22,2.99
8.3790,0.10,0.12,-0.98,3.23,0.67,3.60
8.3890,0.10,0.12,-0.98,3.11,1.28,3.17
8.4060,0.10,0.12,-0.98,3.42,1.22,3.30
8.4240,0.10,0.12,-0.98,2.99,1.53,3.48
8.4390,0.10,0.12,-0.98,3.30,1.10,3.66
8.4550,0.10,0.12,-0.98,3.23,1.40,3.91
8.4700,0.10,0.12,-0.98,3.36,1.04,3.91
8.4870,0.10,0.12,-0.98,3.17,1.16,3.60
8.5030,0.10,0.12,-0.98,3.11,1.28,3.72
8.5190,0.10,0.12,-0.98,3.48,0.92,3.30
8.5350,0.10,0.12,-0.98,3.36,1.34,3.11
8.5510,0.10,0.12,-0.98,3.36,1.34,2.93
8.5670,0.10,0.12,-0.98,3.30,1.22,3.05
8.5720,0.10,0.12,-0.98,3.36,1.46,4.03
8.5880,0.10,0.12,-0.98,3.17,0.85,4.27
8.6120,0.10,0.12,-0.98,2.93,0.85,4.46
8.6260,0.10,0.12,-0.98,2.99,0.92,4.52
8.6410,0.10,0.12,-0.98,3.17,1.04,4.09
8.6570,0.10,0.12,-0.98,3.23,1.10,3.97
8.6730,0.10,0.11,-0.98,3.11,1.22,3.91
8.6890,0.10,0.12,-0.98,2.99,1.10,3.36
8.6970,0.10,0.12,-0.98,2.87,1.40,2.87
8.7190,0.10,0.12,-0.98,2.93,1.40,2.93
8.7310,0.10,0.11,-0.98,3.17,1.46,2.81
8.7470,0.10,0.11,-0.98,3.11,1.34,2.08
8.7630,0.10,0.12,-0.98,3.42,1.40,1.89
8.7790,0.10,0.13,-0.98,3.30,1.04,2.32
8.7860,0.10,0.12,-0.98,3.23,1.28,2.75
8.8030,0.10,0.12,-0.98,2.99,1.46,2.75
8.8250,0.10,0.12,-0.98,3.23,1.46,2.87
8.8360,0.10,0.12,-0.98,3.11,1.34,2.93
8.8540,0.10,0.12,-0.98,3.23,1.04,3.30
8.8690,0.10,0.12,-0.98,3.36,1.46,3.91
8.8860,0.10,0.12,-0.98,2.62,1.16,4.27
8.8910,0.10,0.12,-0.98,2.62,0.98,3.72
8.9150,0.10,0.11,-0.98,2.87,0.98,3.36
8.9240,0.10,0.11,-0.98,3.17,1.28,3.23
8.9430,0.10,0.12,-0.98,3.05,1.10,3.11
8.9600,0.10,0.13,-0.98,3.17,1.16,3.60
8.9610,0.10,0.12,-0.98,3.05,1.40,3.85
8.9900,0.10,0.12,-0.98,2.87,1.28,4.09
9.0060,0.10,0.11,-0.98,2.99,1.28,3.66
9.0220,0.10,0.11,-0.98,3.36,1.22,3.36
9.0370,0.10,0.12,-0.98,3.23,0.85,3.42
9.0530,0.10,0.12,-0.98,3.48,1.22,4.09
9.0680,0.10,0.12,-0.98,3.42,0.98,4.09
9.0840,0.10,0.12,-0.98,3.23,1.16,4.15
9.0990,0.10,0.12,-0.98,3.11,0.85,4.39
9.1100,0.10,0.12,-0.98,2.99,1.28,4.33
9.1260,0.10,0.11,-0.98,3.11,1.65,3.72
9.1440,0.10,0.12,-0.98,3.17,0.98,4.21
9.1590,0.10,0.12,-0.98,3.11,0.85,4.76
9.1750,0.10,0.12,-0.98,2.99,1.28,4.88
9.1900,0.10,0.12,-0.98,2.81,0.73,4.70
9.2070,0.10,0.12,-0.98,3.05,1.04,5.13
9.2230,0.10,0.11,-0.98,3.36,0.92,4.76
9.2380,0.10,0.11,-0.98,3.30,0.98,4.94
9.2430,0.10,0.12,-0.98,3.30,1.04,4.88
9.2710,0.10,0.12,-0.98,3.05,0.61,5.19
9.2870,0.10,0.12,-0.98,2.99,1.22,4.94
9.3030,0.10,0.10,-0.98,3.05,1.22,4.21
9.3100,0.10,0.11,-0.98,3.11,1.04,2.99
9.3270,0.10,0.12,-0.98,3.42,1.34,3.42
9.3430,0.10,0.12,-0.98,3.36,0.85,3.85
9.3620,0.10,0.13,-0.98,3.17,1.04,3.91
9.3780,0.10,0.12,-0.98,3.11,1.22,4.09
9.3940,0.10,0.12,-0.98,3.30,1.16,4.27
9.4100,0.10,0.11,-0.98,2.99,0.98,3.60
9.4250,0.10,0.12,-0.98,3.17,1.10,3.36
9.4410,0.10,0.12,-0.98,3.36,1.53,4.09
9.4570,0.10,0.12,-0.98,3.17,1.16,4.03
9.4730,0.10,0.12,-0.98,3.05,1.04,3.36
9.4780,0.10,0.12,-0.98,3.23,0.98,3.42
9.5050,0.10,0.12,-0.98,3.30,1.04,3.97
9.5200,0.10,0.12,-0.98,3.42,0.98,4.15
9.5350,0.10,0.12,-0.98,3.36,0.37,3.85
9.5450,0.10,0.12,-0.98,3.36,1.22,3.48
9.5610,0.10,0.12,-0.98,3.17,0.73,3.17
9.5810,0.10,0.12,-0.98,3.23,1.16,3.42
9.5960,0.10,0.12,-0.98,3.23,1.16,3.78
9.6110,0.10,0.12,-0.98,3.17,0.92,4.15
9.6170,0.10,0.12,-0.98,3.30,0.85,3.60
9.6330,0.10,0.12,-0.98,3.17,0.98,2.87
9.6490,0.10,0.13,-0.98,2.99,1.71,2.44
9.6650,0.10,0.12,-0.98,2.87,1.40,2.69
9.6800,0.10,0.11,-0.98,3.30,1.10,3.36
9.7050,0.10,0.11,-0.98,3.05,0.92,2.75
9.7170,0.10,0.12,-0.98,3.17,0.92,2.32
9.7330,0.10,0.13,-0.98,3.11,1.10,2.93
9.7510,0.10,0.12,-0.98,3.11,1.40,3.48
9.7680,0.10,0.12,-0.98,3.17,1.04,3.54
9.7840,0.10,0.12,-0.98,3.17,1.28,3.42
9.7990,0.10,0.12,-0.98,3.17,1.22,3.05
9.8030,0.10,0.12,-0.98,3.11,1.10,2.62
9.8180,0.10,0.12,-0.98,3.36,1.46,2.62
9.8440,0.10,0.13,-0.98,3.17,1.40,2.81
9.8580,0.10,0.13,-0.98,3.17,1.16,3.78
9.8750,0.10,0.12,-0.98,3.17,1.10,3.72
9.8910,0.10,0.11,-0.98,3.11,1.04,3.36
9.9070,0.10,0.11,-0.98,3.17,1.22,2.87
9.9230,0.10,0.12,-0.98,3.05,1.46,2.20
9.9380,0.10,0.12,-0.98,3.17,1.34,2.14
9.9550,0.10,0.12,-0.98,3.17,1.28,2.62
9.9710,0.10,0.12,-0.98,3.05,1.71,2.87
9.9860,0.10,0.12,-0.98,3.17,1.22,2.69
9.9910,0.10,0.12,-0.98,3.11,1.16,2.44
10.0070,0.10,0.12,-0.98,3.11,1.28,1.77
10.0260,0.10,0.12,-0.98,3.23,1.46,1.95
10.0450,0.10,0.12,-0.98,3.48,1.28,2.08
10.0590,0.10,0.12,-0.98,3.30,0.98,2.56
10.0770,0.10,0.12,-0.98,3.36,1.16,2.62
10.0930,0.10,0.12,-0.98,3.11,1.40,3.17
10.1080,0.10,0.11,-0.98,2.93,1.28,3.60
10.1240,0.10,0.12,-0.98,3.23,1.22,2.75
10.1390,0.10,0.12,-0.98,3.30,0.98,3.11
10.1550,0.10,0.12,-0.98,3.11,1.40,2.93
10.1700,0.10,0.12,-0.98,3.30,1.16,2.62
10.1770,0.10,0.12,-0.98,3.17,1.10,2.56
10.1920,0.10,0.12,-0.98,3.42,0.98,2.69
10.2160,0.10,0.12,-0.98,3.11,1.40,2.75
10.2320,0.10,0.12,-0.98,3.11,1.28,2.44
10.2480,0.10,0.12,-0.98,3.23,1.34,2.20
10.2640,0.10,0.12,-0.98,3.23,1.22,2.44
10.2800,0.10,0.12,-0.98,3.05,1.34,2.62
10.2960,0.10,0.12,-0.98,2.99,1.16,2.62
10.2990,0.10,0.11,-0.98,3.11,1.22,2.44
10.3150,0.10,0.12,-0.98,3.05,1.40,2.01
10.3430,0.10,0.12,-0.98,3.36,1.34,2.14
10.3530,0.10,0.12,-0.98,3.36,1.46,2.69
10.3690,0.10,0.12,-0.98,3.17,1.16,2.75
10.3890,0.10,0.12,-0.98,3.11,1.10,2.93
10.4050,0.10,0.12,-0.98,3.17,1.10,3.17
10.4060,0.10,0.11,-0.98,3.05,1.22,3.17
10.4340,0.10,0.11,-0.98,3.11,1.46,2.50
10.4500,0.10,0.12,-0.98,3.23,1.22,2.08
10.4650,0.10,0.13,-0.98,3.30,1.40,2.93
10.4800,0.10,0.12,-0.98,3.05,1.22,3.11
10.4940,0.10,0.12,-0.98,2.87,1.22,2.87
10.5050,0.10,0.12,-0.98,2.81,1.28,2.93
10.5220,0.10,0.13,-0.98,2.87,1.16,2.62
10.5390,0.10,0.12,-0.98,2.69,0.98,3.11
10.5560,0.10,0.11,-0.98,2.93,1.04,3.05
10.5560,0.10,0.12,-0.98,2.99,1.28,2.93
10.5730,0.10,0.12,-0.98,3.11,1.16,2.99
10.6030,0.10,0.12,-0.98,3.23,1.10,3.05
10.6060,0.10,0.12,-0.98,2.93,1.28,2.69
10.6350,0.10,0.12,-0.98,3.23,0.98,2.62
10.6500,0.10,0.12,-0.98,3.17,1.34,3.23
10.6670,0.10,0.12,-0.98,3.17,1.34,3.30
10.6830,0.10,0.12,-0.98,3.23,1.10,3.42
10.6970,0.10,0.12,-0.98,2.99,0.98,3.60
10.7110,0.10,0.12,-0.98,2.99,1.16,3.54
10.7210,0.10,0.12,-0.98,2.99,1.04,3.36
10.7390,0.10,0.12,-0.98,3.17,1.16,3.23
10.7550,0.10,0.12,-0.98,3.11,1.04,3.30
10.7730,0.10,0.12,-0.98,3.11,0.92,4.03
10.7730,0.10,0.12,-0.98,3.05,0.98,4.27
10.8030,0.10,0.12,-0.98,2.75,1.04,3.72
10.8200,0.10,0.12,-0.98,2.87,1.46,3.72
10.8360,0.10,0.12,-0.98,3.11,0.92,3.78
10.8510,0.10,0.11,-0.98,3.05,1.16,3.42
10.8680,0.10,0.11,-0.98,3.11,1.77,2.81
10.8720,0.10,0.12,-0.98,2.93,1.40,2.26
10.8880,0.10,0.12,-0.98,3.11,1.04,2.44
10.9120,0.10,0.12,-0.98,3.36,1.04,2.81
10.9280,0.10,0.12,-0.98,3.11,0.92,3.17
10.9430,0.10,0.13,-0.98,3.23,0.79,3.42
10.9580,0.10,0.12,-0.98,3.11,0.98,3.97
10.9740,0.10,0.12,-0.98,3.11,0.98,4.03
10.9780,0.10,0.12,-0.98,3.23,1.10,3.97
10.9940,0.10,0.11,-0.98,3.05,1.10,3.78
11.0160,0.10,0.12,-0.98,3.23,0.98,3.78
11.0320,0.10,0.12,-0.98,3.23,0.92,4.15
11.0490,0.10,0.12,-0.98,3.36,1.04,4.46
11.0640,0.10,0.12,-0.98,3.17,0.98,4.27
11.0800,0.10,0.11,-0.98,3.23,1.16,3.97
11.0820,0.10,0.11,-0.98,3.17,1.53,3.48
11.0980,0.10,0.11,-0.98,3.05,1.40,2.62
11.1250,0.10,0.12,-0.98,3.23,1.65,1.89
11.1360,0.10,0.13,-0.98,3.17,1.46,1.95
11.1530,0.10,0.12,-0.98,3.60,1.34,2.50
11.1690,0.10,0.12,-0.98,3.48,1.22,2.75
11.1850,0.10,0.12,-0.98,3.17,1.22,2.50
11.2030,0.10,0.13,-0.98,2.62,1.10,2.50
11.2180,0.10,0.11,-0.98,2.75,1.04,3.05
11.2330,0.10,0.11,-0.98,2.99,1.53,2.62
11.2500,0.10,0.12,-0.98,3.42,1.10,2.62
11.2520,0.10,0.12,-0.98,3.48,1.34,3.36
11.2680,0.10,0.12,-0.98,3.23,1.04,3.78
11.2960,0.10,0.12,-0.98,3.23,1.28,3.97
11.3090,0.10,0.12,-0.98,2.99,1.10,4.09
11.3240,0.10,0.11,-0.98,3.23,0.61,4.03
11.3420,0.10,0.11,-0.98,2.99,0.98,3.36
11.3570,0.10,0.12,-0.98,3.30,1.10,3.05
11.3720,0.10,0.13,-0.98,3.17,0.85,3.60
11.3870,0.10,0.12,-0.98,3.11,1.10,4.64
11.3980,0.10,0.12,-0.98,2.87,1.34,4.94
11.4140,0.10,0.12,-0.98,2.99,0.67,5.00
11.4310,0.10,0.12,-0.98,3.05,0.92,4.33
11.4470,0.10,0.11,-0.98,2.93,1.16,3.97
11.4620,0.10,0.11,-0.98,2.87,0.79,3.42
11.4770,0.10,0.11,-0.98,3.17,1.16,2.44
11.4920,0.10,0.12,-0.98,3.42,1.28,1.89
11.5070,0.10,0.12,-0.98,3.36,1.34,2.01
11.5210,0.10,0.12,-0.98,3.05,1.16,2.26
11.5380,0.10,0.12,-0.98,3.30,1.46,2.08
11.5530,0.10,0.11,-0.98,3.36,1.46,2.26
11.5650,0.10,0.12,-0.98,3.48,1.77,1.77
11.5820,0.10,0.12,-0.98,3.36,1.40,1.77
11.5970,0.10,0.12,-0.98,3.42,0.92,1.77
11.6140,0.10,0.12,-0.98,3.42,1.28,1.71
11.6310,0.10,0.12,-0.98,3.54,1.46,1.71
11.6460,0.10,0.12,-0.98,3.72,1.16,1.83
11.6620,0.10,0.12,-0.98,3.66,1.40,1.77
11.6790,0.10,0.12,-0.98,3.48,1.40,1.83
11.6940,0.10,0.12,-0.98,3.42,0.98,1.59
11.7090,0.10,0.12,-0.98,3.54,1.40,1.83
11.7250,0.10,0.12,-0.98,3.60,1.10,1.89
11.7320,0.10,0.12,-0.98,3.60,1.22,1.77
11.7470,0.10,0.12,-0.98,3.72,1.22,1.71
11.7690,0.10,0.12,-0.98,3.85,1.46,1.77
11.7860,0.10,0.12,-0.98,3.78,0.98,1.65
11.8020,0.10,0.12,-0.98,3.91,1.10,1.77
11.8190,0.10,0.12,-0.98,3.91,1.04,1.71
11.8350,0.10,0.12,-0.98,4.03,1.16,1.83
11.8500,0.10,0.12,-0.98,3.85,1.65,1.65
11.8650,0.10,0.12,-0.98,3.66,1.53,1.77
11.8700,0.10,0.12,-0.98,3.30,1.77,1.71
11.8850,0.10,0.12,-0.98,3.60,1.46,1.65
11.9080,0.10,0.12,-0.97,3.72,1.77,1.71
11.9250,0.10,0.12,-0.98,3.60,1.53,1.77
11.9390,0.10,0.12,-0.98,3.72,1.89,1.77
11.9550,0.10,0.12,-0.98,3.85,1.65,1.71
11.9710,0.10,0.12,-0.98,3.66,1.53,1.71
11.9740,0.10,0.12,-0.98,3.30,1.40,1.71
11.9900,0.10,0.12,-0.98,3.23,1.46,1.59
12.0170,0.10,0.12,-0.98,3.42,1.46,1.77
12.0290,0.10,0.12,-0.98,3.60,1.46,1.77
12.0450,0.10,0.12,-0.98,3.60,1.59,1.77
12.0620,0.10,0.12,-0.98,3.60,1.53,1.89
12.0790,0.10,0.12,-0.98,3.23,1.59,1.71
12.0940,0.10,0.12,-0.98,3.48,1.40,1.77
12.1090,0.10,0.12,-0.98,3.60,1.53,1.77
12.1250,0.10,0.12,-0.98,3.36,1.28,1.83
12.1410,0.10,0.12,-0.98,3.36,1.53,1.95
12.1480,0.10,0.12,-0.98,3.60,1.10,1.77
12.1620,0.10,0.12,-0.98,3.42,1.04,1.83
12.1860,0.10,0.12,-0.98,3.36,1.40,1.89
12.2010,0.10,0.12,-0.98,3.23,1.59,2.08
12.2020,0.10,0.12,-0.98,3.23,1.71,2.20
12.2180,0.10,0.12,-0.98,3.17,1.59,1.89
12.2480,0.10,0.12,-0.98,3.36,1.34,1.71
12.2650,0.10,0.12,-0.98,3.23,1.83,1.71
12.2800,0.10,0.12,-0.98,3.36,1.16,1.59
12.2840,0.10,0.12,-0.98,3.17,1.46,1.77
12.3000,0.10,0.12,-0.98,3.54,1.22,1.65
12.3210,0.10,0.12,-0.98,3.17,1.40,1.83
12.3380,0.10,0.12,-0.98,3.23,1.40,2.14
12.3550,0.10,0.12,-0.98,3.30,1.40,2.08
12.3710,0.10,0.12,-0.98,3.11,1.22,2.69
12.3880,0.10,0.12,-0.98,3.23,1.40,3.36
12.4040,0.10,0.12,-0.98,3.05,1.53,3.42
12.4210,0.10,0.12,-0.98,2.99,1.40,2.87
12.4360,0.10,0.12,-0.98,2.99,1.22,2.32
12.4530,0.10,0.12,-0.98,2.93,1.34,2.32
12.4690,0.11,0.12,-0.98,2.99,1.59,2.14
12.4830,0.10,0.12,-0.98,2.93,1.22,2.08
12.4880,0.10,0.12,-0.98,3.17,1.22,1.95
12.5030,0.10,0.12,-0.98,2.81,1.10,1.59
12.5250,0.10,0.12,-0.98,2.81,1.16,1.53
12.5410,0.10,0.12,-0.98,2.99,1.10,1.34
12.5570,0.09,0.12,-0.98,3.30,1.10,1.22
12.5750,0.10,0.12,-0.98,3.30,1.59,1.16
12.5900,0.10,0.12,-0.98,2.99,1.59,1.16
12.6050,0.10,0.12,-0.98,2.75,1.65,1.16
12.6210,0.10,0.12,-0.98,3.11,1.10,0.92
12.6370,0.10,0.12,-0.98,3.36,1.65,0.98
12.6520,0.10,0.12,-0.98,3.05,1.46,1.04
12.6670,0.11,0.12,-0.98,3.11,1.53,0.92
12.6750,0.10,0.12,-0.98,3.36,1.22,0.98
12.6910,0.10,0.12,-0.98,3.05,1.34,1.04
12.7140,0.09,0.12,-0.98,2.93,1.40,1.04
12.7290,0.10,0.12,-0.98,3.05,0.98,1.04
12.7450,0.10,0.12,-0.98,2.93,1.10,0.85
12.7600,0.10,0.12,-0.98,2.81,1.40,1.04
12.7750,0.10,0.12,-0.98,3.11,1.40,1.40
12.7910,0.10,0.12,-0.98,3.05,1.65,1.83
12.7970,0.10,0.12,-0.98,3.05,1.34,2.08
12.8120,0.10,0.12,-0.98,3.17,1.04,1.89
12.8340,0.10,0.12,-0.98,2.93,1.04,1.83
12.8510,0.10,0.12,-0.98,2.75,1.77,1.95
12.8660,0.09,0.12,-0.98,3.23,1.34,1.71
12.8820,0.10,0.12,-0.98,3.11,1.46,1.95
12.8970,0.09,0.12,-0.98,3.11,1.40,2.01
12.9000,0.09,0.12,-0.98,3.23,1.89,2.08
12.9160,0.10,0.12,-0.98,3.23,1.22,1.95
12.9380,0.10,0.12,-0.98,2.93,1.40,2.01
12.9550,0.10,0.12,-0.98,2.87,0.98,1.95
12.9710,0.10,0.12,-0.98,2.93,1.71,1.77
12.9880,0.10,0.12,-0.98,3.05,1.22,2.01
13.0050,0.10,0.12,-0.98,3.17,1.34,2.08
13.0200,0.09,0.12,-0.98,2.99,1.28,1.89
13.0360,0.10,0.12,-0.98,2.62,1.34,1.53
13.0500,0.10,0.11,-0.98,2.99,1.28,1.40
13.0540,0.10,0.11,-0.98,3.05,1.28,1.46
13.0820,0.10,0.12,-0.98,3.17,1.53,1.46
13.0980,0.11,0.12,-0.98,3.11,1.59,1.77
13.1090,0.10,0.12,-0.98,3.23,1.16,1.77
13.1270,0.10,0.12,-0.98,3.36,1.34,2.01
13.1420,0.09,0.11,-0.98,3.17,1.10,1.65
13.1600,0.10,0.12,-0.98,3.05,1.40,1.59
13.1750,0.10,0.12,-0.98,3.17,1.28,1.59
13.1900,0.10,0.12,-0.98,3.17,1.77,1.77
13.2050,0.10,0.12,-0.98,3.30,1.53,1.65
13.2210,0.10,0.12,-0.98,3.60,1.59,1.95
13.2310,0.10,0.12,-0.98,3.54,1.46,1.89
13.2500,0.10,0.12,-0.98,3.36,1.53,1.71
13.2640,0.10,0.12,-0.98,3.36,1.34,1.46
13.2810,0.10,0.12,-0.98,3.30,1.34,1.59
13.2970,0.10,0.11,-0.98,3.30,1.16,1.53
13.3130,0.10,0.12,-0.98,3.42,1.59,1.46
13.3290,0.11,0.12,-0.98,3.17,1.89,1.40
13.3440,0.11,0.12,-0.98,3.42,1.89,1.22
13.3500,0.10,0.12,-0.98,3.05,1.28,1.16
13.3630,0.09,0.12,-0.98,3.17,1.28,1.28
13.3850,0.10,0.12,-0.98,3.17,1.28,1.53
13.4020,0.10,0.12,-0.98,3.54,1.34,1.28
13.4190,0.10,0.11,-0.98,3.42,1.53,1.59
13.4350,0.11,0.12,-0.98,3.23,1.40,1.71
13.4510,0.10,0.12,-0.98,3.48,1.46,1.53
13.4680,0.10,0.12,-0.98,3.48,1.40,1.71
13.4690,0.10,0.12,-0.98,3.11,1.22,1.95
13.4990,0.10,0.12,-0.98,3.17,1.46,2.08
13.5150,0.10,0.12,-0.98,3.36,1.89,2.08
13.5190,0.10,0.12,-0.98,3.23,1.34,1.89
13.5340,0.11,0.12,-0.98,3.23,1.71,1.77
13.5620,0.09,0.12,-0.98,2.87,1.16,1.53
13.5730,0.09,0.12,-0.98,2.93,1.46,1.46
13.5900,0.09,0.12,-0.98,3.11,1.71,1.65
13.6080,0.10,0.12,-0.98,3.05,1.28,1.53
13.6230,0.10,0.11,-0.98,3.17,1.65,1.65
13.6390,0.10,0.12,-0.98,3.30,1.65,1.53
13.6530,0.10,0.12,-0.98,3.36,1.40,1.53
13.6700,0.10,0.12,-0.98,3.48,1.28,1.40
13.6860,0.10,0.12,-0.98,3.54,1.46,1.53
13.7020,0.10,0.12,-0.98,3.42,1.28,1.34
13.7170,0.10,0.12,-0.98,3.17,1.53,1.22
13.7330,0.10,0.12,-0.98,3.30,1.28,1.22
13.7480,0.11,0.12,-0.98,3.17,1.46,1.22
13.7630,0.10,0.12,-0.98,3.23,1.53,1.10
13.7730,0.10,0.11,-0.98,3.48,1.59,1.16
13.7900,0.09,0.12,-0.98,3.42,1.40,1.22
13.8070,0.10,0.12,-0.98,3.36,1.46,1.22
13.8230,0.10,0.12,-0.98,3.36,1.95,1.28
13.8390,0.10,0.12,-0.98,3.60,1.28,1.28
13.8540,0.10,0.12,-0.98,3.30,1.10,1.40
13.8690,0.10,0.12,-0.98,3.36,1.28,1.34
13.8840,0.10,0.12,-0.98,3.42,1.40,1.16
13.8990,0.09,0.12,-0.98,3.78,1.40,0.98
13.9070,0.11,0.12,-0.98,3.72,1.59,0.85
13.9220,0.10,0.12,-0.98,3.66,1.65,1.28
13.9450,0.10,0.11,-0.98,3.72,1.65,1.46
13.9610,0.10,0.12,-0.98,3.66,1.53,1.59
13.9770,0.10,0.12,-0.98,3.42,1.53,1.71
13.9920,0.10,0.12,-0.98,3.30,1.34,1.22
14.0080,0.10,0.11,-0.98,3.42,1.53,0.98
14.0230,0.11,0.11,-0.98,3.66,1.53,0.98
14.0280,0.10,0.11,-0.98,3.60,1.53,0.98
14.0500,0.10,0.12,-0.98,3.48,1.59,1.16
14.0660,0.10,0.12,-0.98,3.66,1.40,1.22
14.0830,0.10,0.12,-0.98,3.60,1.53,1.28
14.0990,0.10,0.12,-0.98,3.54,1.40,1.28
14.1140,0.10,0.12,-0.98,3.54,1.22,1.40
14.1300,0.10,0.12,-0.98,3.54,1.46,1.46
14.1460,0.10,0.11,-0.98,3.42,1.22,1.53
14.1500,0.10,0.12,-0.98,3.66,1.28,1.53
14.1650,0.10,0.12,-0.98,3.60,1.59,1.40
14.1870,0.10,0.12,-0.98,3.17,1.40,1.28
14.2030,0.10,0.12,-0.98,3.30,1.34,1.34
14.2210,0.10,0.12,-0.98,3.54,1.34,1.22
14.2360,0.10,0.12,-0.98,3.60,1.59,1.10
14.2530,0.10,0.12,-0.98,3.42,1.46,1.04
14.2680,0.10,0.12,-0.98,3.54,1.89,1.16
14.2830,0.09,0.12,-0.98,3.66,1.59,1.22
14.2980,0.10,0.12,-0.98,3.72,1.46,1.22
14.3130,0.10,0.12,-0.98,3.72,1.16,1.22
14.3290,0.09,0.12,-0.98,3.30,1.46,1.34
14.3440,0.10,0.12,-0.98,3.48,1.40,1.77
14.3590,0.10,0.12,-0.98,3.42,1.65,1.77
14.3700,0.10,0.12,-0.98,3.11,1.65,1.46
14.3860,0.09,0.12,-0.98,3.54,1.46,1.46
14.4040,0.10,0.12,-0.98,3.54,1.28,1.40
14.4200,0.10,0.12,-0.98,3.54,1.16,1.16
14.4370,0.10,0.12,-0.98,3.54,1.46,1.10
14.4530,0.11,0.12,-0.98,3.66,1.46,0.98
14.4680,0.09,0.12,-0.98,3.60,1.65,0.98
14.4770,0.09,0.12,-0.98,3.60,1.83,0.85
14.4980,0.10,0.12,-0.98,3.66,1.95,0.73
14.5100,0.10,0.12,-0.98,3.72,1.65,0.73
14.5260,0.10,0.12,-0.98,3.78,1.83,0.85
14.5430,0.10,0.12,-0.98,3.60,1.65,0.73
14.5590,0.10,0.12,-0.98,3.60,1.59,0.55
14.5740,0.11,0.12,-0.98,3.66,1.83,0.24
14.5900,0.10,0.12,-0.98,3.85,1.53,-0.06
14.6040,0.09,0.12,-0.98,3.66,2.08,0.06
14.6220,0.10,0.12,-0.98,3.78,1.83,0.37
14.6380,0.09,0.12,-0.98,3.66,1.59,0.67
14.6530,0.10,0.12,-0.98,3.66,1.46,0.61
14.6690,0.10,0.12,-0.98,3.48,1.40,0.18
14.6850,0.10,0.12,-0.98,2.99,2.08,0.31
14.6930,0.10,0.12,-0.98,3.36,1.53,0.67
14.7090,0.10,0.11,-0.98,3.78,1.46,0.49
14.7310,0.10,0.12,-0.98,3.60,1.46,0.43
14.7460,0.10,0.12,-0.98,3.66,1.65,0.43
14.7610,0.10,0.12,-0.98,3.91,1.53,0.24
14.7760,0.10,0.12,-0.98,3.60,2.01,-0.12
14.7910,0.10,0.12,-0.98,3.54,1.53,0.06
14.8060,0.10,0.12,-0.98,3.60,2.14,0.31
14.8200,0.11,0.12,-0.98,3.66,1.65,0.43
14.8310,0.10,0.12,-0.98,3.60,1.53,0.37
14.8520,0.10,0.12,-0.98,3.54,1.40,0.61
14.8680,0.10,0.12,-0.98,3.54,1.71,0.61
14.8700,0.10,0.12,-0.98,3.54,1.40,0.61
14.8990,0.10,0.12,-0.98,3.48,1.40,0.73
14.9030,0.11,0.12,-0.98,3.60,1.59,1.10
14.9190,0.09,0.12,-0.98,3.54,1.10,1.46
14.9440,0.09,0.12,-0.98,3.42,1.34,1.77
14.9600,0.09,0.12,-0.98,3.48,1.65,1.34
14.9750,0.10,0.12,-0.98,3.85,1.22,1.22
14.9900,0.10,0.12,-0.98,3.60,1.28,0.98
15.0050,0.10,0.12,-0.98,3.72,1.59,1.16
15.0200,0.09,0.12,-0.98,3.54,1.71,1.34
15.0350,0.09,0.12,-0.98,3.66,1.22,1.46
15.0500,0.09,0.12,-0.98,3.48,1.59,1.46
15.0660,0.10,0.12,-0.98,3.48,1.59,1.46
15.0810,0.10,0.12,-0.98,3.48,1.28,1.34
15.0930,0.10,0.12,-0.98,3.60,1.53,1.46
15.1100,0.10,0.12,-0.98,3.60,1.40,1.77
15.1260,0.10,0.12,-0.98,3.54,1.34,1.34
15.1410,0.10,0.12,-0.98,3.60,1.34,1.34
15.1560,0.10,0.12,-0.98,3.36,1.10,1.34
15.1710,0.11,0.12,-0.98,3.30,1.59,1.28
15.1860,0.10,0.12,-0.98,3.48,1.34,0.85
15.2010,0.11,0.12,-0.98,3.36,1.53,0.92
15.2110,0.10,0.12,-0.98,3.42,1.34,0.98
15.2300,0.10,0.12,-0.98,3.17,1.77,1.22
15.2470,0.10,0.12,-0.98,3.36,1.59,1.04
15.2640,0.10,0.12,-0.98,3.23,1.40,0.79
15.2790,0.10,0.12,-0.98,3.30,1.59,0.92
15.2820,0.09,0.12,-0.98,3.42,1.34,1.04
15.3090,0.09,0.13,-0.98,3.36,1.16,1.34
15.3240,0.09,0.12,-0.98,3.17,1.46,1.22
15.3390,0.10,0.12,-0.98,2.99,1.53,1.22
15.3540,0.10,0.12,-0.98,3.42,1.53,1.46
15.3700,0.11,0.12,-0.98,3.42,1.28,1.28
15.3810,0.11,0.12,-0.98,3.54,1.04,1.34
15.3990,0.10,0.12,-0.98,3.36,1.34,1.22
15.4140,0.10,0.12,-0.98,3.17,1.16,1.04
15.4300,0.10,0.12,-0.98,3.05,1.46,1.28
15.4450,0.10,0.12,-0.98,3.17,1.34,1.10
15.4600,0.10,0.12,-0.98,3.23,1.53,1.16
15.4740,0.10,0.12,-0.98,3.30,1.46,1.16
15.4810,0.10,0.12,-0.98,2.99,1.53,1.22
15.4970,0.10,0.12,-0.98,3.54,1.10,1.34
15.5130,0.10,0.12,-0.98,3.60,1.22,1.16
15.5350,0.10,0.12,-0.98,3.36,1.16,1.34
15.5500,0.09,0.12,-0.98,3.54,1.40,1.46
15.5530,0.10,0.12,-0.98,3.42,1.34,1.22
15.5690,0.10,0.12,-0.98,3.30,1.59,1.22
15.5900,0.10,0.12,-0.98,3.23,1.34,0.73
15.6070,0.11,0.12,-0.98,3.23,1.34,0.79
15.6240,0.10,0.12,-0.98,3.11,1.89,0.85
15.6390,0.10,0.12,-0.98,3.42,1.40,0.61
15.6580,0.10,0.12,-0.98,3.54,1.34,0.79
15.6620,0.10,0.12,-0.98,3.54,1.95,1.04
15.6790,0.10,0.12,-0.98,3.36,1.83,1.04
15.6950,0.10,0.12,-0.98,3.36,1.77,1.22
15.7160,0.09,0.12,-0.98,3.17,1.59,0.92
15.7320,0.11,0.12,-0.98,3.23,1.65,1.16
15.7480,0.10,0.12,-0.98,2.99,1.65,1.46
15.7650,0.10,0.12,-0.98,3.36,1.53,1.53
15.7810,0.09,0.12,-0.98,3.36,1.59,1.59
15.7970,0.10,0.12,-0.98,3.42,1.46,1.46
15.8140,0.10,0.12,-0.98,3.30,1.34,1.22
15.8290,0.11,0.12,-0.98,3.30,1.34,1.28
15.8440,0.10,0.12,-0.98,3.36,1.71,1.16
15.8590,0.10,0.12,-0.98,3.54,1.40,1.16
15.8760,0.10,0.12,-0.98,3.36,1.59,1.16
15.8820,0.10,0.12,-0.98,3.54,1.46,1.22
15.8970,0.10,0.12,-0.98,3.48,1.40,1.16
15.9160,0.10,0.12,-0.98,3.66,1.16,1.10
15.9320,0.11,0.12,-0.98,3.72,1.59,1.10
15.9490,0.10,0.12,-0.98,3.36,1.04,1.04
15.9650,0.09,0.12,-0.98,3.30,1.34,1.16
15.9810,0.09,0.12,-0.98,3.48,1.22,1.40
15.9970,0.10,0.12,-0.98,3.48,1.34,1.34
16.0140,0.10,0.12,-0.98,3.36,1.40,1.59
16.0290,0.10,0.12,-0.98,3.54,1.22,1.53
16.0450,0.10,0.12,-0.98,3.48,0.92,1.28
16.0600,0.11,0.12,-0.98,3.36,1.10,1.40
16.0750,0.10,0.12,-0.98,3.17,1.53,1.40
16.0900,0.10,0.12,-0.98,3.23,1.59,1.40
16.1050,0.10,0.12,-0.98,3.30,1.95,1.65
16.1160,0.10,0.12,-0.98,3.36,1.53,1.53
16.1320,0.10,0.12,-0.98,3.48,1.28,1.46
16.1480,0.11,0.12,-0.98,3.54,1.53,1.28
16.1660,0.10,0.12,-0.98,3.42,1.16,1.22
16.1810,0.10,0.12,-0.98,3.11,1.53,1.16
16.1880,0.10,0.12,-0.98,3.30,1.59,1.59
16.2030,0.10,0.12,-0.98,3.36,1.04,1.53
16.2230,0.09,0.12,-0.98,3.42,1.40,1.71
16.2390,0.10,0.12,-0.98,3.17,1.83,1.46
16.2560,0.10,0.12,-0.98,3.42,1.46,1.34
16.2570,0.10,0.12,-0.98,3.42,1.65,1.40
16.2870,0.10,0.12,-0.98,3.66,1.46,1.40
16.3020,0.10,0.12,-0.98,3.36,1.34,1.22
16.3170,0.09,0.12,-0.98,3.30,1.53,1.34
16.3230,0.09,0.12,-0.98,3.11,1.59,1.34
16.3400,0.10,0.12,-0.98,3.42,1.40,1.28
16.3550,0.11,0.12,-0.98,3.60,1.34,1.46
16.3740,0.10,0.12,-0.98,3.48,1.59,1.46
16.3920,0.10,0.12,-0.98,3.60,1.22,1.65
16.4080,0.11,0.12,-0.98,3.60,1.46,1.28
16.4230,0.11,0.12,-0.98,3.48,1.34,1.16
16.4390,0.09,0.13,-0.98,3.42,1.83,1.28
16.4550,0.09,0.16,-0.98,3.30,1.53,1.28
16.4710,0.09,0.12,-0.98,3.36,1.46,1.04
16.4850,0.10,0.12,-0.98,3.23,1.46,1.04
16.5010,0.11,0.12,-0.98,3.30,1.40,0.98
16.5080,0.09,0.12,-0.98,3.54,1.59,1.22
16.5240,0.10,0.12,-0.98,3.48,1.46,1.53
16.5440,0.10,0.12,-0.98,3.30,1.16,1.34
16.5600,0.10,0.12,-0.98,3.30,1.46,1.34
16.5780,0.10,0.12,-0.98,3.23,1.53,1.28
16.5930,0.10,0.12,-0.98,3.48,1.77,1.34
16.6090,0.10,0.12,-0.98,3.30,1.71,1.34
16.6240,0.09,0.12,-0.98,3.48,1.34,1.16
16.6390,0.09,0.12,-0.98,3.23,1.71,1.16
16.6530,0.10,0.12,-0.98,3.11,1.40,1.16
16.6600,0.10,0.12,-0.98,2.99,2.32,1.04
16.6810,0.10,0.12,-0.98,3.48,1.95,1.22
16.6980,0.10,0.12,-0.98,3.42,1.89,1.10
16.7160,0.10,0.12,-0.98,3.48,1.34,0.98
16.7320,0.10,0.12,-0.98,3.48,1.46,0.79
16.7480,0.10,0.12,-0.98,3.30,1.53,0.98
16.7650,0.10,0.12,-0.98,3.42,1.40,1.04
16.7810,0.10,0.12,-0.98,3.48,1.40,1.16
16.7970,0.10,0.12,-0.98,3.60,1.16,1.04
16.8130,0.11,0.12,-0.98,3.48,1.46,0.79
16.8290,0.10,0.12,-0.98,3.42,1.89,0.24
16.8450,0.10,0.12,-0.98,3.54,1.89,0.55
16.8530,0.10,0.12,-0.98,3.36,1.71,0.55
16.8640,0.10,0.12,-0.98,3.42,1.77,0.61
16.8920,0.10,0.12,-0.98,3.54,1.59,0.85
16.9030,0.10,0.12,-0.98,3.48,1.89,0.98
16.9200,0.10,0.12,-0.98,3.48,1.34,1.10
16.9350,0.09,0.12,-0.98,3.36,1.65,1.46
16.9520,0.10,0.12,-0.98,3.23,1.53,1.59
16.9680,0.10,0.12,-0.98,3.17,2.08,1.53
16.9830,0.10,0.12,-0.98,3.17,1.40,1.59
17.0000,0.10,0.12,-0.98,3.48,1.34,1.59
17.0150,0.10,0.12,-0.98,3.23,1.40,1.71
17.0300,0.10,0.12,-0.98,3.23,1.46,1.53
17.0410,0.10,0.12,-0.98,3.36,1.46,1.59
17.0570,0.10,0.12,-0.98,3.30,1.71,1.71
17.0730,0.10,0.12,-0.98,3.30,1.89,1.89
17.0920,0.10,0.12,-0.98,3.36,1.40,1.59
17.1070,0.10,0.12,-0.98,3.48,2.14,1.59
17.1120,0.10,0.12,-0.98,3.72,1.59,1.34
17.1280,0.10,0.12,-0.98,3.60,1.65,1.34
17.1520,0.10,0.12,-0.98,3.42,1.53,1.34
17.1530,0.11,0.12,-0.98,3.42,1.22,1.22
17.1700,0.10,0.12,-0.98,3.36,1.77,1.04
17.1860,0.09,0.12,-0.98,3.48,1.71,0.98
17.2030,0.10,0.12,-0.98,3.42,1.40,1.22
17.2260,0.10,0.12,-0.98,3.36,1.40,1.10
17.2410,0.10,0.12,-0.98,3.30,1.89,1.34
17.2530,0.10,0.12,-0.98,3.30,1.53,1.65
17.2690,0.10,0.12,-0.98,3.48,1.34,1.71
17.2850,0.10,0.12,-0.98,3.36,1.40,1.65
17.3020,0.10,0.12,-0.98,3.42,1.40,1.65
17.3170,0.10,0.12,-0.98,3.48,1.59,1.65
17.3320,0.11,0.12,-0.98,3.60,1.53,1.77
17.3350,0.09,0.13,-0.97,3.91,1.53,1.65
17.3530,0.11,0.12,-0.98,3.78,1.28,1.53
17.3730,0.09,0.12,-0.98,3.78,1.28,1.65
17.3900,0.10,0.12,-0.98,3.78,1.77,1.77
17.4060,0.10,0.12,-0.98,3.36,1.59,1.59
17.4230,0.10,0.12,-0.98,3.36,1.89,1.83
17.4390,0.10,0.12,-0.98,3.17,1.65,1.65
17.4540,0.10,0.12,-0.98,3.11,1.89,1.59
17.4700,0.10,0.12,-0.98,2.93,2.01,1.71
17.4860,0.10,0.12,-0.98,2.93,1.89,1.71
17.5010,0.10,0.13,-0.97,3.23,1.89,1.65
17.5160,0.10,0.12,-0.98,3.54,1.95,1.83
17.5300,0.10,0.12,-0.98,3.11,1.77,1.71
17.5400,0.10,0.12,-0.98,3.36,1.83,1.71
17.5550,0.10,0.12,-0.98,3.05,1.40,1.53
17.5770,0.10,0.12,-0.98,2.87,1.77,1.77
17.5920,0.10,0.12,-0.98,2.93,1.46,1.53
17.6070,0.10,0.12,-0.98,3.05,1.77,1.59
17.6140,0.10,0.12,-0.98,3.23,1.53,1.65
17.6300,0.10,0.12,-0.98,3.42,1.53,1.46
17.6540,0.10,0.12,-0.98,3.30,1.71,1.53
17.6690,0.10,0.12,-0.98,3.11,1.71,1.59
17.6830,0.10,0.12,-0.98,2.75,1.65,1.65
17.6980,0.10,0.12,-0.98,3.05,1.53,1.59
17.7140,0.10,0.12,-0.98,3.11,0.98,1.34
17.7290,0.10,0.12,-0.98,3.23,1.53,0.98
17.7430,0.10,0.12,-0.98,3.11,1.65,1.46
17.7540,0.10,0.12,-0.98,2.93,1.40,1.71
17.7720,0.10,0.12,-0.98,3.05,1.59,1.65
17.7870,0.10,0.12,-0.98,3.36,1.53,1.77
17.8040,0.10,0.12,-0.98,3.11,1.65,1.71
17.8190,0.10,0.12,-0.98,3.11,1.77,1.71
17.8340,0.10,0.12,-0.98,3.30,1.34,1.71
17.8490,0.10,0.12,-0.98,3.11,1.59,1.53
17.8540,0.10,0.12,-0.98,3.30,1.89,1.65
17.8690,0.10,0.12,-0.98,3.30,1.59,1.65
17.8940,0.10,0.12,-0.98,3.30,1.34,1.65
17.9100,0.10,0.12,-0.98,3.23,1.71,1.83
17.9250,0.10,0.12,-0.98,3.36,1.34,1.59
17.9400,0.10,0.12,-0.98,3.48,1.22,1.71
17.9550,0.10,0.12,-0.98,3.48,1.59,1.77
17.9700,0.10,0.12,-0.98,3.23,1.22,1.65
17.9860,0.10,0.12,-0.98,3.23,1.10,1.59
18.0010,0.10,0.12,-0.98,3.60,1.22,1.77
18.0100,0.10,0.12,-0.98,3.60,1.22,1.71
18.0260,0.10,0.12,-0.98,3.60,1.40,1.53
18.0460,0.10,0.12,-0.98,3.48,0.85,1.40
18.0610,0.10,0.12,-0.98,3.48,1.34,1.71
18.0770,0.10,0.12,-0.98,3.36,1.16,1.59
18.0920,0.10,0.12,-0.98,3.23,1.59,1.59
18.1070,0.10,0.12,-0.98,3.48,1.22,1.65
18.1220,0.10,0.12,-0.98,3.42,1.28,1.71
18.1310,0.10,0.12,-0.98,3.42,1.16,1.77
18.1470,0.10,0.12,-0.98,3.48,1.34,1.65
18.1680,0.10,0.12,-0.98,3.11,1.65,1.53
18.1830,0.10,0.12,-0.98,3.23,1.77,1.65
18.2000,0.10,0.12,-0.98,3.17,1.22,1.71
18.2150,0.10,0.12,-0.98,3.30,1.34,1.65
18.2300,0.10,0.12,-0.98,3.42,1.59,1.71
18.2360,0.10,0.12,-0.98,3.54,1.46,1.65
18.2540,0.10,0.12,-0.98,3.54,1.22,1.83
18.2740,0.09,0.11,-0.97,3.54,1.16,1.83
18.2890,0.10,0.12,-0.98,3.36,0.98,1.65
18.3070,0.10,0.12,-0.98,3.17,1.71,1.65
18.3230,0.10,0.12,-0.98,3.60,1.34,1.77
18.3380,0.10,0.12,-0.98,3.66,1.59,1.71
18.3540,0.10,0.12,-0.98,3.60,1.28,1.65
18.3700,0.10,0.12,-0.98,3.66,0.79,1.77
18.3870,0.10,0.12,-0.98,4.03,0.79,1.71
18.4030,0.10,0.12,-0.98,4.09,1.04,1.71
18.4180,0.10,0.12,-0.98,3.97,1.04,1.77
18.4330,0.10,0.13,-0.98,3.97,0.98,1.77
18.4480,0.10,0.12,-0.98,3.60,1.40,1.53
18.4570,0.10,0.12,-0.98,3.23,1.71,1.71
18.4720,0.10,0.12,-0.98,2.81,2.20,1.65
18.4900,0.10,0.12,-0.98,2.69,1.59,1.65
18.5050,0.10,0.12,-0.98,2.44,2.20,1.53
18.5240,0.09,0.12,-0.96,2.62,2.38,1.77
18.5390,0.10,0.13,-0.99,2.32,2.32,1.71
18.5560,0.09,0.12,-0.98,2.26,1.71,1.83
18.5720,0.11,0.13,-0.97,2.44,1.71,1.77
18.5740,0.11,0.12,-0.98,3.11,1.59,1.53
18.6030,0.09,0.12,-0.98,3.42,1.95,1.71
18.6190,0.10,0.12,-0.98,2.81,1.77,1.77
18.6350,0.10,0.12,-0.98,2.81,1.53,1.89
18.6510,0.10,0.12,-0.98,2.93,1.59,1.77
18.6670,0.11,0.11,-0.97,3.97,1.46,1.34
18.6820,0.10,0.13,-0.98,4.03,1.77,1.53
18.6980,0.10,0.12,-0.98,2.99,1.40,1.53
18.7060,0.10,0.12,-0.98,3.11,1.59,1.71
18.7220,0.10,0.12,-0.98,3.48,1.28,1.59
18.7430,0.10,0.12,-0.98,3.30,1.34,1.53
18.7600,0.10,0.12,-0.98,3.17,1.46,1.53
18.7750,0.10,0.12,-0.98,3.11,1.46,1.71
18.7900,0.10,0.12,-0.98,3.30,1.34,1.53
18.8050,0.10,0.12,-0.98,3.30,1.34,1.53
18.8220,0.10,0.12,-0.98,3.23,1.71,1.77
18.8370,0.10,0.12,-0.98,3.48,1.71,1.65
18.8530,0.10,0.12,-0.98,3.54,1.16,1.83
18.8610,0.10,0.12,-0.98,3.60,1.16,1.77
18.8770,0.10,0.12,-0.98,3.23,1.53,1.71
18.8980,0.10,0.12,-0.98,3.23,1.22,1.71
18.9130,0.10,0.12,-0.98,3.48,1.28,1.53
18.9290,0.09,0.12,-0.98,3.23,1.83,0.79
18.9440,0.10,0.12,-0.98,3.42,1.46,-0.43
18.9600,0.10,0.13,-0.98,3.36,1.34,-0.18
18.9650,0.10,0.11,-0.98,3.48,1.40,0.37
18.9800,0.10,0.12,-0.98,3.66,1.71,-1.59
19.0020,0.10,0.12,-0.98,4.09,1.89,-1.59
19.0200,0.10,0.12,-0.98,3.85,1.46,-0.98
19.0360,0.10,0.12,-0.98,3.85,1.53,-1.04
19.0520,0.10,0.12,-0.98,3.54,1.77,-0.98
19.0670,0.10,0.12,-0.98,3.78,1.53,-0.37
19.0850,0.10,0.12,-0.98,3.72,1.89,-1.22
19.0860,0.10,0.09,-0.99,4.15,2.26,-1.83
19.1160,0.10,0.12,-0.98,4.03,2.44,-4.15
19.1310,0.10,0.13,-0.98,3.72,2.44,-2.75
19.1470,0.10,0.12,-0.98,3.42,1.77,-0.43
19.1630,0.10,0.11,-0.98,3.91,1.89,-2.26
19.1690,0.09,0.13,-0.98,3.60,1.89,-2.44
19.1840,0.10,0.12,-0.98,3.60,1.89,-0.49
19.2090,0.10,0.12,-0.98,3.36,1.77,-1.16
19.2250,0.11,0.14,-0.98,3.48,1.83,-0.79
19.2400,0.10,0.13,-0.98,3.72,1.65,0.18
19.2560,0.10,0.12,-0.98,3.30,1.59,0.67
19.2590,0.10,0.11,-0.98,3.42,1.40,0.55
19.2750,0.10,0.11,-0.98,3.66,1.65,-1.34
19.3020,0.10,0.12,-0.98,3.54,1.77,-0.12
19.3140,0.10,0.13,-0.98,3.36,1.53,0.98
19.3300,0.10,0.13,-0.98,3.23,1.46,1.10
19.3470,0.10,0.13,-0.98,3.23,1.59,0.61
19.3630,0.10,0.11,-0.98,3.30,1.95,0.55
19.3800,0.10,0.11,-0.98,3.60,1.53,-0.67
19.3970,0.10,0.12,-0.98,3.60,1.89,-0.73
19.4120,0.10,0.12,-0.98,3.54,1.65,0.49
19.4270,0.10,0.10,-0.99,3.66,1.65,-0.61
19.4420,0.10,0.14,-0.98,3.48,1.59,-0.61
19.4580,0.10,0.14,-0.97,3.42,1.53,1.40
19.4730,0.10,0.12,-0.98,3.60,1.65,1.53
19.4800,0.10,0.09,-0.98,3.60,1.53,-0.06
19.4980,0.10,0.11,-0.98,3.48,2.32,-2.87
19.5140,0.10,0.11,-0.98,3.91,2.26,-2.62
19.5300,0.10,0.15,-0.97,3.54,1.83,-1.46
19.5480,0.10,0.14,-0.97,3.48,1.53,-0.12
19.5640,0.10,0.12,-0.98,3.60,1.89,-0.61
19.5700,0.10,0.13,-0.98,3.54,1.83,0.18
19.5850,0.10,0.12,-0.98,3.60,1.95,0.49
19.6020,0.10,0.11,-0.98,3.60,1.71,-0.24
19.6190,0.10,0.12,-0.98,3.42,2.01,-0.67
19.6350,0.10,0.13,-0.98,3.60,1.65,-0.67
19.6530,0.10,0.13,-0.98,3.66,1.77,0.31
19.6690,0.10,0.11,-0.98,3.42,2.01,-0.55
19.6840,0.10,0.11,-0.98,3.48,2.01,-1.71
19.6980,0.10,0.11,-0.98,3.30,2.08,-1.59
19.7140,0.10,0.11,-0.98,3.54,2.01,-1.16
19.7290,0.10,0.11,-0.98,3.72,2.20,-1.59
19.7350,0.10,0.14,-0.98,3.42,2.01,-1.59
19.7540,0.10,0.14,-0.97,3.48,1.77,0.37
19.7700,0.10,0.12,-0.98,3.48,1.59,0.06
19.7870,0.10,0.11,-0.98,3.60,1.89,-1.10
19.8030,0.10,0.13,-0.98,3.30,1.89,-2.26
19.8210,0.10,0.11,-0.98,3.72,1.59,-0.49
19.8350,0.10,0.10,-0.98,3.66,2.62,-2.26
19.8510,0.10,0.13,-0.98,3.48,2.32,-2.01
19.8650,0.10,0.13,-0.98,3.85,1.77,-0.43
19.8760,0.10,0.11,-0.98,3.78,1.95,-0.12
19.8920,0.10,0.11,-0.98,3.30,2.32,-3.11
19.9100,0.10,0.12,-0.98,3.54,2.38,-3.11
19.9260,0.10,0.12,-0.98,3.17,2.38,-2.62
19.9400,0.10,0.13,-0.98,3.42,1.89,-1.53
19.9560,0.10,0.13,-0.98,3.66,2.32,-0.92
19.9700,0.10,0.12,-0.98,3.54,2.01,-1.65
19.9860,0.10,0.12,-0.98,3.42,2.01,-1.34
20.0010,0.10,0.12,-0.98,3.66,1.77,-1.28
20.0160,0.10,0.10,-0.99,3.85,1.71,-2.62
20.0260,0.09,0.13,-0.98,3.42,2.14,-3.23
20.0430,0.10,0.13,-0.98,3.42,1.95,-1.71
20.0600,0.10,0.13,-0.98,3.72,2.01,-1.53
20.0760,0.10,0.13,-0.98,3.66,1.95,-1.10
20.0910,0.10,0.11,-0.98,3.72,1.71,-1.53
20.1070,0.10,0.12,-0.98,3.48,2.14,-2.38
20.1090,0.10,0.13,-0.98,3.78,1.95,-0.92
20.1250,0.10,0.12,-0.98,3.48,1.71,-0.79
20.1530,0.09,0.10,-0.98,3.11,1.89,-2.32
20.1650,0.10,0.12,-0.98,3.42,2.14,-2.14
20.1810,0.10,0.13,-0.98,3.54,2.14,-2.08
20.1980,0.10,0.13,-0.98,3.54,2.01,-1.40
20.2140,0.10,0.13,-0.98,3.60,1.83,-1.22
20.2290,0.10,0.12,-0.98,3.42,1.40,-1.04
20.2370,0.10,0.11,-0.98,3.42,1.71,-0.67
20.2540,0.10,0.09,-0.98,3.78,1.89,-2.14
20.2700,0.10,0.11,-0.98,3.91,2.08,-3.36
20.2910,0.10,0.12,-0.98,4.03,2.56,-3.11
20.3070,0.10,0.12,-0.98,3.78,2.01,-2.93
20.3220,0.10,0.12,-0.98,3.66,2.32,-3.78
20.3370,0.10,0.13,-0.98,3.54,2.08,-3.36
20.3530,0.10,0.13,-0.98,3.78,1.89,-2.08
20.3590,0.10,0.13,-0.98,3.66,2.08,-2.14
20.3750,0.10,0.13,-0.98,3.66,2.01,-0.98
20.3970,0.10,0.12,-0.98,3.54,1.59,-0.55
20.4130,0.10,0.11,-0.98,3.54,1.89,-0.98
20.4300,0.10,0.13,-0.98,3.30,2.01,-1.40
20.4450,0.10,0.13,-0.98,3.72,1.77,0.18
20.4610,0.10,0.12,-0.98,3.54,1.77,0.00
20.4770,0.10,0.13,-0.98,3.42,1.77,0.06
20.4930,0.10,0.12,-0.98,3.60,1.34,0.61
20.5080,0.10,0.11,-0.98,3.54,1.59,0.55
20.5230,0.10,0.11,-0.98,3.42,1.89,-0.31
20.5390,0.10,0.12,-0.98,3.42,1.83,-1.53
20.5540,0.10,0.13,-0.98,3.36,1.40,0.06
20.5640,0.10,0.12,-0.98,3.42,2.01,0.18
20.5790,0.10,0.12,-0.98,3.42,1.83,0.18
20.6010,0.10,0.12,-0.98,3.60,1.65,-0.18
20.6160,0.10,0.12,-0.98,3.48,1.59,-0.06
20.6310,0.10,0.12,-0.98,3.36,1.71,0.43
20.6480,0.10,0.11,-0.98,3.42,1.46,0.79
20.6650,0.10,0.11,-0.98,3.48,1.59,0.24
20.6800,0.10,0.11,-0.98,3.48,1.59,-0.31
20.6850,0.10,0.12,-0.98,3.11,2.14,-1.40
20.7000,0.10,0.14,-0.97,3.42,1.71,-0.18
20.7260,0.10,0.13,-0.98,3.42,1.77,0.31
20.7290,0.10,0.12,-0.98,3.11,1.59,0.73
20.7550,0.10,0.11,-0.98,3.23,1.89,0.12
20.7700,0.10,0.12,-0.98,3.48,1.89,-0.85
20.7850,0.10,0.11,-0.98,3.72,2.01,-0.85
20.7960,0.10,0.12,-0.98,3.54,2.20,-0.98
20.8110,0.10,0.12,-0.98,3.48,2.08,-0.98
20.8280,0.10,0.13,-0.98,3.11,2.01,0.12
20.8450,0.10,0.12,-0.98,3.42,1.71,0.18
20.8550,0.10,0.11,-0.98,3.54,1.46,-0.49
20.8620,0.10,0.12,-0.98,3.42,2.14,-1.46
20.8940,0.10,0.13,-0.98,3.60,1.83,-0.98
20.8950,0.10,0.12,-0.98,3.66,1.77,-0.37
20.9110,0.09,0.11,-0.98,3.23,1.83,-0.37
20.9400,0.10,0.11,-0.98,2.87,1.83,-1.83
20.9550,0.10,0.11,-0.98,3.48,2.20,-2.75
20.9660,0.10,0.12,-0.98,3.48,2.14,-2.99
20.9820,0.10,0.14,-0.98,3.66,2.08,-1.40
20.9970,0.10,0.14,-0.98,3.30,1.46,-0.24
21.0080,0.10,0.12,-0.98,3.48,1.28,0.55
21.0260,0.10,0.12,-0.98,3.23,1.59,0.61
21.0420,0.10,0.11,-0.98,3.36,1.71,0.24
21.0580,0.10,0.12,-0.98,3.72,1.59,-0.24
21.0750,0.10,0.12,-0.98,3.72,1.59,0.49
21.0910,0.10,0.12,-0.98,3.42,1.77,0.55
21.0930,0.10,0.12,-0.98,3.42,1.46,0.85
21.1210,0.10,0.12,-0.98,3.54,1.53,1.16
21.1370,0.10,0.12,-0.98,3.78,1.65,1.34
21.1530,0.10,0.11,-0.98,3.60,1.71,1.22
21.1700,0.10,0.12,-0.98,3.78,1.59,0.43
21.1850,0.10,0.11,-0.98,3.85,1.71,0.06
21.1920,0.10,0.12,-0.98,3.72,1.46,-0.24
21.2080,0.10,0.12,-0.98,3.72,1.53,0.43
21.2290,0.10,0.12,-0.98,3.72,1.65,0.92
21.2470,0.10,0.12,-0.98,3.78,1.34,1.04
21.2620,0.10,0.12,-0.98,3.54,1.46,0.37
21.2650,0.10,0.12,-0.98,3.54,1.71,0.31
21.2940,0.10,0.11,-0.98,3.72,1.83,-0.18
21.3090,0.10,0.12,-0.98,3.72,1.77,-0.18
21.3240,0.10,0.13,-0.98,3.66,1.77,0.67
21.3400,0.10,0.13,-0.98,3.66,1.53,0.92
21.3540,0.10,0.12,-0.98,3.54,1.65,1.53
21.3630,0.10,0.11,-0.98,3.54,1.53,1.40
21.3790,0.10,0.12,-0.98,3.48,1.65,0.79
21.4010,0.10,0.12,-0.98,3.60,1.53,0.49
21.4040,0.10,0.12,-0.98,3.66,1.71,0.92
21.4200,0.10,0.12,-0.98,3.54,1.59,0.79
21.4480,0.10,0.12,-0.98,3.42,1.34,0.55
21.4560,0.10,0.12,-0.98,3.42,1.83,0.43
21.4690,0.10,0.12,-0.98,3.48,1.65,0.85
21.4880,0.10,0.12,-0.98,3.54,1.77,0.79
21.5050,0.10,0.12,-0.98,3.48,1.34,0.67
21.5210,0.10,0.12,-0.98,3.60,1.95,0.12
21.5380,0.10,0.12,-0.98,3.54,2.20,-0.55
21.5540,0.10,0.13,-0.98,3.48,1.83,-0.55
21.5560,0.10,0.11,-0.98,3.66,1.89,-0.18
21.5860,0.10,0.11,-0.98,3.60,1.89,-0.37
21.5890,0.10,0.12,-0.98,3.48,1.71,-0.24
21.6180,0.10,0.13,-0.98,3.42,1.77,0.06
21.6340,0.10,0.12,-0.98,3.60,1.40,0.49
21.6500,0.10,0.12,-0.98,3.42,1.83,0.49
21.6560,0.10,0.12,-0.98,3.36,1.59,0.61
21.6720,0.10,0.12,-0.98,3.60,1.83,0.00
21.6990,0.10,0.13,-0.98,3.54,2.08,0.00
21.7060,0.10,0.12,-0.98,3.78,1.46,0.85
21.7210,0.10,0.11,-0.98,3.48,1.65,0.24
21.7450,0.10,0.11,-0.98,3.48,2.01,-0.49
21.7610,0.10,0.11,-0.98,3.48,2.44,-0.85
21.7770,0.10,0.12,-0.98,3.42,1.83,-0.85
21.7930,0.10,0.12,-0.98,3.54,1.89,-0.79
21.8080,0.10,0.12,-0.98,3.30,2.14,-1.89
21.8110,0.10,0.12,-0.98,3.48,2.56,-1.77
21.8270,0.10,0.11,-0.98,3.66,1.65,-2.32
21.8520,0.10,0.12,-0.98,3.66,2.20,-2.50
21.8680,0.10,0.13,-0.98,3.85,1.95,-1.65
21.8850,0.10,0.13,-0.98,3.48,1.65,0.37
21.9010,0.10,0.12,-0.98,3.48,1.71,0.61
21.9170,0.10,0.10,-0.98,3.23,1.89,-0.55
21.9330,0.10,0.11,-0.98,3.48,1.53,-1.46
21.9490,0.10,0.12,-0.98,3.72,1.53,-1.16
21.9650,0.10,0.12,-0.98,3.60,1.83,-1.71
21.9810,0.10,0.12,-0.98,3.54,1.77,-1.95
21.9850,0.10,0.13,-0.98,3.60,2.32,-2.50
22.0000,0.10,0.14,-0.97,3.42,2.14,-1.34
22.0240,0.10,0.12,-0.98,3.72,1.77,-0.55
22.0400,0.09,0.12,-0.98,3.60,1.71,-0.31
22.0550,0.10,0.12,-0.98,3.42,1.89,-0.12
22.0720,0.10,0.12,-0.98,3.42,1.89,-0.31
22.0740,0.10,0.13,-0.98,3.36,2.01,-0.55
22.0900,0.10,0.13,-0.98,3.60,1.89,0.43
22.1180,0.10,0.12,-0.98,3.42,1.34,1.10
22.1300,0.10,0.12,-0.98,3.23,1.53,0.85
22.1460,0.10,0.11,-0.98,3.23,1.71,0.55
22.1620,0.10,0.12,-0.98,3.30,1.59,-0.18
22.1790,0.10,0.13,-0.98,3.54,1.40,0.18
22.1950,0.10,0.12,-0.98,3.30,1.40,0.98
22.2120,0.10,0.11,-0.98,3.36,1.59,1.22
22.2280,0.10,0.11,-0.98,3.17,1.89,0.55
22.2450,0.10,0.10,-0.98,3.36,1.77,-0.98
22.2600,0.10,0.13,-0.98,3.42,2.01,-1.83
22.2750,0.10,0.14,-0.97,3.42,1.89,-1.59
22.2900,0.10,0.15,-0.97,3.42,1.59,0.49
22.2960,0.10,0.12,-0.98,3.72,1.59,1.59
22.3120,0.10,0.11,-0.98,3.36,1.65,0.85
22.3350,0.10,0.11,-0.98,3.30,1.83,0.12
22.3510,0.10,0.11,-0.98,3.54,1.65,-0.37
22.3670,0.10,0.12,-0.98,3.54,1.77,-0.37
22.3830,0.10,0.12,-0.98,3.54,1.77,-0.67
22.3990,0.10,0.14,-0.98,3.42,1.83,0.24
22.4150,0.10,0.12,-0.98,3.48,1.34,1.16
22.4310,0.10,0.11,-0.98,3.36,1.22,0.73
22.4340,0.10,0.11,-0.98,3.30,1.46,-0.37
22.4580,0.10,0.13,-0.98,3.54,1.22,-0.67
22.4780,0.10,0.13,-0.98,3.36,1.59,0.37
22.4890,0.10,0.12,-0.98,3.30,1.53,0.24
22.5060,0.10,0.12,-0.98,3.23,1.89,0.12
22.5220,0.10,0.12,-0.98,3.42,1.53,-0.24
22.5390,0.10,0.12,-0.98,3.36,1.89,0.37
22.5550,0.10,0.11,-0.98,3.54,1.77,-0.67
22.5710,0.10,0.12,-0.98,3.72,2.20,-1.65
22.5870,0.10,0.13,-0.98,3.42,1.71,-0.24
22.6030,0.10,0.14,-0.98,3.48,1.40,0.55
22.6180,0.10,0.12,-0.98,3.30,1.53,1.28
22.6350,0.10,0.10,-0.98,3.30,2.01,0.24
22.6510,0.10,0.11,-0.98,3.72,2.01,-2.14
22.6660,0.10,0.11,-0.98,3.85,1.77,-1.65
22.6810,0.10,0.13,-0.98,3.54,1.77,-1.40
22.6970,0.10,0.14,-0.98,3.30,1.59,-0.18
22.7110,0.10,0.12,-0.98,3.48,1.71,-0.18
22.7230,0.10,0.12,-0.98,3.66,1.77,-0.67
22.7390,0.10,0.12,-0.98,3.72,1.77,-0.73
22.7560,0.10,0.12,-0.98,3.60,1.77,0.12
22.7720,0.10,0.12,-0.98,3.48,1.65,-0.12
22.7890,0.10,0.12,-0.98,3.42,1.77,-0.67
22.8050,0.10,0.11,-0.98,3.42,1.83,-1.28
22.8210,0.10,0.12,-0.98,3.42,2.14,-2.26
22.8370,0.10,0.13,-0.98,3.60,1.65,-0.06
22.8530,0.10,0.12,-0.98,3.42,1.46,0.43
22.8580,0.10,0.12,-0.98,3.36,1.46,-0.24
22.8720,0.10,0.12,-0.98,3.42,1.34,-0.06
22.9000,0.10,0.12,-0.98,3.36,2.20,0.49
22.9120,0.10,0.12,-0.98,3.23,1.89,0.85
22.9290,0.10,0.13,-0.98,3.48,1.40,0.79
22.9450,0.10,0.12,-0.98,3.30,1.34,1.53
22.9610,0.10,0.12,-0.98,3.30,1.40,1.65
22.9770,0.10,0.11,-0.98,3.30,1.53,1.53
22.9920,0.10,0.11,-0.98,3.48,1.28,0.92
22.9950,0.10,0.11,-0.98,3.48,1.71,-0.31
23.0100,0.10,0.12,-0.98,3.30,1.71,-0.49
23.0330,0.10,0.12,-0.98,3.36,1.95,-0.18
23.0510,0.10,0.12,-0.98,3.17,2.32,-0.06
23.0670,0.10,0.12,-0.98,3.23,1.71,-0.31
23.0840,0.10,0.12,-0.98,3.54,2.14,-0.37
23.1010,0.10,0.13,-0.98,3.23,1.59,0.55
23.1170,0.10,0.13,-0.98,3.30,1.65,1.28
23.1340,0.10,0.12,-0.98,3.36,1.65,1.34
23.1350,0.10,0.12,-0.98,3.36,1.83,0.98
23.1590,0.10,0.12,-0.98,3.30,1.53,0.73
23.1820,0.10,0.12,-0.98,3.36,1.89,0.61
23.1840,0.10,0.12,-0.98,3.23,1.89,0.92
23.2000,0.10,0.12,-0.98,3.30,1.65,0.85
23.2160,0.10,0.12,-0.98,3.05,1.65,0.79
23.2330,0.10,0.11,-0.98,3.30,1.53,0.55
23.2590,0.10,0.11,-0.98,3.36,1.95,-0.24
23.2770,0.10,0.12,-0.98,3.30,2.20,-0.73
23.2880,0.10,0.13,-0.98,3.36,1.83,-0.24
23.3030,0.10,0.13,-0.98,3.42,1.65,0.67
23.3230,0.10,0.12,-0.98,3.30,1.46,1.04
23.3380,0.10,0.12,-0.98,3.42,1.83,0.79
23.3440,0.10,0.11,-0.98,3.48,1.83,0.49
23.3600,0.10,0.11,-0.98,3.42,1.77,0.00
23.3840,0.10,0.13,-0.98,3.36,1.53,0.49
23.4000,0.10,0.11,-0.98,3.36,1.89,0.98
23.4000,0.10,0.12,-0.98,3.11,2.08,0.31
23.4180,0.10,0.13,-0.98,3.23,1.77,0.00
23.4330,0.10,0.13,-0.98,3.36,2.32,0.92
23.4600,0.10,0.12,-0.98,3.23,1.71,1.16
23.4660,0.10,0.12,-0.98,3.42,1.65,1.16
23.4950,0.10,0.12,-0.98,3.36,1.71,0.98
23.5100,0.10,0.11,-0.98,3.36,1.22,0.55
23.5200,0.10,0.12,-0.98,3.17,1.71,0.67
23.5350,0.10,0.12,-0.98,3.36,1.77,0.37
23.5530,0.10,0.12,-0.98,3.23,2.14,0.55
23.5690,0.10,0.12,-0.98,3.36,1.95,0.43
23.5870,0.10,0.12,-0.98,3.30,2.01,0.24
23.6030,0.10,0.13,-0.98,3.11,2.14,0.12
23.6190,0.10,0.13,-0.98,3.36,1.83,0.85
23.6350,0.10,0.12,-0.98,3.11,1.95,1.46
23.6360,0.10,0.11,-0.98,3.42,1.83,1.53
23.6670,0.10,0.11,-0.98,3.42,1.77,0.92
23.6700,0.10,0.11,-0.98,3.23,1.95,0.06
23.6850,0.10,0.12,-0.98,3.30,1.83,-0.06
23.7010,0.10,0.13,-0.98,3.36,2.01,0.55
23.7280,0.10,0.13,-0.98,3.30,1.89,1.10
23.7440,0.10,0.12,-0.98,3.23,1.40,1.16
23.7620,0.10,0.11,-0.98,3.30,1.71,1.16
23.7780,0.10,0.10,-0.98,3.42,1.71,-0.12
23.7940,0.10,0.11,-0.98,3.30,1.89,-1.34
23.8100,0.10,0.13,-0.98,3.30,2.14,-1.83
23.8250,0.10,0.14,-0.97,3.42,1.83,-0.31
23.8420,0.10,0.12,-0.98,3.42,1.83,0.85
23.8570,0.10,0.12,-0.98,3.23,1.22,0.73
23.8720,0.10,0.12,-0.98,3.11,1.89,1.04
23.8860,0.10,0.11,-0.98,3.36,1.40,0.73
23.9020,0.10,0.11,-0.98,3.48,1.89,-0.24
23.9170,0.10,0.13,-0.98,3.30,1.65,0.06
23.9280,0.10,0.13,-0.98,3.42,1.65,1.10
23.9440,0.10,0.12,-0.98,3.36,1.34,1.16
23.9610,0.10,0.11,-0.98,3.36,1.83,0.92
23.9780,0.10,0.11,-0.98,3.11,1.77,0.06
23.9940,0.10,0.12,-0.98,3.23,1.83,-0.31
24.0110,0.10,0.11,-0.98,3.60,1.59,-1.04
24.0280,0.10,0.13,-0.98,3.54,1.65,-1.04
24.0440,0.10,0.12,-0.98,3.48,1.65,-0.61
24.0610,0.10,0.12,-0.98,3.23,1.95,-0.43
24.0750,0.10,0.12,-0.98,3.36,2.01,-0.18
24.0920,0.10,0.11,-0.98,3.48,2.01,-0.37
24.1080,0.10,0.12,-0.98,3.66,1.83,-0.73
24.1240,0.10,0.12,-0.98,3.60,1.65,-0.61
24.1400,0.10,0.12,-0.98,3.48,1.83,-0.79
24.1440,0.10,0.12,-0.98,3.36,1.89,-0.79
24.1610,0.10,0.12,-0.98,3.54,1.77,-0.98
24.1840,0.10,0.12,-0.98,3.42,1.89,-0.73
24.2010,0.10,0.11,-0.98,3.48,1.71,-0.49
24.2160,0.10,0.11,-0.98,3.30,1.40,-1.10
24.2330,0.10,0.13,-0.98,3.54,2.14,-1.16
24.2490,0.10,0.13,-0.98,3.60,2.01,0.12
24.2650,0.10,0.13,-0.98,3.30,1.77,0.92
24.2810,0.10,0.12,-0.98,3.23,2.01,1.10
24.2840,0.10,0.11,-0.98,3.17,1.95,0.61
24.3000,0.10,0.11,-0.98,3.42,1.89,-0.06
24.3230,0.10,0.11,-0.98,3.54,2.01,-0.24
24.3400,0.10,0.13,-0.98,3.30,1.83,-0.18
24.3570,0.10,0.12,-0.98,3.42,1.83,0.55
24.3720,0.10,0.11,-0.98,3.17,1.95,0.73
24.3880,0.10,0.10,-0.98,3.48,1.77,-0.06
24.3900,0.10,0.11,-0.98,3.48,2.08,-0.49
24.4060,0.10,0.12,-0.98,3.30,1.83,-0.49
24.4320,0.10,0.12,-0.98,3.42,2.08,0.12
24.4480,0.10,0.12,-0.98,3.23,1.95,-0.61
24.4630,0.10,0.11,-0.98,3.36,1.95,-0.67
24.4810,0.10,0.11,-0.98,3.42,2.26,-1.04
24.4970,0.10,0.12,-0.98,3.54,2.20,-0.61
24.5130,0.10,0.12,-0.98,3.42,2.08,-0.43
24.5150,0.10,0.12,-0.98,3.48,1.65,-0.24
24.5450,0.10,0.12,-0.98,3.36,1.65,0.37
24.5610,0.10,0.11,-0.98,3.48,1.53,0.43
24.5760,0.10,0.11,-0.98,3.42,1.89,0.79
24.5930,0.10,0.12,-0.98,3.36,1.83,0.43
24.6080,0.10,0.12,-0.98,3.54,1.65,0.12
24.6230,0.10,0.11,-0.98,3.48,1.95,-0.12
24.6320,0.10,0.11,-0.98,3.36,2.14,-0.49
24.6470,0.10,0.11,-0.98,3.30,1.83,-0.92
24.6630,0.09,0.12,-0.98,3.30,2.38,-1.71
24.6810,0.10,0.13,-0.98,3.48,1.89,-0.61
24.6970,0.10,0.12,-0.98,3.54,1.83,-0.43
24.7130,0.10,0.12,-0.98,3.36,1.89,-0.12
24.7270,0.10,0.12,-0.98,3.30,2.01,0.31
24.7320,0.10,0.12,-0.98,3.36,2.01,0.31
24.7570,0.10,0.12,-0.98,3.42,1.28,0.43
24.7730,0.10,0.11,-0.98,3.36,1.77,0.37
24.7810,0.10,0.11,-0.98,3.30,2.01,0.24
24.7980,0.10,0.11,-0.98,3.48,1.83,0.06
24.8140,0.10,0.12,-0.98,3.30,2.08,-0.18
24.8300,0.10,0.12,-0.98,3.36,1.65,0.18
24.8480,0.10,0.13,-0.98,3.54,1.34,0.61
24.8640,0.10,0.11,-0.98,3.42,1.65,0.92
24.8810,0.10,0.11,-0.98,3.17,1.28,0.67
24.8970,0.10,0.11,-0.98,3.42,2.08,0.37
24.9120,0.10,0.12,-0.98,3.54,1.71,0.12
24.9290,0.10,0.12,-0.98,3.17,1.89,0.67
24.9440,0.10,0.12,-0.98,3.30,1.10,1.22
24.9600,0.10,0.11,-0.98,3.30,1.89,1.40
24.9760,0.10,0.11,-0.98,3.36,1.83,0.67
24.9900,0.10,0.11,-0.98,3.54,1.83,0.24
25.0060,0.10,0.11,-0.98,3.42,1.77,-0.55
25.0140,0.10,0.12,-0.98,3.17,2.08,-0.24
25.0300,0.10,0.12,-0.98,3.48,1.59,-0.31
25.0520,0.10,0.11,-0.98,3.48,1.83,-0.49
25.0630,0.10,0.13,-0.98,3.17,2.08,-0.92
25.0840,0.10,0.12,-0.98,3.36,1.77,-0.06
25.1000,0.10,0.11,-0.98,3.42,1.83,0.06
25.1160,0.10,0.11,-0.98,3.60,1.53,-0.43
25.1320,0.10,0.12,-0.98,3.60,1.53,-0.43
25.1460,0.10,0.13,-0.98,3.36,2.14,0.24
25.1620,0.10,0.12,-0.98,3.42,1.53,0.98
25.1710,0.10,0.12,-0.98,3.23,1.28,1.22
25.1870,0.10,0.11,-0.98,3.60,1.71,1.46
25.2040,0.10,0.10,-0.98,3.30,1.71,0.61
25.2200,0.10,0.11,-0.98,3.05,1.28,0.12
25.2360,0.10,0.11,-0.98,3.54,1.89,0.12
25.2380,0.10,0.12,-0.98,3.54,1.22,0.18
25.2680,0.10,0.11,-0.98,3.36,1.59,0.79
25.2830,0.10,0.11,-0.98,3.42,1.77,0.12
25.2990,0.10,0.11,-0.98,3.23,1.83,-0.37
25.3150,0.10,0.11,-0.98,3.48,1.89,-1.04
25.3310,0.10,0.12,-0.98,3.30,1.89,-0.55
25.3470,0.10,0.12,-0.98,3.42,2.08,-0.55
25.3630,0.10,0.13,-0.98,3.30,1.59,0.06
25.3780,0.10,0.13,-0.98,3.17,1.71,0.61
25.3930,0.10,0.11,-0.98,3.42,1.40,0.92
25.4040,0.10,0.11,-0.98,3.23,2.08,0.31
25.4200,0.10,0.11,-0.98,3.48,1.53,-0.37
25.4370,0.10,0.11,-0.98,3.30,1.77,-0.43
25.4530,0.10,0.12,-0.98,3.48,1.65,-0.31
25.4630,0.10,0.12,-0.98,3.36,1.83,0.18
25.4710,0.10,0.12,-0.98,3.23,1.65,0.43
25.5010,0.10,0.12,-0.98,3.36,1.40,0.73
25.5170,0.10,0.11,-0.98,3.23,1.04,0.61
25.5330,0.10,0.11,-0.98,3.23,1.65,0.18
25.5490,0.10,0.10,-0.98,3.48,1.46,-0.06
25.5650,0.10,0.11,-0.98,3.48,1.53,-1.04
25.5810,0.10,0.13,-0.97,3.36,1.83,-0.61
25.5870,0.10,0.12,-0.98,3.60,1.40,0.92
25.6020,0.10,0.12,-0.98,3.23,1.40,1.16
25.6260,0.10,0.11,-0.98,3.42,1.65,1.22
25.6410,0.10,0.09,-0.98,3.17,1.77,0.37
25.6580,0.10,0.10,-0.98,3.23,2.26,-1.65
25.6750,0.10,0.13,-0.98,3.30,1.83,-2.14
25.6910,0.10,0.13,-0.98,3.36,1.71,-1.16
25.7060,0.10,0.13,-0.98,3.54,1.10,-0.18
25.7220,0.10,0.12,-0.98,3.30,1.71,0.55
25.7240,0.10,0.11,-0.98,3.11,1.28,0.55
25.7400,0.10,0.11,-0.98,3.23,1.83,0.06
25.7690,0.10,0.11,-0.98,3.36,1.28,0.06
25.7790,0.10,0.11,-0.98,3.30,2.14,-0.61
25.7960,0.10,0.10,-0.98,3.23,2.08,-0.92
25.8130,0.10,0.12,-0.98,3.17,1.89,-1.65
25.8290,0.10,0.14,-0.98,3.42,1.71,-0.31
25.8450,0.10,0.12,-0.98,3.42,1.71,1.10
25.8610,0.10,0.11,-0.98,3.30,1.71,1.40
25.8770,0.10,0.11,-0.98,3.36,1.83,0.79
25.8930,0.10,0.10,-0.98,3.54,1.95,-0.43
25.9090,0.09,0.10,-0.98,2.99,2.01,-1.28
25.9250,0.09,0.10,-0.98,3.54,2.26,-2.81
25.9400,0.10,0.11,-0.98,3.72,2.44,-3.78
25.9550,0.10,0.13,-0.98,3.66,1.95,-3.72
25.9700,0.11,0.15,-0.97,3.42,1.71,-1.77
25.9860,0.10,0.13,-0.97,3.54,1.71,0.00
25.9970,0.10,0.12,-0.98,3.23,1.77,0.49
26.0120,0.10,0.12,-0.98,3.42,1.95,0.67
26.0330,0.10,0.12,-0.98,3.54,1.59,1.16
26.0490,0.10,0.11,-0.98,3.54,1.65,1.28
26.0640,0.10,0.11,-0.98,3.48,1.89,0.79
26.0800,0.10,0.11,-0.98,3.60,1.71,0.67
26.0960,0.10,0.11,-0.98,3.66,1.53,0.55
26.1000,0.10,0.11,-0.98,3.48,1.71,0.31
26.1160,0.10,0.12,-0.98,3.72,1.65,0.49
26.1390,0.10,0.11,-0.98,3.54,1.53,0.85
26.1560,0.10,0.11,-0.98,3.48,1.89,0.61
26.1720,0.10,0.10,-0.98,3.48,1.59,0.61
26.1880,0.10,0.10,-0.98,3.36,2.01,-0.67
26.2030,0.10,0.12,-0.98,3.54,1.53,-0.55
26.2190,0.10,0.12,-0.98,3.66,1.95,-0.55
26.2350,0.10,0.12,-0.98,3.60,1.65,0.31
26.2510,0.10,0.12,-0.98,3.54,2.14,1.28
26.2670,0.10,0.11,-0.98,3.36,1.71,0.92
26.2820,0.10,0.11,-0.98,3.30,1.77,0.49
26.2980,0.09,0.10,-0.98,3.60,1.77,-0.49
26.3140,0.09,0.10,-0.98,3.23,1.89,-1.53
26.3280,0.10,0.12,-0.98,3.48,1.89,-1.40
26.3400,0.10,0.13,-0.98,3.60,2.38,-0.61
26.3560,0.10,0.13,-0.98,3.42,1.65,0.24
26.3720,0.10,0.11,-0.98,3.23,2.14,1.16
26.3890,0.10,0.11,-0.98,3.36,2.01,0.85
26.4050,0.10,0.11,-0.98,3.48,1.53,0.55
26.4210,0.09,0.10,-0.98,3.72,1.59,-0.12
26.4370,0.10,0.10,-0.98,3.72,1.95,-1.22
26.4530,0.10,0.11,-0.98,3.54,2.14,-2.75
26.4690,0.10,0.13,-0.98,3.72,2.26,-2.32
26.4850,0.10,0.13,-0.98,3.60,1.89,-0.37
26.5010,0.10,0.11,-0.98,3.60,1.77,0.61
26.5170,0.10,0.11,-0.98,3.48,1.95,0.12
26.5340,0.10,0.11,-0.98,3.54,1.95,-0.55
26.5390,0.10,0.11,-0.98,3.66,1.71,-1.40
26.5640,0.10,0.12,-0.98,3.60,1.95,-1.40
26.5770,0.10,0.12,-0.98,3.60,2.20,-0.79
26.5940,0.10,0.12,-0.98,3.54,1.95,-0.31
26.6100,0.10,0.11,-0.98,3.54,1.40,-0.37
26.6270,0.10,0.11,-0.98,3.48,1.77,-0.24
26.6420,0.10,0.11,-0.98,3.54,1.59,-0.55
26.6570,0.10,0.11,-0.98,3.60,1.53,-0.55
26.6640,0.10,0.12,-0.98,3.36,1.71,-0.55
26.6770,0.10,0.12,-0.98,3.54,1.53,-0.06
26.6930,0.10,0.11,-0.98,3.66,1.40,0.37
26.7150,0.10,0.10,-0.98,3.66,1.59,-0.43
26.7320,0.10,0.12,-0.98,3.36,1.71,-0.73
26.7470,0.10,0.12,-0.98,3.17,2.20,0.43
26.7650,0.10,0.12,-0.98,3.42,2.08,0.98
26.7810,0.10,0.12,-0.98,3.11,1.95,0.79
26.7970,0.10,0.11,-0.98,3.30,1.28,0.92
26.8130,0.10,0.11,-0.98,3.36,1.34,0.24
26.8290,0.10,0.12,-0.98,3.30,2.08,0.00
26.8450,0.10,0.12,-0.98,3.30,1.65,0.61
26.8610,0.10,0.11,-0.98,3.30,1.53,0.67
26.8770,0.10,0.11,-0.98,3.11,1.89,0.24
26.8930,0.10,0.11,-0.98,3.17,2.26,0.12
26.9090,0.10,0.11,-0.98,3.54,1.53,-0.43
26.9250,0.09,0.11,-0.98,3.23,1.77,-0.31
26.9400,0.10,0.11,-0.98,3.30,1.34,-0.43
26.9550,0.10,0.12,-0.98,3.48,1.77,-0.61
26.9640,0.10,0.13,-0.98,3.30,1.71,0.49
26.9810,0.10,0.12,-0.98,3.42,1.59,0.55
26.9980,0.10,0.11,-0.98,3.36,1.59,1.34
27.0150,0.10,0.11,-0.98,3.30,1.16,0.92
27.0300,0.10,0.10,-0.98,3.36,1.59,0.37
27.0470,0.10,0.10,-0.98,3.60,1.77,-0.55
27.0630,0.10,0.11,-0.98,3.60,1.77,-1.10
27.0800,0.10,0.12,-0.98,3.72,1.83,-1.16
27.0950,0.10,0.13,-0.98,3.60,1.83,-0.55
27.1100,0.10,0.12,-0.98,3.36,1.46,0.67
27.1280,0.10,0.11,-0.98,3.17,1.59,1.28
27.1310,0.10,0.11,-0.98,3.36,1.59,0.85
27.1460,0.10,0.10,-0.98,3.42,1.71,0.18
27.1690,0.10,0.11,-0.98,3.66,1.71,-0.73
27.1860,0.10,0.11,-0.98,3.48,1.95,-1.04
27.2020,0.10,0.13,-0.98,3.42,2.20,-0.37
27.2190,0.10,0.12,-0.98,3.36,1.71,1.04
27.2360,0.10,0.11,-0.98,3.42,1.28,1.53
27.2510,0.10,0.10,-0.98,3.23,2.01,1.28
27.2670,0.10,0.10,-0.98,3.36,1.95,0.24
27.2830,0.10,0.11,-0.98,3.42,2.08,-0.92
27.2860,0.10,0.12,-0.98,3.48,1.83,-0.67
27.3130,0.10,0.13,-0.98,3.66,1.65,-0.12
27.3190,0.10,0.12,-0.98,3.48,1.95,-0.06
27.3340,0.10,0.12,-0.98,3.23,2.01,0.24
27.3570,0.10,0.11,-0.98,3.42,1.46,0.24
27.3740,0.10,0.10,-0.98,3.54,1.83,-0.12
27.3910,0.10,0.11,-0.98,3.42,1.89,-0.61
27.4070,0.10,0.12,-0.98,3.23,2.14,-0.31
27.4230,0.10,0.12,-0.98,3.42,1.53,0.06
27.4390,0.10,0.11,-0.98,3.42,1.95,0.61
27.4550,0.10,0.11,-0.98,3.36,1.71,0.92
27.4700,0.10,0.11,-0.98,3.30,1.95,0.55
27.4860,0.10,0.11,-0.98,3.48,1.77,-0.12
27.5010,0.10,0.12,-0.98,3.42,1.77,-1.22
27.5170,0.10,0.13,-0.98,3.72,1.71,0.06
27.5330,0.10,0.12,-0.98,3.60,1.71,0.92
27.5480,0.10,0.12,-0.98,3.23,1.46,1.04
27.5630,0.10,0.11,-0.98,3.48,1.40,1.10
27.5740,0.10,0.10,-0.98,3.42,1.89,0.12
27.5910,0.10,0.11,-0.98,3.48,1.77,-0.31
27.6070,0.10,0.12,-0.98,3.36,1.77,-0.06
27.6230,0.10,0.12,-0.98,3.30,2.08,0.12
27.6390,0.10,0.12,-0.98,3.30,1.77,0.61
27.6550,0.10,0.11,-0.98,3.23,1.95,0.85
27.6710,0.10,0.10,-0.98,3.48,1.65,0.37
27.6870,0.10,0.10,-0.98,3.48,1.89,-0.73
27.7030,0.10,0.12,-0.98,3.36,2.08,-1.83
27.7190,0.10,0.13,-0.98,3.48,1.77,0.06
27.7350,0.10,0.13,-0.98,3.23,1.65,1.53
27.7500,0.10,0.11,-0.98,3.23,1.34,1.71
27.7650,0.10,0.11,-0.98,3.42,1.46,1.53
27.7730,0.10,0.10,-0.98,3.36,1.83,0.98
27.7960,0.10,0.11,-0.98,3.36,1.83,0.24
27.8120,0.10,0.12,-0.98,3.17,1.77,0.55
27.8280,0.10,0.12,-0.98,3.23,2.14,0.55
27.8440,0.10,0.11,-0.98,3.23,2.26,0.55
27.8600,0.09,0.13,-0.98,3.05,2.01,0.24
27.8760,0.10,0.12,-0.98,3.54,2.01,1.53
27.8800,0.10,0.12,-0.98,3.48,1.89,1.71
27.9060,0.10,0.12,-0.98,3.23,1.40,1.59
27.9220,0.10,0.11,-0.98,3.30,1.59,1.65
27.9380,0.10,0.11,-0.98,3.17,1.40,1.65
27.9460,0.10,0.11,-0.98,3.17,1.53,1.77
27.9690,0.10,0.11,-0.98,3.54,1.46,1.83
27.9800,0.10,0.11,-0.98,3.42,1.65,1.65
27.9960,0.10,0.12,-0.98,3.48,1.40,1.71
28.0120,0.10,0.11,-0.98,3.36,2.08,1.65
28.0290,0.10,0.11,-0.98,3.36,1.53,1.77
28.0450,0.10,0.12,-0.98,3.17,1.77,1.77
28.0620,0.10,0.12,-0.98,3.66,1.34,1.71
28.0790,0.10,0.11,-0.98,3.11,1.59,1.65
28.0940,0.10,0.11,-0.98,3.23,1.40,1.89
28.1110,0.10,0.11,-0.98,3.30,1.71,1.65
28.1270,0.10,0.11,-0.98,3.11,1.77,1.77
28.1300,0.10,0.11,-0.98,2.87,1.89,1.59
28.1450,0.10,0.11,-0.98,2.81,1.83,1.71
28.1690,0.10,0.11,-0.98,2.93,2.14,1.77
28.1850,0.10,0.11,-0.98,2.87,2.01,1.77
28.2020,0.09,0.11,-0.98,3.17,1.77,1.89
28.2190,0.10,0.11,-0.98,2.56,1.83,1.59
28.2350,0.10,0.11,-0.98,2.81,1.77,1.77
28.2510,0.10,0.11,-0.98,2.75,2.08,1.77
28.2670,0.10,0.11,-0.98,3.23,1.95,1.71
28.2690,0.10,0.11,-0.98,3.23,1.71,1.83
28.2980,0.10,0.11,-0.98,3.36,1.95,1.89
28.3020,0.10,0.11,-0.98,3.30,1.95,1.71
28.3180,0.10,0.11,-0.98,3.36,1.77,1.71
28.3350,0.10,0.11,-0.98,3.30,2.14,1.83
28.3520,0.10,0.11,-0.98,3.17,1.77,1.83
28.3680,0.10,0.11,-0.98,3.17,1.53,1.83
28.3850,0.10,0.11,-0.98,3.05,1.83,1.71
28.4020,0.10,0.11,-0.98,3.23,1.59,1.59
28.4170,0.10,0.11,-0.98,3.30,1.65,1.65
28.4330,0.10,0.11,-0.98,3.36,1.59,1.65
28.4490,0.10,0.11,-0.98,3.11,1.83,1.77
28.4520,0.10,0.11,-0.98,3.05,2.08,1.59
28.4670,0.10,0.11,-0.98,3.11,1.77,1.59
28.4940,0.10,0.11,-0.98,3.05,1.89,1.77
28.5050,0.10,0.11,-0.98,3.05,1.83,1.40
28.5220,0.09,0.11,-0.98,2.93,2.01,1.46
28.5380,0.10,0.11,-0.98,2.99,2.08,0.55
28.5550,0.10,0.12,-0.98,3.05,2.14,0.79
28.5690,0.10,0.11,-0.98,3.11,1.65,0.61
28.5850,0.10,0.11,-0.98,3.60,1.46,0.92
28.6010,0.10,0.11,-0.98,3.42,2.01,1.16
28.6160,0.10,0.11,-0.98,3.17,2.01,1.53
28.6330,0.10,0.11,-0.98,2.93,1.71,1.46
28.6490,0.10,0.11,-0.98,3.17,1.71,1.83
28.6640,0.09,0.11,-0.98,3.23,1.77,1.59
28.6810,0.09,0.11,-0.98,3.05,1.83,1.71
28.6960,0.09,0.11,-0.98,3.23,1.77,1.28
28.7060,0.09,0.11,-0.98,3.23,1.77,0.98
28.7220,0.10,0.11,-0.98,3.23,2.08,0.49
28.7420,0.10,0.12,-0.98,3.42,1.71,0.18
28.7570,0.10,0.12,-0.98,3.23,1.83,1.28
28.7720,0.09,0.11,-0.98,2.87,1.83,1.77
28.7880,0.10,0.11,-0.98,3.17,1.77,1.77
28.7940,0.10,0.11,-0.98,3.11,1.65,1.89
28.8090,0.09,0.11,-0.98,3.11,1.83,1.71
28.8340,0.09,0.11,-0.98,2.99,2.01,1.46
28.8490,0.10,0.11,-0.98,3.11,1.77,1.04
28.8650,0.10,0.11,-0.98,2.93,1.89,1.22
28.8680,0.09,0.11,-0.98,3.23,1.28,1.16
28.8840,0.09,0.11,-0.98,2.93,1.83,1.10
28.9000,0.10,0.11,-0.98,2.93,2.08,1.10
28.9250,0.10,0.11,-0.98,2.93,2.44,1.04
28.9420,0.10,0.12,-0.98,2.99,1.95,1.28
28.9590,0.10,0.11,-0.98,2.69,1.65,1.89
28.9750,0.09,0.11,-0.98,2.81,1.46,1.83
28.9910,0.10,0.11,-0.98,3.30,1.77,1.59
29.0070,0.10,0.11,-0.98,3.17,2.01,1.34
29.0230,0.10,0.11,-0.98,2.93,2.32,1.46
29.0370,0.10,0.11,-0.98,3.36,1.65,1.53
29.0540,0.10,0.11,-0.98,3.30,1.46,1.71
29.0680,0.10,0.11,-0.98,3.23,1.95,1.77
29.0760,0.10,0.11,-0.98,3.48,1.71,1.65
29.0980,0.06,0.12,-0.98,3.17,1.77,1.53
29.1090,0.10,0.11,-0.98,2.99,1.40,1.53
29.1240,0.10,0.11,-0.98,3.17,1.22,1.65
29.1440,0.10,0.11,-0.98,3.11,1.59,1.53
29.1590,0.10,0.11,-0.98,3.30,0.98,1.28
29.1750,0.10,0.11,-0.98,3.30,1.65,1.22
29.1900,0.10,0.11,-0.98,3.36,1.77,1.22
29.1940,0.10,0.11,-0.98,3.48,1.83,1.10
29.2100,0.10,0.11,-0.98,3.30,1.53,0.92
29.2350,0.11,0.12,-0.98,3.17,1.40,0.73
29.2500,0.10,0.12,-0.98,3.05,1.71,1.16
29.2650,0.10,0.11,-0.98,3.17,1.59,1.40
29.2800,0.09,0.11,-0.98,3.05,1.83,1.53
29.2840,0.09,0.11,-0.98,3.23,1.28,1.34
29.3010,0.09,0.11,-0.98,3.30,1.77,1.40
29.3170,0.10,0.11,-0.98,3.30,1.53,1.40
29.3420,0.10,0.11,-0.98,3.11,1.34,1.59
29.3420,0.09,0.11,-0.98,2.99,1.46,1.77
29.3720,0.10,0.11,-0.98,3.05,1.46,1.59
29.3880,0.10,0.11,-0.98,2.81,1.53,1.46
29.3930,0.10,0.11,-0.98,3.05,1.59,1.59
29.4190,0.09,0.11,-0.98,3.60,1.95,1.53
29.4250,0.10,0.11,-0.98,3.36,2.08,1.53
29.4410,0.10,0.11,-0.98,3.17,1.34,1.59
29.4620,0.10,0.11,-0.98,2.93,1.46,1.77
29.4790,0.10,0.11,-0.98,3.11,1.40,1.40
29.4960,0.09,0.11,-0.98,3.23,1.83,1.59
29.5120,0.09,0.11,-0.98,2.93,1.77,1.59
29.5280,0.10,0.11,-0.98,2.99,1.83,1.77
29.5440,0.09,0.11,-0.98,3.05,1.46,1.65
29.5600,0.10,0.11,-0.98,3.05,1.59,1.59
29.5760,0.10,0.11,-0.98,3.23,1.89,1.53
29.5810,0.10,0.11,-0.98,3.23,1.83,1.59
29.6050,0.09,0.11,-0.98,3.05,1.71,1.59
29.6210,0.09,0.11,-0.98,2.87,1.71,1.71
29.6300,0.10,0.11,-0.98,2.99,1.83,1.83
29.6470,0.10,0.11,-0.98,3.48,1.28,1.53
29.6670,0.09,0.11,-0.98,3.66,1.83,1.46
29.6800,0.10,0.11,-0.98,3.54,1.77,1.34
29.6970,0.10,0.11,-0.98,3.11,1.71,1.40
29.7120,0.10,0.11,-0.98,3.05,1.59,1.59
29.7300,0.10,0.11,-0.98,3.11,1.34,1.65
29.7460,0.10,0.11,-0.98,3.42,1.71,1.59
29.7620,0.10,0.11,-0.98,3.66,2.08,1.40
29.7670,0.08,0.11,-0.98,3.48,1.95,0.98
29.7920,0.10,0.12,-0.98,3.54,1.71,0.85
29.8070,0.10,0.11,-0.98,3.05,1.59,0.92
29.8220,0.10,0.11,-0.98,3.42,1.46,1.22
29.8380,0.10,0.11,-0.98,3.48,1.71,1.59
29.8520,0.10,0.11,-0.98,3.60,1.71,1.28
29.8670,0.10,0.11,-0.98,3.23,1.89,1.28
29.8780,0.10,0.11,-0.98,3.11,1.46,1.28
29.8940,0.10,0.11,-0.98,3.23,1.89,1.53
29.9050,0.10,0.11,-0.98,2.93,1.77,1.65
29.9220,0.10,0.11,-0.98,2.69,1.53,1.71
29.9380,0.10,0.11,-0.98,3.30,1.53,1.95
29.9560,0.10,0.11,-0.98,3.36,1.71,1.77
29.9710,0.10,0.11,-0.98,3.42,1.65,1.95
29.9870,0.10,0.11,-0.98,3.48,1.65,1.89
29.9970,0.10,0.11,-0.98,3.11,1.77,1.83
30.0140,0.10,0.11,-0.98,3.05,2.20,1.77
30.0300,0.09,0.11,-0.98,3.30,1.83,1.22
30.0470,0.10,0.12,-0.98,2.56,1.71,0.98
30.0630,0.10,0.11,-0.98,2.62,1.77,1.22
30.0790,0.10,0.11,-0.98,3.30,1.83,1.59
30.0940,0.09,0.11,-0.98,3.72,1.83,1.40
30.1100,0.10,0.11,-0.98,3.17,2.01,1.46
30.1140,0.10,0.11,-0.98,2.93,1.59,1.65
30.1300,0.10,0.11,-0.98,2.99,1.65,1.65
30.1540,0.10,0.11,-0.98,3.60,1.59,1.77
30.1700,0.10,0.11,-0.98,3.36,1.22,1.53
30.1860,0.10,0.11,-0.98,3.48,1.71,1.71
30.2010,0.10,0.11,-0.98,3.48,1.71,1.34
30.2170,0.10,0.11,-0.98,3.36,1.65,1.10
30.2320,0.09,0.11,-0.98,3.05,1.89,1.34
30.2470,0.09,0.11,-0.98,3.17,1.95,1.34
30.2610,0.09,0.11,-0.98,3.42,1.16,1.28
30.2720,0.09,0.11,-0.98,3.66,2.01,1.40
30.2880,0.10,0.11,-0.98,3.78,1.53,1.04
30.3060,0.10,0.11,-0.98,3.54,1.71,1.28
30.3210,0.10,0.12,-0.98,3.36,1.65,1.22
30.3230,0.11,0.11,-0.98,2.99,1.95,1.34
30.3520,0.10,0.11,-0.98,3.42,1.89,1.65
30.3680,0.10,0.11,-0.98,3.66,1.65,1.71
30.3720,0.10,0.11,-0.98,3.42,1.77,1.59
30.4000,0.10,0.11,-0.98,3.30,1.59,1.40
30.4050,0.10,0.11,-0.98,3.11,1.95,1.46
30.4210,0.09,0.11,-0.98,2.99,1.65,1.65
30.4380,0.10,0.11,-0.98,3.42,1.71,1.71
30.4550,0.09,0.11,-0.98,3.48,1.71,1.40
30.4720,0.09,0.11,-0.98,3.48,1.65,1.22
30.4870,0.09,0.12,-0.98,3.30,1.77,0.92
30.5080,0.09,0.11,-0.98,3.05,2.14,1.28
30.5230,0.09,0.11,-0.98,3.36,1.77,1.04
30.5390,0.10,0.11,-0.98,3.42,1.89,0.73
30.5550,0.10,0.11,-0.98,3.85,1.46,0.61
30.5690,0.10,0.11,-0.98,3.72,1.77,0.43
30.5850,0.10,0.11,-0.98,3.36,2.44,0.55
30.5950,0.10,0.11,-0.98,3.05,1.83,1.10
30.6110,0.09,0.11,-0.98,3.05,2.01,1.71
30.6270,0.09,0.11,-0.98,3.54,1.77,1.77
30.6450,0.10,0.11,-0.98,3.42,1.89,1.83
30.6600,0.10,0.11,-0.98,3.66,1.40,1.65
30.6760,0.10,0.11,-0.98,3.60,1.65,1.28
30.6920,0.10,0.11,-0.98,3.48,2.08,1.22
30.7070,0.11,0.11,-0.98,3.48,1.65,1.10
30.7220,0.11,0.11,-0.98,3.11,1.89,1.46
30.7370,0.10,0.11,-0.98,3.23,1.59,1.46
30.7450,0.10,0.11,-0.98,3.23,1.77,1.53
30.7610,0.10,0.11,-0.98,3.54,1.89,1.46
30.7770,0.10,0.11,-0.98,3.54,1.40,1.40
30.7960,0.10,0.11,-0.98,3.42,1.46,1.46
30.8110,0.10,0.11,-0.98,3.23,1.65,1.53
30.8280,0.10,0.11,-0.98,3.36,1.53,1.59
30.8430,0.10,0.11,-0.98,3.60,1.53,1.71
30.8580,0.10,0.11,-0.98,3.42,1.34,1.77
30.8740,0.06,0.11,-0.98,3.48,1.28,1.65
30.8890,0.09,0.11,-0.98,3.66,1.28,1.53
30.9050,0.09,0.11,-0.98,3.66,1.46,1.65
30.9210,0.09,0.11,-0.98,3.17,1.53,1.59
30.9350,0.10,0.11,-0.98,3.23,1.28,1.53
30.9510,0.10,0.11,-0.98,3.42,1.83,1.59
30.9610,0.09,0.11,-0.98,3.85,1.89,1.22
30.9780,0.10,0.11,-0.98,3.48,1.46,1.04
30.9950,0.10,0.11,-0.98,3.23,1.59,1.04
31.0110,0.10,0.11,-0.98,3.42,2.14,0.98
31.0280,0.10,0.11,-0.98,3.42,1.71,0.79
31.0440,0.10,0.11,-0.98,2.87,2.20,0.98
31.0600,0.10,0.11,-0.98,3.42,1.53,1.16
31.0770,0.10,0.11,-0.98,3.42,1.40,0.98
31.0930,0.10,0.12,-0.98,3.72,1.71,1.22
31.1090,0.10,0.11,-0.98,3.30,1.16,0.98
31.1250,0.10,0.11,-0.98,3.54,1.34,1.10
31.1400,0.09,0.11,-0.98,3.60,1.59,1.16
31.1550,0.09,0.11,-0.98,3.72,1.53,1.16
31.1690,0.10,0.11,-0.98,3.66,1.34,0.79
31.1840,0.11,0.12,-0.98,3.17,1.40,0.85
31.1950,0.11,0.11,-0.98,2.99,1.46,1.10
31.2120,0.10,0.11,-0.98,2.93,1.46,1.40
31.2270,0.10,0.11,-0.98,3.23,1.46,1.65
31.2450,0.10,0.11,-0.98,3.48,1.16,1.59
31.2610,0.10,0.11,-0.98,3.30,1.71,1.40
31.2770,0.09,0.11,-0.98,3.23,1.16,1.28
31.2930,0.10,0.11,-0.98,3.17,1.59,1.22
31.2950,0.10,0.11,-0.98,3.23,1.53,1.22
31.3100,0.09,0.11,-0.98,3.30,1.34,1.16
31.3350,0.09,0.11,-0.98,3.30,1.59,1.16
31.3520,0.10,0.11,-0.98,3.42,1.40,0.79
31.3690,0.09,0.11,-0.98,3.48,1.28,0.79
31.3840,0.09,0.11,-0.98,3.30,1.65,0.79
31.3860,0.09,0.11,-0.98,3.97,1.40,0.73
31.4160,0.10,0.12,-0.98,3.97,1.95,0.43
31.4320,0.10,0.11,-0.98,3.42,1.28,0.61
31.4490,0.10,0.12,-0.98,3.05,1.40,0.85
31.4520,0.09,0.11,-0.98,3.05,1.34,0.67
31.4690,0.09,0.11,-0.98,3.60,1.28,0.55
31.4910,0.09,0.12,-0.98,3.54,1.46,0.37
31.5070,0.10,0.12,-0.98,3.78,1.83,0.18
31.5240,0.09,0.12,-0.98,3.42,2.08,0.43
31.5400,0.10,0.11,-0.98,3.23,1.89,0.67
31.5550,0.10,0.11,-0.98,3.36,1.71,0.98
31.5710,0.10,0.11,-0.98,3.66,1.53,1.28
31.5750,0.10,0.11,-0.98,3.42,1.28,1.34
31.6020,0.10,0.11,-0.98,3.72,1.95,1.53
31.6180,0.10,0.11,-0.98,3.85,1.53,1.40
31.6250,0.10,0.11,-0.98,3.30,1.89,1.34
31.6480,0.10,0.11,-0.98,3.05,1.40,1.04
31.6630,0.10,0.11,-0.98,3.23,1.53,1.28
31.6740,0.10,0.11,-0.98,3.23,1.53,1.34
31.6910,0.10,0.11,-0.98,3.30,1.65,1.46
31.7060,0.09,0.11,-0.98,3.60,1.53,1.83
31.7260,0.10,0.11,-0.98,3.60,1.22,1.95
31.7400,0.10,0.11,-0.98,3.66,1.46,2.01
31.7560,0.10,0.12,-0.98,3.60,1.59,1.95
31.7700,0.10,0.11,-0.98,3.36,1.59,1.59
31.7810,0.10,0.11,-0.98,3.30,1.71,1.04
31.7960,0.10,0.11,-0.98,3.48,1.22,1.04
31.8160,0.11,0.11,-0.98,3.23,1.77,1.28
31.8210,0.10,0.11,-0.98,3.60,1.22,1.40
31.8450,0.10,0.11,-0.98,3.66,1.59,1.40
31.8530,0.10,0.11,-0.98,3.72,1.53,1.22
31.8710,0.10,0.11,-0.98,3.54,1.59,1.22
31.8890,0.10,0.12,-0.98,3.48,1.34,1.10
31.9030,0.10,0.11,-0.98,3.17,1.16,1.22
31.9210,0.10,0.11,-0.98,3.42,1.89,1.16
31.9360,0.10,0.11,-0.98,3.72,1.59,1.34
31.9530,0.10,0.11,-0.98,3.72,1.46,1.40
31.9690,0.10,0.11,-0.98,3.30,1.46,1.46
31.9710,0.10,0.11,-0.98,3.48,1.22,1.46
32.0000,0.10,0.11,-0.98,3.48,1.71,1.65
32.0140,0.10,0.11,-0.98,3.48,1.22,1.46
32.0290,0.10,0.11,-0.98,3.48,1.34,1.34
32.0370,0.10,0.12,-0.98,3.30,1.71,1.40
32.0550,0.10,0.12,-0.98,2.99,1.59,1.65
32.0700,0.09,0.11,-0.98,2.93,1.77,1.65
32.0870,0.10,0.11,-0.98,3.30,1.65,1.83
32.1050,0.10,0.11,-0.98,3.11,1.53,1.65
32.1200,0.10,0.11,-0.98,3.36,1.22,1.46
32.1360,0.10,0.12,-0.98,3.23,1.71,1.40
32.1380,0.10,0.12,-0.98,3.17,1.71,1.59
32.1530,0.10,0.12,-0.98,2.87,1.83,1.71
32.1840,0.10,0.12,-0.98,2.81,1.40,1.59
32.1990,0.10,0.11,-0.98,2.93,1.46,1.59
32.2160,0.09,0.11,-0.98,3.30,1.46,1.40
32.2310,0.10,0.11,-0.98,3.23,1.40,1.46
32.2370,0.09,0.12,-0.98,3.11,1.95,1.16
32.2600,0.10,0.12,-0.98,3.17,1.46,1.22
32.2710,0.09,0.11,-0.98,3.11,1.65,1.16
32.2880,0.10,0.11,-0.98,3.36,1.40,1.34
32.3040,0.09,0.11,-0.98,3.42,1.53,1.28
32.3220,0.10,0.11,-0.98,3.72,1.28,1.22
32.3240,0.10,0.11,-0.98,3.66,1.59,1.46
32.3540,0.10,0.11,-0.98,3.54,1.59,1.59
32.3700,0.10,0.12,-0.98,3.30,1.77,1.46
32.3850,0.11,0.12,-0.98,3.05,1.77,1.59
32.4000,0.10,0.11,-0.98,3.11,2.01,1.65
32.4150,0.10,0.11,-0.98,3.30,1.22,1.46
32.4300,0.10,0.11,-0.98,3.66,1.34,1.59
32.4410,0.10,0.11,-0.98,3.36,1.77,1.65
32.4570,0.10,0.11,-0.98,3.60,1.65,1.40
32.4740,0.10,0.11,-0.98,3.66,1.83,1.46
32.4910,0.10,0.11,-0.98,3.42,1.83,1.40
32.5060,0.10,0.11,-0.98,3.48,1.53,1.40
32.5220,0.10,0.11,-0.98,3.60,1.40,1.40
32.5390,0.10,0.11,-0.98,3.78,1.71,1.28
32.5410,0.10,0.12,-0.98,3.36,1.71,1.16
32.5560,0.11,0.11,-0.98,3.30,1.16,1.40
32.5790,0.10,0.11,-0.98,3.30,1.53,1.71
32.5960,0.09,0.11,-0.98,3.11,1.40,1.59
32.6120,0.09,0.11,-0.98,3.36,1.46,1.53
32.6290,0.10,0.12,-0.98,3.23,1.71,1.53
32.6460,0.10,0.11,-0.98,3.11,1.77,1.16
32.6610,0.10,0.11,-0.98,3.23,1.65,1.28
32.6780,0.10,0.11,-0.98,3.11,1.59,1.46
32.6950,0.10,0.12,-0.98,2.69,1.65,1.53
32.7110,0.10,0.11,-0.98,2.62,1.89,1.34
32.7270,0.10,0.11,-0.98,3.42,1.53,1.40
32.7430,0.10,0.11,-0.98,3.30,1.83,1.53
32.7580,0.10,0.11,-0.98,3.30,1.71,1.40
32.7720,0.10,0.11,-0.98,3.42,1.46,1.40
32.7870,0.10,0.12,-0.98,2.93,1.53,1.34
32.8020,0.09,0.12,-0.98,2.69,1.71,0.92
32.8130,0.10,0.11,-0.98,2.87,1.89,1.28
32.8290,0.10,0.10,-0.98,3.36,1.89,1.40
32.8450,0.10,0.11,-0.98,3.54,1.65,1.28
32.8630,0.10,0.11,-0.98,3.66,1.65,1.40
32.8800,0.11,0.11,-0.98,3.54,1.34,1.34
32.8960,0.10,0.11,-0.98,3.17,1.34,1.59
32.9120,0.10,0.11,-0.98,3.30,1.83,1.59
32.9280,0.10,0.11,-0.98,3.23,1.28,1.59
32.9450,0.10,0.11,-0.98,3.42,1.95,1.65
32.9470,0.10,0.11,-0.98,3.48,1.53,1.59
32.9750,0.10,0.11,-0.98,3.66,1.28,1.59
32.9900,0.10,0.11,-0.98,3.36,1.65,1.59
33.0050,0.09,0.11,-0.98,3.36,1.34,1.71
33.0200,0.10,0.11,-0.98,3.11,1.53,1.83
33.0290,0.09,0.12,-0.98,2.99,1.77,1.77
33.0450,0.09,0.11,-0.98,2.87,1.71,1.59
33.0660,0.10,0.11,-0.98,3.11,1.59,1.65
33.0820,0.10,0.11,-0.98,3.66,1.71,1.53
33.0990,0.10,0.11,-0.98,3.54,1.46,1.53
33.1140,0.09,0.11,-0.98,3.66,1.59,1.71
33.1310,0.10,0.11,-0.98,3.60,1.53,1.71
33.1320,0.10,0.11,-0.98,3.60,1.89,1.77
33.1500,0.10,0.11,-0.98,3.60,1.53,1.65
33.1710,0.10,0.11,-0.98,3.42,1.95,1.71
33.1830,0.10,0.11,-0.98,3.11,1.71,1.65
33.1990,0.10,0.11,-0.98,3.17,1.16,1.77
33.2160,0.09,0.11,-0.98,3.30,1.46,1.83
33.2320,0.10,0.11,-0.98,3.17,1.53,2.01
33.2490,0.10,0.11,-0.98,3.30,1.89,1.89
33.2710,0.10,0.11,-0.98,3.42,1.34,1.89
33.2810,0.10,0.11,-0.98,3.42,1.59,1.89
33.3030,0.09,0.12,-0.98,3.23,1.77,2.01
33.3180,0.10,0.11,-0.98,3.23,1.40,2.08
33.3350,0.10,0.11,-0.98,3.17,1.71,2.32
33.3510,0.09,0.11,-0.98,3.23,1.65,2.20
33.3670,0.10,0.12,-0.98,3.54,1.40,2.32
33.3820,0.10,0.11,-0.98,4.03,1.77,2.20
33.3990,0.10,0.12,-0.98,3.30,1.65,2.14
33.4130,0.10,0.11,-0.98,3.11,1.65,2.01
33.4290,0.11,0.11,-0.98,3.23,1.65,2.14
33.4360,0.10,0.11,-0.98,3.54,1.46,1.89
33.4510,0.09,0.11,-0.98,3.36,1.46,2.08
33.4730,0.10,0.11,-0.98,3.91,1.22,2.08
33.4890,0.10,0.11,-0.98,3.85,1.28,1.65
33.5050,0.10,0.11,-0.98,3.66,1.40,1.71
33.5210,0.10,0.11,-0.98,3.54,1.40,1.95
33.5360,0.10,0.11,-0.98,3.54,1.46,1.77
33.5510,0.10,0.11,-0.98,3.36,1.53,1.65
33.5570,0.09,0.12,-0.98,3.30,1.65,1.83
33.5730,0.10,0.11,-0.98,3.36,1.40,2.08
33.5960,0.09,0.11,-0.98,3.17,1.65,2.20
33.6120,0.10,0.11,-0.98,3.23,1.77,2.26
33.6280,0.10,0.11,-0.98,3.11,1.65,2.08
33.6310,0.10,0.11,-0.98,3.36,1.04,2.01
33.6460,0.09,0.11,-0.98,3.23,1.59,2.01
33.6710,0.10,0.11,-0.98,3.42,1.46,1.89
33.6890,0.10,0.11,-0.98,3.17,1.59,1.83
33.7040,0.11,0.11,-0.98,3.23,1.59,1.65
33.7200,0.10,0.11,-0.98,3.78,1.95,1.65
33.7220,0.10,0.11,-0.98,3.85,1.77,1.65
33.7530,0.10,0.11,-0.98,3.66,1.65,1.77
33.7690,0.10,0.11,-0.98,3.78,1.59,1.71
33.7840,0.10,0.10,-0.97,3.30,1.71,1.65
33.8010,0.10,0.12,-0.98,3.97,1.59,1.77
33.8170,0.10,0.11,-0.98,4.27,1.71,1.77
33.8320,0.10,0.11,-0.98,3.97,1.46,1.71
33.8380,0.10,0.12,-0.98,3.78,1.83,1.71
33.8540,0.10,0.12,-0.98,3.66,1.71,1.59
33.8710,0.10,0.12,-0.98,3.42,1.28,1.77
33.8910,0.10,0.11,-0.98,3.30,1.77,1.83
33.9060,0.10,0.12,-0.98,2.93,1.95,1.59
33.9220,0.10,0.11,-0.98,2.20,1.95,1.59
33.9390,0.09,0.12,-0.96,2.32,2.44,1.65
33.9540,0.10,0.11,-0.98,2.69,2.14,1.83
33.9690,0.10,0.11,-0.98,2.75,1.95,1.71
33.9740,0.10,0.11,-0.98,2.93,1.83,1.71
33.9910,0.10,0.12,-0.98,3.05,2.01,1.71
34.0070,0.10,0.11,-0.98,3.17,2.08,1.53
34.0240,0.10,0.11,-0.98,3.36,1.71,1.71
34.0410,0.10,0.11,-0.98,3.30,1.95,1.77
34.0570,0.10,0.11,-0.98,3.36,2.20,1.77
34.0740,0.10,0.11,-0.98,3.78,1.40,1.65
34.0890,0.10,0.11,-0.98,3.66,1.77,1.71
34.1040,0.10,0.11,-0.98,3.72,1.83,1.77
34.1190,0.10,0.12,-0.98,3.66,1.77,1.77
34.1340,0.10,0.11,-0.98,3.54,1.53,1.77
34.1490,0.10,0.12,-0.98,3.48,2.26,1.77
34.1570,0.10,0.11,-0.98,3.30,1.83,1.89
34.1750,0.10,0.12,-0.98,3.36,1.77,1.83
34.1900,0.10,0.11,-0.98,3.11,2.08,1.83
34.2070,0.10,0.12,-0.98,3.11,1.65,1.77
34.2240,0.10,0.12,-0.98,3.30,1.53,1.71
34.2380,0.10,0.11,-0.98,3.17,2.08,1.71
34.2540,0.10,0.12,-0.98,3.60,1.53,1.77
34.2700,0.10,0.11,-0.98,3.42,1.40,1.77
34.2870,0.10,0.12,-0.98,3.42,1.65,1.89
34.2900,0.10,0.12,-0.98,3.23,1.65,1.77
34.3060,0.10,0.11,-0.98,3.48,1.46,1.77
34.3300,0.10,0.11,-0.98,3.48,1.65,1.83
34.3460,0.10,0.11,-0.98,3.48,1.46,1.71
34.3630,0.10,0.11,-0.98,3.66,1.71,1.89
34.3790,0.10,0.12,-0.98,3.60,1.28,1.89
34.3960,0.10,0.12,-0.98,3.48,1.71,1.83
34.4120,0.10,0.12,-0.98,3.42,1.28,1.71
34.4290,0.10,0.12,-0.98,3.66,1.22,1.83
34.4310,0.10,0.11,-0.98,3.60,1.59,2.14
34.4460,0.10,0.11,-0.98,3.30,1.59,3.60
34.4760,0.10,0.12,-0.98,3.05,1.22,5.43
34.4930,0.09,0.12,-0.98,2.99,1.59,4.52
34.5090,0.10,0.11,-0.98,3.30,1.71,1.83
34.5130,0.10,0.11,-0.98,3.11,1.83,1.59
34.5400,0.10,0.12,-0.98,3.17,1.71,1.59
34.5460,0.10,0.12,-0.98,3.85,2.14,1.71
34.5620,0.10,0.12,-0.98,3.17,1.46,1.71
34.5850,0.10,0.12,-0.98,2.87,1.46,1.65
34.6010,0.10,0.11,-0.98,2.26,1.77,1.40
34.6170,0.10,0.11,-0.98,3.30,1.40,1.65
34.6330,0.10,0.11,-0.98,3.23,1.83,1.65
34.6490,0.10,0.12,-0.98,3.48,1.59,1.65
34.6640,0.10,0.11,-0.98,3.30,1.89,1.53
34.6790,0.10,0.12,-0.98,3.60,1.65,1.71
34.6860,0.10,0.12,-0.98,3.54,1.34,1.77
34.7030,0.10,0.11,-0.98,3.48,1.71,1.77
34.7200,0.10,0.12,-0.98,3.54,1.65,1.71
34.7360,0.10,0.12,-0.98,3.11,1.65,1.65
34.7520,0.10,0.12,-0.98,3.17,1.71,1.83
34.7610,0.10,0.12,-0.98,3.23,1.65,1.65
34.7850,0.10,0.12,-0.98,3.30,1.46,1.53
34.7940,0.10,0.12,-0.98,3.11,1.34,1.53
34.8100,0.10,0.11,-0.98,2.69,1.53,1.83
34.8310,0.10,0.12,-0.98,2.56,1.89,1.59
34.8320,0.10,0.12,-0.98,2.75,1.95,0.61
34.8610,0.10,0.11,-0.98,2.99,1.65,0.24
34.8730,0.10,0.11,-0.98,3.30,1.53,0.67
34.8940,0.10,0.11,-0.98,3.23,1.59,1.10
34.9100,0.11,0.13,-0.97,3.23,2.08,1.10
34.9150,0.10,0.13,-0.98,3.42,1.89,-0.49
34.9300,0.10,0.12,-0.98,3.36,1.95,0.61
34.9550,0.09,0.10,-0.98,3.30,2.08,1.04
34.9710,0.09,0.09,-0.98,3.30,1.77,0.85
34.9870,0.09,0.10,-0.98,3.36,1.65,1.34
34.9900,0.10,0.12,-0.98,3.30,1.59,1.71
35.0050,0.11,0.13,-0.98,3.11,1.71,1.04
35.0290,0.10,0.11,-0.98,3.36,1.71,-0.18
35.0460,0.09,0.10,-0.98,3.17,1.83,0.85
35.0620,0.10,0.11,-0.98,3.66,2.01,1.40
35.0790,0.10,0.11,-0.98,3.60,1.77,1.59
35.0950,0.10,0.12,-0.98,3.42,1.83,1.59
35.1120,0.11,0.13,-0.97,3.11,2.01,1.40
35.1280,0.10,0.12,-0.98,3.66,1.59,0.61
35.1440,0.10,0.12,-0.98,3.60,1.53,1.53
35.1600,0.10,0.11,-0.98,3.54,1.16,1.83
35.1730,0.10,0.11,-0.98,3.54,1.40,1.46
35.1780,0.11,0.12,-0.98,3.42,1.40,1.53
35.2040,0.10,0.12,-0.98,3.60,1.71,1.89
35.2190,0.10,0.11,-0.98,3.23,1.46,2.62
35.2370,0.09,0.11,-0.98,3.48,1.40,2.93
35.2530,0.09,0.10,-0.98,3.36,1.77,2.32
35.2540,0.10,0.12,-0.98,3.60,1.53,1.77
35.2730,0.10,0.12,-0.98,3.48,1.71,1.89
35.2870,0.10,0.12,-0.98,3.48,2.14,1.77
35.3170,0.10,0.12,-0.98,3.66,1.40,1.89
35.3200,0.10,0.12,-0.98,3.17,1.65,2.26
35.3360,0.10,0.12,-0.98,2.93,1.59,2.56
35.3520,0.10,0.11,-0.98,2.87,1.53,2.50
35.3730,0.10,0.11,-0.98,3.11,1.53,2.26
35.3950,0.09,0.11,-0.98,3.11,1.22,2.26
35.4070,0.10,0.11,-0.98,3.05,1.46,2.08
35.4240,0.09,0.11,-0.98,2.75,1.83,2.44
35.4240,0.10,0.12,-0.98,3.11,1.40,2.69
35.4550,0.10,0.11,-0.98,2.93,1.59,2.93
35.4570,0.09,0.11,-0.98,3.36,1.71,2.20
35.4730,0.10,0.12,-0.98,3.23,1.65,1.77
35.4890,0.10,0.12,-0.98,3.30,1.46,1.89
35.5120,0.10,0.12,-0.98,3.17,1.46,2.50
35.5290,0.10,0.11,-0.98,3.11,1.89,2.32
35.5460,0.10,0.11,-0.98,3.17,1.46,2.26
35.5620,0.10,0.11,-0.98,3.23,1.65,1.83
35.5780,0.10,0.11,-0.98,3.42,1.71,1.77
35.5940,0.10,0.11,-0.98,3.54,1.77,1.89
35.5960,0.10,0.12,-0.98,3.66,1.22,1.71
35.6120,0.10,0.12,-0.98,3.48,1.28,1.71
35.6370,0.10,0.12,-0.98,3.23,1.59,1.65
35.6530,0.10,0.12,-0.98,2.81,1.77,1.77
35.6700,0.10,0.12,-0.98,2.81,1.53,3.60
35.6860,0.10,0.11,-0.98,2.99,1.89,3.17
35.7020,0.10,0.12,-0.98,3.30,1.40,1.89
35.7190,0.10,0.11,-0.98,3.30,1.46,1.71
35.7200,0.10,0.11,-0.98,2.93,1.46,1.71
35.7370,0.10,0.11,-0.98,3.11,1.71,1.89
35.7540,0.10,0.11,-0.98,3.17,1.59,1.89
35.7740,0.10,0.11,-0.98,3.17,1.40,1.71
35.7860,0.10,0.11,-0.98,3.11,2.08,1.71
35.8020,0.10,0.11,-0.98,2.81,1.77,1.71
35.8290,0.09,0.12,-0.98,2.93,1.89,1.83
35.8400,0.09,0.12,-0.98,3.05,1.28,2.93
35.8570,0.10,0.11,-0.98,3.11,1.77,2.87
35.8740,0.10,0.12,-0.98,3.05,1.46,2.14
35.8900,0.10,0.12,-0.98,2.69,1.89,2.32
35.9050,0.10,0.12,-0.98,2.75,1.65,3.17
35.9210,0.10,0.11,-0.98,2.62,1.40,3.42
35.9240,0.11,0.10,-0.98,2.75,1.53,3.23
35.9390,0.10,0.11,-0.98,3.36,1.71,1.77
35.9630,0.10,0.11,-0.98,3.42,1.46,2.08
35.9790,0.10,0.12,-0.98,3.23,1.89,2.08
35.9960,0.09,0.12,-0.98,3.11,1.77,2.75
36.0130,0.09,0.11,-0.98,2.87,1.40,3.85
36.0290,0.10,0.11,-0.98,2.99,1.59,3.11
36.0440,0.10,0.11,-0.98,3.30,1.46,2.50
36.0590,0.10,0.11,-0.98,3.36,1.71,2.08
36.0740,0.09,0.12,-0.98,3.17,1.53,2.93
36.0790,0.10,0.11,-0.98,3.23,1.04,4.09
36.1040,0.10,0.11,-0.98,2.93,1.34,3.30
36.1200,0.10,0.10,-0.98,3.11,1.04,3.05
36.1360,0.10,0.11,-0.98,3.36,1.34,2.08
36.1530,0.10,0.12,-0.98,3.23,2.08,1.89
36.1690,0.10,0.11,-0.98,3.11,1.28,1.59
36.1850,0.10,0.11,-0.98,3.42,1.71,2.56
36.2010,0.10,0.11,-0.98,3.48,2.01,2.01
36.2170,0.10,0.11,-0.98,3.66,1.59,1.77
36.2330,0.10,0.11,-0.98,3.36,1.59,1.59
36.2380,0.10,0.11,-0.98,3.60,1.83,1.77
36.2540,0.10,0.11,-0.98,3.72,2.14,1.83
36.2790,0.10,0.12,-0.98,3.36,1.59,1.59
36.2960,0.10,0.11,-0.98,3.54,1.59,1.77
36.3120,0.10,0.11,-0.98,3.60,1.46,1.95
36.3140,0.10,0.11,-0.98,3.48,1.65,1.89
36.3290,0.10,0.12,-0.98,3.48,1.65,2.20
36.3530,0.10,0.12,-0.98,3.66,1.65,2.44
36.3700,0.10,0.12,-0.98,3.66,1.34,2.44
36.3870,0.10,0.12,-0.98,3.54,1.65,2.20
36.4040,0.10,0.12,-0.98,3.48,1.65,2.62
36.4190,0.10,0.11,-0.98,3.17,1.46,2.81
36.4360,0.09,0.11,-0.98,3.30,1.16,2.87
36.4510,0.09,0.11,-0.98,3.17,1.10,2.75
36.4680,0.09,0.11,-0.98,3.42,1.10,2.32
36.4840,0.10,0.11,-0.98,3.42,1.16,1.95
36.4870,0.10,0.12,-0.98,3.30,1.16,1.89
36.5030,0.10,0.12,-0.98,3.11,1.16,2.20
36.5200,0.10,0.11,-0.98,3.23,1.83,2.32
36.5370,0.10,0.11,-0.98,3.36,1.53,2.26
36.5620,0.10,0.11,-0.98,3.30,1.71,2.08
36.5750,0.10,0.12,-0.98,3.42,1.34,2.01
36.5860,0.10,0.12,-0.98,3.05,1.53,1.95
36.6040,0.10,0.12,-0.98,3.30,1.34,1.95
36.6190,0.10,0.11,-0.98,3.17,1.53,2.14
36.6360,0.09,0.11,-0.98,3.17,1.83,2.32
36.6530,0.10,0.11,-0.98,2.99,1.71,2.20
36.6530,0.10,0.11,-0.98,3.30,1.53,2.14
36.6750,0.10,0.12,-0.98,3.36,1.22,2.44
36.6860,0.10,0.12,-0.98,2.93,1.46,2.99
36.7030,0.10,0.11,-0.98,3.05,1.59,3.30
36.7320,0.10,0.11,-0.98,3.05,1.83,3.11
36.7370,0.10,0.12,-0.98,3.17,1.65,2.99
36.7530,0.09,0.11,-0.98,3.36,1.53,2.62
36.7780,0.10,0.11,-0.98,3.17,1.59,2.32
36.7930,0.10,0.12,-0.98,3.17,1.53,2.44
36.8090,0.10,0.11,-0.98,3.05,1.59,2.50
36.8240,0.10,0.11,-0.98,3.05,1.16,2.75
36.8280,0.10,0.11,-0.98,2.99,1.16,2.38
36.8440,0.10,0.11,-0.98,3.17,1.46,2.69
36.8690,0.10,0.11,-0.98,3.36,1.65,2.75
36.8860,0.10,0.11,-0.98,3.11,1.59,2.62
36.9010,0.10,0.11,-0.98,3.11,1.53,2.38
36.9180,0.10,0.12,-0.98,3.11,1.34,2.44
36.9190,0.10,0.12,-0.98,3.30,1.65,2.38
36.9370,0.10,0.11,-0.98,3.36,1.65,2.50
36.9530,0.10,0.11,-0.98,3.30,1.40,2.01
36.9760,0.10,0.11,-0.98,3.30,1.59,1.65
36.9850,0.10,0.11,-0.98,3.23,1.59,1.71
37.0120,0.10,0.12,-0.98,3.54,1.71,1.95
37.0270,0.10,0.12,-0.98,3.36,1.53,2.69
37.0450,0.10,0.12,-0.98,3.23,1.40,3.17
37.0600,0.10,0.11,-0.98,3.42,1.34,3.17
37.0750,0.10,0.11,-0.98,3.60,1.77,2.01
37.0910,0.10,0.12,-0.98,3.66,1.83,1.95
37.1050,0.10,0.12,-0.98,3.42,1.65,2.14
37.1220,0.10,0.11,-0.98,3.23,1.46,2.32
37.1280,0.10,0.11,-0.98,3.30,2.01,2.38
37.1440,0.10,0.12,-0.98,3.48,1.71,2.20
37.1680,0.10,0.12,-0.98,3.17,1.22,2.32
37.1830,0.10,0.12,-0.98,3.30,1.71,2.62
37.1870,0.10,0.11,-0.98,3.54,1.89,2.44
37.2040,0.10,0.12,-0.98,3.36,1.83,2.32
37.2190,0.10,0.12,-0.98,3.48,1.28,2.44
37.2430,0.10,0.11,-0.98,3.17,1.65,2.75
37.2590,0.10,0.11,-0.98,3.30,1.65,2.75
37.2760,0.10,0.11,-0.98,3.36,1.22,2.69
37.2920,0.10,0.12,-0.98,3.11,1.65,2.44
37.3080,0.10,0.12,-0.98,2.93,1.34,2.81
37.3240,0.10,0.12,-0.98,2.93,1.65,3.23
37.3390,0.10,0.11,-0.98,3.17,1.53,3.66
37.3540,0.09,0.11,-0.98,3.30,1.59,2.99
37.3710,0.09,0.11,-0.98,3.23,1.77,2.56
37.3870,0.10,0.11,-0.98,3.30,1.40,2.26
37.3920,0.10,0.12,-0.98,3.36,1.59,2.08
37.4080,0.10,0.12,-0.98,3.48,1.95,2.26
37.4330,0.10,0.12,-0.98,3.36,1.59,2.50
37.4480,0.10,0.12,-0.98,3.05,1.83,2.81
37.4500,0.10,0.11,-0.98,3.05,1.46,2.81
37.4800,0.10,0.11,-0.98,3.36,1.89,2.44
37.4960,0.10,0.11,-0.98,3.42,1.46,2.08
37.5000,0.10,0.12,-0.98,3.48,1.59,2.20
37.5280,0.10,0.12,-0.98,3.36,1.53,2.38
37.5330,0.10,0.12,-0.98,3.30,1.40,2.32
37.5490,0.10,0.11,-0.98,3.23,1.59,2.26
37.5730,0.10,0.11,-0.98,3.17,1.65,2.01
37.5770,0.10,0.12,-0.98,3.30,1.40,1.77
37.6030,0.10,0.12,-0.98,3.36,1.71,2.14
37.6190,0.10,0.12,-0.98,3.23,1.89,2.32
37.6230,0.10,0.12,-0.98,3.23,1.59,2.38
37.6500,0.10,0.11,-0.98,3.05,1.65,2.50
37.6660,0.10,0.11,-0.98,3.30,1.71,2.38
37.6820,0.10,0.11,-0.98,3.30,1.83,2.38
37.6990,0.10,0.12,-0.98,3.23,1.71,2.32
37.7050,0.10,0.12,-0.98,3.36,1.46,2.69
37.7210,0.10,0.12,-0.98,3.23,1.28,2.62
37.7430,0.09,0.11,-0.98,3.36,1.28,2.62
37.7600,0.10,0.12,-0.98,3.30,1.40,2.50
37.7750,0.10,0.11,-0.98,3.42,1.53,2.81
37.7920,0.10,0.12,-0.98,3.42,1.83,2.20
37.8070,0.10,0.12,-0.98,3.30,1.65,2.20
37.8230,0.10,0.12,-0.98,3.30,1.40,2.26
37.8380,0.10,0.12,-0.98,3.23,1.83,2.14
37.8540,0.10,0.12,-0.98,3.30,1.83,2.14
37.8600,0.10,0.11,-0.98,3.54,1.59,2.26
37.8830,0.10,0.12,-0.98,3.36,1.77,2.20
37.8990,0.10,0.12,-0.98,3.36,1.28,2.26
37.9100,0.10,0.12,-0.98,3.30,1.59,2.62
37.9270,0.10,0.11,-0.98,3.23,1.28,2.44
37.9420,0.10,0.12,-0.98,3.36,1.53,2.44
37.9590,0.10,0.11,-0.98,3.23,1.46,2.56
37.9740,0.10,0.11,-0.98,3.48,1.71,1.89
37.9820,0.10,0.12,-0.98,3.54,1.71,1.83
37.9980,0.10,0.12,-0.98,3.48,1.77,1.89
38.0130,0.10,0.12,-0.98,3.30,1.65,1.83
38.0350,0.10,0.12,-0.98,3.42,1.40,1.95
38.0360,0.10,0.11,-0.98,3.36,1.59,2.01
38.0530,0.10,0.11,-0.98,3.23,1.40,2.08
38.0780,0.10,0.12,-0.98,3.23,1.40,2.08
38.0960,0.10,0.11,-0.98,3.23,1.40,2.44
38.1120,0.10,0.11,-0.98,3.23,1.46,2.50
38.1270,0.10,0.12,-0.98,3.17,1.40,2.44
38.1350,0.10,0.12,-0.98,3.17,1.53,2.56
38.1530,0.10,0.12,-0.98,3.23,1.53,2.56
38.1680,0.10,0.12,-0.98,3.17,1.34,2.69
38.1850,0.10,0.12,-0.98,3.11,1.34,2.62
38.2020,0.10,0.11,-0.98,3.11,1.28,3.11
38.2180,0.10,0.11,-0.98,3.42,1.34,2.93
38.2340,0.10,0.11,-0.98,3.30,1.53,2.56
38.2360,0.10,0.11,-0.98,3.30,1.59,2.38
38.2530,0.10,0.12,-0.98,3.36,1.53,2.44
38.2780,0.10,0.11,-0.98,2.87,1.95,2.56
38.2970,0.10,0.11,-0.98,3.23,1.22,2.62
38.3120,0.09,0.11,-0.98,3.36,1.46,2.38
38.3280,0.10,0.11,-0.98,3.42,1.46,1.95
38.3360,0.10,0.12,-0.98,3.42,1.22,2.08
38.3520,0.10,0.12,-0.98,3.23,1.59,2.26
38.3730,0.10,0.12,-0.98,2.93,1.34,2.38
38.3890,0.10,0.12,-0.98,3.11,1.53,2.50
38.4040,0.10,0.11,-0.98,3.05,1.71,2.50
38.4080,0.10,0.11,-0.98,3.23,1.59,2.69
38.4350,0.10,0.11,-0.98,3.30,1.40,2.44
38.4510,0.10,0.12,-0.98,3.42,1.53,2.20
38.4570,0.10,0.12,-0.98,3.48,1.22,2.32
38.4810,0.10,0.12,-0.98,3.23,1.40,2.14
38.4900,0.10,0.12,-0.98,3.36,1.53,2.38
38.5070,0.10,0.12,-0.98,3.23,1.34,2.69
38.5240,0.10,0.11,-0.98,3.23,1.04,2.75
38.5400,0.10,0.11,-0.98,3.30,1.53,2.69
38.5570,0.10,0.11,-0.98,3.48,1.28,2.44
38.5730,0.10,0.12,-0.98,3.54,1.10,2.32
38.5880,0.10,0.12,-0.98,3.30,1.46,2.44
38.6040,0.10,0.11,-0.98,3.30,1.28,2.93
38.6190,0.10,0.11,-0.98,3.23,1.40,2.87
38.6340,0.10,0.11,-0.98,3.23,1.53,3.05
38.6500,0.10,0.12,-0.98,3.42,1.53,2.75
38.6650,0.10,0.12,-0.98,3.54,1.34,2.99
38.6800,0.10,0.12,-0.98,3.30,1.40,2.93
38.6900,0.10,0.11,-0.98,3.42,1.28,2.62
38.7060,0.10,0.12,-0.98,3.36,1.34,2.56
38.7270,0.10,0.12,-0.98,3.05,1.46,3.36
38.7440,0.10,0.11,-0.98,3.05,1.28,3.72
38.7620,0.10,0.11,-0.98,3.05,1.22,3.54
38.7770,0.10,0.11,-0.98,3.30,1.22,3.48
38.7930,0.10,0.12,-0.98,3.11,1.10,3.60
38.8080,0.10,0.11,-0.98,3.11,1.53,3.60
38.8230,0.10,0.11,-0.98,2.87,1.59,3.54
38.8380,0.10,0.12,-0.98,2.99,1.46,3.42
38.8470,0.10,0.12,-0.98,3.11,1.40,3.97
38.8640,0.10,0.12,-0.98,2.75,1.04,4.46
38.8800,0.10,0.12,-0.98,2.93,1.28,4.64
38.8970,0.10,0.12,-0.98,2.81,1.28,4.82
38.9130,0.10,0.11,-0.98,2.81,1.34,4.46
38.9300,0.09,0.10,-0.98,2.99,1.65,3.17
38.9310,0.10,0.12,-0.98,3.17,1.65,2.50
38.9470,0.10,0.12,-0.98,3.30,1.83,2.93
38.9760,0.10,0.11,-0.98,3.54,1.65,2.87
38.9920,0.10,0.11,-0.98,3.17,1.83,2.50
39.0080,0.10,0.12,-0.98,3.85,1.59,2.99
39.0240,0.09,0.11,-0.98,3.23,1.71,3.05
39.0400,0.10,0.12,-0.98,3.17,1.95,2.44
39.0470,0.10,0.12,-0.98,3.48,1.77,2.62
39.0650,0.10,0.12,-0.98,3.36,1.71,2.99
39.0800,0.10,0.12,-0.98,3.05,1.46,2.99
39.0960,0.10,0.12,-0.98,3.05,1.77,3.48
39.1150,0.10,0.11,-0.98,3.11,1.59,3.54
39.1300,0.09,0.11,-0.98,3.30,1.53,3.36
39.1350,0.10,0.11,-0.98,3.23,1.46,2.69
39.1510,0.10,0.12,-0.98,3.42,1.53,2.26
39.1750,0.10,0.12,-0.98,3.54,1.28,2.50
39.1900,0.10,0.12,-0.98,3.23,1.59,2.38
39.2050,0.10,0.11,-0.98,3.23,1.65,2.44
39.2210,0.10,0.12,-0.98,3.17,1.77,2.32
39.2250,0.10,0.12,-0.98,3.36,1.22,2.69
39.2410,0.10,0.12,-0.98,3.11,1.46,2.81
39.2670,0.10,0.12,-0.98,3.11,1.65,2.75
39.2830,0.10,0.11,-0.98,2.99,1.40,2.62
39.2990,0.10,0.11,-0.98,3.23,1.59,2.50
39.3150,0.10,0.11,-0.98,3.30,1.71,2.87
39.3170,0.10,0.11,-0.98,3.36,1.77,2.81
39.3460,0.10,0.12,-0.98,3.17,1.83,2.93
39.3510,0.10,0.12,-0.98,3.05,1.40,2.81
39.3660,0.10,0.12,-0.98,2.93,1.77,2.99
39.3900,0.09,0.11,-0.98,3.23,1.65,2.75
39.4070,0.10,0.11,-0.98,3.23,1.95,2.38
39.4230,0.10,0.11,-0.98,3.23,2.01,2.26
39.4390,0.10,0.12,-0.98,3.11,2.01,2.32
39.4540,0.10,0.12,-0.98,3.30,1.59,2.56
39.4690,0.10,0.11,-0.98,3.05,1.65,2.69
39.4790,0.10,0.11,-0.98,3.23,1.65,2.62
39.4890,0.10,0.11,-0.98,3.23,1.46,2.26
39.5120,0.10,0.12,-0.98,3.30,2.20,2.08
39.5290,0.10,0.12,-0.98,3.23,1.95,2.38
39.5450,0.10,0.12,-0.98,3.17,1.65,2.56
39.5630,0.10,0.12,-0.98,3.30,1.77,2.81
39.5780,0.10,0.12,-0.98,3.11,1.83,2.56
39.5800,0.10,0.12,-0.98,3.11,1.77,2.75
39.5960,0.09,0.11,-0.98,3.11,1.46,2.99
39.6270,0.10,0.12,-0.98,3.05,1.77,2.20
39.6290,0.10,0.12,-0.98,3.17,1.89,2.50
39.6450,0.10,0.11,-0.98,3.23,1.83,2.50
39.6670,0.10,0.11,-0.98,2.99,2.08,2.56
39.6840,0.10,0.11,-0.98,3.11,1.83,2.50
39.7000,0.10,0.11,-0.98,3.48,2.08,2.44
39.7160,0.10,0.12,-0.98,3.36,1.77,2.32
39.7340,0.10,0.11,-0.98,3.30,1.71,2.56
39.7490,0.09,0.11,-0.98,3.17,1.40,2.56
39.7650,0.10,0.11,-0.98,3.23,1.95,2.62
39.7820,0.10,0.12,-0.98,3.05,1.65,2.62
39.7970,0.10,0.12,-0.98,3.42,1.28,2.87
39.8000,0.10,0.12,-0.98,3.11,1.16,2.99
39.8180,0.10,0.12,-0.98,3.05,1.65,3.36
39.8340,0.10,0.11,-0.98,3.30,1.53,3.60
39.8590,0.10,0.11,-0.98,3.54,1.22,3.60
39.8740,0.10,0.11,-0.98,3.23,1.59,3.48
39.8890,0.10,0.12,-0.98,3.05,1.53,3.36
39.9040,0.10,0.11,-0.98,3.05,1.59,3.17
39.9200,0.10,0.11,-0.98,3.11,1.83,2.81
39.9350,0.10,0.12,-0.98,3.05,1.40,2.87
39.9500,0.10,0.11,-0.98,3.17,1.10,3.05
39.9650,0.10,0.12,-0.98,3.11,1.04,3.11
39.9790,0.10,0.12,-0.98,3.17,1.40,3.05
39.9910,0.10,0.11,-0.98,3.17,1.40,3.42
40.0070,0.10,0.11,-0.98,3.17,1.46,2.87
40.0170,0.10,0.12,-0.98,3.17,1.65,2.69
40.0350,0.10,0.11,-0.98,3.11,1.89,2.62
40.0510,0.10,0.12,-0.98,3.17,1.77,2.56
40.0710,0.10,0.12,-0.98,2.99,1.46,2.87
40.0800,0.10,0.11,-0.98,2.99,1.34,3.30
40.0910,0.10,0.12,-0.98,2.93,1.34,3.11
40.1160,0.10,0.11,-0.98,3.17,1.10,2.99
40.1310,0.09,0.11,-0.98,3.42,1.40,2.99
40.1400,0.10,0.12,-0.98,3.42,1.16,2.38
40.1560,0.10,0.12,-0.98,3.17,1.65,2.44
40.1720,0.10,0.12,-0.98,3.11,1.71,2.75
40.1910,0.10,0.12,-0.98,3.05,1.59,2.99
40.1990,0.10,0.11,-0.98,3.05,1.46,3.05
40.2180,0.10,0.11,-0.98,3.05,1.83,2.75
40.2330,0.10,0.12,-0.98,3.36,1.40,2.56
40.2510,0.10,0.12,-0.98,3.23,1.65,2.50
40.2660,0.10,0.12,-0.98,3.17,1.59,2.81
40.2820,0.10,0.11,-0.98,3.30,1.40,3.05
40.2900,0.10,0.11,-0.98,3.17,1.53,2.62
40.3000,0.10,0.11,-0.98,3.17,1.95,2.69
40.3170,0.10,0.12,-0.98,3.36,1.83,2.62
40.3420,0.10,0.12,-0.98,3.42,1.77,2.99
40.3560,0.10,0.12,-0.98,3.05,1.95,3.23
40.3660,0.10,0.11,-0.98,3.05,1.65,2.99
40.3840,0.10,0.11,-0.98,3.30,1.53,2.93
40.4020,0.10,0.11,-0.98,3.11,1.65,2.56
40.4170,0.10,0.12,-0.98,3.05,1.89,2.56
40.4330,0.10,0.12,-0.98,3.23,1.77,2.50
40.4510,0.10,0.12,-0.98,2.93,1.40,2.87
40.4510,0.10,0.11,-0.98,3.05,1.71,2.99
40.4810,0.09,0.11,-0.98,3.05,1.53,2.50
40.4960,0.10,0.11,-0.98,3.30,1.59,2.14
40.5010,0.10,0.11,-0.98,3.23,1.46,2.20
40.5260,0.10,0.12,-0.98,3.11,1.34,2.32
40.5420,0.09,0.11,-0.98,3.60,1.89,3.17
40.5490,0.10,0.12,-0.98,3.05,1.71,2.75
40.5660,0.10,0.12,-0.98,3.05,1.34,2.87
40.5830,0.10,0.12,-0.98,2.93,1.22,2.99
40.6000,0.10,0.11,-0.98,2.93,1.28,3.30
40.6180,0.10,0.11,-0.98,2.75,1.40,3.11
40.6330,0.10,0.11,-0.98,3.05,1.65,2.75
40.6500,0.10,0.12,-0.98,3.11,1.53,2.01
40.6670,0.10,0.12,-0.98,3.11,1.28,2.38
40.6820,0.10,0.11,-0.98,3.11,1.46,2.62
40.6830,0.10,0.11,-0.98,2.81,1.46,2.75
40.7130,0.10,0.11,-0.98,3.17,0.98,2.75
40.7280,0.10,0.12,-0.98,3.30,1.46,2.38
40.7340,0.10,0.12,-0.98,3.11,1.34,2.50
40.7580,0.10,0.12,-0.98,2.93,1.46,2.87
40.7660,0.10,0.11,-0.98,3.11,1.28,2.87
40.7820,0.09,0.11,-0.98,3.30,1.28,2.50
40.8050,0.10,0.12,-0.98,3.11,1.40,1.95
40.8210,0.10,0.12,-0.98,3.17,1.59,2.14
40.8370,0.10,0.12,-0.98,3.11,1.59,2.32
40.8530,0.10,0.11,-0.98,3.23,1.10,2.08
40.8560,0.10,0.11,-0.98,3.05,1.89,2.32
40.8810,0.10,0.11,-0.98,3.23,1.53,2.56
40.8970,0.10,0.11,-0.98,3.36,1.46,2.62
40.9150,0.10,0.11,-0.98,3.23,1.16,2.50
40.9320,0.10,0.12,-0.98,3.17,1.59,2.08
40.9470,0.10,0.11,-0.98,3.30,1.46,2.01
40.9480,0.10,0.11,-0.98,3.36,1.77,2.08
40.9660,0.10,0.12,-0.98,3.36,1.34,1.95
40.9820,0.10,0.12,-0.98,3.11,1.28,2.01
41.0040,0.10,0.12,-0.98,3.23,1.40,2.01
41.0200,0.10,0.11,-0.98,3.17,1.83,2.14
41.0370,0.10,0.11,-0.98,3.23,1.89,2.26
41.0540,0.10,0.11,-0.98,3.48,1.89,2.62
41.0710,0.10,0.11,-0.98,3.23,1.22,2.38
41.0860,0.10,0.11,-0.98,2.99,1.59,2.14
41.0880,0.10,0.11,-0.98,2.99,1.53,2.14
41.1170,0.10,0.11,-0.98,3.23,1.46,2.38
41.1320,0.10,0.11,-0.98,3.48,1.34,2.32
41.1370,0.10,0.12,-0.98,3.17,1.53,2.44
41.1540,0.10,0.11,-0.98,3.30,1.59,2.38
41.1770,0.10,0.11,-0.98,3.17,1.59,2.01
41.1880,0.10,0.11,-0.98,3.36,1.53,1.95
41.2030,0.10,0.12,-0.98,3.36,1.65,2.01
41.2190,0.10,0.12,-0.98,3.36,1.89,2.26
41.2370,0.10,0.11,-0.98,3.30,1.71,2.01
41.2430,0.10,0.11,-0.98,3.36,1.40,2.20
41.2670,0.10,0.12,-0.98,3.30,1.53,2.26
41.2810,0.10,0.11,-0.98,3.42,1.65,2.50
41.2940,0.10,0.11,-0.98,3.54,1.59,2.32
41.3090,0.10,0.12,-0.98,3.36,1.71,2.26
41.3250,0.10,0.12,-0.98,3.23,1.59,2.50
41.3360,0.10,0.12,-0.98,3.17,1.65,2.32
41.3520,0.10,0.11,-0.98,3.23,1.53,2.38
41.3690,0.10,0.11,-0.98,3.17,1.46,2.01
41.3860,0.10,0.11,-0.98,3.30,1.40,2.01
41.4010,0.10,0.11,-0.98,3.48,1.46,2.08
41.4180,0.10,0.11,-0.98,3.42,1.53,1.95
41.4190,0.10,0.11,-0.98,3.42,1.46,1.71
41.4490,0.10,0.12,-0.98,3.54,1.77,1.77
41.4520,0.10,0.11,-0.98,3.42,1.83,1.95
41.4800,0.10,0.12,-0.98,3.42,1.46,2.01
41.4860,0.10,0.11,-0.98,3.48,1.65,2.01
41.5020,0.10,0.11,-0.98,3.23,1.40,1.65
41.5180,0.10,0.12,-0.98,3.11,1.77,1.46
41.5410,0.10,0.12,-0.98,3.42,1.77,1.46
41.5580,0.10,0.11,-0.98,3.36,1.65,1.65
41.5740,0.10,0.11,-0.98,3.48,1.59,1.59
41.5900,0.10,0.11,-0.98,3.30,1.40,1.71
41.6060,0.10,0.11,-0.98,3.48,1.71,1.77
41.6210,0.10,0.11,-0.98,3.11,1.28,1.59
41.6230,0.10,0.11,-0.98,3.11,1.53,1.53
41.6390,0.10,0.11,-0.98,3.30,1.95,1.59
41.6630,0.10,0.12,-0.98,3.23,1.65,1.77
41.6820,0.10,0.12,-0.98,3.36,1.65,1.77
41.6960,0.10,0.12,-0.98,3.23,1.83,1.77
41.7130,0.10,0.12,-0.98,2.93,1.53,2.01
41.7300,0.09,0.11,-0.98,3.30,1.77,2.20
41.7450,0.10,0.12,-0.98,3.23,2.14,2.01
41.7600,0.10,0.11,-0.98,3.48,1.89,1.95
41.7780,0.10,0.12,-0.98,3.30,1.53,2.01
41.7940,0.10,0.11,-0.98,3.42,1.46,2.01
41.8100,0.10,0.12,-0.98,3.42,1.22,2.26
41.8260,0.10,0.12,-0.98,3.17,1.46,2.20
41.8290,0.10,0.11,-0.98,3.23,1.53,2.32
41.8450,0.10,0.11,-0.98,3.36,1.53,2.14
41.8690,0.10,0.12,-0.98,3.42,1.34,2.26
41.8860,0.10,0.12,-0.98,3.05,1.40,2.50
41.9020,0.10,0.12,-0.98,3.17,1.59,2.75
41.9180,0.10,0.11,-0.98,2.99,1.83,2.81
41.9200,0.10,0.11,-0.98,3.05,1.77,2.81
41.9500,0.10,0.12,-0.98,3.23,1.59,2.56
41.9650,0.10,0.12,-0.98,3.05,1.40,2.62
41.9690,0.10,0.12,-0.98,2.87,1.65,2.75
41.9860,0.09,0.10,-0.98,3.17,2.01,2.50
42.0020,0.10,0.12,-0.98,3.05,1.22,2.32
42.0270,0.09,0.11,-0.98,3.36,2.32,2.50
42.0430,0.10,0.11,-0.98,3.30,1.65,1.95
42.0590,0.10,0.11,-0.98,3.17,1.95,1.95
42.0750,0.10,0.12,-0.98,2.87,1.53,1.95
42.0900,0.10,0.12,-0.98,2.99,1.53,2.50
42.1050,0.10,0.11,-0.98,2.81,1.77,2.62
42.1200,0.10,0.11,-0.98,3.17,1.59,2.56
42.1290,0.10,0.11,-0.98,3.17,2.08,2.75
42.1440,0.10,0.11,-0.98,3.23,1.77,2.81
42.1600,0.10,0.12,-0.98,3.30,1.77,2.38
42.1830,0.10,0.11,-0.98,3.11,1.77,2.20
42.1840,0.10,0.11,-0.98,3.05,2.14,2.44
42.2130,0.10,0.11,-0.98,3.05,1.95,2.38
42.2180,0.10,0.11,-0.98,3.23,1.40,2.14
42.2340,0.10,0.11,-0.98,3.11,1.83,2.44
42.2490,0.10,0.11,-0.98,3.11,2.01,2.50
42.2650,0.10,0.11,-0.98,2.81,2.08,2.62
42.2900,0.10,0.11,-0.98,2.93,2.26,2.50
42.3050,0.10,0.12,-0.98,3.23,1.83,2.56
42.3200,0.10,0.11,-0.98,3.30,1.83,2.38
42.3350,0.10,0.11,-0.98,3.23,2.08,2.56
42.3510,0.10,0.12,-0.98,3.05,1.40,2.44
42.3670,0.10,0.11,-0.98,3.05,1.89,2.81
42.3810,0.10,0.11,-0.98,2.75,1.59,2.56
42.3910,0.10,0.11,-0.98,3.05,1.46,2.75
42.4080,0.10,0.11,-0.98,3.23,1.71,2.62
42.4240,0.10,0.12,-0.98,2.99,1.71,2.50
42.4430,0.10,0.12,-0.98,3.17,1.65,2.56
42.4600,0.10,0.11,-0.98,3.17,1.46,2.69
42.4630,0.10,0.11,-0.98,3.17,1.71,2.50
42.4900,0.10,0.11,-0.98,3.23,1.77,2.38
42.5050,0.10,0.11,-0.98,3.11,1.59,2.26
42.5200,0.10,0.11,-0.98,3.42,1.83,2.26
42.5290,0.10,0.12,-0.98,3.23,1.77,2.20
42.5460,0.10,0.11,-0.98,3.30,1.59,2.62
42.5620,0.10,0.11,-0.98,3.30,1.83,2.87
42.5790,0.10,0.11,-0.98,3.36,1.71,2.87
42.5950,0.10,0.12,-0.98,3.42,1.59,2.50
42.6100,0.10,0.12,-0.98,3.36,1.71,2.75
42.6120,0.10,0.11,-0.98,3.17,1.53,2.56
42.6280,0.10,0.11,-0.98,3.11,1.53,2.75
42.6510,0.10,0.11,-0.98,3.36,1.83,2.75
42.6690,0.10,0.12,-0.98,3.54,1.89,2.75
42.6850,0.10,0.11,-0.98,3.23,1.95,3.17
42.7010,0.10,0.11,-0.98,3.17,1.89,2.99
42.7020,0.10,0.11,-0.98,3.23,1.77,2.62
42.7320,0.10,0.11,-0.98,3.30,1.71,2.38
42.7350,0.10,0.11,-0.98,3.05,2.01,2.08
42.7630,0.10,0.11,-0.98,3.54,1.77,1.95
42.7690,0.10,0.12,-0.98,3.48,1.83,1.89
42.7850,0.10,0.11,-0.98,3.36,1.95,2.08
42.8020,0.10,0.12,-0.98,3.23,1.77,2.14
42.8190,0.10,0.12,-0.98,3.48,1.59,2.32
42.8350,0.10,0.11,-0.98,3.42,1.95,2.56
42.8500,0.09,0.11,-0.98,3.36,1.71,2.26
42.8690,0.10,0.11,-0.98,3.36,1.46,2.01
42.8830,0.10,0.12,-0.98,3.36,1.28,2.08
42.8920,0.10,0.11,-0.98,3.11,1.71,2.20
42.9070,0.10,0.11,-0.98,2.99,2.01,2.26
42.9300,0.10,0.11,-0.98,3.36,1.77,2.20
42.9460,0.10,0.11,-0.98,3.42,1.71,2.44
42.9620,0.10,0.11,-0.98,3.54,1.65,2.50
42.9650,0.10,0.11,-0.98,3.36,1.59,2.32
42.9830,0.10,0.11,-0.98,3.48,1.59,2.01
43.0050,0.10,0.12,-0.98,3.42,1.59,1.89
43.0210,0.10,0.11,-0.98,3.48,1.53,1.89
43.0370,0.10,0.12,-0.98,3.30,1.71,2.20
43.0530,0.10,0.11,-0.98,3.23,1.53,2.20
43.0690,0.10,0.12,-0.98,3.30,1.83,2.44
43.0850,0.10,0.12,-0.98,3.36,2.20,2.75
43.1000,0.10,0.12,-0.98,3.23,1.83,2.81
43.1160,0.10,0.11,-0.98,3.23,1.46,2.62
43.1320,0.10,0.12,-0.97,3.17,1.71,2.69
43.1380,0.10,0.11,-0.98,3.72,1.34,3.72
43.1540,0.10,0.11,-0.98,3.48,1.46,3.48
43.1770,0.10,0.12,-0.98,3.17,1.40,2.87
43.1920,0.10,0.11,-0.98,3.30,1.71,2.87
43.1950,0.10,0.11,-0.98,3.54,1.53,2.81
43.2110,0.10,0.12,-0.98,3.48,1.65,3.05
43.2320,0.10,0.12,-0.98,3.36,1.71,3.23
43.2490,0.10,0.12,-0.98,3.17,1.59,3.66
43.2650,0.10,0.11,-0.98,2.93,1.71,3.54
43.2850,0.10,0.11,-0.98,3.17,1.71,3.17
43.3000,0.10,0.11,-0.98,3.30,1.71,3.11
43.3140,0.10,0.11,-0.98,3.54,1.46,2.69
43.3300,0.10,0.11,-0.98,3.23,1.77,2.62
43.3450,0.10,0.12,-0.98,3.42,2.01,2.26
43.3600,0.10,0.12,-0.98,3.42,1.83,2.69
43.3710,0.10,0.12,-0.98,3.05,1.34,2.50
43.3870,0.10,0.12,-0.98,3.30,1.71,2.99
43.4050,0.10,0.12,-0.98,3.36,1.53,2.99
43.4050,0.10,0.11,-0.98,3.42,1.10,2.99
43.4350,0.10,0.11,-0.98,3.48,1.59,2.56
43.4380,0.10,0.11,-0.98,3.48,2.01,2.38
43.4660,0.10,0.11,-0.98,3.60,1.71,1.95
43.4820,0.10,0.11,-0.98,3.60,1.71,1.71
43.4880,0.10,0.12,-0.98,3.48,1.59,1.83
43.5030,0.10,0.11,-0.98,3.48,1.77,1.83
43.5280,0.10,0.11,-0.98,3.23,1.65,1.71
43.5450,0.10,0.11,-0.98,3.54,1.83,1.71
43.5610,0.10,0.11,-0.98,3.36,1.53,1.59
43.5770,0.10,0.12,-0.98,3.23,1.71,1.65
43.5930,0.10,0.12,-0.98,3.36,1.95,1.53
43.6100,0.10,0.12,-0.98,3.42,1.89,1.65
43.6260,0.10,0.11,-0.98,3.42,1.83,1.71
43.6430,0.10,0.12,-0.98,3.23,1.83,1.59
43.6590,0.10,0.11,-0.98,3.42,1.95,1.59
43.6750,0.10,0.12,-0.98,3.36,1.89,1.46
43.6900,0.10,0.11,-0.98,3.30,1.83,1.59
43.6950,0.10,0.12,-0.98,3.54,1.53,1.77
43.7200,0.10,0.12,-0.98,3.36,1.77,1.65
43.7350,0.10,0.11,-0.98,3.36,1.46,1.46
43.7500,0.10,0.11,-0.98,3.30,1.77,1.65
43.7610,0.10,0.12,-0.98,3.36,1.77,1.71
43.7780,0.10,0.12,-0.98,3.42,1.53,2.01
43.7940,0.10,0.12,-0.98,3.42,1.53,1.95
43.8110,0.10,0.12,-0.98,3.17,1.59,1.83
43.8280,0.10,0.12,-0.98,3.17,1.59,2.01
43.8430,0.10,0.12,-0.98,3.17,1.53,1.95
43.8590,0.10,0.11,-0.98,3.23,2.01,2.14
43.8610,0.10,0.12,-0.98,2.99,2.01,2.44
43.8840,0.10,0.12,-0.98,2.69,1.53,2.32
43.9010,0.10,0.11,-0.98,3.11,1.22,2.50
43.9190,0.10,0.11,-0.98,3.23,1.46,2.62
43.9340,0.10,0.12,-0.98,3.17,1.53,2.56
43.9520,0.10,0.11,-0.98,3.36,1.95,2.38
43.9680,0.10,0.11,-0.98,3.30,1.53,2.01
43.9840,0.10,0.12,-0.98,3.30,1.71,1.95
43.9850,0.10,0.12,-0.98,3.36,1.53,2.14
44.0160,0.10,0.12,-0.98,3.17,1.65,2.08
44.0320,0.09,0.11,-0.98,2.99,1.89,2.38
44.0350,0.10,0.11,-0.98,3.17,1.83,1.89
44.0520,0.10,0.11,-0.98,3.23,1.71,1.77
44.0790,0.10,0.11,-0.98,3.23,1.10,1.59
44.0950,0.10,0.12,-0.98,3.17,2.01,1.77
44.1110,0.10,0.12,-0.98,3.30,1.77,1.95
44.1180,0.10,0.12,-0.98,3.23,1.65,1.83
44.1330,0.10,0.11,-0.98,3.05,1.89,1.95
44.1570,0.10,0.11,-0.98,3.17,1.95,2.14
44.1730,0.10,0.11,-0.98,3.30,1.65,2.01
44.1880,0.10,0.11,-0.98,3.42,1.77,1.83
44.1910,0.10,0.12,-0.98,3.42,1.65,1.77
44.2070,0.10,0.12,-0.98,3.11,1.65,2.32
44.2230,0.10,0.11,-0.98,3.36,1.40,2.50
44.2480,0.10,0.11,-0.98,3.11,1.53,2.20
44.2500,0.10,0.12,-0.98,3.30,1.65,2.26
44.2670,0.10,0.12,-0.98,3.42,2.01,2.50
44.2840,0.10,0.11,-0.98,3.30,1.71,2.81
44.3040,0.10,0.12,-0.98,3.17,1.83,2.56
44.3200,0.10,0.11,-0.98,3.30,1.71,2.87
44.3370,0.10,0.11,-0.98,3.48,1.59,2.75
44.3530,0.10,0.11,-0.98,3.42,1.59,2.20
44.3710,0.10,0.12,-0.98,3.36,1.59,1.89
44.3860,0.10,0.12,-0.98,3.30,1.65,1.95
44.3900,0.10,0.11,-0.98,3.23,1.46,2.26
44.4060,0.10,0.11,-0.98,3.30,1.34,2.26
44.4310,0.10,0.11,-0.98,3.36,1.40,2.26
44.4480,0.10,0.12,-0.98,3.48,1.34,2.01
44.4640,0.10,0.12,-0.98,3.23,1.83,2.08
44.4810,0.10,0.12,-0.98,3.30,1.10,2.26
44.4970,0.10,0.11,-0.98,3.30,1.89,2.20
44.5130,0.10,0.11,-0.98,3.30,1.65,2.32
44.5290,0.10,0.12,-0.98,3.48,1.65,2.08
44.5440,0.10,0.12,-0.98,3.23,1.95,2.20
44.5480,0.10,0.12,-0.98,3.36,1.83,2.32
44.5640,0.10,0.12,-0.98,3.30,1.46,2.62
44.5880,0.10,0.12,-0.98,2.87,1.46,2.62
44.6030,0.09,0.11,-0.98,3.36,2.01,2.99
44.6050,0.10,0.11,-0.98,3.17,1.77,2.44
44.6210,0.10,0.12,-0.98,2.93,1.83,2.56
44.6510,0.10,0.12,-0.98,3.05,1.65,2.56
44.6550,0.10,0.12,-0.98,2.99,1.46,2.62
44.6830,0.10,0.11,-0.98,3.17,1.34,2.62
44.6980,0.10,0.11,-0.98,3.30,2.14,2.87
44.7050,0.09,0.11,-0.98,3.54,1.46,2.44
44.7200,0.10,0.11,-0.98,3.36,1.65,2.20
44.7460,0.10,0.12,-0.98,3.36,1.95,2.01
44.7610,0.10,0.12,-0.98,3.42,1.53,2.01
44.7630,0.10,0.12,-0.98,3.54,1.28,2.01
44.7930,0.10,0.11,-0.98,3.11,1.53,2.32
44.8100,0.10,0.12,-0.98,3.42,1.65,2.38
44.8130,0.10,0.11,-0.98,3.48,1.40,2.14
44.8280,0.10,0.12,-0.98,3.36,2.01,2.32
44.8510,0.10,0.12,-0.98,3.42,1.34,2.38
44.8690,0.10,0.12,-0.98,2.99,1.16,2.56
44.8860,0.10,0.11,-0.98,3.11,1.46,2.44
44.9010,0.10,0.12,-0.98,3.30,1.34,2.75
44.9180,0.10,0.11,-0.98,3.36,1.65,2.81
44.9190,0.10,0.12,-0.98,3.42,1.65,2.81
44.9350,0.10,0.11,-0.98,3.17,1.59,2.87
44.9520,0.10,0.12,-0.98,3.23,1.71,2.69
44.9690,0.10,0.11,-0.98,3.17,1.10,2.62
44.9850,0.10,0.11,-0.98,3.36,1.28,2.38
45.0020,0.10,0.11,-0.98,3.54,1.40,2.20
45.0180,0.10,0.12,-0.98,3.17,1.53,2.32
45.0400,0.10,0.12,-0.98,3.30,2.01,2.50
45.0570,0.10,0.12,-0.98,3.30,1.65,2.44
45.0730,0.10,0.11,-0.98,3.17,1.65,2.38
45.0910,0.10,0.11,-0.98,3.05,1.34,2.32
45.1070,0.10,0.12,-0.98,3.36,1.22,2.32
45.1220,0.10,0.11,-0.98,3.42,1.40,2.62
45.1390,0.10,0.12,-0.98,3.23,1.53,2.38
45.1540,0.10,0.11,-0.98,3.36,1.59,2.38
45.1690,0.10,0.12,-0.98,3.23,1.77,2.26
45.1740,0.10,0.11,-0.98,3.36,1.34,2.32
45.1900,0.10,0.12,-0.98,3.11,1.34,2.32
45.2140,0.10,0.12,-0.98,2.99,1.59,2.32
45.2290,0.10,0.12,-0.98,2.93,1.65,2.38
45.2330,0.10,0.11,-0.98,3.30,1.34,2.69
45.2490,0.10,0.11,-0.98,2.99,1.71,2.38
45.2710,0.10,0.12,-0.98,3.11,1.77,2.38
45.2880,0.10,0.12,-0.98,3.17,1.77,2.56
45.3040,0.10,0.11,-0.98,2.99,1.77,2.50
45.3200,0.10,0.11,-0.98,3.11,1.53,2.44
45.3350,0.10,0.12,-0.98,3.17,1.59,2.50
45.3500,0.10,0.12,-0.98,3.17,1.89,2.69
45.3540,0.10,0.11,-0.98,3.05,1.59,2.75
45.3700,0.10,0.11,-0.98,3.36,1.53,2.50
45.3940,0.10,0.11,-0.98,3.60,1.71,2.26
45.4100,0.10,0.12,-0.98,3.42,1.71,2.20
45.4260,0.10,0.12,-0.98,3.23,1.40,2.26
45.4430,0.10,0.11,-0.98,3.17,1.77,2.14
45.4590,0.10,0.12,-0.98,3.36,1.89,2.20
45.4740,0.09,0.11,-0.99,4.09,1.59,2.56
45.4850,0.10,0.12,-0.98,3.11,2.01,2.14
45.4920,0.10,0.12,-0.98,3.23,1.65,2.08
45.5130,0.09,0.11,-0.98,3.42,1.53,2.08
45.5310,0.10,0.11,-0.98,3.42,1.77,1.71
45.5470,0.10,0.12,-0.98,3.66,1.71,1.53
45.5650,0.09,0.11,-0.98,3.48,1.83,1.71
45.5810,0.10,0.12,-0.98,3.17,2.14,1.71
45.5960,0.10,0.12,-0.98,3.23,1.46,1.71
45.6010,0.10,0.12,-0.98,3.36,1.83,1.89
45.6160,0.10,0.12,-0.98,3.30,1.53,2.08
45.6410,0.10,0.11,-0.98,3.42,1.83,2.14
45.6560,0.10,0.12,-0.98,3.30,2.08,2.14
45.6710,0.10,0.12,-0.98,3.11,1.83,2.14
45.6860,0.10,0.12,-0.98,3.23,1.53,2.32
45.6930,0.09,0.11,-0.98,3.05,1.46,2.38
45.7160,0.10,0.11,-0.98,3.11,2.14,2.14
45.7310,0.10,0.12,-0.98,3.36,1.28,1.77
45.7470,0.10,0.12,-0.98,3.42,1.71,1.83
45.7500,0.10,0.12,-0.98,3.36,1.71,1.89
45.7650,0.10,0.11,-0.98,3.11,1.89,2.20
45.7890,0.10,0.11,-0.98,3.23,1.77,1.89
45.8060,0.10,0.12,-0.98,3.36,1.83,1.95
45.8230,0.10,0.11,-0.98,3.48,1.46,1.89
45.8380,0.10,0.12,-0.98,3.23,1.89,1.95
45.8540,0.10,0.12,-0.98,3.17,1.95,1.83
45.8690,0.10,0.12,-0.98,3.36,1.53,1.95
45.8850,0.10,0.12,-0.98,3.17,1.59,2.14
45.9000,0.10,0.11,-0.98,3.17,1.46,2.38
45.9070,0.10,0.11,-0.98,3.42,1.34,2.14
45.9220,0.10,0.11,-0.98,3.48,1.46,2.14
45.9380,0.10,0.12,-0.98,3.66,1.53,1.89
45.9620,0.10,0.12,-0.98,3.60,1.28,1.89
45.9640,0.10,0.12,-0.98,3.42,1.77,2.01
45.9860,0.10,0.11,-0.98,3.30,1.71,1.95
45.9970,0.10,0.12,-0.98,3.48,1.22,1.89
46.0130,0.10,0.12,-0.98,3.30,1.34,2.20
46.0360,0.10,0.12,-0.98,3.42,1.40,2.20
46.0530,0.10,0.12,-0.98,3.48,1.28,2.38
46.0700,0.10,0.12,-0.98,3.36,1.89,2.50
46.0860,0.10,0.12,-0.98,3.17,1.77,2.87
46.1020,0.10,0.12,-0.98,2.81,1.53,2.81
46.1170,0.10,0.11,-0.98,3.11,1.59,3.11
46.1330,0.10,0.12,-0.98,3.23,1.59,3.05
46.1380,0.10,0.12,-0.98,3.23,1.46,3.23
46.1530,0.10,0.12,-0.98,2.99,1.65,3.23
46.1800,0.10,0.12,-0.98,2.99,1.40,3.48
46.1940,0.10,0.11,-0.98,2.75,1.65,3.36
46.2040,0.10,0.11,-0.98,2.87,1.28,3.42
46.2210,0.10,0.11,-0.98,3.23,1.34,3.23
46.2370,0.10,0.11,-0.98,3.23,1.53,2.87
46.2550,0.10,0.11,-0.98,3.48,1.71,2.26
46.2710,0.10,0.12,-0.98,3.30,2.14,2.14
46.2860,0.10,0.12,-0.98,3.11,1.53,2.08
46.2880,0.10,0.12,-0.98,3.30,1.77,2.38
46.3180,0.10,0.12,-0.98,3.23,1.28,2.38
46.3340,0.10,0.12,-0.98,3.23,1.40,2.50
46.3380,0.10,0.12,-0.98,2.87,1.46,2.69
46.3650,0.10,0.11,-0.98,2.93,1.59,2.81
46.3810,0.10,0.11,-0.98,3.05,2.08,2.38
46.3880,0.10,0.12,-0.98,2.99,1.71,2.62
46.4120,0.10,0.11,-0.98,3.17,1.95,2.75
46.4270,0.10,0.12,-0.98,3.23,1.77,2.62
46.4370,0.10,0.12,-0.98,3.23,1.59,2.62
46.4550,0.10,0.11,-0.98,3.17,2.01,2.38
46.4700,0.10,0.12,-0.98,3.30,1.77,2.14
46.4870,0.10,0.11,-0.98,3.42,1.65,2.38
46.5020,0.10,0.11,-0.98,3.42,1.40,2.20
46.5160,0.10,0.12,-0.98,3.60,1.71,1.83
46.5220,0.11,0.13,-0.98,3.36,1.83,1.71
46.5370,0.10,0.12,-0.98,2.99,1.59,2.08
46.5540,0.10,0.12,-0.98,2.87,1.59,2.75
46.5770,0.09,0.10,-0.98,2.75,1.71,2.81
46.5880,0.10,0.11,-0.98,2.99,1.71,2.20
46.6040,0.10,0.12,-0.98,3.17,1.53,2.08
46.6220,0.10,0.12,-0.98,2.81,2.01,2.08
46.6220,0.10,0.11,-0.98,2.93,1.53,2.01
46.6370,0.10,0.11,-0.98,3.17,1.95,2.14
46.6600,0.10,0.11,-0.98,3.11,1.89,2.01
46.6770,0.10,0.12,-0.98,3.30,1.83,1.89
46.6930,0.10,0.11,-0.98,3.36,1.65,1.83
46.7100,0.10,0.11,-0.98,3.48,1.59,1.83
46.7260,0.10,0.11,-0.98,3.17,1.95,1.83
46.7430,0.10,0.11,-0.98,3.30,1.71,1.59
46.7590,0.10,0.11,-0.98,3.42,1.59,1.59
46.7750,0.10,0.12,-0.98,3.42,1.65,1.53
46.7910,0.10,0.12,-0.98,3.60,1.71,1.59
46.8070,0.10,0.12,-0.98,3.36,1.65,1.53
46.8230,0.10,0.12,-0.98,3.23,1.71,1.53
46.8380,0.10,0.11,-0.98,3.30,1.59,1.46
46.8440,0.10,0.11,-0.98,3.11,2.01,1.65
46.8690,0.10,0.12,-0.98,2.99,2.01,1.59
46.8850,0.10,0.12,-0.98,3.11,2.01,1.59
46.9000,0.10,0.12,-0.98,3.36,2.01,1.65
46.9100,0.10,0.12,-0.98,3.11,1.83,1.83
46.9260,0.10,0.12,-0.98,3.30,1.77,1.83
46.9440,0.10,0.11,-0.98,3.30,1.83,1.77
46.9590,0.10,0.12,-0.98,3.30,1.59,1.89
46.9750,0.10,0.12,-0.98,3.11,1.34,1.89
46.9870,0.10,0.12,-0.98,3.11,1.83,1.89
47.0010,0.10,0.12,-0.98,3.36,1.77,1.83
47.0160,0.10,0.12,-0.97,3.30,1.46,1.83
47.0370,0.09,0.10,-0.97,2.75,1.46,2.87
47.0520,0.10,0.11,-0.99,3.54,1.46,2.08
47.0680,0.10,0.11,-0.97,3.30,2.01,1.89
47.0730,0.09,0.11,-0.98,3.36,2.08,1.89
47.0890,0.10,0.12,-0.98,2.87,2.08,1.77
47.1130,0.10,0.11,-0.98,3.11,1.95,2.14
47.1300,0.10,0.11,-0.98,3.23,1.65,2.08
47.1310,0.10,0.12,-0.98,3.30,1.77,2.01
47.1480,0.10,0.12,-0.98,3.11,2.01,1.95
47.1630,0.10,0.12,-0.98,2.93,1.53,2.14
47.1870,0.10,0.11,-0.98,3.11,1.59,1.95
47.1970,0.10,0.11,-0.98,3.23,2.26,1.89
47.2130,0.10,0.11,-0.98,3.30,1.65,1.77
47.2370,0.10,0.12,-0.98,3.30,1.65,1.77
47.2540,0.10,0.12,-0.98,3.17,1.89,1.65
47.2700,0.10,0.12,-0.98,3.17,1.59,1.89
47.2860,0.10,0.12,-0.98,3.17,1.28,1.95
47.3020,0.10,0.11,-0.98,2.99,1.59,2.26
47.3180,0.10,0.11,-0.98,3.11,1.46,2.08
47.3330,0.10,0.11,-0.98,3.05,1.53,2.01
47.3500,0.10,0.11,-0.98,3.17,2.20,1.95
47.3650,0.10,0.12,-0.98,3.36,1.83,1.89
47.3810,0.10,0.11,-0.98,3.36,1.77,2.20
47.3970,0.10,0.12,-0.98,3.36,1.83,1.95
47.4030,0.10,0.11,-0.98,3.23,2.20,2.01
47.4190,0.10,0.11,-0.98,3.05,1.77,2.01
47.4410,0.10,0.11,-0.98,3.11,1.59,1.71
47.4580,0.10,0.11,-0.98,3.30,2.01,1.77
47.4720,0.10,0.12,-0.98,3.54,2.38,1.71
47.4870,0.10,0.12,-0.98,3.78,2.14,1.71
47.5020,0.10,0.12,-0.98,3.66,2.08,1.77
47.5180,0.10,0.11,-0.98,3.78,1.59,1.59
47.5330,0.10,0.11,-0.98,3.91,1.53,1.65
47.5440,0.10,0.11,-0.98,4.15,1.46,1.46
47.5600,0.10,0.13,-0.98,3.60,2.14,1.95
47.5780,0.10,0.12,-0.98,3.97,1.71,1.95
47.5940,0.10,0.12,-0.98,4.15,1.71,2.14
47.6100,0.10,0.11,-0.98,3.97,2.14,2.08
47.6260,0.10,0.12,-0.98,4.33,1.89,2.38
47.6420,0.10,0.12,-0.98,4.27,1.89,3.05
