Timestamp, AccX, AccY, AccZ, GyroX, GyroY, GyroZ
0.0090,0.09,0.11,-0.98,3.30,2.08,1.83
0.0240,0.09,0.11,-0.99,3.48,1.89,1.95
0.0290,0.09,0.11,-0.99,3.23,2.08,2.20
0.0530,0.09,0.11,-0.99,3.11,2.08,2.32
0.0620,0.09,0.11,-0.99,3.48,2.26,1.77
0.0800,0.09,0.11,-0.99,3.05,2.08,1.77
0.0950,0.09,0.11,-0.99,3.17,2.20,1.59
0.1120,0.09,0.11,-0.99,3.60,2.38,1.65
0.1290,0.09,0.11,-0.99,3.66,2.38,1.77
0.1440,0.09,0.11,-0.98,3.48,2.14,1.77
0.1600,0.09,0.11,-0.99,3.85,2.08,1.89
0.1740,0.09,0.11,-0.99,3.72,1.89,1.89
0.1890,0.09,0.11,-0.99,3.42,2.01,1.83
0.2000,0.09,0.11,-0.98,3.60,2.26,2.01
0.2190,0.09,0.11,-0.99,3.48,2.01,1.95
0.2300,0.09,0.11,-0.99,3.42,2.01,1.71
0.2450,0.09,0.11,-0.99,3.42,2.20,1.71
0.2630,0.09,0.11,-0.99,3.48,2.32,1.95
0.2790,0.09,0.11,-0.99,3.48,2.14,1.89
0.2940,0.09,0.11,-0.99,3.54,2.14,1.83
0.3000,0.09,0.11,-0.99,3.36,2.32,1.95
0.3130,0.09,0.11,-0.99,3.66,2.56,1.89
0.3400,0.09,0.11,-0.99,3.42,1.95,1.89
0.3560,0.09,0.11,-0.99,3.42,2.26,1.89
0.3730,0.09,0.11,-0.99,3.42,2.32,1.89
0.3790,0.09,0.11,-0.99,3.17,2.08,1.77
0.4000,0.09,0.11,-0.99,3.48,2.14,1.77
0.4140,0.09,0.11,-0.99,3.36,1.83,1.77
0.4310,0.09,0.11,-0.99,3.48,2.14,1.77
0.4480,0.09,0.11,-0.99,3.30,2.08,1.83
0.4650,0.09,0.11,-0.99,3.42,1.89,1.95
0.4810,0.09,0.11,-0.99,3.42,1.89,1.65
0.4970,0.09,0.11,-0.99,3.42,2.14,2.01
0.5010,0.09,0.11,-0.99,3.36,1.89,1.89
0.5270,0.09,0.11,-0.99,3.42,1.71,1.89
0.5420,0.09,0.11,-0.99,3.36,2.32,1.83
0.5570,0.08,0.11,-0.99,3.42,2.26,1.89
0.5650,0.09,0.11,-0.99,3.30,2.20,1.83
0.5890,0.09,0.11,-0.99,3.30,2.20,1.77
0.6010,0.09,0.11,-0.99,3.30,2.50,1.77
0.6140,0.09,0.11,-0.99,3.48,2.20,1.77
0.6340,0.08,0.11,-0.99,3.30,2.01,1.95
0.6500,0.05,0.13,-0.99,3.48,2.14,2.69
0.6510,0.09,0.11,-0.98,3.54,1.95,3.54
0.6810,0.09,0.12,-1.00,3.54,1.53,2.50
0.6970,0.09,0.11,-0.98,3.36,1.34,2.14
0.7120,0.09,0.11,-0.98,3.30,1.95,2.08
0.7270,0.09,0.11,-0.99,3.23,2.44,2.08
0.7350,0.08,0.11,-0.99,3.48,1.89,2.08
0.7500,0.09,0.12,-0.99,3.54,1.77,2.75
0.7710,0.09,0.11,-0.99,3.42,2.01,3.36
0.7870,0.09,0.11,-0.99,3.30,2.26,3.60
0.8050,0.08,0.11,-0.99,3.11,2.20,3.97
0.8200,0.09,0.11,-0.99,3.48,1.89,3.66
0.8370,0.09,0.11,-0.99,3.72,1.77,2.50
0.8530,0.09,0.11,-0.99,3.36,2.26,2.32
0.8710,0.09,0.11,-0.99,3.54,2.08,2.32
0.8870,0.08,0.12,-0.99,3.48,1.95,2.50
0.9020,0.09,0.11,-0.99,3.42,1.95,3.42
0.9180,0.09,0.11,-0.99,3.42,1.59,3.97
0.9200,0.09,0.11,-0.99,3.30,1.59,4.15
0.9480,0.09,0.11,-0.99,3.23,1.71,3.78
0.9550,0.09,0.11,-0.98,3.17,2.26,3.66
0.9710,0.09,0.11,-0.98,3.30,1.89,3.60
0.9900,0.09,0.11,-0.99,3.30,2.01,2.87
1.0120,0.09,0.11,-0.99,3.17,2.26,2.32
1.0220,0.09,0.11,-0.99,3.36,1.83,2.20
1.0380,0.08,0.11,-0.98,3.36,2.14,2.69
1.0550,0.09,0.12,-0.99,3.42,1.59,2.87
1.0710,0.09,0.11,-0.99,3.42,1.83,3.05
1.0900,0.08,0.12,-0.99,3.30,2.01,2.56
1.1050,0.09,0.12,-0.99,3.23,2.50,2.44
1.1200,0.09,0.11,-0.99,3.30,2.26,2.69
1.1380,0.09,0.11,-0.99,3.17,2.26,2.75
1.1540,0.09,0.11,-0.99,3.17,2.26,2.26
1.1690,0.09,0.11,-0.99,3.17,2.26,2.56
1.1720,0.09,0.11,-0.99,3.42,1.89,2.26
1.1890,0.08,0.11,-0.99,3.36,1.83,2.14
1.2050,0.09,0.12,-0.99,3.30,2.20,2.50
1.2200,0.08,0.11,-0.99,3.30,2.26,2.62
1.2420,0.09,0.11,-0.99,3.30,1.83,2.93
1.2600,0.09,0.11,-0.99,3.30,2.26,2.08
1.2760,0.09,0.11,-0.99,3.36,2.14,1.71
1.2920,0.08,0.11,-0.99,3.48,2.08,1.95
1.3090,0.09,0.11,-0.99,3.36,2.01,2.99
1.3240,0.09,0.11,-0.99,3.54,2.20,2.44
1.3390,0.09,0.11,-0.99,3.36,1.95,2.20
1.3560,0.09,0.12,-0.99,3.36,2.01,2.75
1.3720,0.09,0.11,-0.99,3.36,2.08,2.99
1.3760,0.09,0.11,-0.99,3.42,2.14,2.75
1.4020,0.09,0.12,-0.99,3.42,2.01,3.42
1.4090,0.09,0.11,-0.99,3.36,2.01,3.60
1.4250,0.09,0.10,-0.99,3.42,1.95,2.32
1.4450,0.09,0.11,-0.99,3.17,2.26,1.83
1.4630,0.09,0.11,-0.99,3.11,2.20,1.71
1.4790,0.09,0.12,-0.99,3.23,2.01,1.83
1.4960,0.09,0.12,-0.99,3.36,2.14,2.81
1.5120,0.09,0.11,-0.99,3.30,1.71,3.05
1.5300,0.09,0.11,-0.99,3.85,1.59,2.26
1.5450,0.09,0.11,-0.99,3.23,2.14,1.89
1.5620,0.08,0.11,-0.99,3.11,2.44,1.89
1.5770,0.09,0.12,-0.99,3.30,2.32,2.01
1.5910,0.09,0.12,-0.98,3.17,2.01,2.75
1.6030,0.09,0.12,-0.98,3.36,2.01,2.87
1.6110,0.09,0.11,-0.99,3.48,1.77,2.75
1.6330,0.09,0.11,-0.99,3.36,1.89,2.50
1.6490,0.09,0.12,-0.99,3.11,1.77,3.42
1.6660,0.09,0.11,-0.99,3.11,2.01,3.48
1.6830,0.09,0.11,-0.99,3.23,2.26,2.44
1.6990,0.09,0.10,-0.99,3.23,2.14,2.01
1.7150,0.09,0.11,-0.99,3.23,2.32,1.77
1.7310,0.09,0.11,-0.99,3.36,2.08,1.59
1.7320,0.08,0.11,-0.99,3.23,2.50,2.20
1.7500,0.09,0.12,-0.99,3.17,1.83,2.81
1.7660,0.09,0.12,-0.99,3.05,2.08,3.23
1.7880,0.09,0.11,-0.99,3.11,1.89,3.66
1.8040,0.09,0.12,-0.99,3.05,2.14,3.72
1.8210,0.09,0.11,-0.99,3.30,1.89,3.54
1.8380,0.09,0.11,-0.99,3.23,2.20,2.75
1.8540,0.09,0.10,-0.99,3.48,2.50,1.46
1.8710,0.08,0.11,-0.99,3.42,2.69,1.40
1.8720,0.09,0.12,-0.99,3.30,2.26,1.65
1.8870,0.09,0.12,-0.99,3.48,2.14,2.26
1.9180,0.09,0.12,-0.99,3.30,2.20,3.17
1.9340,0.09,0.11,-0.99,3.11,2.20,2.81
1.9490,0.09,0.11,-0.99,3.05,2.32,2.69
1.9550,0.09,0.11,-0.99,3.36,2.26,2.50
1.9800,0.09,0.11,-0.99,3.30,1.83,2.26
1.9960,0.08,0.10,-0.99,3.36,2.56,2.14
2.0040,0.09,0.12,-0.99,3.36,2.26,1.77
2.0200,0.09,0.12,-0.99,3.23,2.20,2.32
2.0390,0.09,0.12,-0.99,3.17,2.14,2.44
2.0550,0.09,0.11,-0.99,3.42,1.95,2.56
2.0710,0.08,0.11,-0.99,3.30,2.08,1.89
2.0860,0.08,0.11,-0.99,3.36,2.14,1.89
2.1010,0.09,0.11,-0.99,3.42,2.01,1.83
2.1050,0.09,0.11,-0.99,3.48,2.01,1.89
2.1330,0.09,0.11,-0.99,3.42,2.50,1.89
2.1470,0.09,0.12,-0.99,3.36,2.56,2.32
2.1550,0.09,0.11,-0.98,3.30,1.83,3.05
2.1700,0.09,0.11,-0.99,3.36,1.59,2.08
2.1870,0.09,0.11,-0.99,3.30,1.89,1.95
2.2030,0.09,0.11,-0.99,3.60,1.77,1.71
2.2240,0.09,0.11,-0.99,3.42,1.89,2.20
2.2380,0.09,0.12,-0.99,3.36,2.38,2.56
2.2420,0.09,0.12,-0.98,3.11,1.95,3.17
2.2580,0.09,0.11,-0.99,3.05,1.95,3.23
2.2820,0.09,0.10,-0.99,3.36,1.89,2.69
2.2980,0.09,0.11,-0.99,3.36,2.38,1.77
2.3160,0.09,0.12,-0.99,3.48,1.95,2.14
2.3310,0.09,0.12,-0.99,3.42,1.71,3.17
2.3470,0.09,0.10,-0.99,3.17,2.08,3.60
2.3610,0.09,0.10,-0.99,3.23,2.38,2.81
2.3650,0.09,0.11,-0.99,3.23,2.38,2.08
2.3810,0.09,0.11,-0.99,3.23,2.32,2.38
2.4050,0.08,0.11,-0.99,3.42,1.95,2.50
2.4210,0.08,0.11,-0.99,3.60,1.83,2.08
2.4370,0.09,0.11,-0.99,3.48,1.77,1.77
2.4540,0.09,0.12,-0.99,3.36,1.83,2.32
2.4710,0.09,0.12,-0.99,3.42,1.71,2.81
2.4880,0.09,0.11,-0.98,3.23,1.59,3.23
2.5050,0.09,0.11,-0.99,3.11,1.77,3.11
2.5210,0.09,0.12,-0.99,3.23,2.32,2.62
2.5360,0.09,0.12,-0.98,3.05,2.14,3.05
2.5510,0.09,0.12,-0.99,3.11,1.65,4.21
2.5660,0.09,0.11,-0.99,3.11,2.20,4.09
2.5710,0.09,0.10,-0.99,3.23,2.01,3.11
2.5880,0.08,0.10,-0.99,3.30,1.77,2.99
2.6040,0.09,0.11,-0.99,3.54,2.01,2.44
2.6240,0.09,0.11,-0.99,3.42,2.20,2.20
2.6420,0.09,0.11,-0.99,3.48,2.01,2.44
2.6570,0.09,0.11,-0.99,3.30,1.89,2.62
2.6740,0.09,0.12,-0.99,3.17,1.83,2.69
2.6920,0.09,0.11,-0.99,3.30,2.32,2.93
2.7070,0.09,0.11,-0.99,3.36,2.20,2.93
2.7230,0.09,0.11,-0.99,3.30,1.71,2.81
2.7390,0.09,0.12,-0.99,3.17,2.20,3.17
2.7550,0.09,0.11,-0.99,3.11,2.20,3.54
2.7710,0.09,0.11,-0.98,3.23,1.95,3.23
2.7740,0.09,0.11,-0.99,3.36,2.26,3.17
2.7910,0.09,0.11,-0.99,3.30,2.32,3.11
2.8160,0.09,0.12,-0.99,3.17,1.89,3.42
2.8240,0.09,0.11,-0.99,3.11,2.20,3.60
2.8410,0.08,0.10,-0.99,3.42,2.14,3.48
2.8590,0.09,0.11,-0.99,3.42,2.01,2.38
2.8740,0.09,0.11,-0.99,3.36,2.08,2.20
2.8920,0.09,0.12,-0.99,3.17,2.20,2.93
2.9080,0.09,0.12,-0.99,3.30,2.26,2.99
2.9250,0.09,0.11,-0.99,3.36,1.77,3.23
2.9250,0.09,0.12,-0.99,3.17,1.89,3.48
2.9410,0.09,0.11,-0.99,3.11,2.20,3.72
2.9690,0.09,0.11,-0.99,3.23,2.20,3.11
2.9850,0.09,0.11,-0.99,3.30,2.32,2.69
3.0000,0.09,0.12,-0.99,3.23,2.26,2.81
3.0080,0.09,0.12,-0.99,3.23,1.95,3.42
3.0250,0.09,0.10,-0.99,3.36,1.95,3.36
3.0460,0.09,0.11,-0.99,3.23,2.26,2.32
3.0570,0.09,0.11,-0.99,3.30,2.38,2.50
3.0750,0.09,0.11,-0.99,3.23,1.71,2.62
3.0910,0.09,0.12,-0.99,3.30,2.32,2.93
3.1070,0.09,0.12,-0.99,3.17,1.89,3.60
3.1250,0.09,0.11,-0.99,3.11,2.26,4.70
3.1400,0.09,0.10,-0.99,3.30,2.20,3.72
3.1550,0.08,0.11,-0.99,3.30,2.14,2.99
3.1710,0.09,0.12,-0.98,3.05,2.26,3.05
3.1750,0.09,0.11,-0.99,3.48,2.14,3.42
3.2020,0.09,0.11,-0.99,3.23,2.38,3.36
3.2180,0.09,0.11,-0.99,3.36,2.26,2.32
3.2250,0.09,0.11,-0.99,3.42,2.38,2.01
3.2410,0.08,0.12,-0.99,3.30,2.20,2.44
3.2580,0.09,0.13,-0.98,3.36,2.01,3.11
3.2740,0.09,0.12,-0.99,3.30,1.95,3.17
3.2950,0.09,0.10,-0.99,3.36,1.77,2.69
3.3100,0.09,0.11,-0.99,3.11,2.44,2.50
3.3260,0.09,0.12,-0.99,3.23,1.77,3.36
3.3410,0.09,0.11,-0.99,3.11,1.95,3.97
3.3570,0.09,0.11,-0.99,3.17,1.89,4.09
3.3720,0.09,0.11,-0.99,3.05,1.89,4.15
3.3870,0.09,0.12,-0.99,3.05,2.14,4.46
3.4030,0.09,0.11,-0.99,3.11,1.46,4.33
3.4110,0.09,0.10,-0.99,3.23,2.32,3.17
3.4280,0.09,0.11,-0.99,3.42,2.32,1.95
3.4450,0.08,0.11,-0.99,2.99,2.56,2.75
3.4620,0.09,0.11,-0.99,3.36,2.32,3.36
3.4790,0.09,0.11,-0.99,3.23,2.08,3.48
3.4950,0.09,0.11,-0.99,3.48,2.08,2.87
3.5110,0.09,0.11,-0.99,3.23,2.20,2.56
3.5280,0.09,0.11,-0.99,3.42,1.83,2.93
3.5430,0.09,0.11,-0.99,3.23,1.65,2.81
3.5590,0.09,0.11,-0.99,3.23,1.83,3.05
3.5750,0.09,0.11,-0.99,3.30,2.08,3.11
3.5900,0.09,0.12,-0.99,3.23,1.95,3.36
3.6050,0.09,0.11,-0.99,3.30,1.89,3.23
3.6120,0.09,0.11,-0.99,3.23,1.83,2.93
3.6270,0.09,0.11,-0.99,3.17,1.89,3.05
3.6500,0.09,0.12,-0.99,3.36,1.83,3.78
3.6660,0.09,0.12,-0.99,3.23,1.77,3.85
3.6670,0.09,0.12,-0.99,3.17,2.01,3.66
3.6970,0.09,0.11,-0.99,3.11,1.95,4.03
3.7060,0.09,0.11,-0.99,3.23,1.83,3.42
3.7180,0.09,0.11,-0.99,3.05,1.89,3.05
3.7330,0.09,0.11,-0.99,3.17,1.95,3.17
3.7490,0.09,0.12,-0.99,3.36,1.83,3.78
3.7720,0.09,0.11,-0.99,3.30,2.01,3.54
3.7870,0.09,0.12,-0.99,3.23,1.95,3.72
3.8060,0.09,0.11,-0.99,3.36,2.01,3.78
3.8220,0.09,0.12,-0.98,3.17,1.77,3.66
3.8380,0.08,0.12,-0.99,3.23,2.01,3.60
3.8540,0.09,0.11,-0.99,3.23,2.01,4.21
3.8690,0.09,0.11,-0.99,3.42,1.89,3.85
3.8730,0.09,0.10,-0.99,3.36,2.26,3.23
3.8900,0.09,0.11,-0.99,3.11,1.89,3.17
3.9160,0.09,0.12,-0.99,3.23,1.89,4.03
3.9220,0.09,0.11,-0.99,3.17,2.14,3.85
3.9470,0.09,0.11,-0.99,3.17,2.26,3.17
3.9570,0.09,0.11,-0.99,3.36,2.20,3.54
3.9740,0.08,0.11,-0.99,3.11,2.01,3.42
3.9910,0.09,0.11,-0.99,3.30,1.71,3.60
4.0070,0.09,0.11,-0.99,3.36,1.95,3.91
4.0240,0.09,0.11,-0.99,3.23,2.01,3.66
4.0410,0.09,0.10,-0.99,3.36,2.01,2.50
4.0560,0.09,0.11,-0.99,3.23,2.56,2.62
4.0720,0.09,0.11,-0.99,3.17,2.38,2.93
4.0880,0.09,0.11,-0.99,3.17,2.14,2.69
4.1040,0.09,0.11,-0.99,3.17,2.08,2.75
4.1060,0.09,0.11,-0.99,3.17,2.14,2.93
4.1360,0.09,0.12,-0.99,3.17,2.38,3.48
4.1520,0.09,0.11,-0.99,3.17,1.89,3.54
4.1670,0.09,0.11,-0.99,3.17,2.14,2.81
4.1830,0.09,0.11,-0.99,3.17,2.08,3.23
4.1980,0.09,0.11,-0.99,3.17,1.95,2.93
4.2070,0.09,0.11,-0.99,3.30,2.32,2.38
4.2250,0.09,0.11,-0.99,3.36,2.20,2.44
4.2400,0.09,0.11,-0.99,3.36,2.20,2.62
4.2580,0.09,0.12,-0.99,3.11,2.20,2.69
4.2730,0.09,0.11,-0.99,3.30,1.95,2.75
4.2910,0.09,0.11,-0.99,3.36,1.95,2.75
4.3060,0.09,0.11,-0.99,3.30,1.95,2.87
4.3220,0.09,0.11,-0.99,3.30,2.50,2.99
4.3390,0.09,0.11,-0.99,3.36,2.44,2.56
4.3540,0.09,0.11,-0.99,3.36,2.44,2.62
4.3700,0.09,0.11,-0.99,3.42,2.20,2.01
4.3860,0.09,0.11,-0.99,3.30,2.50,2.08
4.4020,0.09,0.11,-0.99,3.42,2.20,2.32
4.4170,0.09,0.12,-0.99,3.30,2.44,2.69
4.4320,0.09,0.12,-0.98,3.42,1.89,3.60
4.4420,0.09,0.11,-0.99,3.17,1.95,3.72
4.4600,0.09,0.11,-0.99,3.36,1.77,3.11
4.4750,0.09,0.11,-0.99,3.30,2.01,2.93
4.4930,0.09,0.11,-0.99,3.48,2.20,2.44
4.5090,0.09,0.11,-0.99,3.42,2.38,2.01
4.5240,0.09,0.11,-0.99,3.36,2.08,1.89
4.5410,0.09,0.11,-0.99,3.30,2.20,1.89
4.5560,0.09,0.11,-0.99,3.42,2.50,1.95
4.5710,0.09,0.12,-0.99,3.30,2.20,1.89
4.5870,0.09,0.11,-0.99,3.54,1.95,1.77
4.6020,0.09,0.11,-0.99,3.17,2.26,1.77
4.6180,0.09,0.11,-0.99,3.36,2.20,1.83
4.6330,0.09,0.12,-0.99,3.36,2.26,1.95
4.6420,0.09,0.11,-0.99,3.30,2.44,2.08
4.6590,0.09,0.11,-0.99,3.42,2.38,2.26
4.6760,0.09,0.11,-0.99,3.36,2.08,2.08
4.6910,0.09,0.11,-0.99,3.30,2.26,1.83
4.7090,0.09,0.12,-0.99,2.99,2.38,2.08
4.7250,0.09,0.12,-0.99,3.36,2.32,2.32
4.7420,0.09,0.11,-0.98,3.36,2.26,2.56
4.7580,0.09,0.11,-0.99,3.17,1.83,2.93
4.7730,0.09,0.11,-0.99,3.60,2.01,1.95
4.7900,0.09,0.11,-0.99,3.48,2.50,1.83
4.8050,0.09,0.11,-0.99,3.36,2.50,2.20
4.8220,0.09,0.12,-0.99,3.42,2.01,2.32
4.8370,0.09,0.11,-0.99,3.30,2.56,2.50
4.8540,0.09,0.12,-0.99,3.17,2.26,2.87
4.8690,0.09,0.12,-0.99,3.17,2.08,3.48
4.8840,0.09,0.12,-0.99,2.99,1.89,4.03
4.8920,0.09,0.11,-0.99,3.36,2.08,3.72
4.9090,0.09,0.11,-0.99,3.11,2.32,2.87
4.9260,0.08,0.11,-0.99,3.17,2.14,3.66
4.9430,0.09,0.11,-0.99,3.23,2.26,3.91
4.9590,0.09,0.11,-0.99,3.17,1.89,2.99
4.9750,0.09,0.11,-0.99,3.30,2.26,2.62
4.9930,0.09,0.12,-0.99,3.30,2.44,2.26
5.0090,0.09,0.12,-0.99,3.30,2.14,3.23
5.0250,0.09,0.11,-0.99,3.23,2.32,3.66
5.0400,0.09,0.11,-0.99,3.30,2.38,2.99
5.0420,0.09,0.11,-0.99,3.48,2.01,2.87
5.0570,0.09,0.11,-0.99,3.42,1.95,2.93
5.0820,0.09,0.11,-0.99,3.23,2.08,2.87
5.0970,0.09,0.11,-0.99,3.48,2.01,2.38
5.1140,0.09,0.11,-0.99,3.42,2.50,2.20
5.1320,0.09,0.12,-0.98,3.30,2.38,2.32
5.1470,0.09,0.12,-0.99,3.30,2.08,3.11
5.1640,0.09,0.11,-0.99,3.23,2.08,2.99
5.1790,0.09,0.11,-0.99,3.23,2.01,2.69
5.1960,0.09,0.11,-0.99,3.23,2.14,2.81
5.2110,0.09,0.11,-0.99,3.42,2.14,2.69
5.2140,0.09,0.11,-0.99,3.30,2.38,2.38
5.2300,0.09,0.12,-0.99,3.11,2.08,2.99
5.2530,0.09,0.12,-0.99,3.17,2.26,3.97
5.2700,0.09,0.11,-0.99,3.36,2.20,3.66
5.2860,0.09,0.11,-0.99,3.36,2.08,2.93
5.3030,0.09,0.11,-0.99,3.30,2.38,3.11
5.3190,0.09,0.11,-0.98,3.17,2.01,3.91
5.3200,0.09,0.11,-0.99,3.23,2.08,3.97
5.3500,0.09,0.11,-0.99,3.36,1.89,2.87
5.3530,0.09,0.11,-0.99,3.54,2.26,2.08
5.3700,0.09,0.12,-0.99,3.54,2.20,2.08
5.3860,0.09,0.11,-0.99,3.30,1.89,2.14
5.4070,0.09,0.11,-0.99,3.30,1.71,2.38
5.4250,0.09,0.11,-0.99,3.30,2.38,2.26
5.4410,0.09,0.11,-0.99,3.36,2.20,2.20
5.4580,0.09,0.11,-0.99,3.48,2.26,2.26
5.4760,0.09,0.11,-0.99,3.30,2.32,1.83
5.4910,0.09,0.12,-0.99,3.23,2.08,1.95
5.5070,0.09,0.12,-0.99,3.23,2.14,2.32
5.5230,0.09,0.12,-0.98,3.11,2.26,3.23
5.5390,0.09,0.11,-0.99,3.23,1.83,3.60
5.5550,0.09,0.11,-0.99,3.23,2.20,3.60
5.5710,0.09,0.11,-0.99,3.30,2.50,3.42
5.5870,0.09,0.11,-0.99,3.17,2.08,3.30
5.6020,0.09,0.11,-0.99,3.48,2.32,3.23
5.6180,0.09,0.12,-0.99,3.17,1.95,3.78
5.6330,0.09,0.11,-0.99,3.30,1.83,3.78
5.6490,0.09,0.11,-0.99,3.48,2.32,3.17
5.6640,0.09,0.12,-0.99,3.42,2.20,2.62
5.6740,0.08,0.12,-0.99,3.42,1.83,3.72
5.6910,0.09,0.12,-0.98,3.17,1.95,4.64
5.7090,0.09,0.11,-0.99,3.05,1.89,4.64
5.7240,0.09,0.10,-0.99,3.17,1.83,4.15
5.7410,0.09,0.10,-0.99,3.11,2.01,3.17
5.7560,0.09,0.10,-0.99,3.30,2.14,2.69
5.7740,0.09,0.12,-0.98,3.23,2.32,2.32
5.7880,0.09,0.12,-0.99,3.30,2.08,2.81
5.8040,0.09,0.11,-0.99,3.42,2.08,2.93
5.8120,0.09,0.11,-0.99,3.30,2.26,2.20
5.8280,0.09,0.12,-0.98,3.17,2.81,2.08
5.8500,0.09,0.12,-0.99,3.30,1.83,2.62
5.8660,0.09,0.12,-0.99,3.54,1.95,2.62
5.8660,0.09,0.11,-0.98,3.23,2.26,2.62
5.8830,0.09,0.12,-0.99,3.30,2.38,3.11
5.9080,0.09,0.12,-0.99,3.17,1.89,3.91
5.9270,0.09,0.12,-0.99,3.17,1.83,3.72
5.9340,0.09,0.11,-0.99,3.23,1.71,3.78
5.9510,0.09,0.11,-0.99,3.48,2.38,3.17
5.9670,0.09,0.12,-0.99,3.30,2.14,2.99
5.9860,0.09,0.11,-0.99,3.30,1.77,2.93
6.0030,0.09,0.11,-0.99,3.36,1.77,2.50
6.0200,0.09,0.11,-0.99,3.42,2.01,2.14
6.0350,0.09,0.11,-0.99,3.60,1.83,2.01
6.0540,0.09,0.12,-0.99,3.17,2.08,2.62
6.0690,0.09,0.11,-0.99,3.30,2.01,2.81
6.0850,0.09,0.11,-0.99,3.36,2.14,2.44
6.1000,0.09,0.12,-0.99,3.42,2.14,2.26
6.1090,0.09,0.12,-0.99,3.36,2.32,2.75
6.1290,0.09,0.12,-0.99,3.05,2.01,3.11
6.1450,0.09,0.12,-0.99,3.30,1.77,3.60
6.1600,0.09,0.11,-0.99,3.17,2.08,3.54
6.1690,0.09,0.11,-0.99,3.30,2.08,3.42
6.1870,0.09,0.11,-0.99,3.42,2.69,3.30
6.2020,0.09,0.11,-0.99,3.30,2.50,3.11
6.2190,0.09,0.11,-0.99,3.36,2.14,2.87
6.2370,0.09,0.12,-0.99,2.99,2.01,2.81
6.2540,0.09,0.12,-0.98,3.11,1.77,3.60
6.2690,0.09,0.12,-0.99,3.17,1.71,3.85
6.2860,0.09,0.11,-0.99,2.99,1.59,3.78
6.3030,0.09,0.12,-0.99,3.42,1.77,3.48
6.3190,0.09,0.11,-0.99,3.48,1.46,3.72
6.3190,0.09,0.10,-0.99,3.36,2.08,2.93
6.3370,0.09,0.11,-0.99,3.36,1.89,2.69
6.3530,0.09,0.12,-0.99,3.42,1.83,2.75
6.3810,0.09,0.12,-0.99,3.23,2.20,3.85
6.3860,0.09,0.12,-0.99,3.36,1.83,3.66
6.4090,0.09,0.11,-0.99,3.36,1.83,3.17
6.4270,0.09,0.11,-0.99,3.42,2.20,2.56
6.4360,0.09,0.11,-0.99,3.42,1.65,2.44
6.4510,0.09,0.11,-0.99,3.42,1.89,2.38
6.4720,0.09,0.12,-0.99,3.30,2.20,2.69
6.4870,0.09,0.11,-0.99,3.42,2.32,3.23
6.4940,0.09,0.11,-0.99,3.48,2.01,2.93
6.5090,0.09,0.11,-0.99,3.36,2.38,2.81
6.5340,0.09,0.11,-0.99,3.60,2.01,2.93
6.5490,0.09,0.11,-0.99,3.48,1.89,3.11
6.5650,0.09,0.11,-0.99,3.54,2.01,2.44
6.5660,0.09,0.11,-0.99,3.30,2.69,2.01
6.5820,0.09,0.12,-0.99,3.54,2.20,2.26
6.6090,0.09,0.11,-0.99,3.42,1.77,2.75
6.6150,0.09,0.11,-0.99,3.72,1.95,2.26
6.6430,0.09,0.11,-0.99,3.66,1.89,2.08
6.6530,0.09,0.11,-0.99,3.54,2.08,2.08
6.6710,0.09,0.11,-0.99,3.23,2.08,2.08
6.6860,0.09,0.11,-0.99,3.48,2.01,2.20
6.7030,0.10,0.12,-0.99,3.36,2.14,1.71
6.7210,0.09,0.11,-0.99,3.36,1.71,0.73
6.7360,0.09,0.11,-0.99,3.54,2.01,0.67
6.7530,0.09,0.11,-0.99,3.60,1.83,1.28
6.7690,0.09,0.11,-0.99,3.36,2.01,1.46
6.7710,0.09,0.11,-0.99,3.42,1.95,2.14
6.8000,0.09,0.10,-0.99,3.48,2.01,2.38
6.8090,0.08,0.11,-0.99,3.30,1.89,2.32
6.8190,0.09,0.12,-0.99,3.60,1.89,2.32
6.8350,0.09,0.12,-0.99,3.23,1.83,3.11
6.8580,0.09,0.12,-0.99,3.48,1.83,3.48
6.8750,0.09,0.11,-0.99,3.48,1.40,3.30
6.8920,0.09,0.11,-0.99,3.42,1.95,2.99
6.9100,0.09,0.12,-0.99,3.23,2.32,3.11
6.9250,0.09,0.12,-0.99,3.30,2.01,3.42
6.9400,0.09,0.11,-0.99,3.11,1.53,3.91
6.9560,0.09,0.12,-0.99,3.48,2.01,3.42
6.9710,0.09,0.11,-0.99,3.54,2.08,2.87
6.9750,0.09,0.12,-0.99,3.60,2.14,2.81
6.9900,0.09,0.11,-0.99,3.54,1.89,3.17
7.0130,0.09,0.11,-0.99,3.66,1.77,3.17
7.0300,0.09,0.12,-0.99,3.23,1.71,2.69
7.0460,0.09,0.12,-0.99,3.17,1.71,3.17
7.0630,0.09,0.11,-0.99,3.23,1.95,3.48
7.0780,0.09,0.11,-0.99,3.42,2.14,3.30
7.0940,0.09,0.11,-0.99,3.54,2.20,2.38
7.1100,0.09,0.12,-0.99,3.30,2.14,2.26
7.1260,0.08,0.11,-0.99,3.17,2.26,3.11
7.1410,0.09,0.11,-0.99,3.23,2.20,3.48
7.1560,0.09,0.11,-0.99,3.30,2.32,3.48
7.1620,0.08,0.11,-0.99,3.36,1.77,3.78
7.1800,0.08,0.11,-0.99,3.30,1.71,3.72
7.1950,0.09,0.11,-0.99,3.23,2.01,3.78
7.2130,0.09,0.11,-0.99,3.23,2.26,2.81
7.2300,0.09,0.11,-0.99,3.36,2.56,2.50
7.2450,0.09,0.12,-0.99,3.48,2.14,2.38
7.2620,0.09,0.12,-0.99,3.36,2.26,3.11
7.2790,0.09,0.11,-0.98,3.30,1.83,4.21
7.2960,0.09,0.11,-0.99,3.23,1.77,3.66
7.3110,0.09,0.12,-0.99,3.42,1.71,3.11
7.3260,0.09,0.12,-0.99,3.42,1.95,3.72
7.3410,0.09,0.12,-0.99,3.30,2.50,4.46
7.3460,0.09,0.11,-0.99,3.42,1.71,4.64
7.3730,0.09,0.12,-0.99,3.11,2.01,3.78
7.3800,0.09,0.12,-0.99,3.05,1.59,4.03
7.3950,0.09,0.11,-0.99,3.05,2.38,3.60
7.4110,0.09,0.11,-0.99,3.23,2.01,3.36
7.4340,0.09,0.12,-0.99,3.42,1.83,3.42
7.4490,0.09,0.12,-0.99,3.11,2.14,3.72
7.4650,0.09,0.10,-0.99,3.11,2.20,3.60
7.4680,0.09,0.11,-0.99,3.30,2.26,3.23
7.4840,0.09,0.11,-0.99,3.23,2.01,2.87
7.5100,0.09,0.12,-0.99,3.36,1.77,2.87
7.5170,0.09,0.11,-0.98,3.30,2.32,3.42
7.5330,0.09,0.12,-0.99,2.99,2.50,3.36
7.5490,0.09,0.11,-0.99,3.42,2.14,2.56
7.5650,0.09,0.11,-0.99,3.23,2.50,2.56
7.5880,0.09,0.13,-0.99,3.17,2.32,2.69
7.6030,0.09,0.12,-0.99,3.30,2.08,3.78
7.6200,0.09,0.11,-0.99,3.30,2.08,3.97
7.6360,0.09,0.11,-0.99,2.93,1.95,3.85
7.6530,0.09,0.11,-0.99,3.17,2.14,3.78
7.6680,0.09,0.11,-0.99,3.23,2.14,3.66
7.6700,0.09,0.11,-0.99,3.36,2.08,2.81
7.6870,0.09,0.11,-0.99,3.17,2.14,2.93
7.7160,0.09,0.12,-0.99,3.36,2.38,2.56
7.7300,0.09,0.12,-0.99,3.23,2.14,2.99
7.7360,0.09,0.12,-0.99,3.30,2.01,3.30
7.7610,0.09,0.11,-0.99,3.23,1.89,3.05
7.7760,0.09,0.11,-0.99,3.23,1.89,2.87
7.7870,0.09,0.12,-0.99,3.30,2.20,2.99
7.8030,0.09,0.12,-0.99,3.17,2.14,4.09
7.8200,0.09,0.12,-0.99,3.23,2.08,3.48
7.8370,0.09,0.11,-0.99,3.36,2.01,3.17
7.8530,0.09,0.11,-0.99,3.11,2.38,2.38
7.8690,0.09,0.12,-0.99,3.36,2.14,2.93
7.8860,0.09,0.12,-0.99,3.30,2.01,3.42
7.8870,0.09,0.12,-0.98,3.17,1.83,3.66
7.9110,0.09,0.10,-0.99,3.48,2.08,2.99
7.9200,0.09,0.11,-0.99,3.23,2.50,2.56
7.9350,0.09,0.11,-0.99,3.48,1.89,2.93
7.9640,0.09,0.12,-0.99,3.17,2.32,3.17
7.9740,0.09,0.11,-0.99,3.17,2.62,3.36
7.9910,0.09,0.11,-0.99,3.17,2.44,3.42
8.0110,0.09,0.11,-0.99,3.42,2.56,2.38
8.0240,0.09,0.11,-0.99,3.42,2.38,1.95
8.0420,0.09,0.12,-0.99,3.23,2.26,2.20
8.0570,0.09,0.12,-0.99,3.48,1.95,2.93
8.0740,0.09,0.11,-0.99,3.30,1.95,2.99
8.0740,0.09,0.11,-0.99,3.36,2.38,3.11
8.1050,0.09,0.12,-0.99,3.17,2.08,3.11
8.1210,0.09,0.12,-0.98,3.23,2.50,3.36
8.1240,0.09,0.11,-0.99,3.30,2.32,3.48
8.1530,0.09,0.11,-0.99,3.05,2.26,2.69
8.1680,0.09,0.12,-0.99,3.36,2.38,2.56
8.1840,0.09,0.12,-0.98,3.23,2.14,3.30
8.1990,0.09,0.12,-0.99,3.17,2.44,3.66
8.2150,0.09,0.11,-0.98,3.11,2.20,4.03
8.2240,0.09,0.11,-0.99,3.11,1.95,3.85
8.2410,0.09,0.11,-0.99,3.30,2.20,4.03
8.2580,0.09,0.11,-0.99,3.23,1.77,4.03
8.2740,0.09,0.11,-0.99,3.30,2.32,2.99
8.2920,0.09,0.11,-0.99,3.23,1.83,2.93
8.3080,0.09,0.11,-0.99,3.05,1.95,3.17
8.3230,0.09,0.12,-0.99,3.23,2.14,3.11
8.3390,0.09,0.12,-0.99,3.42,1.89,3.48
8.3550,0.09,0.11,-0.99,3.42,2.26,3.23
8.3700,0.09,0.11,-0.99,3.42,1.95,3.36
8.3860,0.09,0.11,-0.99,3.23,1.71,3.36
8.4020,0.09,0.11,-0.99,3.36,2.32,3.60
8.4180,0.09,0.12,-0.99,3.30,1.89,3.78
8.4340,0.09,0.11,-0.99,3.48,1.77,4.09
8.4490,0.09,0.12,-0.99,3.17,1.83,3.91
8.4570,0.09,0.12,-0.99,3.23,1.89,4.15
8.4740,0.09,0.11,-0.99,3.42,1.83,3.60
8.4920,0.09,0.11,-0.99,3.30,1.95,3.60
8.5080,0.09,0.11,-0.99,3.30,2.01,3.54
8.5240,0.09,0.11,-0.99,3.30,2.01,2.62
8.5420,0.09,0.11,-0.99,3.36,2.14,2.01
8.5570,0.09,0.12,-0.99,3.17,2.44,2.44
8.5720,0.09,0.12,-0.99,3.23,2.08,2.87
8.5890,0.09,0.12,-0.99,3.17,2.32,3.42
8.6050,0.09,0.11,-0.99,3.23,2.08,2.87
8.6120,0.09,0.11,-0.99,3.30,1.95,3.05
8.6350,0.09,0.12,-0.99,3.30,2.26,2.75
8.6510,0.09,0.11,-0.99,3.30,2.38,2.81
8.6660,0.09,0.11,-0.99,3.30,1.95,3.11
8.6810,0.09,0.11,-0.99,3.36,2.50,2.62
8.6920,0.09,0.11,-0.99,3.48,2.32,2.38
8.7100,0.09,0.11,-0.99,3.30,2.56,2.26
8.7260,0.09,0.11,-0.99,3.23,2.20,2.69
8.7270,0.09,0.11,-0.99,3.36,2.32,2.56
8.7570,0.09,0.11,-0.99,3.54,2.81,2.01
8.7730,0.09,0.11,-0.99,3.54,2.14,1.83
8.7890,0.09,0.11,-0.99,3.36,2.75,1.71
8.8050,0.09,0.12,-0.98,3.48,2.56,2.20
8.8210,0.09,0.11,-0.99,3.54,2.20,2.26
8.8360,0.09,0.11,-0.99,3.54,2.32,1.77
8.8530,0.09,0.11,-0.99,3.42,2.44,1.71
8.8680,0.09,0.12,-0.99,3.42,2.38,1.71
8.8830,0.10,0.12,-0.98,3.42,2.26,1.53
8.8920,0.09,0.12,-0.99,3.48,2.44,1.10
8.9120,0.09,0.12,-0.99,2.99,2.56,1.34
8.9280,0.08,0.12,-0.99,3.36,2.32,1.83
8.9420,0.08,0.11,-0.99,3.54,1.89,2.08
8.9600,0.08,0.11,-0.99,3.42,2.20,1.95
8.9760,0.08,0.11,-0.99,3.48,2.56,1.95
8.9920,0.09,0.11,-0.99,3.48,2.38,1.83
9.0080,0.09,0.11,-0.99,3.42,2.26,1.89
9.0230,0.09,0.12,-0.99,3.36,2.01,2.14
9.0400,0.09,0.11,-0.99,3.23,2.26,2.99
9.0560,0.09,0.11,-0.99,3.17,2.14,2.99
9.0710,0.09,0.11,-0.99,3.36,2.69,2.32
9.0870,0.09,0.11,-0.99,3.36,2.08,2.01
9.1020,0.09,0.12,-0.99,3.23,2.50,2.26
9.1200,0.09,0.12,-0.99,3.23,2.26,2.81
9.1260,0.09,0.12,-0.99,3.23,2.32,3.23
9.1500,0.09,0.12,-0.99,3.36,2.26,3.17
9.1600,0.09,0.13,-0.98,3.05,1.89,3.97
9.1760,0.09,0.11,-0.99,3.17,2.01,4.58
9.1910,0.09,0.11,-0.99,2.99,2.08,3.78
9.2100,0.09,0.11,-0.99,3.36,2.01,3.30
9.2250,0.09,0.11,-0.99,3.30,2.20,3.23
9.2400,0.09,0.12,-0.99,3.23,2.08,3.66
9.2480,0.09,0.12,-0.99,3.11,2.20,4.21
9.2650,0.09,0.12,-0.99,3.11,2.14,4.09
9.2840,0.09,0.12,-0.99,3.36,1.95,4.21
9.3000,0.09,0.11,-0.99,3.23,1.65,4.21
9.3140,0.09,0.10,-0.99,3.17,2.08,4.09
9.3160,0.09,0.10,-0.99,3.30,2.32,2.69
9.3340,0.09,0.11,-0.99,3.48,2.01,2.08
9.3500,0.09,0.12,-0.98,3.30,2.08,2.26
9.3720,0.09,0.12,-0.99,3.23,2.20,2.62
9.3890,0.09,0.12,-0.99,3.30,2.38,2.56
9.4060,0.09,0.11,-0.99,3.23,1.95,2.14
9.4210,0.09,0.12,-0.99,3.30,2.14,2.32
9.4380,0.09,0.11,-0.99,3.36,2.20,3.23
9.4560,0.09,0.11,-0.99,3.23,1.95,3.54
9.4720,0.09,0.11,-0.99,3.30,1.59,2.99
9.4870,0.09,0.11,-0.99,3.17,1.65,3.36
9.5040,0.09,0.12,-0.99,3.11,2.26,3.78
9.5190,0.09,0.12,-0.98,3.11,2.08,4.33
9.5220,0.09,0.11,-0.99,3.11,1.65,4.52
9.5510,0.09,0.12,-0.98,3.17,1.83,4.27
9.5560,0.09,0.11,-0.99,3.23,2.01,4.15
9.5830,0.09,0.10,-0.99,3.23,1.65,3.72
9.5990,0.09,0.12,-0.99,3.17,2.14,3.78
9.6150,0.09,0.12,-0.99,3.30,1.71,4.09
9.6220,0.09,0.11,-0.99,3.11,1.71,4.39
9.6470,0.09,0.12,-0.99,3.30,2.08,4.09
9.6620,0.09,0.12,-0.99,3.05,1.65,4.70
9.6720,0.09,0.11,-0.99,3.23,1.89,5.19
9.6890,0.09,0.12,-0.99,3.05,1.83,4.82
9.7050,0.09,0.11,-0.99,3.05,2.01,4.94
9.7230,0.09,0.11,-0.99,3.11,2.20,3.78
9.7390,0.09,0.11,-0.99,3.17,1.95,3.23
9.7540,0.09,0.12,-0.99,3.36,1.65,4.27
9.7710,0.09,0.12,-0.99,3.36,2.08,3.85
9.7870,0.10,0.12,-0.98,3.05,1.71,4.82
9.8020,0.09,0.11,-0.99,3.11,2.20,3.85
9.8130,0.09,0.12,-0.99,3.23,2.32,3.48
9.8330,0.09,0.12,-0.99,3.05,1.83,4.52
9.8490,0.09,0.11,-0.99,3.17,1.65,4.82
9.8650,0.09,0.11,-0.99,3.11,1.59,4.33
9.8800,0.09,0.11,-0.99,3.30,1.95,3.17
9.8950,0.09,0.11,-0.99,3.48,1.95,3.30
9.9060,0.09,0.12,-0.99,3.36,2.08,2.56
9.9220,0.09,0.11,-0.99,3.36,1.95,2.56
9.9400,0.09,0.12,-0.99,3.23,1.77,2.56
9.9550,0.09,0.12,-0.99,3.36,1.71,2.87
9.9710,0.09,0.12,-0.99,3.17,1.95,3.48
9.9870,0.09,0.11,-0.99,3.17,2.38,3.54
10.0030,0.09,0.12,-0.98,3.17,1.71,3.42
10.0190,0.09,0.12,-0.99,3.36,1.95,3.72
10.0350,0.09,0.10,-0.99,3.17,2.20,3.17
10.0500,0.09,0.12,-0.99,3.36,2.14,2.69
10.0560,0.09,0.12,-0.99,3.30,2.38,3.05
10.0730,0.09,0.12,-0.99,3.36,2.20,3.48
10.0890,0.09,0.11,-0.99,3.17,2.14,4.15
10.1060,0.09,0.11,-0.99,3.30,2.20,3.30
10.1220,0.09,0.11,-0.99,3.30,2.01,3.23
10.1390,0.09,0.11,-0.99,3.48,2.38,2.81
10.1540,0.09,0.12,-0.99,3.30,2.08,2.87
10.1700,0.09,0.11,-0.99,3.48,1.89,2.99
10.1850,0.09,0.11,-0.99,3.42,1.89,2.38
10.1990,0.09,0.11,-0.99,3.30,2.44,2.20
10.2150,0.09,0.12,-0.98,3.30,2.32,2.62
10.2220,0.09,0.12,-0.98,3.17,2.32,3.72
10.2390,0.09,0.11,-0.99,3.23,2.32,2.99
10.2550,0.09,0.11,-0.99,3.23,2.32,2.56
10.2730,0.09,0.11,-0.99,3.48,2.26,1.89
10.2890,0.09,0.12,-0.98,3.05,2.50,2.32
10.3070,0.09,0.12,-0.99,3.11,2.26,3.78
10.3220,0.09,0.11,-0.99,3.11,2.20,4.27
10.3380,0.09,0.11,-0.99,3.30,2.01,3.30
10.3530,0.09,0.11,-0.99,3.30,2.26,2.99
10.3690,0.09,0.12,-0.99,3.30,2.14,3.17
10.3850,0.09,0.12,-0.99,3.30,1.95,3.78
10.4020,0.09,0.11,-0.99,3.42,1.83,3.17
10.4180,0.09,0.11,-0.99,3.30,2.20,2.26
10.4340,0.09,0.11,-0.99,3.30,2.56,2.38
10.4500,0.09,0.12,-0.99,3.23,2.08,2.75
10.4560,0.09,0.12,-0.99,3.17,2.32,3.17
10.4720,0.09,0.11,-0.99,2.99,2.26,3.60
10.4910,0.09,0.11,-0.99,3.05,2.44,3.42
10.5080,0.09,0.11,-0.99,3.17,2.32,3.05
10.5260,0.09,0.11,-0.98,3.30,2.14,3.11
10.5420,0.09,0.11,-0.99,3.11,2.14,2.81
10.5580,0.09,0.11,-0.99,3.36,2.50,2.56
10.5740,0.09,0.12,-0.99,3.42,2.38,2.69
10.5890,0.09,0.12,-0.98,3.36,1.89,3.23
10.6050,0.09,0.11,-0.98,3.11,1.95,4.21
10.6220,0.09,0.12,-0.99,3.23,2.01,3.05
10.6380,0.09,0.11,-0.99,3.11,1.95,3.11
10.6540,0.09,0.10,-0.99,3.36,1.71,3.17
10.6690,0.09,0.12,-0.99,3.17,2.44,2.50
10.6830,0.09,0.12,-0.99,3.11,2.14,3.42
10.6990,0.09,0.12,-0.99,2.93,2.08,3.85
10.7140,0.09,0.12,-0.99,3.11,2.14,4.33
10.7250,0.09,0.13,-0.99,2.81,1.65,4.76
10.7420,0.09,0.13,-0.98,2.99,1.59,5.80
10.7580,0.09,0.11,-0.99,2.99,1.59,5.86
10.7750,0.09,0.09,-0.99,3.11,1.71,4.76
10.7760,0.08,0.09,-0.99,3.17,1.83,4.09
10.8050,0.09,0.10,-0.99,3.30,2.08,2.69
10.8210,0.09,0.12,-0.98,3.30,2.20,2.50
10.8370,0.09,0.12,-0.99,3.11,2.32,3.11
10.8530,0.09,0.12,-0.98,3.23,1.77,3.36
10.8680,0.09,0.11,-0.99,3.36,1.95,3.42
10.8850,0.09,0.10,-0.99,3.23,1.95,2.62
10.8920,0.09,0.10,-0.99,3.36,2.50,2.14
10.9140,0.09,0.11,-0.99,3.36,2.32,1.71
10.9240,0.09,0.12,-0.99,3.30,2.20,1.89
10.9480,0.09,0.12,-0.99,3.30,1.89,2.01
10.9640,0.09,0.11,-0.99,3.23,2.14,2.38
10.9800,0.09,0.12,-0.99,3.30,2.44,2.62
10.9970,0.09,0.12,-0.98,3.30,2.20,3.05
11.0130,0.09,0.12,-0.99,3.23,2.14,3.23
11.0280,0.09,0.11,-0.99,3.30,2.56,2.62
11.0440,0.09,0.11,-0.99,3.30,2.14,3.05
11.0590,0.09,0.12,-0.99,3.23,2.08,2.62
11.0740,0.09,0.12,-0.99,3.30,2.14,4.03
11.0810,0.10,0.12,-0.98,3.11,1.71,4.94
11.0990,0.09,0.13,-0.98,3.17,1.53,4.88
11.1140,0.09,0.12,-0.99,2.93,1.95,5.19
11.1310,0.09,0.10,-0.99,2.93,2.14,5.00
11.1470,0.09,0.10,-0.99,3.23,2.14,3.72
11.1640,0.09,0.10,-0.99,3.36,2.26,2.69
11.1810,0.09,0.12,-0.99,3.23,2.44,2.87
11.1970,0.09,0.13,-0.98,3.11,2.32,3.54
11.2150,0.09,0.12,-0.98,3.17,1.59,3.97
11.2310,0.09,0.11,-0.98,3.17,1.83,3.72
11.2470,0.09,0.12,-0.99,3.36,2.08,3.36
11.2630,0.09,0.11,-0.99,3.48,2.32,2.44
11.2780,0.09,0.10,-0.99,3.30,2.38,2.08
11.2930,0.09,0.11,-0.99,3.36,2.44,1.71
11.2980,0.09,0.11,-0.99,3.48,2.50,1.71
11.3150,0.09,0.12,-0.99,3.05,2.93,1.77
11.3340,0.09,0.11,-0.99,3.23,2.50,1.89
11.3520,0.09,0.11,-0.99,3.36,2.44,1.77
11.3680,0.09,0.12,-0.99,3.60,2.32,1.71
11.3860,0.09,0.12,-0.99,3.30,2.32,1.65
11.4010,0.09,0.11,-0.99,3.23,2.32,2.01
11.4170,0.09,0.11,-0.99,3.54,2.14,1.71
11.4340,0.09,0.12,-0.99,3.42,2.20,1.83
11.4490,0.09,0.11,-0.99,3.30,1.95,1.89
11.4650,0.09,0.11,-0.99,3.42,2.26,1.89
11.4680,0.09,0.11,-0.99,3.36,2.20,1.83
11.4830,0.09,0.12,-0.99,3.54,2.56,1.89
11.5070,0.09,0.11,-0.99,3.60,2.26,1.95
11.5240,0.09,0.11,-0.99,3.42,2.08,2.01
11.5400,0.09,0.11,-0.99,3.36,2.01,1.83
11.5560,0.09,0.11,-0.98,3.42,2.81,2.01
11.5720,0.09,0.11,-0.98,3.72,2.01,1.53
11.5870,0.09,0.11,-0.99,3.66,2.44,0.73
11.6030,0.09,0.12,-0.99,3.54,2.62,0.67
11.6180,0.09,0.12,-0.99,3.66,2.69,1.04
11.6350,0.09,0.12,-0.99,3.48,2.50,1.40
11.6500,0.09,0.11,-0.99,3.42,1.83,1.77
11.6650,0.09,0.11,-0.99,3.48,2.14,1.53
11.6750,0.09,0.11,-0.99,3.66,2.38,1.04
11.6900,0.09,0.12,-0.99,3.66,2.69,0.49
11.7100,0.09,0.12,-0.99,3.23,2.38,1.40
11.7250,0.09,0.12,-0.99,3.36,2.32,1.77
11.7410,0.09,0.11,-0.99,3.54,2.32,1.59
11.7570,0.09,0.11,-0.99,3.42,2.26,1.04
11.7720,0.09,0.12,-0.99,3.30,2.26,1.65
11.7800,0.09,0.11,-0.99,3.30,2.44,1.89
11.7960,0.09,0.11,-0.99,3.72,2.26,1.77
11.8170,0.09,0.11,-0.99,3.72,2.69,1.53
11.8330,0.09,0.12,-0.99,3.30,2.56,1.65
11.8500,0.09,0.11,-0.99,3.05,2.14,2.14
11.8660,0.09,0.12,-0.99,3.05,2.32,2.38
11.8810,0.09,0.12,-0.98,3.17,2.26,2.08
11.8850,0.09,0.11,-0.99,3.30,2.14,1.89
11.9000,0.09,0.11,-0.99,3.54,2.14,2.01
11.9290,0.09,0.11,-0.99,3.30,1.95,2.44
11.9390,0.09,0.12,-0.99,3.23,2.01,2.20
11.9550,0.09,0.12,-0.99,3.17,2.32,2.08
11.9730,0.09,0.11,-0.99,3.17,2.44,1.89
11.9890,0.09,0.11,-0.99,3.42,2.08,2.01
12.0040,0.09,0.11,-0.99,3.60,1.95,1.89
12.0200,0.09,0.11,-0.99,3.30,2.14,1.34
12.0360,0.09,0.12,-0.99,3.48,2.14,1.34
12.0530,0.09,0.12,-0.99,3.36,2.08,1.28
12.0560,0.09,0.11,-0.99,3.36,2.56,1.16
12.0850,0.09,0.12,-0.99,3.66,2.01,1.10
12.1010,0.09,0.12,-0.99,3.54,2.26,1.46
12.1150,0.09,0.12,-0.98,3.30,2.32,1.89
12.1230,0.09,0.11,-0.99,3.11,2.14,1.77
12.1390,0.09,0.11,-0.99,3.36,2.01,1.71
12.1620,0.09,0.11,-0.99,3.72,1.89,1.59
12.1720,0.09,0.12,-0.99,3.48,2.38,1.28
12.1890,0.09,0.12,-0.99,3.48,1.77,1.46
12.2050,0.09,0.11,-0.99,3.23,2.44,1.77
12.2210,0.09,0.11,-0.99,3.72,2.56,1.89
12.2380,0.09,0.12,-0.99,3.54,2.01,1.34
12.2570,0.09,0.12,-0.99,3.60,2.01,1.40
12.2710,0.09,0.11,-0.99,3.72,2.38,1.16
12.2890,0.09,0.11,-0.99,3.72,2.38,0.55
12.3050,0.09,0.11,-0.99,4.09,2.69,-0.79
12.3210,0.09,0.12,-0.99,3.48,2.69,-0.92
12.3370,0.09,0.11,-0.99,3.42,2.75,0.43
12.3530,0.09,0.11,-0.99,3.60,2.38,0.85
12.3680,0.09,0.12,-0.99,3.36,2.20,0.61
12.3840,0.09,0.12,-0.99,3.54,2.50,1.22
12.4010,0.09,0.12,-0.99,3.30,1.83,1.28
12.4160,0.09,0.12,-0.99,3.11,2.38,1.34
12.4210,0.09,0.12,-0.98,3.48,2.08,2.01
12.4430,0.09,0.12,-0.99,3.36,1.95,2.26
12.4590,0.09,0.11,-0.99,3.05,1.77,1.83
12.4760,0.09,0.11,-0.99,3.23,2.20,1.83
12.4930,0.09,0.12,-0.99,3.30,2.26,1.83
12.5090,0.09,0.12,-0.99,3.42,2.08,1.77
12.5240,0.09,0.11,-0.99,3.36,1.95,1.83
12.5390,0.09,0.11,-0.99,3.23,2.20,1.83
12.5420,0.09,0.11,-0.99,3.36,2.26,1.77
12.5580,0.09,0.12,-0.98,3.42,2.38,1.83
12.5810,0.09,0.11,-0.99,3.42,1.83,1.77
12.5970,0.09,0.11,-0.99,3.42,2.20,1.83
12.6160,0.09,0.11,-0.98,3.30,2.50,1.71
12.6300,0.09,0.12,-0.99,3.42,2.62,1.65
12.6480,0.09,0.13,-0.98,3.48,2.44,1.16
12.6650,0.09,0.12,-0.99,3.36,2.14,0.98
12.6800,0.09,0.11,-0.99,3.17,1.95,1.89
12.6970,0.09,0.11,-0.99,3.23,2.50,2.14
12.7130,0.09,0.11,-0.99,3.30,2.56,2.01
12.7280,0.09,0.12,-0.99,3.30,2.69,2.14
12.7440,0.09,0.12,-0.99,3.23,2.56,1.89
12.7480,0.09,0.12,-0.99,3.30,2.26,1.83
12.7640,0.09,0.12,-0.99,3.54,2.14,1.65
12.7870,0.09,0.12,-0.98,3.54,1.77,1.16
12.8040,0.09,0.11,-0.99,3.48,2.20,1.10
12.8220,0.09,0.11,-0.99,3.42,2.56,1.40
12.8370,0.09,0.11,-0.99,3.48,2.20,1.46
12.8540,0.09,0.12,-0.98,3.30,2.26,1.83
12.8700,0.09,0.11,-0.99,3.42,2.14,1.77
12.8870,0.09,0.11,-0.99,3.42,2.44,1.53
12.9030,0.09,0.11,-0.99,3.48,1.95,1.65
12.9180,0.09,0.11,-0.99,3.48,2.26,2.14
12.9340,0.09,0.13,-0.98,3.48,2.08,2.69
12.9490,0.09,0.11,-0.99,3.42,2.14,2.32
12.9540,0.09,0.11,-0.99,3.48,2.26,1.65
12.9800,0.09,0.11,-0.99,3.60,2.01,1.83
12.9880,0.09,0.11,-0.99,3.54,2.50,1.89
13.0040,0.09,0.12,-0.99,3.30,2.32,1.95
13.0200,0.09,0.11,-0.99,3.30,2.32,1.83
13.0360,0.09,0.11,-0.99,3.42,2.26,1.77
13.0540,0.09,0.12,-0.99,3.36,2.14,1.77
13.0700,0.09,0.11,-0.99,3.48,1.83,2.01
13.0870,0.09,0.12,-0.99,3.54,2.50,2.01
13.1040,0.09,0.11,-0.99,3.36,2.08,1.83
13.1200,0.09,0.12,-0.99,3.48,2.38,1.71
13.1350,0.09,0.12,-1.00,3.60,1.83,1.71
13.1510,0.09,0.11,-0.99,3.48,2.14,1.77
13.1670,0.09,0.12,-0.99,3.42,2.32,1.59
13.1830,0.09,0.12,-0.99,3.42,2.26,1.59
13.1980,0.09,0.12,-0.99,3.48,2.08,1.53
13.2140,0.09,0.11,-0.99,3.48,2.32,1.53
13.2210,0.09,0.11,-0.99,3.48,2.26,1.83
13.2390,0.09,0.11,-0.99,3.42,1.83,1.77
13.2550,0.09,0.12,-0.99,3.23,2.56,1.95
13.2750,0.09,0.11,-0.99,3.17,2.20,1.95
13.2910,0.09,0.12,-0.99,3.23,2.32,2.32
13.3050,0.09,0.11,-0.99,3.30,1.89,2.81
13.3200,0.09,0.11,-0.99,3.36,2.32,2.38
13.3360,0.09,0.12,-0.99,3.30,2.56,2.14
13.3510,0.09,0.11,-0.99,3.48,2.56,2.01
13.3660,0.09,0.11,-0.99,3.60,2.26,1.89
13.3810,0.09,0.12,-0.99,3.42,2.20,1.77
13.3920,0.09,0.11,-0.99,3.42,2.44,1.89
13.4100,0.09,0.11,-0.99,3.42,2.01,1.77
13.4250,0.09,0.11,-0.99,3.54,2.14,2.01
13.4420,0.09,0.11,-0.98,3.36,2.50,2.26
13.4580,0.09,0.11,-0.98,3.54,2.20,1.95
13.4740,0.09,0.11,-0.99,3.30,2.38,2.01
13.4890,0.09,0.11,-0.99,3.30,2.69,1.83
13.4920,0.09,0.12,-0.98,3.36,2.38,1.65
13.5180,0.09,0.11,-0.98,3.42,1.89,1.83
13.5300,0.10,0.11,-0.99,3.36,2.08,1.65
13.5470,0.09,0.12,-1.00,3.48,2.38,1.95
13.5630,0.09,0.12,-0.97,3.54,2.32,1.89
13.5800,0.09,0.12,-0.99,3.54,2.26,1.77
13.5960,0.09,0.11,-0.98,3.17,2.20,1.83
13.6140,0.10,0.12,-0.99,3.11,2.20,1.65
13.6300,0.09,0.12,-0.99,3.48,2.62,1.10
13.6470,0.09,0.11,-0.99,3.60,2.20,1.04
13.6620,0.09,0.11,-0.99,3.36,2.69,0.92
13.6790,0.09,0.11,-0.99,3.30,2.20,1.34
13.6940,0.09,0.12,-0.99,3.42,2.26,1.28
13.6970,0.09,0.11,-0.98,3.42,2.26,1.28
13.7180,0.09,0.11,-0.99,3.66,2.08,1.34
13.7350,0.10,0.12,-0.98,3.66,2.14,1.34
13.7520,0.09,0.12,-0.99,3.42,2.01,1.16
13.7680,0.09,0.12,-0.99,3.42,2.69,1.10
13.7850,0.08,0.11,-0.99,3.48,2.62,0.79
13.8030,0.09,0.11,-0.99,3.42,2.50,1.28
13.8180,0.09,0.11,-0.99,3.60,2.14,1.40
13.8350,0.09,0.12,-0.99,3.66,2.38,1.59
13.8520,0.09,0.11,-0.99,3.60,2.32,1.40
13.8520,0.09,0.11,-0.99,3.05,2.38,1.53
13.8700,0.09,0.12,-0.99,3.36,2.01,1.71
13.8850,0.09,0.12,-0.99,3.48,2.32,1.40
13.9030,0.08,0.12,-0.99,3.30,1.89,1.28
13.9190,0.08,0.12,-0.99,3.23,1.95,1.46
13.9340,0.09,0.11,-0.99,3.23,2.20,1.71
13.9610,0.09,0.11,-0.99,3.48,2.38,1.71
13.9750,0.09,0.12,-0.99,3.72,2.50,1.65
13.9860,0.09,0.11,-0.98,3.42,2.20,1.65
14.0020,0.09,0.11,-0.99,3.30,2.38,1.89
14.0200,0.09,0.11,-0.99,3.72,2.44,1.95
14.0350,0.10,0.11,-0.99,3.72,2.38,1.71
14.0530,0.09,0.11,-0.99,3.48,2.32,1.40
14.0680,0.09,0.12,-0.99,3.30,2.32,1.40
14.0850,0.09,0.12,-0.99,3.66,2.44,1.59
14.0860,0.09,0.11,-0.99,3.48,1.95,1.53
14.1040,0.09,0.11,-0.99,3.78,2.14,1.22
14.1330,0.09,0.12,-0.99,3.66,2.32,1.65
14.1370,0.06,0.12,-0.99,3.78,2.32,1.59
14.1520,0.09,0.12,-0.99,3.42,2.01,1.59
14.1690,0.09,0.11,-0.99,3.97,2.08,1.71
14.1850,0.09,0.11,-0.99,4.21,1.95,1.77
14.2070,0.09,0.12,-0.99,3.78,2.08,1.89
14.2230,0.09,0.12,-0.99,3.60,2.32,1.83
14.2410,0.09,0.12,-0.99,3.36,2.14,1.77
14.2590,0.09,0.12,-0.99,3.42,1.95,1.59
14.2740,0.09,0.11,-0.99,3.36,1.77,1.83
14.2900,0.07,0.11,-0.99,3.42,1.40,1.71
14.3060,0.08,0.12,-0.99,3.11,1.95,1.95
14.3220,0.09,0.12,-0.98,2.93,2.32,1.95
14.3240,0.10,0.12,-0.98,2.99,2.50,2.14
14.3530,0.12,0.11,-0.98,3.05,2.14,1.83
14.3570,0.09,0.12,-0.99,2.93,2.26,1.77
14.3730,0.12,0.14,-0.98,2.75,1.95,1.34
14.3950,0.09,0.11,-0.99,3.54,2.01,0.98
14.4110,0.09,0.11,-0.99,3.66,2.14,0.85
14.4280,0.08,0.11,-0.99,3.42,2.26,0.73
14.4450,0.09,0.11,-0.98,3.36,2.26,1.10
14.4620,0.09,0.12,-0.99,3.23,2.81,1.53
14.4770,0.10,0.12,-0.99,3.72,2.38,1.65
14.4780,0.10,0.12,-0.98,3.66,2.56,1.10
14.5090,0.10,0.11,-0.99,3.48,2.01,0.92
14.5190,0.09,0.11,-0.99,3.54,2.26,0.43
14.5290,0.09,0.12,-0.99,3.60,2.32,0.55
14.5450,0.09,0.11,-0.99,3.30,2.44,0.92
14.5660,0.08,0.11,-0.99,3.36,2.26,1.34
14.5840,0.09,0.11,-0.98,2.99,2.44,1.71
14.5990,0.09,0.11,-0.97,2.99,2.32,1.83
14.6200,0.09,0.12,-0.99,3.11,2.44,1.83
14.6330,0.09,0.11,-0.99,3.30,2.14,1.95
14.6520,0.09,0.12,-0.98,3.42,2.08,1.83
14.6680,0.09,0.12,-0.99,3.23,2.56,1.65
14.6700,0.10,0.12,-0.98,3.17,2.20,1.71
14.6990,0.09,0.11,-0.98,3.48,2.44,1.65
14.7030,0.09,0.11,-0.99,3.42,2.81,1.65
14.7290,0.09,0.11,-0.99,3.30,2.50,1.46
14.7360,0.09,0.12,-0.99,3.17,2.56,1.59
14.7520,0.09,0.12,-0.99,3.36,2.38,1.89
14.7700,0.09,0.11,-0.99,3.48,2.69,1.77
14.7870,0.09,0.11,-0.99,3.42,2.81,2.01
14.8030,0.09,0.12,-0.99,3.42,2.44,1.89
14.8200,0.09,0.11,-0.99,3.30,2.44,1.89
14.8200,0.09,0.12,-0.99,3.30,2.50,1.77
14.8350,0.09,0.11,-0.99,3.17,2.44,1.77
14.8520,0.09,0.11,-0.99,3.42,2.38,1.89
14.8690,0.09,0.12,-0.99,3.23,2.50,1.89
14.8950,0.09,0.12,-0.98,3.30,2.44,1.89
14.9020,0.09,0.12,-0.99,3.30,2.32,1.83
14.9200,0.09,0.12,-0.99,3.48,2.44,1.53
14.9350,0.09,0.11,-0.99,3.42,2.69,1.34
14.9520,0.09,0.11,-0.99,3.36,2.50,1.34
14.9690,0.09,0.11,-0.99,3.36,2.38,1.34
14.9850,0.09,0.11,-0.99,3.36,2.50,1.71
15.0030,0.09,0.12,-0.99,3.48,2.38,1.71
15.0190,0.09,0.12,-0.99,3.36,2.69,1.65
15.0360,0.09,0.12,-0.98,3.42,2.32,1.77
15.0510,0.09,0.11,-0.99,3.42,2.44,1.83
15.0690,0.09,0.11,-0.99,3.36,2.38,1.83
15.0850,0.09,0.12,-0.99,3.42,2.62,1.83
15.0870,0.09,0.12,-0.99,3.48,2.62,2.08
15.1020,0.09,0.11,-0.99,3.48,2.62,1.83
15.1200,0.09,0.11,-0.99,3.48,2.26,1.77
15.1490,0.09,0.11,-0.99,3.42,2.26,1.89
15.1660,0.09,0.12,-0.99,3.36,2.26,1.83
15.1690,0.09,0.12,-0.99,3.42,2.62,1.95
15.1850,0.09,0.12,-0.99,3.48,2.32,1.83
15.2080,0.09,0.12,-0.99,3.30,2.26,1.83
15.2250,0.09,0.11,-0.99,3.30,2.20,1.71
15.2410,0.09,0.12,-0.99,3.30,2.44,1.77
15.2560,0.09,0.11,-0.99,3.42,2.56,1.89
15.2570,0.09,0.11,-0.99,3.36,2.44,1.71
15.2880,0.09,0.12,-0.99,3.42,2.32,2.01
15.3050,0.09,0.12,-0.98,3.42,2.56,1.83
15.3210,0.09,0.12,-0.99,3.23,2.38,1.83
15.3360,0.09,0.12,-0.99,3.17,2.62,2.01
15.3520,0.09,0.11,-0.99,3.36,2.44,2.01
15.3680,0.09,0.11,-0.99,3.48,2.14,1.95
15.3840,0.09,0.12,-0.99,3.48,2.20,1.83
15.4000,0.09,0.12,-0.99,3.36,2.38,1.83
15.4150,0.09,0.11,-0.98,3.36,2.26,1.83
15.4310,0.09,0.11,-0.99,3.30,2.08,1.83
15.4410,0.09,0.12,-0.99,3.36,2.32,1.83
15.4580,0.09,0.12,-0.99,3.54,2.14,1.83
15.4750,0.09,0.11,-0.99,3.48,2.20,1.71
15.4910,0.09,0.12,-0.99,3.30,2.01,1.59
15.5060,0.09,0.11,-0.99,3.23,2.44,1.46
15.5220,0.09,0.11,-0.99,3.30,2.20,1.65
15.5380,0.09,0.11,-0.99,3.42,2.56,1.89
15.5410,0.09,0.11,-0.99,3.42,2.38,1.77
15.5560,0.09,0.12,-0.99,3.48,2.32,1.77
15.5840,0.09,0.12,-0.98,3.42,2.20,1.83
15.5950,0.09,0.12,-0.99,3.48,2.20,1.95
15.6110,0.09,0.12,-0.99,3.36,2.44,1.83
15.6290,0.09,0.12,-0.99,3.42,2.26,1.95
15.6450,0.09,0.12,-0.99,3.48,2.62,1.95
15.6630,0.09,0.12,-0.99,3.36,2.26,1.83
15.6790,0.09,0.11,-0.99,3.48,2.14,1.83
15.6940,0.09,0.11,-0.98,3.42,2.08,1.77
15.7100,0.09,0.12,-0.99,3.54,2.26,1.89
15.7260,0.09,0.12,-0.99,3.48,2.38,1.89
15.7420,0.09,0.11,-0.99,3.42,2.14,1.83
15.7570,0.09,0.12,-0.99,3.42,2.14,1.71
15.7730,0.09,0.12,-0.99,3.30,2.01,1.77
15.7890,0.09,0.12,-0.99,3.60,2.44,1.83
15.7950,0.09,0.12,-0.99,3.48,2.62,1.83
15.8100,0.09,0.11,-0.99,3.54,1.89,1.83
15.8270,0.09,0.12,-0.99,3.36,2.38,1.89
15.8500,0.09,0.12,-0.99,3.48,2.14,1.95
15.8670,0.09,0.11,-0.98,3.42,2.01,1.89
15.8830,0.09,0.12,-0.99,3.42,2.20,1.77
15.9000,0.09,0.12,-0.99,3.60,1.83,1.71
15.9150,0.09,0.12,-0.99,3.30,2.08,1.89
15.9320,0.09,0.11,-0.99,3.42,2.08,1.77
15.9480,0.09,0.11,-0.99,3.54,1.77,1.83
15.9640,0.09,0.11,-0.98,3.48,1.95,1.83
15.9790,0.09,0.12,-0.99,3.66,2.20,1.83
15.9840,0.09,0.11,-0.99,3.42,2.32,1.77
16.0000,0.09,0.11,-0.99,3.23,2.44,1.83
16.0210,0.09,0.12,-0.99,3.42,2.26,1.95
16.0380,0.09,0.12,-0.99,3.48,2.01,1.65
16.0540,0.09,0.11,-0.99,3.48,2.26,1.83
16.0720,0.09,0.11,-0.99,3.42,2.14,1.83
16.0880,0.09,0.11,-0.99,3.42,2.50,1.89
16.1030,0.09,0.12,-0.99,3.60,2.08,1.77
16.1200,0.09,0.11,-0.99,3.30,2.08,1.95
16.1220,0.09,0.11,-0.99,3.54,2.14,1.89
16.1380,0.09,0.11,-0.99,3.23,2.32,1.71
16.1530,0.09,0.12,-0.99,3.30,2.26,1.89
16.1770,0.09,0.11,-0.99,3.48,2.14,1.83
16.1930,0.09,0.12,-0.99,3.30,2.26,1.71
16.2100,0.09,0.12,-0.99,3.30,2.32,1.83
16.2260,0.09,0.11,-0.99,3.23,2.32,1.83
16.2440,0.09,0.11,-0.99,3.54,2.44,1.89
16.2590,0.09,0.11,-0.99,3.42,2.26,1.89
16.2760,0.09,0.11,-0.99,3.54,2.20,1.83
16.2920,0.09,0.12,-0.99,3.30,2.32,1.83
16.3080,0.09,0.12,-0.99,3.30,2.38,1.83
16.3240,0.09,0.11,-0.99,3.42,2.32,1.89
16.3390,0.09,0.12,-0.99,3.48,2.01,1.83
16.3550,0.09,0.12,-0.99,3.48,2.26,1.77
16.3710,0.09,0.11,-0.99,3.48,2.26,1.89
16.3760,0.09,0.11,-0.99,3.54,1.71,1.71
16.3920,0.09,0.11,-0.99,3.42,1.95,1.83
16.4070,0.09,0.11,-0.99,3.30,1.65,1.89
16.4290,0.09,0.12,-0.99,3.36,2.38,1.89
16.4470,0.09,0.12,-0.99,3.42,1.95,1.95
16.4630,0.09,0.11,-0.99,3.36,2.20,1.83
16.4790,0.09,0.11,-0.99,3.30,2.14,1.83
16.4960,0.09,0.11,-0.99,3.42,2.14,1.71
16.5120,0.09,0.11,-0.99,3.42,2.14,1.77
16.5280,0.09,0.12,-0.99,3.36,1.71,1.65
16.5430,0.09,0.11,-0.99,3.48,2.08,1.77
16.5590,0.09,0.11,-0.99,3.54,2.14,1.77
16.5740,0.09,0.11,-0.98,3.42,2.20,1.77
16.5800,0.09,0.12,-0.99,3.36,2.26,1.83
16.6040,0.09,0.11,-0.99,3.30,2.20,1.83
16.6130,0.09,0.11,-0.99,3.42,2.01,1.89
16.6290,0.09,0.11,-0.99,3.36,2.44,1.83
16.6500,0.09,0.12,-0.99,3.30,2.56,1.95
16.6660,0.09,0.12,-0.99,3.30,2.69,1.89
16.6820,0.09,0.11,-0.99,3.36,2.01,1.89
16.6980,0.09,0.11,-0.99,3.30,2.62,1.89
16.7140,0.09,0.11,-0.99,3.11,2.26,1.71
16.7220,0.09,0.12,-0.99,3.36,2.56,1.89
16.7360,0.09,0.11,-0.99,3.30,2.44,1.95
16.7520,0.09,0.11,-0.99,3.23,2.38,1.89
16.7730,0.09,0.12,-0.99,3.36,2.38,1.89
16.7900,0.09,0.12,-0.99,3.17,2.87,1.83
16.8060,0.09,0.11,-0.99,3.23,2.44,1.77
16.8230,0.09,0.11,-0.99,3.17,2.26,1.71
16.8390,0.09,0.12,-0.99,3.30,2.50,1.77
16.8550,0.09,0.12,-0.99,3.36,2.26,1.83
16.8710,0.09,0.12,-0.99,3.30,2.32,1.77
16.8870,0.09,0.11,-0.99,3.42,2.50,1.95
16.8890,0.08,0.12,-0.99,3.42,2.62,0.18
16.9050,0.09,0.11,-0.99,3.66,2.26,0.98
16.9290,0.09,0.12,-0.99,3.48,2.56,0.61
16.9460,0.09,0.12,-0.98,3.36,2.32,0.79
16.9630,0.09,0.11,-0.99,3.54,2.62,0.73
16.9790,0.09,0.11,-0.99,3.48,2.32,1.34
16.9970,0.09,0.11,-0.99,3.42,2.56,1.71
17.0130,0.09,0.11,-0.99,3.48,1.95,1.89
17.0290,0.09,0.12,-0.99,3.48,2.44,1.89
17.0450,0.09,0.11,-0.99,3.36,2.01,1.95
17.0610,0.09,0.11,-0.99,3.30,2.01,1.83
17.0630,0.09,0.11,-0.99,3.30,2.26,1.89
17.0920,0.09,0.11,-0.99,3.48,2.14,1.83
17.1070,0.09,0.11,-0.98,3.30,2.20,1.77
17.1230,0.09,0.12,-0.99,3.30,2.08,1.83
17.1380,0.09,0.11,-0.99,3.48,2.20,1.95
17.1540,0.09,0.12,-0.99,3.42,2.44,1.89
17.1700,0.09,0.12,-0.99,3.23,2.32,1.83
17.1860,0.09,0.11,-0.99,3.42,2.32,1.83
17.1960,0.09,0.11,-0.99,3.54,1.89,1.71
17.2130,0.09,0.11,-0.99,3.36,2.50,1.83
17.2290,0.09,0.12,-0.99,3.30,2.38,1.89
17.2460,0.09,0.11,-0.99,3.23,2.44,1.95
17.2620,0.09,0.11,-0.99,3.36,2.56,2.01
17.2790,0.09,0.11,-0.98,3.30,2.26,1.83
17.2960,0.09,0.11,-0.99,3.23,2.20,1.83
17.3120,0.09,0.11,-0.99,3.48,2.32,1.77
17.3270,0.09,0.11,-0.99,3.36,2.08,1.83
17.3440,0.09,0.11,-0.99,3.54,2.26,1.77
17.3600,0.09,0.11,-0.99,3.54,2.08,1.83
17.3620,0.09,0.11,-0.99,3.42,2.32,1.77
17.3780,0.09,0.11,-0.99,3.30,2.26,1.83
17.4010,0.09,0.12,-0.99,3.36,2.14,1.71
17.4170,0.09,0.12,-0.99,3.23,2.14,1.65
17.4330,0.09,0.11,-0.99,3.17,2.44,1.71
17.4510,0.09,0.11,-0.99,3.48,2.32,1.89
17.4670,0.09,0.12,-0.99,3.23,2.26,1.65
17.4830,0.09,0.12,-0.99,3.36,2.20,1.83
17.4990,0.09,0.12,-0.99,3.30,2.14,1.71
17.5000,0.09,0.11,-0.99,3.42,2.14,1.83
17.5310,0.09,0.12,-0.99,3.36,2.38,1.77
17.5470,0.09,0.12,-0.99,3.48,2.08,1.89
17.5620,0.09,0.11,-0.99,3.36,2.14,1.89
17.5780,0.09,0.11,-0.99,3.30,2.32,1.89
17.5850,0.09,0.12,-0.98,3.23,2.38,1.89
17.6010,0.09,0.11,-0.99,3.48,2.20,1.65
17.6180,0.09,0.11,-0.99,3.36,2.08,1.89
17.6350,0.09,0.11,-0.99,3.30,2.08,1.83
17.6510,0.09,0.11,-0.98,3.48,2.14,1.77
17.6680,0.09,0.12,-0.99,3.36,2.08,1.89
17.6820,0.09,0.12,-0.99,3.48,2.01,1.77
17.6990,0.09,0.11,-0.99,3.48,1.83,1.71
17.7150,0.09,0.11,-0.99,3.17,2.08,1.83
17.7300,0.09,0.12,-0.98,3.36,2.44,1.83
17.7340,0.09,0.11,-0.99,3.30,1.83,1.71
17.7490,0.08,0.12,-0.99,3.36,2.26,1.89
17.7740,0.11,0.11,-0.99,3.36,2.50,1.83
17.7910,0.07,0.12,-0.99,3.36,2.20,1.83
17.8070,0.08,0.12,-0.99,3.54,2.44,1.83
17.8240,0.09,0.11,-0.98,3.66,1.95,1.83
17.8400,0.09,0.12,-0.98,3.54,2.08,1.65
17.8560,0.09,0.12,-0.99,3.23,2.01,1.59
17.8720,0.09,0.12,-0.99,3.66,1.95,1.28
17.8880,0.09,0.11,-0.99,3.42,1.95,1.71
17.9040,0.09,0.11,-0.99,3.36,2.20,1.83
17.9070,0.09,0.12,-0.98,3.42,2.26,1.71
17.9240,0.09,0.11,-0.99,3.30,2.08,1.65
17.9460,0.09,0.11,-0.99,3.23,1.83,1.71
17.9630,0.09,0.11,-0.99,3.30,2.08,1.89
17.9800,0.09,0.12,-0.99,3.42,2.20,1.59
17.9960,0.09,0.11,-0.99,3.54,2.08,1.83
18.0130,0.09,0.12,-0.99,3.42,2.38,1.71
18.0300,0.09,0.11,-0.99,3.23,2.56,1.71
18.0450,0.09,0.11,-0.99,3.36,2.08,1.83
18.0620,0.09,0.12,-0.99,3.48,2.01,1.89
18.0780,0.09,0.11,-0.99,3.60,2.69,2.01
18.0940,0.09,0.12,-0.99,3.48,2.32,1.77
18.1090,0.09,0.11,-0.99,3.23,2.20,1.95
18.1240,0.09,0.11,-0.99,3.36,2.20,1.89
18.1300,0.09,0.11,-0.99,3.36,2.26,1.89
18.1530,0.09,0.11,-0.99,3.30,2.81,1.89
18.1710,0.09,0.11,-0.98,3.48,1.95,1.71
18.1860,0.08,0.12,-0.99,3.42,2.01,1.77
18.2020,0.09,0.11,-0.99,3.42,2.26,1.77
18.2030,0.09,0.11,-0.99,3.36,2.01,1.83
18.2340,0.09,0.12,-0.99,3.36,2.01,1.83
18.2500,0.09,0.11,-0.99,3.36,2.26,1.77
18.2670,0.09,0.11,-0.99,3.48,2.26,1.77
18.2690,0.09,0.11,-0.99,3.48,2.26,1.77
18.2860,0.09,0.11,-0.99,3.60,2.01,1.83
18.3030,0.09,0.11,-0.99,3.48,2.01,1.89
18.3240,0.09,0.11,-0.99,3.60,2.14,1.83
18.3400,0.09,0.12,-0.99,3.36,2.56,1.71
18.3560,0.09,0.12,-0.99,3.48,2.20,1.71
18.3740,0.09,0.11,-0.99,3.42,2.32,1.77
18.3900,0.09,0.11,-0.99,3.36,1.95,1.77
18.4070,0.09,0.11,-0.99,3.42,2.38,1.71
18.4220,0.09,0.11,-0.99,3.42,2.38,1.89
18.4380,0.09,0.11,-0.99,3.36,2.38,1.89
18.4540,0.09,0.11,-0.99,3.48,2.20,1.83
18.4560,0.09,0.11,-0.99,3.48,1.95,1.83
18.4720,0.09,0.11,-0.99,3.23,2.32,1.77
18.4940,0.09,0.11,-0.99,3.17,2.20,1.71
18.5120,0.09,0.12,-0.99,3.48,1.77,1.83
18.5290,0.09,0.12,-0.99,3.48,2.20,1.83
18.5470,0.09,0.11,-0.99,3.54,2.32,1.89
18.5620,0.09,0.11,-0.99,3.42,2.50,1.95
18.5770,0.09,0.11,-0.99,3.48,2.32,1.95
18.5830,0.09,0.11,-0.99,3.60,2.38,1.89
18.5990,0.09,0.11,-0.99,3.66,2.62,1.77
18.6180,0.09,0.11,-0.98,3.48,2.38,1.59
18.6340,0.08,0.12,-1.00,3.66,2.62,0.85
18.6510,0.11,0.12,-0.99,3.42,2.26,0.73
18.6690,0.07,0.12,-0.99,3.48,2.08,1.83
18.6840,0.10,0.11,-0.99,3.36,2.26,1.71
18.7020,0.08,0.11,-0.98,3.23,2.14,1.77
18.7180,0.10,0.12,-0.99,3.60,2.14,1.83
18.7340,0.09,0.12,-0.98,3.30,2.32,1.65
18.7500,0.09,0.12,-0.99,3.17,2.38,1.83
18.7660,0.09,0.11,-0.99,3.30,2.56,1.83
18.7680,0.09,0.11,-0.99,3.42,2.50,1.95
18.7980,0.09,0.12,-0.98,3.66,2.20,1.83
18.8140,0.09,0.12,-0.99,3.54,2.38,1.77
18.8300,0.09,0.11,-0.98,3.36,2.38,1.77
18.8450,0.09,0.11,-0.99,3.23,1.95,1.65
18.8510,0.09,0.12,-0.99,3.54,2.50,1.77
18.8680,0.09,0.12,-0.99,3.42,2.56,1.46
18.8850,0.09,0.12,-0.99,3.23,2.56,1.59
18.9010,0.09,0.11,-0.99,3.42,2.44,1.71
18.9180,0.09,0.11,-0.99,3.48,2.32,1.83
18.9350,0.09,0.12,-0.99,3.36,2.26,1.71
18.9510,0.09,0.11,-0.99,3.36,2.32,1.89
18.9680,0.09,0.11,-0.99,3.42,2.62,1.83
18.9840,0.09,0.11,-0.99,3.36,2.32,1.89
19.0010,0.09,0.11,-0.99,3.36,2.26,1.83
19.0180,0.09,0.12,-0.99,3.36,2.26,1.77
19.0250,0.09,0.11,-0.99,3.36,2.38,1.89
19.0500,0.09,0.12,-0.99,3.17,2.62,1.77
19.0660,0.09,0.12,-0.99,3.36,2.26,1.95
19.0820,0.09,0.11,-0.99,3.54,2.44,1.77
19.0970,0.09,0.12,-0.99,3.23,2.20,1.83
19.1010,0.09,0.11,-0.99,3.36,2.56,1.89
19.1250,0.09,0.11,-0.99,3.36,2.50,1.83
19.1400,0.09,0.12,-0.99,3.54,2.08,1.77
19.1570,0.09,0.12,-0.99,3.36,2.14,1.71
19.1730,0.09,0.12,-0.99,3.42,2.38,1.77
19.1900,0.09,0.11,-0.99,3.30,2.01,1.71
19.2060,0.09,0.11,-0.99,3.36,2.20,1.77
19.2220,0.09,0.12,-0.99,3.30,2.26,1.89
19.2380,0.09,0.12,-0.99,3.48,1.95,1.89
19.2400,0.09,0.11,-0.99,3.36,2.26,1.89
19.2550,0.09,0.11,-0.99,3.66,1.65,1.83
19.2850,0.09,0.12,-0.97,3.48,2.38,1.83
19.2940,0.09,0.12,-1.00,3.42,1.59,1.65
19.3110,0.09,0.12,-0.99,3.72,2.08,1.71
19.3280,0.09,0.11,-0.99,3.36,2.08,1.95
19.3450,0.09,0.11,-0.99,3.30,2.38,1.89
19.3610,0.08,0.12,-0.98,3.36,2.08,1.89
19.3770,0.09,0.12,-0.98,3.48,2.26,1.89
19.3940,0.09,0.12,-0.99,3.05,2.75,1.77
19.4100,0.09,0.11,-0.99,3.11,2.26,1.77
19.4260,0.09,0.11,-0.99,3.36,2.32,1.83
19.4420,0.09,0.11,-0.99,3.30,2.56,1.95
19.4570,0.09,0.12,-0.99,3.54,2.38,1.89
19.4720,0.09,0.12,-0.99,3.48,2.38,1.83
19.4880,0.09,0.11,-0.99,3.54,2.20,1.95
19.5040,0.09,0.12,-0.99,3.42,2.44,1.77
19.5180,0.09,0.12,-0.99,3.30,2.50,1.89
19.5340,0.09,0.12,-0.99,3.48,2.75,1.83
19.5450,0.09,0.11,-0.99,3.48,2.38,1.83
19.5610,0.09,0.11,-0.99,3.42,2.69,1.83
19.5760,0.09,0.12,-0.98,3.66,2.56,1.89
19.5960,0.09,0.10,-0.99,4.70,3.11,0.37
19.6110,0.09,0.12,-0.99,3.78,2.69,1.89
19.6270,0.09,0.12,-0.99,3.91,2.62,1.89
19.6420,0.09,0.12,-0.99,3.72,2.62,1.71
19.6590,0.10,0.08,-0.97,3.42,2.32,1.34
19.6630,0.09,0.12,-0.99,2.26,2.56,2.26
19.6790,0.09,0.11,-0.98,3.72,2.62,2.08
19.7040,0.09,0.11,-0.99,3.05,2.62,1.83
19.7200,0.09,0.11,-0.99,3.23,2.62,1.89
19.7360,0.09,0.12,-0.99,3.72,2.56,1.95
19.7540,0.09,0.12,-0.99,3.72,2.44,1.71
19.7690,0.09,0.11,-0.99,3.36,2.26,1.83
19.7850,0.09,0.12,-0.99,3.30,2.38,1.83
19.8000,0.09,0.12,-0.99,3.48,2.50,1.89
19.8030,0.10,0.12,-0.97,3.17,2.56,2.08
19.8330,0.09,0.08,-0.97,-0.55,1.65,1.40
19.8480,0.08,0.10,-0.99,2.62,2.08,1.89
19.8650,0.10,0.11,-0.99,3.60,2.56,1.83
19.8710,0.09,0.11,-0.99,3.36,2.14,1.77
19.8870,0.09,0.12,-0.98,3.36,2.26,1.83
19.9030,0.09,0.12,-0.98,3.54,2.14,1.71
19.9210,0.09,0.12,-0.98,3.30,2.38,1.71
19.9370,0.09,0.11,-0.99,3.36,2.69,1.77
19.9530,0.09,0.11,-0.99,3.36,2.50,1.89
19.9700,0.09,0.12,-0.99,3.48,2.20,1.95
19.9870,0.09,0.12,-0.99,3.66,2.69,1.89
20.0030,0.09,0.12,-0.99,3.66,2.69,1.89
20.0190,0.09,0.12,-0.99,3.48,2.14,1.89
20.0350,0.09,0.12,-0.99,3.42,2.56,1.95
20.0520,0.09,0.12,-0.99,3.11,2.50,1.95
20.0680,0.09,0.11,-0.99,3.17,2.14,1.83
20.0830,0.09,0.11,-0.99,3.23,2.01,1.83
20.1000,0.09,0.12,-0.99,3.23,2.81,1.89
20.1160,0.09,0.12,-0.99,3.36,2.50,1.83
20.1270,0.09,0.11,-0.99,3.36,2.14,1.77
20.1480,0.09,0.11,-0.99,3.11,2.56,2.01
20.1630,0.09,0.11,-0.99,3.30,2.62,1.89
20.1790,0.09,0.12,-0.99,3.42,2.14,1.95
20.1950,0.09,0.12,-0.99,3.42,2.14,1.65
20.2030,0.09,0.11,-0.99,3.36,2.26,1.83
20.2200,0.09,0.11,-0.99,3.48,2.38,1.95
20.2370,0.09,0.12,-0.99,3.30,2.62,1.95
20.2530,0.09,0.12,-0.99,3.42,2.08,1.83
20.2700,0.09,0.11,-0.99,3.30,2.32,1.83
20.2880,0.09,0.11,-0.99,3.23,2.44,1.83
20.3030,0.09,0.11,-0.99,3.42,2.20,1.89
20.3200,0.09,0.12,-0.99,3.30,2.50,1.83
20.3360,0.09,0.11,-0.99,3.23,2.44,1.95
20.3520,0.09,0.11,-0.99,3.30,2.26,1.83
20.3680,0.09,0.11,-0.99,3.36,2.26,1.89
20.3840,0.09,0.12,-0.99,3.36,2.44,1.95
20.3990,0.09,0.11,-0.99,3.48,2.50,1.77
20.4150,0.09,0.11,-0.98,3.42,2.32,1.77
20.4280,0.09,0.11,-0.99,3.42,2.26,1.83
20.4350,0.09,0.11,-0.99,3.36,2.26,2.08
20.4590,0.08,0.12,-1.00,3.36,2.62,1.89
20.4770,0.09,0.11,-0.99,3.36,2.32,1.83
20.4920,0.09,0.11,-0.99,3.36,2.32,1.83
20.5090,0.09,0.12,-0.99,3.36,2.38,1.95
20.5250,0.09,0.12,-0.98,3.17,2.44,1.95
20.5410,0.09,0.12,-0.98,3.23,2.50,1.95
20.5570,0.09,0.11,-0.99,3.36,2.26,1.83
20.5720,0.09,0.11,-0.99,3.17,2.56,1.89
20.5760,0.09,0.11,-0.99,3.30,2.75,1.89
20.6040,0.09,0.12,-0.99,3.23,2.75,2.01
20.6200,0.09,0.11,-0.98,3.36,2.32,1.77
20.6370,0.09,0.11,-0.99,3.36,2.87,1.83
20.6520,0.09,0.11,-0.99,3.48,2.14,1.71
20.6670,0.09,0.11,-0.99,3.30,2.20,1.95
20.6750,0.09,0.11,-0.99,3.42,2.38,2.08
20.6980,0.09,0.12,-0.99,3.42,2.32,1.83
20.7090,0.09,0.11,-0.98,3.17,2.62,1.89
20.7280,0.09,0.11,-0.98,3.42,2.75,1.77
20.7410,0.09,0.11,-0.99,3.42,2.14,1.89
20.7600,0.09,0.11,-0.98,3.42,2.38,1.95
20.7750,0.09,0.11,-0.98,3.30,2.69,1.83
20.7900,0.09,0.12,-0.99,3.54,2.50,1.83
20.8060,0.09,0.11,-0.99,3.17,2.38,1.83
20.8210,0.09,0.11,-0.99,3.36,2.56,1.95
20.8370,0.09,0.12,-0.99,3.30,2.81,1.83
20.8530,0.09,0.12,-0.99,3.30,2.56,1.95
20.8630,0.09,0.12,-0.99,3.23,2.69,2.08
20.8800,0.09,0.11,-0.99,3.42,2.26,1.95
20.8960,0.09,0.11,-0.99,3.42,2.69,1.83
20.9120,0.09,0.11,-0.98,3.30,2.75,2.01
20.9300,0.09,0.12,-0.98,3.36,2.62,2.01
20.9450,0.09,0.11,-0.99,3.48,2.20,1.83
20.9650,0.09,0.11,-0.99,3.23,2.38,1.89
20.9800,0.09,0.11,-0.99,3.48,2.44,1.95
20.9850,0.09,0.11,-0.99,3.48,2.62,1.95
21.0000,0.09,0.12,-0.99,3.30,2.44,1.89
21.0220,0.09,0.11,-0.99,3.23,2.75,2.01
21.0390,0.09,0.11,-0.99,3.30,2.56,1.95
21.0560,0.09,0.11,-0.99,3.23,2.38,1.89
21.0720,0.09,0.11,-0.99,3.23,2.50,1.95
21.0880,0.09,0.11,-0.99,3.42,2.26,1.83
21.1040,0.09,0.11,-0.99,3.17,2.75,1.83
21.1200,0.09,0.11,-0.99,3.23,2.38,1.89
21.1360,0.09,0.12,-0.99,3.30,2.81,1.83
21.1510,0.09,0.11,-0.99,3.36,2.32,2.01
21.1570,0.09,0.11,-0.99,3.42,2.62,1.89
21.1840,0.09,0.11,-0.99,3.42,2.32,1.89
21.2000,0.09,0.11,-0.99,3.30,2.62,1.89
21.2160,0.09,0.11,-0.99,3.30,2.56,1.89
21.2320,0.09,0.11,-0.99,3.23,2.87,1.83
21.2380,0.09,0.11,-0.99,3.42,2.32,1.83
21.2540,0.09,0.12,-0.99,3.42,2.44,1.95
21.2760,0.09,0.11,-0.99,3.42,2.44,1.83
21.2930,0.09,0.11,-0.99,3.30,2.26,1.89
21.3110,0.09,0.12,-0.99,3.54,2.32,2.01
21.3270,0.09,0.11,-0.99,3.30,2.50,1.89
21.3430,0.09,0.11,-0.99,3.23,2.50,2.01
21.3600,0.09,0.11,-0.98,3.30,2.32,1.83
21.3760,0.09,0.11,-0.99,3.48,2.50,1.89
21.3920,0.09,0.12,-0.99,3.42,2.32,2.08
21.4080,0.09,0.11,-0.99,3.36,2.14,1.83
21.4240,0.09,0.11,-0.99,3.30,2.38,1.89
21.4390,0.09,0.11,-0.99,3.54,2.69,1.83
21.4550,0.09,0.11,-0.99,3.23,2.62,2.01
21.4710,0.09,0.11,-0.99,3.23,2.93,1.77
21.4870,0.09,0.11,-0.99,3.48,2.32,1.83
21.5040,0.09,0.11,-0.98,3.36,2.75,1.83
21.5190,0.09,0.11,-0.99,3.48,2.81,1.89
21.5340,0.09,0.12,-0.99,3.48,2.56,1.89
21.5500,0.09,0.11,-0.99,3.36,2.62,2.01
21.5600,0.09,0.11,-0.99,3.30,2.38,1.95
21.5760,0.09,0.11,-0.99,3.23,2.50,1.77
21.5940,0.09,0.11,-0.99,3.36,2.62,1.95
21.6100,0.09,0.11,-0.99,3.36,2.87,1.71
21.6270,0.09,0.12,-0.99,3.48,2.50,1.77
21.6430,0.09,0.11,-0.99,3.23,2.62,1.77
21.6600,0.09,0.11,-0.99,3.30,2.62,1.89
21.6750,0.09,0.11,-0.99,3.36,2.75,1.83
21.6910,0.09,0.11,-0.99,3.36,2.56,1.83
21.7070,0.09,0.12,-0.99,3.30,2.20,2.01
21.7100,0.09,0.11,-0.99,3.42,2.62,1.95
21.7300,0.09,0.11,-0.99,3.42,2.44,1.83
21.7480,0.09,0.12,-0.99,3.42,2.50,1.95
21.7640,0.09,0.11,-0.99,3.17,2.50,1.71
21.7810,0.09,0.11,-0.99,3.36,2.69,1.95
21.7970,0.09,0.11,-0.99,3.42,2.56,1.83
21.8140,0.09,0.11,-0.99,3.11,2.75,1.77
21.8320,0.09,0.11,-0.99,3.23,2.56,1.77
21.8470,0.09,0.11,-0.99,3.17,2.32,1.77
21.8630,0.09,0.11,-0.99,3.30,2.26,1.83
21.8650,0.09,0.11,-0.99,3.42,1.89,1.83
21.8810,0.09,0.12,-0.99,3.42,2.44,1.95
21.8990,0.09,0.11,-0.99,3.36,2.44,1.77
21.9140,0.09,0.11,-0.99,3.30,2.62,1.89
21.9300,0.09,0.11,-0.99,3.23,2.32,1.95
21.9530,0.09,0.11,-0.99,3.30,2.38,1.83
21.9690,0.09,0.11,-0.99,3.42,2.38,1.89
21.9860,0.09,0.11,-0.99,3.30,2.26,1.89
22.0020,0.09,0.11,-0.99,3.23,2.08,1.89
22.0190,0.09,0.11,-0.99,3.36,2.50,1.89
22.0350,0.09,0.11,-0.99,3.36,2.32,1.95
22.0370,0.09,0.11,-0.98,3.17,2.44,1.71
22.0670,0.09,0.11,-0.99,3.48,2.50,2.01
22.0700,0.09,0.12,-0.99,3.42,2.32,1.89
22.0860,0.09,0.12,-0.99,3.17,2.56,2.01
22.1010,0.09,0.11,-0.99,3.42,2.38,1.89
22.1240,0.09,0.11,-0.99,3.30,2.26,1.95
22.1410,0.09,0.12,-0.99,3.30,2.81,1.83
22.1560,0.09,0.11,-0.99,3.23,2.62,1.89
22.1740,0.09,0.11,-0.99,3.23,2.93,1.95
22.1900,0.09,0.11,-0.98,3.36,2.44,1.77
22.2080,0.09,0.11,-0.99,3.48,2.50,1.77
22.2240,0.09,0.11,-0.99,3.36,2.69,1.89
22.2400,0.09,0.11,-0.99,3.42,2.50,1.89
22.2550,0.09,0.11,-0.99,3.30,2.50,1.77
22.2710,0.09,0.11,-0.99,3.30,2.44,1.89
22.2870,0.09,0.11,-0.99,3.36,2.62,1.95
22.3040,0.09,0.11,-0.99,3.30,2.20,1.95
22.3060,0.09,0.11,-0.99,3.42,2.62,1.83
22.3310,0.09,0.11,-0.99,3.66,2.44,2.01
22.3460,0.09,0.11,-0.99,3.36,2.26,1.71
22.3630,0.09,0.12,-0.99,3.42,2.93,1.89
22.3790,0.09,0.11,-0.99,3.23,2.38,1.95
22.3960,0.09,0.11,-0.99,3.30,2.69,1.83
22.4120,0.09,0.12,-0.99,3.36,2.56,1.83
22.4310,0.09,0.11,-0.99,3.48,2.38,1.89
22.4460,0.09,0.11,-0.99,3.42,2.14,1.71
22.4620,0.09,0.11,-0.99,3.30,2.75,1.83
22.4790,0.09,0.11,-0.99,3.30,2.44,1.83
22.4960,0.09,0.12,-0.99,3.23,2.50,1.89
22.5110,0.09,0.11,-0.99,3.23,2.44,1.95
22.5280,0.09,0.11,-0.99,3.42,2.56,1.89
22.5440,0.09,0.11,-0.99,3.42,2.32,1.71
22.5460,0.09,0.12,-0.99,3.30,2.38,1.83
22.5610,0.09,0.12,-0.99,3.42,2.20,1.83
22.5840,0.09,0.11,-0.99,3.30,2.62,1.95
22.6000,0.09,0.11,-0.99,3.42,2.50,1.95
22.6180,0.09,0.12,-0.99,3.17,2.08,1.71
22.6340,0.09,0.12,-0.99,3.23,2.32,1.83
22.6520,0.09,0.11,-0.99,3.17,2.56,1.95
22.6670,0.09,0.11,-0.99,3.36,2.62,1.89
22.6830,0.09,0.11,-0.99,3.17,2.81,1.77
22.6850,0.09,0.12,-0.99,3.23,2.62,1.89
22.7150,0.09,0.12,-0.99,3.23,2.87,1.95
22.7180,0.09,0.11,-0.99,3.42,2.14,1.77
22.7330,0.09,0.11,-0.99,3.36,2.32,1.77
22.7630,0.09,0.12,-0.99,3.36,2.20,1.83
22.7670,0.09,0.11,-0.99,3.17,2.69,1.83
22.7830,0.09,0.11,-0.99,3.30,2.69,1.83
22.8050,0.09,0.11,-0.99,3.36,2.50,1.89
22.8210,0.09,0.11,-0.99,3.30,2.08,1.95
22.8400,0.09,0.12,-0.99,3.30,2.50,1.77
22.8550,0.09,0.11,-0.99,3.17,2.56,1.83
22.8710,0.09,0.11,-0.99,3.30,2.62,1.65
22.8870,0.09,0.12,-0.99,3.23,2.50,1.77
22.9040,0.09,0.12,-0.99,3.30,2.44,1.83
22.9200,0.09,0.11,-0.99,3.17,2.44,1.95
22.9360,0.09,0.11,-0.99,3.23,2.50,2.01
22.9510,0.09,0.12,-0.99,3.30,2.62,1.83
22.9670,0.09,0.12,-0.99,3.30,2.75,1.95
22.9830,0.09,0.11,-0.99,3.23,2.93,1.89
22.9990,0.09,0.11,-0.99,3.17,2.62,1.89
23.0140,0.09,0.11,-0.99,3.23,2.50,1.89
23.0290,0.09,0.12,-0.98,3.36,2.44,1.77
23.0390,0.09,0.12,-0.99,3.17,3.05,2.01
23.0550,0.09,0.11,-0.99,3.30,2.38,1.77
23.0710,0.09,0.11,-0.99,3.42,2.44,1.71
23.0910,0.09,0.11,-0.99,3.23,2.93,1.89
23.1070,0.09,0.12,-0.99,3.23,2.93,2.01
23.1220,0.09,0.11,-0.99,3.23,2.50,1.95
23.1370,0.09,0.11,-0.99,3.17,2.75,1.77
23.1530,0.09,0.12,-0.99,3.23,2.75,2.01
23.1590,0.09,0.12,-0.99,3.48,2.50,1.89
23.1860,0.09,0.11,-0.99,3.36,2.75,1.95
23.2010,0.09,0.11,-0.99,3.42,2.32,1.89
23.2170,0.09,0.11,-0.99,3.30,2.44,1.95
23.2250,0.09,0.11,-0.99,3.48,2.56,1.95
23.2410,0.09,0.11,-0.99,3.23,2.75,1.77
23.2630,0.09,0.11,-0.99,3.11,2.99,1.95
23.2780,0.09,0.11,-0.99,3.30,2.50,1.89
23.2810,0.09,0.11,-0.99,3.23,2.56,1.71
23.3100,0.09,0.11,-0.99,3.36,2.50,1.83
23.3150,0.09,0.12,-0.99,3.36,2.50,1.83
23.3330,0.09,0.11,-0.99,3.17,2.81,1.83
23.3550,0.09,0.11,-0.99,3.23,2.38,1.77
23.3700,0.09,0.12,-0.99,3.30,2.81,1.77
23.3860,0.09,0.12,-0.99,3.30,2.62,1.89
23.4010,0.08,0.11,-0.99,3.36,2.75,1.83
23.4170,0.09,0.11,-0.99,3.30,1.95,1.83
23.4210,0.09,0.11,-0.99,3.30,2.38,1.83
23.4360,0.09,0.12,-0.99,3.42,2.75,1.83
23.4590,0.09,0.11,-0.99,3.23,2.75,1.89
23.4770,0.09,0.11,-0.99,3.17,2.69,1.95
23.4930,0.09,0.11,-0.99,3.48,2.32,1.83
23.5090,0.09,0.11,-0.99,3.17,2.32,1.77
23.5250,0.09,0.11,-0.99,3.30,2.56,1.89
23.5410,0.09,0.11,-0.99,3.11,2.56,2.01
23.5570,0.09,0.11,-0.99,3.23,2.50,1.95
23.5720,0.09,0.11,-0.99,3.36,2.32,2.01
23.5880,0.09,0.12,-0.99,3.23,2.38,1.89
23.5930,0.09,0.11,-0.99,3.42,2.81,1.77
23.6080,0.09,0.11,-0.99,3.23,2.69,1.83
23.6330,0.09,0.11,-0.99,3.30,2.32,1.89
23.6460,0.09,0.11,-0.99,3.36,2.38,1.95
23.6630,0.09,0.11,-0.99,3.36,2.32,1.95
23.6800,0.09,0.11,-0.99,3.42,2.38,1.89
23.6960,0.09,0.11,-0.98,3.42,2.14,1.89
23.7130,0.09,0.11,-0.99,3.36,2.56,1.83
23.7290,0.09,0.11,-0.99,3.30,2.81,1.77
23.7460,0.09,0.11,-0.99,3.30,2.26,1.83
23.7610,0.09,0.11,-0.99,3.48,2.38,1.83
23.7760,0.09,0.12,-0.99,3.11,2.38,1.95
23.7790,0.09,0.12,-0.99,3.11,2.87,1.89
23.7940,0.09,0.11,-0.99,3.17,2.62,1.83
23.8170,0.09,0.11,-0.99,3.36,2.44,1.95
23.8340,0.09,0.11,-0.99,3.11,2.81,1.83
23.8500,0.09,0.11,-0.99,3.17,2.26,1.95
23.8680,0.09,0.11,-0.99,3.11,3.11,1.77
23.8830,0.09,0.11,-0.99,3.23,2.69,1.83
23.9010,0.09,0.11,-0.99,3.23,2.44,1.89
23.9170,0.09,0.11,-0.99,3.30,2.69,1.89
23.9340,0.09,0.11,-0.99,3.30,3.11,1.83
23.9500,0.09,0.11,-0.98,3.11,2.75,1.77
23.9660,0.09,0.11,-0.99,3.30,2.75,1.77
23.9670,0.09,0.11,-0.99,3.23,2.81,1.83
23.9850,0.09,0.11,-0.99,3.23,2.56,1.83
24.0140,0.09,0.11,-0.99,3.05,2.44,1.83
24.0300,0.09,0.12,-0.99,3.36,2.08,1.83
24.0340,0.09,0.11,-0.99,3.11,2.75,1.89
24.0500,0.09,0.11,-0.99,3.36,2.38,2.01
24.0670,0.09,0.11,-0.99,3.48,2.62,1.95
24.0840,0.09,0.11,-0.98,3.42,2.32,1.89
24.1010,0.09,0.11,-0.99,3.17,2.32,1.77
24.1170,0.09,0.11,-0.99,3.23,2.01,1.95
24.1340,0.09,0.11,-0.99,3.30,2.32,1.95
24.1500,0.09,0.11,-0.99,3.11,2.08,1.89
24.1660,0.09,0.12,-0.99,3.23,2.14,1.95
24.1810,0.09,0.11,-0.99,3.17,2.32,1.83
24.1840,0.09,0.11,-0.99,3.23,2.56,1.89
24.2130,0.09,0.11,-0.99,3.36,2.75,1.83
24.2170,0.09,0.11,-0.99,3.36,2.69,1.95
24.2350,0.09,0.11,-0.99,3.36,2.75,1.83
24.2560,0.09,0.11,-0.99,3.36,2.38,1.71
24.2730,0.09,0.12,-0.99,3.30,2.56,1.83
24.2890,0.09,0.11,-0.99,3.42,2.38,1.83
24.3040,0.09,0.11,-0.99,3.30,2.44,1.95
24.3210,0.09,0.11,-0.99,3.36,2.44,2.01
24.3370,0.09,0.11,-0.99,3.36,2.26,1.89
24.3520,0.09,0.12,-0.99,3.42,2.69,1.89
24.3680,0.09,0.11,-0.99,3.42,2.75,1.95
24.3830,0.09,0.11,-0.99,3.48,2.38,1.83
24.4000,0.09,0.11,-0.99,3.30,2.50,2.01
24.4160,0.09,0.12,-0.99,3.30,2.20,1.83
24.4310,0.09,0.12,-0.99,3.23,2.32,1.83
24.4460,0.09,0.11,-0.99,3.36,2.38,1.77
24.4620,0.09,0.11,-0.99,3.05,2.69,1.77
24.4730,0.09,0.11,-0.99,3.17,2.38,1.77
24.4890,0.09,0.11,-0.99,3.30,2.44,1.77
24.5070,0.09,0.12,-0.99,3.36,2.56,1.89
24.5230,0.09,0.11,-0.99,3.23,2.50,1.77
24.5400,0.09,0.11,-0.99,3.48,2.56,2.08
24.5400,0.09,0.11,-0.99,3.42,2.20,1.77
24.5710,0.09,0.11,-0.98,3.42,2.62,1.89
24.5860,0.09,0.12,-0.98,3.42,2.56,1.83
24.6020,0.09,0.12,-0.99,3.30,2.75,1.71
24.6170,0.09,0.11,-0.99,3.42,2.38,1.89
24.6340,0.09,0.11,-0.99,3.36,2.20,1.95
24.6390,0.09,0.12,-0.98,3.30,2.26,1.83
24.6620,0.09,0.12,-0.99,3.42,2.26,1.77
24.6790,0.09,0.12,-0.99,3.30,2.08,1.71
24.6960,0.10,0.11,-0.99,3.36,1.95,1.89
24.7120,0.09,0.11,-0.99,3.42,2.32,1.89
24.7290,0.09,0.12,-0.98,3.54,2.32,1.89
24.7460,0.09,0.11,-0.98,3.36,2.38,1.83
24.7620,0.09,0.11,-0.98,3.23,2.20,1.89
24.7780,0.09,0.11,-0.99,3.17,2.50,1.83
24.7940,0.09,0.12,-0.99,3.48,2.32,2.01
24.7960,0.09,0.12,-0.99,3.36,2.32,1.89
24.8120,0.09,0.11,-0.99,3.42,2.32,1.83
24.8350,0.09,0.11,-0.99,3.42,2.32,1.83
24.8510,0.09,0.11,-0.99,3.54,2.20,1.71
24.8670,0.09,0.12,-0.99,3.30,2.32,1.77
24.8840,0.09,0.12,-0.99,3.42,2.38,1.77
24.9000,0.09,0.11,-0.98,3.42,2.01,1.77
24.9010,0.09,0.11,-0.99,3.48,2.14,1.83
24.9180,0.09,0.11,-0.99,3.42,2.08,1.83
24.9340,0.09,0.12,-0.99,3.30,2.14,1.77
24.9510,0.09,0.11,-0.99,3.30,2.62,1.83
24.9760,0.09,0.11,-0.99,3.30,2.32,1.71
24.9830,0.09,0.11,-0.99,3.42,2.32,1.77
25.0080,0.09,0.11,-0.99,3.54,2.20,1.77
25.0180,0.09,0.12,-0.99,3.30,2.50,1.83
25.0350,0.09,0.11,-0.99,3.36,2.01,1.77
25.0500,0.09,0.11,-0.99,3.30,2.38,1.77
25.0670,0.09,0.11,-0.99,3.36,2.01,1.83
25.0850,0.09,0.12,-0.99,3.48,2.01,1.71
25.1000,0.09,0.12,-0.99,3.42,2.32,1.95
25.1180,0.09,0.11,-0.99,3.17,2.08,1.95
25.1340,0.09,0.11,-0.99,3.30,2.32,1.89
25.1500,0.09,0.11,-0.99,3.42,2.20,1.83
25.1510,0.09,0.11,-0.99,3.42,2.44,1.83
25.1690,0.09,0.11,-0.99,3.30,2.14,1.77
25.1980,0.09,0.11,-0.99,3.42,2.50,1.83
25.2010,0.09,0.11,-0.98,3.23,2.81,2.01
25.2170,0.09,0.12,-0.99,3.42,2.87,1.95
25.2350,0.09,0.11,-0.99,3.30,2.87,1.77
25.2550,0.09,0.11,-0.99,3.36,2.75,1.95
25.2720,0.09,0.11,-0.99,3.30,2.99,1.83
25.2880,0.09,0.12,-0.99,3.30,2.56,1.83
25.3050,0.09,0.11,-0.99,3.48,2.81,1.89
25.3220,0.09,0.12,-0.99,3.42,2.50,1.89
25.3380,0.09,0.11,-0.99,3.30,2.44,1.89
25.3520,0.09,0.11,-0.99,3.36,2.62,1.89
25.3550,0.09,0.11,-0.99,3.23,2.81,1.89
25.3830,0.09,0.11,-0.99,3.17,2.75,1.83
25.3890,0.09,0.11,-0.99,3.30,2.50,1.71
25.4040,0.09,0.12,-0.99,3.48,2.62,1.83
25.4270,0.09,0.11,-0.99,3.17,2.62,1.89
25.4430,0.09,0.11,-0.99,3.11,2.81,1.83
25.4610,0.09,0.12,-0.99,3.11,2.81,1.95
25.4770,0.09,0.11,-0.99,3.11,2.93,2.01
25.4940,0.09,0.11,-0.99,3.11,2.99,1.95
25.5100,0.09,0.11,-0.99,3.36,2.50,1.65
25.5260,0.09,0.11,-0.99,3.36,2.56,1.89
25.5420,0.09,0.12,-0.99,3.36,2.93,1.95
25.5570,0.09,0.11,-0.99,3.48,2.32,1.83
25.5720,0.09,0.11,-0.98,3.36,2.44,1.83
25.5870,0.09,0.11,-0.99,3.17,2.56,1.77
25.5940,0.09,0.12,-0.99,3.17,2.87,1.83
25.6200,0.09,0.11,-0.99,3.23,2.56,1.83
25.6350,0.09,0.11,-0.99,3.30,2.75,2.01
25.6510,0.09,0.11,-0.99,3.42,2.69,1.89
25.6610,0.09,0.11,-0.99,3.11,2.62,1.83
25.6780,0.09,0.12,-0.99,3.36,2.44,2.01
25.6940,0.09,0.11,-0.99,3.42,2.75,1.89
25.7100,0.09,0.11,-0.99,3.23,2.56,1.95
25.7280,0.09,0.11,-0.99,3.30,2.93,1.83
25.7440,0.09,0.11,-0.99,3.42,2.56,1.77
25.7620,0.09,0.11,-0.99,3.30,2.56,1.71
25.7780,0.09,0.12,-0.99,3.17,2.81,1.89
25.7940,0.09,0.12,-0.99,3.36,2.81,1.89
25.7950,0.09,0.11,-0.99,3.36,2.32,1.83
25.8260,0.09,0.11,-0.99,3.23,2.50,1.95
25.8410,0.09,0.11,-0.99,3.30,2.38,1.83
25.8580,0.09,0.11,-0.99,3.42,2.38,1.77
25.8600,0.09,0.12,-0.99,3.36,2.20,1.71
25.8760,0.09,0.12,-0.99,3.30,2.87,2.01
25.8980,0.09,0.11,-0.98,3.48,2.26,1.71
25.9160,0.09,0.11,-0.99,3.30,2.38,1.71
25.9350,0.09,0.11,-0.99,3.36,2.20,1.71
25.9480,0.09,0.11,-0.99,3.36,2.69,1.83
25.9660,0.09,0.12,-0.99,3.36,2.69,1.89
25.9820,0.09,0.11,-0.99,3.42,2.50,1.95
25.9970,0.09,0.11,-0.99,3.30,2.62,1.77
26.0130,0.09,0.11,-0.99,3.17,2.56,1.95
26.0160,0.09,0.11,-0.99,3.36,2.32,1.71
26.0460,0.09,0.11,-0.99,3.23,2.56,1.95
26.0480,0.09,0.12,-0.99,3.30,2.44,1.83
26.0650,0.09,0.11,-0.99,3.30,2.32,1.83
26.0810,0.09,0.11,-0.99,3.36,2.44,1.95
26.1040,0.09,0.11,-0.99,3.36,2.44,1.83
26.1190,0.09,0.11,-0.99,3.23,2.20,1.83
26.1370,0.09,0.11,-0.99,3.36,2.50,1.89
26.1550,0.09,0.11,-0.99,3.42,2.20,1.89
26.1690,0.09,0.11,-0.99,3.23,2.75,1.77
26.1860,0.09,0.11,-0.99,3.30,2.50,1.77
26.2020,0.09,0.11,-0.99,3.17,2.81,1.89
26.2180,0.09,0.11,-0.98,3.42,2.20,1.77
26.2340,0.09,0.11,-0.99,3.30,2.62,1.95
26.2500,0.09,0.11,-0.99,3.23,2.56,1.83
26.2660,0.09,0.11,-0.99,3.23,2.81,1.77
26.2820,0.09,0.12,-0.99,3.36,2.56,1.95
26.2980,0.08,0.12,-0.99,3.36,1.83,1.89
26.3030,0.10,0.11,-0.98,3.36,2.44,1.77
26.3210,0.09,0.11,-0.99,3.17,2.20,1.77
26.3360,0.09,0.12,-0.99,3.42,2.38,1.83
26.3560,0.09,0.12,-0.98,3.36,2.32,1.95
26.3740,0.09,0.11,-0.99,3.36,2.56,1.77
26.3900,0.09,0.11,-0.99,3.42,2.62,1.89
26.4060,0.09,0.11,-0.99,3.17,2.56,1.89
26.4220,0.09,0.12,-0.99,3.48,2.44,1.89
26.4390,0.09,0.12,-0.98,3.30,2.32,1.83
26.4550,0.09,0.11,-0.99,3.30,2.26,1.77
26.4710,0.09,0.11,-0.99,3.36,2.20,1.83
26.4860,0.09,0.12,-0.99,3.36,2.44,1.83
26.5020,0.09,0.12,-0.99,3.48,2.20,2.01
26.5170,0.09,0.11,-0.99,3.36,2.38,1.77
26.5330,0.09,0.11,-0.98,3.36,2.38,1.95
26.5400,0.09,0.12,-0.99,3.48,2.44,1.71
26.5550,0.09,0.12,-0.99,3.23,3.17,2.01
26.5770,0.09,0.11,-0.99,3.23,2.81,1.95
26.5940,0.09,0.11,-0.99,3.23,2.32,1.89
26.6100,0.09,0.11,-0.99,3.36,2.32,1.83
26.6270,0.09,0.12,-0.99,3.42,2.32,1.83
26.6430,0.09,0.11,-0.98,3.17,2.38,1.77
26.6580,0.08,0.12,-0.99,3.36,1.95,1.89
26.6610,0.08,0.12,-1.00,3.42,2.14,1.95
26.6870,0.10,0.11,-0.98,3.11,2.75,1.95
26.7030,0.09,0.11,-0.99,3.30,2.69,1.77
26.7180,0.09,0.12,-0.98,2.99,2.81,1.77
26.7330,0.09,0.12,-0.98,3.42,2.14,1.77
26.7440,0.09,0.11,-0.99,3.42,2.56,1.77
26.7620,0.09,0.11,-0.99,3.36,2.50,1.83
26.7780,0.09,0.11,-0.99,3.42,2.44,1.83
26.7940,0.09,0.12,-0.99,3.30,2.69,2.01
26.8090,0.09,0.12,-0.99,3.30,2.62,1.89
26.8250,0.09,0.11,-0.99,3.48,2.38,1.89
26.8400,0.09,0.11,-0.99,3.48,2.50,1.89
26.8430,0.09,0.12,-0.99,3.23,2.56,1.89
26.8590,0.09,0.11,-0.99,3.30,2.50,1.89
26.8810,0.09,0.11,-0.99,3.17,2.38,1.83
26.8970,0.09,0.11,-0.99,3.42,2.44,1.89
26.9150,0.09,0.11,-0.98,3.30,2.56,1.83
26.9320,0.09,0.12,-0.99,3.17,2.26,1.77
26.9500,0.09,0.11,-0.99,3.17,2.32,1.89
26.9650,0.09,0.11,-0.99,3.36,2.01,1.89
26.9810,0.09,0.11,-0.99,3.23,2.50,1.83
26.9980,0.09,0.11,-0.98,3.42,2.44,1.77
27.0140,0.09,0.11,-0.99,3.42,1.83,1.77
27.0290,0.09,0.11,-0.99,3.54,2.26,1.89
27.0460,0.09,0.11,-0.99,3.36,2.44,1.77
27.0480,0.09,0.11,-0.99,3.17,2.38,1.83
27.0640,0.09,0.12,-0.99,3.17,2.56,1.89
27.0870,0.09,0.11,-0.98,3.23,2.44,1.89
27.1040,0.09,0.11,-0.98,3.30,2.69,1.89
27.1200,0.09,0.11,-0.99,3.23,2.69,1.89
27.1380,0.09,0.11,-0.99,3.17,2.44,1.83
27.1530,0.09,0.12,-0.99,3.42,2.14,1.77
27.1700,0.09,0.11,-0.98,3.42,2.01,1.95
27.1870,0.09,0.12,-0.99,3.23,2.50,1.83
27.2040,0.08,0.11,-0.99,3.23,2.62,1.77
27.2050,0.09,0.11,-0.98,3.42,2.50,1.89
27.2200,0.09,0.11,-0.99,3.36,2.62,1.89
27.2500,0.09,0.12,-0.99,3.36,2.56,1.77
27.2650,0.09,0.11,-0.99,3.23,2.50,1.83
27.2800,0.09,0.11,-0.99,3.17,2.62,1.77
27.2950,0.09,0.12,-0.99,3.30,2.50,1.95
27.3040,0.09,0.12,-0.99,3.17,2.26,1.83
27.3190,0.09,0.11,-0.99,3.17,2.81,1.83
27.3410,0.09,0.11,-0.99,3.17,2.44,1.83
27.3580,0.09,0.12,-0.99,3.36,2.50,1.89
27.3740,0.09,0.12,-0.99,3.42,2.56,1.95
27.3900,0.09,0.12,-0.99,3.17,2.26,1.95
27.4060,0.09,0.11,-0.99,3.30,2.50,1.89
27.4210,0.09,0.11,-0.99,3.23,2.56,1.83
27.4250,0.09,0.12,-0.99,3.17,2.44,1.95
27.4410,0.09,0.11,-0.98,3.23,1.95,1.83
27.4640,0.09,0.11,-0.99,3.30,2.50,1.89
27.4820,0.09,0.11,-0.99,3.30,2.38,1.77
27.4970,0.09,0.11,-0.99,3.23,2.20,1.89
27.5140,0.09,0.11,-0.99,3.36,2.50,1.89
27.5150,0.09,0.11,-0.99,3.36,2.62,1.77
27.5460,0.09,0.11,-0.98,3.30,2.26,1.89
27.5480,0.09,0.12,-0.99,3.17,2.69,1.89
27.5780,0.09,0.11,-0.99,3.36,2.50,1.77
27.5820,0.09,0.11,-0.98,3.23,2.26,1.65
27.5970,0.09,0.11,-0.99,3.42,2.50,1.89
27.6130,0.09,0.11,-0.99,3.23,2.81,1.95
27.6380,0.09,0.11,-0.99,3.23,2.69,1.89
27.6530,0.09,0.11,-0.99,3.23,2.69,1.83
27.6680,0.09,0.11,-0.99,3.30,2.26,1.83
27.6850,0.09,0.11,-0.99,3.30,2.44,1.65
27.7010,0.09,0.11,-0.99,3.48,2.62,1.83
27.7180,0.09,0.11,-0.99,3.36,2.50,2.01
27.7350,0.09,0.11,-0.98,3.11,2.69,1.95
27.7510,0.09,0.12,-0.99,3.30,2.44,1.89
27.7670,0.09,0.11,-0.99,3.17,2.62,1.65
27.7840,0.09,0.11,-0.99,3.42,2.44,1.83
27.8010,0.09,0.11,-0.99,3.17,2.32,1.89
27.8160,0.09,0.12,-0.99,3.42,2.56,1.89
27.8310,0.09,0.11,-0.99,3.30,2.44,1.89
27.8380,0.09,0.11,-0.99,3.23,2.26,1.71
27.8510,0.09,0.11,-0.99,3.17,2.50,1.89
27.8750,0.09,0.12,-0.99,3.23,2.26,1.83
27.8900,0.09,0.11,-0.99,3.23,2.32,1.83
27.9080,0.09,0.11,-0.99,3.42,2.62,1.89
27.9240,0.09,0.11,-0.99,3.23,2.50,2.01
27.9380,0.09,0.11,-0.99,3.42,1.83,1.89
27.9540,0.09,0.11,-0.99,3.23,2.50,1.77
27.9700,0.09,0.11,-0.99,3.42,2.50,1.83
27.9860,0.09,0.11,-0.98,3.42,2.50,1.83
28.0020,0.09,0.11,-0.99,3.30,2.26,1.89
28.0170,0.09,0.11,-0.99,3.30,2.32,1.83
28.0330,0.09,0.11,-0.99,3.42,2.38,1.83
28.0490,0.09,0.12,-0.99,3.23,2.08,1.77
28.0640,0.09,0.11,-0.99,3.36,2.56,1.83
28.0740,0.09,0.11,-0.99,3.36,2.56,1.89
28.0910,0.09,0.11,-0.99,3.23,2.75,1.83
28.1090,0.09,0.12,-0.99,3.48,2.50,1.89
28.1240,0.09,0.12,-0.99,3.48,2.38,2.01
28.1410,0.09,0.11,-0.99,3.36,2.26,1.89
28.1560,0.09,0.11,-0.98,3.30,2.20,1.89
28.1730,0.09,0.11,-0.99,3.30,2.32,1.83
28.1890,0.09,0.12,-0.99,3.17,2.44,1.95
28.2050,0.09,0.12,-0.99,3.30,2.32,1.95
28.2210,0.09,0.11,-0.99,3.11,2.32,1.77
28.2360,0.09,0.11,-0.98,2.87,2.20,1.83
28.2530,0.09,0.11,-0.99,3.42,2.56,1.89
28.2690,0.09,0.11,-0.99,3.42,2.44,1.83
28.2830,0.09,0.11,-0.98,3.36,2.26,1.83
28.2990,0.09,0.11,-0.99,3.30,2.44,1.83
28.3140,0.09,0.11,-0.99,3.30,2.32,1.83
28.3250,0.09,0.12,-0.99,3.42,2.20,1.71
28.3420,0.09,0.11,-0.99,3.30,2.50,1.89
28.3590,0.09,0.11,-0.99,3.17,2.50,1.77
28.3740,0.10,0.12,-0.98,3.23,2.62,1.34
28.3920,0.12,0.12,-0.98,3.72,3.05,-0.79
28.4080,0.05,0.11,-0.99,4.33,3.05,-0.24
28.4240,0.08,0.11,-0.99,4.27,2.75,1.46
28.4410,0.09,0.13,-0.98,3.97,2.44,0.92
28.4430,0.09,0.13,-0.99,3.97,2.81,-1.28
28.4580,0.09,0.10,-0.99,3.66,2.81,-2.32
28.4880,0.10,0.10,-0.98,1.95,1.89,1.71
28.5040,0.09,0.11,-0.99,3.36,2.62,1.40
28.5200,0.09,0.11,-0.99,3.36,2.32,1.53
28.5340,0.09,0.12,-0.99,3.17,2.44,1.83
28.5510,0.09,0.11,-0.99,3.17,2.56,1.53
28.5660,0.09,0.11,-0.99,3.36,2.56,1.46
28.5820,0.09,0.11,-0.99,3.36,2.99,1.83
28.5910,0.09,0.11,-0.99,3.11,2.69,1.89
28.6070,0.09,0.11,-0.99,3.23,2.44,1.83
28.6260,0.09,0.11,-0.99,3.66,2.44,1.77
28.6420,0.09,0.11,-0.99,3.42,2.44,1.71
28.6570,0.09,0.11,-0.99,3.23,2.32,1.89
28.6710,0.08,0.12,-0.99,3.60,2.69,0.73
28.6860,0.09,0.11,-0.99,3.60,2.62,1.65
28.7030,0.09,0.11,-0.99,3.60,2.62,1.40
28.7180,0.08,0.10,-0.99,3.97,2.75,1.10
28.7330,0.09,0.14,-0.98,2.99,2.32,1.46
28.7440,0.09,0.11,-0.98,2.62,2.62,1.71
28.7600,0.09,0.12,-0.99,3.17,2.50,1.89
28.7770,0.09,0.12,-0.99,3.05,2.50,1.77
28.7940,0.09,0.11,-0.99,2.81,2.44,1.83
28.8100,0.09,0.11,-0.99,3.30,2.20,1.53
28.8280,0.09,0.11,-0.99,3.54,2.26,0.73
28.8440,0.08,0.12,-0.99,3.42,2.50,-0.31
28.8600,0.08,0.12,-0.98,3.66,2.87,-0.12
28.8760,0.09,0.09,-0.99,4.76,3.30,-1.34
28.8920,0.08,0.10,-0.99,4.15,3.05,-1.40
28.8940,0.07,0.11,-0.99,3.30,2.93,-1.46
28.9120,0.09,0.10,-0.98,3.11,2.87,-0.73
28.9390,0.08,0.11,-0.99,3.72,2.93,-0.49
28.9430,0.10,0.13,-0.98,3.78,2.87,0.79
28.9650,0.10,0.13,-0.99,3.72,3.30,0.18
28.9820,0.09,0.12,-0.98,3.91,3.23,-0.24
29.0000,0.09,0.13,-0.98,4.33,3.66,0.06
29.0150,0.10,0.13,-0.99,3.85,2.93,0.98
29.0320,0.09,0.12,-0.99,2.62,2.87,2.20
29.0480,0.09,0.12,-0.98,2.81,2.38,2.14
29.0640,0.09,0.11,-0.99,2.99,2.62,1.40
29.0790,0.09,0.11,-0.99,2.87,2.56,1.34
29.0960,0.09,0.12,-0.99,3.11,2.99,1.65
29.0980,0.09,0.14,-0.98,3.05,2.87,1.22
29.1270,0.10,0.12,-0.99,3.30,2.50,0.18
29.1390,0.08,0.10,-0.99,2.26,2.69,0.79
29.1470,0.09,0.11,-0.99,3.36,2.81,0.85
29.1720,0.09,0.13,-0.99,3.36,2.81,1.34
29.1880,0.09,0.14,-0.98,3.66,2.56,1.71
29.2050,0.10,0.11,-0.99,3.60,2.81,2.87
29.2200,0.09,0.08,-0.99,3.78,3.11,0.67
29.2360,0.09,0.12,-0.99,3.48,2.99,0.49
29.2520,0.09,0.13,-0.98,3.42,3.05,-0.92
29.2670,0.08,0.11,-0.99,3.48,2.93,-1.10
29.2710,0.08,0.10,-0.99,3.72,3.05,-0.37
29.2870,0.09,0.11,-0.99,3.72,2.87,0.37
29.3090,0.08,0.12,-0.98,3.17,3.17,0.73
29.3260,0.07,0.12,-0.99,3.42,3.05,-0.92
29.3420,0.08,0.12,-0.99,3.17,2.50,-1.16
29.3590,0.10,0.09,-0.98,3.48,2.87,-0.06
29.3750,0.12,0.11,-0.99,4.39,2.75,2.44
29.3920,0.09,0.04,-0.95,0.12,1.65,2.26
29.4070,0.09,0.13,-1.01,3.23,2.87,2.14
29.4240,0.09,0.11,-0.99,3.30,2.38,1.83
29.4400,0.09,0.11,-0.98,3.30,2.56,1.77
29.4540,0.09,0.11,-0.98,3.42,2.20,1.89
29.4700,0.09,0.11,-0.99,3.17,2.87,1.71
29.4870,0.09,0.11,-0.99,3.42,2.44,1.59
29.4930,0.09,0.12,-0.99,3.30,2.44,1.71
29.5080,0.09,0.11,-0.99,3.23,2.75,1.77
29.5310,0.09,0.11,-0.99,3.36,2.50,1.83
29.5470,0.09,0.11,-0.99,3.23,2.32,2.01
29.5630,0.09,0.11,-0.99,3.30,2.75,1.89
29.5660,0.09,0.12,-0.99,3.17,2.56,2.08
29.5820,0.09,0.12,-0.99,3.36,2.87,2.01
29.5970,0.09,0.11,-0.99,3.23,2.56,2.08
29.6220,0.09,0.11,-0.99,3.30,3.11,1.89
29.6390,0.09,0.11,-0.99,3.17,2.69,1.95
29.6550,0.09,0.11,-0.99,3.11,2.99,1.95
29.6700,0.09,0.11,-0.99,3.17,2.56,2.14
29.6870,0.09,0.11,-0.99,3.17,2.87,1.95
29.7030,0.09,0.11,-0.99,3.11,2.87,1.83
29.7190,0.09,0.11,-0.99,3.11,3.05,1.89
29.7340,0.09,0.11,-0.99,3.23,2.56,1.95
29.7490,0.09,0.11,-0.99,3.36,2.81,1.95
29.7650,0.09,0.12,-0.99,3.42,2.69,1.89
29.7710,0.09,0.11,-0.99,3.23,2.44,1.95
29.7960,0.09,0.11,-0.99,3.23,2.81,1.89
29.8050,0.09,0.11,-0.99,3.17,2.87,1.89
29.8210,0.09,0.11,-0.99,3.30,2.87,1.83
29.8400,0.09,0.11,-0.99,3.30,2.26,1.83
29.8550,0.09,0.11,-0.99,3.54,2.62,2.01
29.8720,0.09,0.11,-0.99,3.60,2.08,1.89
29.8880,0.09,0.11,-0.99,3.66,2.20,1.95
29.9040,0.09,0.11,-0.99,3.66,2.32,1.95
29.9200,0.08,0.08,-1.00,3.30,2.75,2.01
29.9360,0.09,0.09,-0.99,2.69,2.50,5.07
29.9520,0.10,0.17,-0.98,3.23,2.32,4.58
29.9560,0.09,0.12,-0.98,3.30,2.75,2.01
29.9830,0.09,0.12,-0.99,2.99,2.99,1.71
29.9950,0.09,0.11,-0.99,2.87,2.75,1.95
30.0110,0.09,0.11,-0.99,2.75,2.56,2.01
30.0280,0.09,0.11,-0.99,2.62,2.50,1.83
30.0450,0.09,0.11,-0.99,2.81,2.56,1.65
30.0610,0.09,0.11,-0.98,3.23,2.50,1.89
30.0780,0.09,0.11,-0.99,3.30,2.56,1.83
30.0940,0.09,0.11,-0.99,3.60,2.93,1.77
30.1100,0.09,0.12,-0.99,3.48,2.50,2.08
30.1260,0.09,0.11,-0.99,3.30,2.44,1.71
30.1420,0.09,0.11,-0.99,3.48,2.38,1.83
30.1440,0.09,0.11,-0.99,3.30,2.32,1.65
30.1600,0.09,0.11,-0.99,3.11,2.44,1.83
30.1890,0.09,0.12,-0.99,2.93,2.20,1.77
30.1980,0.06,0.15,-0.98,3.54,2.69,1.46
30.2160,0.10,0.10,-0.99,3.60,2.75,0.55
30.2320,0.10,0.11,-0.99,2.93,3.11,0.85
30.2490,0.09,0.12,-1.00,2.44,2.93,0.85
30.2650,0.09,0.11,-0.99,-0.31,2.87,1.34
30.2830,0.08,0.10,-0.99,0.12,2.81,1.65
30.2980,0.09,0.11,-0.99,-0.12,3.05,1.83
30.3160,0.09,0.10,-0.98,-0.31,3.30,1.65
30.3330,0.09,0.10,-0.98,3.54,2.50,1.83
30.3480,0.09,0.10,-0.98,6.04,2.26,2.08
30.3500,0.09,0.12,-0.98,8.91,1.59,2.08
30.3660,0.09,0.12,-1.00,8.91,1.95,1.34
30.3820,0.09,0.11,-0.99,3.85,2.50,1.65
30.3980,0.09,0.11,-0.99,3.36,3.23,1.71
30.4210,0.09,0.11,-0.99,3.48,2.81,1.46
30.4410,0.09,0.11,-0.99,3.30,2.50,1.34
30.4550,0.10,0.11,-0.98,2.62,2.93,1.59
30.4700,0.08,0.11,-0.98,2.99,2.69,1.40
30.4880,0.09,0.11,-0.99,3.54,2.62,1.46
30.5030,0.08,0.10,-0.99,3.05,2.56,1.28
30.5190,0.09,0.11,-1.01,2.50,2.26,1.83
30.5350,0.09,0.11,-0.98,-2.62,3.36,1.16
30.5510,0.09,0.11,-0.98,-0.67,3.60,-0.24
30.5670,0.08,0.09,-0.98,0.43,3.54,-1.83
30.5710,0.08,0.12,-0.99,2.01,3.42,-1.95
30.5870,0.09,0.12,-1.01,0.37,3.23,-0.43
30.6100,0.10,0.11,-0.99,-4.70,3.17,2.38
30.6270,0.10,0.11,-0.96,-3.11,2.75,2.44
30.6440,0.09,0.10,-0.98,3.17,2.44,1.77
30.6610,0.09,0.10,-0.99,3.36,2.69,1.77
30.6770,0.09,0.11,-1.00,2.38,2.81,1.10
30.6930,0.09,0.10,-1.00,-0.98,3.36,0.73
30.7090,0.08,0.10,-0.99,-4.39,3.66,2.62
30.7250,0.08,0.10,-0.98,-2.44,4.46,2.69
30.7400,0.08,0.10,-0.99,-1.46,3.66,1.46
30.7570,0.08,0.09,-0.98,-2.01,2.99,2.08
30.7720,0.08,0.08,-0.98,0.43,2.99,1.34
30.7880,0.08,0.09,-1.00,0.31,3.48,1.46
30.8030,0.09,0.09,-0.98,0.06,4.64,1.83
30.8190,0.09,0.08,-0.98,2.56,4.27,0.67
30.8270,0.08,0.09,-0.99,4.76,2.56,-0.24
30.8440,0.08,0.09,-0.99,5.68,2.38,0.00
30.8610,0.08,0.09,-1.00,6.04,1.28,0.61
30.8760,0.09,0.12,-1.02,4.76,2.32,1.59
30.8980,0.09,0.11,-0.99,-0.12,6.23,3.78
30.9150,0.09,0.10,-0.99,2.44,10.25,3.48
30.9330,0.08,0.04,-0.99,8.06,13.24,1.34
30.9490,0.08,0.10,-1.02,5.19,15.44,1.04
30.9640,0.08,0.12,-1.03,6.04,15.14,1.28
30.9800,0.06,0.13,-1.03,8.12,16.54,1.89
30.9830,0.05,0.13,-0.96,10.56,24.72,3.97
30.9980,0.05,0.06,-0.92,16.72,30.03,4.46
31.0210,0.05,0.02,-0.93,12.82,21.79,1.40
31.0420,0.06,0.08,-0.93,-2.87,2.75,-0.12
31.0550,0.06,0.13,-0.97,-7.93,-15.81,-0.06
31.0710,0.04,0.14,-1.03,-8.61,-19.96,0.73
31.0880,0.04,0.14,-1.04,-5.68,-9.64,2.62
31.1050,0.05,0.12,-1.03,-3.60,4.70,4.27
31.1190,0.06,0.07,-1.00,-2.87,10.62,5.62
31.1360,0.06,0.06,-0.97,-2.99,6.71,4.82
31.1520,0.06,0.07,-0.98,-2.26,4.76,2.75
31.1550,0.05,0.08,-1.01,-3.17,2.14,2.20
31.1840,0.04,0.10,-1.02,-4.94,2.75,2.75
31.1870,0.05,0.11,-1.03,-5.25,5.13,2.62
31.2030,0.04,0.13,-1.05,-6.59,9.46,3.66
31.2310,0.03,0.10,-0.99,-1.71,15.63,5.13
31.2420,0.04,0.05,-0.98,9.83,21.00,4.21
31.2580,0.03,0.04,-0.98,7.20,17.15,-0.18
31.2750,0.03,0.05,-0.97,-6.77,7.39,-2.14
31.2910,0.02,0.09,-0.99,-12.51,2.14,-2.08
31.3080,0.02,0.10,-1.04,-17.27,-5.62,-0.98
31.3240,0.02,0.10,-1.05,-18.62,-4.15,0.61
31.3410,-0.13,0.13,-1.05,-13.24,4.94,0.98
31.3570,-0.00,0.10,-1.01,3.11,14.83,3.23
31.3730,-0.01,0.06,-1.01,3.11,9.28,2.75
31.3890,-0.03,0.04,-1.05,-3.05,-3.36,-1.34
31.4050,-0.02,0.05,-1.04,-11.41,-4.52,-1.89
31.4080,-0.01,0.03,-1.00,-6.10,4.39,-0.67
31.4240,-0.01,-0.00,-1.03,5.80,6.71,-1.53
31.4480,0.00,-0.03,-1.01,8.79,4.88,-5.86
31.4650,0.00,-0.01,-1.00,6.23,3.17,-7.75
31.4820,-0.01,-0.02,-0.97,-0.06,7.45,-12.15
31.5000,0.01,0.01,-0.93,-3.78,7.87,-14.95
31.5150,0.03,0.07,-0.96,-2.44,1.34,-13.55
31.5310,0.02,0.08,-1.01,0.85,-5.00,-11.05
31.5480,0.03,0.05,-1.04,1.04,-3.42,-9.34
31.5650,0.04,0.04,-1.03,-0.18,0.92,-10.50
31.5800,0.06,0.04,-1.04,2.14,2.38,-12.27
31.5960,0.06,0.05,-1.04,3.97,1.65,-11.23
31.5980,0.08,0.07,-1.03,4.64,1.89,-9.58
31.6140,0.09,0.06,-1.01,5.43,5.80,-7.02
31.6390,0.09,0.03,-0.99,6.47,5.31,-5.68
31.6570,0.09,-0.00,-1.01,8.06,1.28,-7.45
31.6720,0.07,0.02,-0.98,3.30,0.31,-9.52
31.6890,0.06,0.02,-0.96,3.17,1.10,-11.54
31.7050,0.05,0.06,-1.00,4.03,-0.18,-12.45
31.7210,0.05,0.07,-0.97,6.65,-0.55,-13.49
31.7370,0.03,0.05,-0.98,9.89,2.44,-12.51
31.7510,0.01,0.02,-0.98,6.04,0.98,-11.54
31.7660,0.00,0.02,-0.99,1.59,-4.21,-12.63
31.7820,-0.01,0.02,-0.98,-5.07,-6.53,-12.70
31.7990,-0.01,0.02,-0.99,-8.97,-5.74,-9.95
31.8150,-0.01,0.00,-0.98,-9.28,-5.37,-6.59
31.8310,0.01,-0.04,-0.98,-2.14,-4.46,-6.71
31.8470,0.03,-0.04,-0.98,3.78,-2.87,-7.69
31.8630,0.03,-0.02,-1.01,4.82,-1.89,-8.91
31.8720,0.02,-0.00,-1.00,3.30,-3.17,-8.73
31.8880,0.01,-0.00,-0.97,2.62,3.17,-7.26
31.9050,0.02,0.00,-0.92,2.81,7.02,-6.41
31.9210,0.01,0.00,-0.95,6.84,2.87,-8.42
31.9420,0.04,-0.00,-0.99,0.18,-2.81,-10.31
31.9580,0.04,0.01,-1.00,-5.62,-4.39,-12.27
31.9750,0.04,0.02,-1.00,-0.55,-2.44,-14.65
31.9910,0.05,0.03,-1.03,2.93,-1.34,-15.38
32.0070,0.05,0.06,-1.03,5.25,3.48,-13.98
32.0230,0.05,0.03,-0.99,7.02,8.12,-12.57
32.0390,0.04,0.04,-0.96,11.29,8.48,-12.76
32.0540,0.05,0.02,-0.96,10.01,3.42,-11.47
32.0590,0.03,-0.01,-0.98,1.16,-6.35,-14.28
32.0740,0.04,0.04,-1.02,-4.39,-9.64,-18.13
32.0980,0.04,0.07,-1.05,-5.68,-6.90,-15.81
32.1140,0.04,0.07,-1.03,0.98,1.89,-11.17
32.1310,0.04,0.05,-1.01,6.16,6.10,-8.97
32.1480,0.05,0.02,-1.01,12.51,5.25,-7.26
32.1650,0.04,0.02,-1.04,13.24,-0.06,-9.89
32.1800,0.02,0.07,-1.01,12.33,0.18,-11.84
32.1820,0.02,0.08,-0.95,18.74,10.44,-9.77
32.2110,0.07,0.06,-0.91,30.52,23.74,-6.59
32.2280,0.09,0.05,-0.89,31.37,26.18,-2.44
32.2440,0.10,0.02,-0.86,27.04,18.74,-1.22
32.2460,0.11,0.01,-0.82,17.03,14.22,-1.89
32.2750,0.11,-0.02,-0.87,2.38,2.81,-4.27
32.2860,0.15,-0.01,-0.93,-7.39,-5.62,-7.08
32.3030,0.15,0.02,-0.96,-8.85,-5.43,-8.30
32.3190,0.14,0.04,-0.98,-0.37,1.04,-5.00
32.3360,0.15,-0.01,-0.96,6.59,6.47,-1.46
32.3520,0.14,-0.03,-1.02,8.42,4.88,-2.99
32.3680,0.13,-0.04,-1.03,6.29,2.01,-5.19
32.3850,0.10,-0.02,-1.04,1.89,1.04,-9.95
32.4000,0.11,0.04,-1.07,2.08,6.84,-9.03
32.4160,0.09,0.06,-1.04,-1.83,8.54,-5.19
32.4320,0.08,0.05,-1.03,1.89,8.18,-4.64
32.4470,0.08,0.07,-1.03,6.29,8.30,-6.35
32.4620,0.08,0.07,-1.03,6.53,9.16,-6.59
32.4800,0.08,0.08,-1.03,6.04,9.34,-6.71
32.4950,0.08,0.10,-1.01,8.00,11.35,-6.59
32.5100,0.07,0.12,-1.01,11.05,14.10,-5.55
32.5190,0.08,0.12,-0.99,16.60,15.44,-1.77
32.5360,0.07,0.08,-1.02,20.14,12.02,0.49
32.5530,0.05,0.07,-1.00,9.16,7.93,1.04
32.5690,0.04,0.05,-1.00,5.00,8.06,1.65
32.5870,0.04,0.04,-0.97,0.85,8.61,2.32
32.6020,0.03,0.04,-0.96,1.65,4.03,2.32
32.6190,0.03,0.03,-0.93,2.50,-2.62,0.98
32.6360,0.04,0.04,-0.96,5.13,-5.74,-1.34
32.6520,0.03,0.05,-1.01,4.33,-8.54,-3.23
32.6690,0.04,0.06,-1.02,0.31,-6.41,-4.15
32.6850,0.05,0.08,-1.05,2.20,-0.73,-4.21
32.6870,0.05,0.06,-1.03,3.05,1.04,-3.30
32.7180,0.05,0.06,-1.02,7.20,1.04,-2.87
32.7330,0.04,0.06,-1.04,10.13,-0.85,-3.48
32.7490,0.05,0.06,-1.03,8.91,0.43,-3.11
32.7640,0.06,0.09,-1.03,8.79,1.22,-2.93
32.7790,0.06,0.08,-1.00,8.00,2.32,-1.95
32.7950,0.06,0.07,-1.00,7.69,3.42,0.12
32.8100,0.07,0.06,-0.99,6.16,3.78,0.85
32.8250,0.07,0.06,-1.00,7.87,3.66,0.73
32.8350,0.07,0.06,-0.99,7.87,3.66,0.79
32.8520,0.08,0.06,-0.97,5.62,2.44,0.85
32.8680,0.08,0.06,-0.96,2.08,0.67,0.85
32.8870,0.08,0.09,-0.97,2.93,-1.59,1.53
32.9030,0.08,0.08,-0.98,6.10,-1.59,2.26
32.9190,0.07,0.08,-0.98,7.81,0.06,2.69
32.9350,0.06,0.08,-0.99,7.51,0.43,2.14
32.9500,0.06,0.09,-0.99,5.68,0.92,2.56
32.9660,0.05,0.10,-0.96,5.74,1.65,3.60
32.9750,0.06,0.07,-0.99,10.19,1.22,1.89
32.9970,0.05,0.07,-1.02,5.43,0.18,0.06
33.0080,0.05,0.09,-1.02,3.72,1.34,-0.79
33.0240,0.06,0.09,-1.03,5.13,1.40,-0.49
33.0450,0.06,0.11,-1.05,4.15,0.12,0.43
33.0600,0.06,0.11,-1.04,3.85,0.92,1.77
33.0750,0.05,0.11,-1.02,4.94,4.33,1.71
33.0920,0.05,0.09,-0.97,7.69,5.80,1.40
33.1070,0.05,0.06,-0.96,10.31,6.84,-0.49
33.1240,0.05,0.06,-0.98,9.40,3.54,-2.01
33.1250,0.06,0.08,-0.99,2.99,0.92,-1.83
33.1550,0.06,0.12,-0.98,1.53,-0.61,0.12
33.1710,0.06,0.12,-0.98,7.51,-0.24,2.56
33.1860,0.06,0.07,-1.01,12.21,2.14,3.97
33.2030,0.05,0.07,-1.02,10.19,2.93,3.54
33.2190,0.03,0.08,-0.98,2.99,4.15,2.81
33.2350,0.03,0.09,-0.97,3.97,3.48,0.79
33.2510,0.03,0.09,-0.98,8.61,7.57,-0.18
33.2670,0.05,0.10,-1.02,8.67,11.54,0.61
33.2830,0.06,0.13,-1.04,0.61,9.58,2.01
33.2990,0.05,0.12,-1.01,-1.04,5.80,2.32
33.3140,0.04,0.11,-1.02,6.35,5.00,1.40
33.3240,0.05,0.10,-1.02,7.39,4.64,1.46
33.3450,0.05,0.09,-1.00,5.00,4.33,2.20
33.3600,0.05,0.09,-0.97,2.14,3.91,2.75
33.3750,0.05,0.10,-0.97,3.23,2.99,1.77
33.3910,0.04,0.09,-0.96,8.12,3.60,1.04
33.4000,0.04,0.08,-0.97,11.54,4.27,-0.31
33.4170,0.04,0.08,-0.98,9.70,6.23,-0.49
33.4340,0.04,0.11,-1.00,7.08,6.84,0.00
33.4530,0.09,0.13,-0.93,7.14,-1.34,0.06
33.4670,0.03,0.12,-1.01,8.85,-0.61,1.59
33.4850,0.03,0.09,-1.00,9.64,1.46,1.28
33.5000,0.04,0.11,-0.98,6.10,-0.18,0.85
33.5170,0.05,0.12,-0.98,7.14,-2.44,1.04
33.5320,0.06,0.13,-0.99,7.02,-3.30,2.26
33.5490,0.05,0.10,-0.99,7.20,-2.69,2.62
33.5650,0.05,0.10,-0.98,10.25,-1.77,0.98
33.5810,0.06,0.12,-0.99,10.74,-1.95,0.49
33.5970,0.05,0.12,-0.99,4.27,-1.65,1.10
33.6130,0.05,0.13,-0.99,2.81,-2.50,2.62
33.6280,0.05,0.13,-0.98,2.26,-3.36,3.11
33.6340,0.06,0.12,-0.99,2.20,-3.54,3.54
33.6600,0.05,0.11,-1.00,2.99,-2.56,2.69
33.6750,0.06,0.11,-0.99,3.60,-0.98,1.95
33.6900,0.06,0.12,-0.99,3.72,-0.24,1.22
33.7010,0.06,0.12,-0.99,3.30,-0.67,1.59
33.7170,0.06,0.12,-0.99,2.56,0.37,1.83
33.7350,0.06,0.12,-0.99,2.62,1.34,1.59
33.7510,0.06,0.12,-0.99,2.26,0.92,1.77
33.7670,0.07,0.11,-0.99,2.75,0.67,1.59
33.7670,0.06,0.12,-0.99,2.99,1.16,1.22
33.7980,0.06,0.12,-0.99,2.87,0.06,1.22
33.8150,0.06,0.12,-0.99,2.62,-0.61,1.83
33.8180,0.07,0.11,-0.99,2.75,-0.85,1.95
33.8460,0.07,0.11,-0.99,3.60,0.12,1.10
33.8630,0.07,0.12,-0.98,3.36,-0.24,0.55
33.8790,0.06,0.12,-0.98,2.99,-2.20,-0.18
33.8840,0.07,0.13,-1.00,2.62,-5.92,-1.40
33.9110,0.09,0.12,-1.00,2.93,-4.15,0.24
33.9270,0.08,0.12,-0.99,3.11,-1.53,0.79
33.9430,0.08,0.11,-0.99,3.17,-1.59,1.04
33.9500,0.09,0.11,-1.00,3.54,-0.31,0.79
33.9660,0.08,0.12,-0.99,3.30,2.08,0.85
33.9890,0.08,0.12,-0.99,3.05,1.71,1.59
34.0050,0.08,0.11,-0.99,3.36,2.08,1.65
34.0200,0.08,0.12,-0.99,3.42,2.14,1.59
34.0360,0.08,0.12,-0.99,3.48,2.20,1.46
34.0520,0.08,0.12,-0.99,3.11,2.56,1.40
34.0680,0.08,0.12,-0.99,2.56,2.56,1.53
34.0720,0.08,0.11,-0.96,2.32,2.44,1.53
34.0880,0.08,0.11,-0.99,3.23,1.71,1.59
34.1100,0.08,0.12,-0.99,3.30,1.83,1.46
34.1260,0.08,0.12,-0.99,3.30,1.89,1.65
34.1440,0.08,0.12,-0.99,3.30,2.20,1.77
34.1600,0.08,0.11,-0.99,3.23,2.14,1.71
34.1760,0.08,0.12,-0.99,3.42,2.14,1.59
34.1920,0.08,0.11,-0.99,3.05,2.26,1.71
34.2080,0.08,0.11,-0.99,3.42,2.01,1.65
34.2100,0.08,0.12,-0.99,3.30,2.38,1.77
34.2250,0.08,0.11,-0.99,3.17,2.20,1.71
34.2480,0.08,0.12,-0.99,3.30,2.26,1.89
34.2640,0.08,0.12,-0.99,3.42,1.95,1.71
34.2810,0.08,0.12,-0.99,3.36,2.26,1.77
34.2990,0.08,0.12,-0.99,3.36,2.56,1.89
34.3130,0.08,0.11,-0.99,3.11,2.26,1.89
34.3310,0.08,0.11,-0.99,3.23,2.32,1.89
34.3450,0.08,0.12,-0.99,3.30,2.56,1.83
34.3480,0.08,0.12,-0.99,3.30,2.38,2.08
34.3640,0.08,0.11,-0.99,3.17,2.62,1.83
34.3810,0.08,0.11,-0.99,3.30,2.44,1.89
34.3960,0.08,0.12,-0.99,3.17,2.08,1.89
34.4190,0.08,0.12,-0.99,3.36,2.56,2.01
34.4350,0.08,0.12,-0.99,3.30,2.87,2.01
34.4520,0.08,0.11,-0.99,3.17,2.75,1.95
34.4700,0.08,0.11,-0.99,3.30,2.32,1.77
34.4850,0.08,0.12,-0.99,3.36,2.32,1.89
34.5020,0.08,0.12,-0.99,3.11,2.56,1.89
34.5190,0.08,0.11,-0.99,3.17,2.69,1.65
34.5340,0.08,0.12,-0.99,3.17,2.50,1.89
34.5480,0.08,0.11,-0.99,3.23,2.44,1.83
34.5670,0.08,0.12,-0.99,3.36,2.50,1.71
34.5830,0.08,0.11,-0.99,3.42,2.56,1.83
34.5990,0.08,0.11,-0.99,3.30,2.32,1.77
34.6140,0.08,0.12,-0.99,3.48,2.32,1.71
34.6310,0.08,0.11,-0.99,3.11,2.56,1.71
34.6460,0.08,0.11,-0.99,3.48,2.50,1.89
34.6530,0.08,0.12,-0.99,3.23,2.69,1.95
34.6680,0.08,0.11,-0.99,3.42,2.14,1.83
34.6910,0.08,0.11,-0.99,3.17,2.87,1.65
34.7090,0.08,0.12,-0.99,3.23,2.81,1.83
34.7250,0.08,0.11,-0.99,3.30,2.50,1.83
34.7410,0.08,0.12,-0.99,3.30,2.44,1.71
34.7560,0.08,0.12,-0.99,3.36,2.69,1.65
34.7580,0.08,0.12,-0.99,3.30,2.26,1.83
34.7740,0.08,0.12,-0.99,3.23,2.32,1.89
34.7960,0.08,0.12,-0.99,3.36,2.62,1.83
34.8140,0.08,0.11,-0.99,3.36,2.56,1.89
34.8300,0.08,0.11,-0.99,3.23,2.69,1.95
34.8480,0.08,0.12,-0.99,3.30,2.38,1.83
34.8630,0.08,0.12,-0.99,3.05,2.50,1.71
34.8800,0.08,0.11,-0.99,3.17,2.56,1.95
34.8960,0.08,0.12,-0.99,3.05,2.69,1.89
34.9110,0.08,0.11,-0.99,3.48,2.20,1.83
34.9140,0.08,0.12,-0.99,3.17,2.50,1.83
34.9440,0.08,0.11,-0.99,3.23,2.38,1.89
34.9480,0.08,0.11,-0.99,3.36,3.05,1.95
34.9630,0.08,0.11,-0.99,3.42,1.95,1.77
34.9790,0.08,0.12,-0.99,3.36,2.14,1.77
35.0010,0.08,0.11,-0.99,3.36,2.62,1.95
35.0180,0.08,0.11,-0.99,3.30,2.69,1.89
35.0340,0.08,0.11,-0.99,3.23,2.08,1.71
35.0520,0.08,0.11,-0.99,3.17,2.69,1.77
35.0680,0.08,0.11,-0.99,3.42,2.20,2.01
35.0850,0.08,0.12,-0.99,3.30,2.62,1.89
35.1010,0.08,0.11,-0.99,3.36,2.56,1.83
35.1160,0.08,0.11,-0.99,3.36,2.50,1.89
35.1310,0.08,0.12,-0.99,3.05,2.87,1.77
35.1350,0.08,0.11,-0.99,3.30,2.01,1.83
35.1630,0.08,0.11,-0.99,3.42,2.38,1.83
35.1780,0.08,0.12,-0.99,3.48,2.32,1.77
35.1850,0.08,0.11,-0.99,3.23,2.75,1.77
35.2010,0.08,0.11,-0.99,3.23,2.56,1.71
35.2250,0.08,0.11,-0.99,3.36,2.69,1.77
35.2400,0.08,0.11,-0.99,3.36,2.44,1.95
35.2560,0.08,0.11,-0.99,3.11,2.62,1.95
35.2590,0.08,0.11,-0.99,3.23,2.44,1.83
35.2860,0.08,0.12,-0.99,3.23,2.44,1.77
35.2940,0.08,0.11,-0.99,3.36,2.81,1.95
35.3110,0.08,0.11,-0.99,3.23,2.62,1.77
35.3270,0.08,0.12,-0.99,3.30,2.56,1.89
35.3440,0.08,0.11,-0.99,3.48,2.32,2.08
35.3600,0.08,0.12,-0.99,3.11,2.56,1.83
35.3780,0.08,0.11,-0.99,3.23,2.69,1.83
35.3940,0.08,0.12,-0.99,3.36,2.50,1.77
35.4110,0.08,0.12,-0.99,3.42,2.56,1.89
35.4260,0.08,0.11,-0.99,3.36,2.81,2.08
35.4420,0.08,0.12,-0.99,3.36,2.38,1.89
35.4580,0.08,0.11,-0.99,3.17,2.50,1.83
35.4600,0.08,0.11,-0.99,3.17,2.69,1.83
35.4760,0.08,0.12,-0.99,3.36,2.38,1.89
35.4990,0.08,0.11,-0.99,3.42,2.32,1.95
35.5180,0.08,0.12,-0.99,3.48,2.26,1.83
35.5340,0.08,0.12,-0.99,3.17,2.44,1.89
35.5500,0.08,0.12,-0.99,3.48,2.56,1.89
35.5520,0.08,0.11,-0.99,3.36,2.38,1.95
35.5670,0.08,0.12,-0.99,3.05,2.93,1.77
35.5840,0.08,0.11,-0.99,3.42,2.38,1.77
35.6140,0.08,0.12,-0.99,3.48,2.44,2.01
35.6310,0.08,0.11,-0.99,3.48,2.32,1.95
35.6460,0.08,0.11,-0.99,3.30,2.38,1.89
35.6500,0.08,0.12,-0.99,3.48,2.20,1.95
35.6670,0.08,0.12,-0.99,3.23,2.50,1.89
35.6830,0.08,0.11,-0.99,3.30,2.14,1.95
35.7090,0.08,0.11,-0.99,3.36,2.20,1.83
35.7210,0.08,0.11,-0.99,3.23,2.44,1.77
35.7380,0.08,0.11,-0.99,3.36,2.32,1.83
35.7540,0.08,0.11,-0.99,3.30,2.44,1.77
35.7710,0.08,0.11,-0.99,3.11,2.44,1.95
35.7870,0.08,0.11,-0.99,3.23,2.32,2.01
35.7890,0.08,0.12,-0.99,3.48,2.14,1.83
35.8190,0.08,0.11,-0.99,3.36,2.56,1.89
35.8350,0.08,0.11,-0.99,3.42,2.38,1.95
35.8500,0.08,0.11,-0.99,3.30,2.32,1.95
35.8650,0.08,0.12,-0.99,3.23,2.38,2.08
35.8810,0.08,0.11,-0.99,3.42,2.38,1.89
35.8960,0.08,0.11,-0.99,3.17,2.32,1.95
35.9050,0.08,0.12,-0.99,3.11,2.32,2.01
35.9220,0.08,0.12,-0.99,3.30,2.81,1.77
35.9370,0.08,0.12,-0.99,3.42,2.38,1.89
35.9570,0.08,0.11,-0.99,3.36,2.50,1.89
35.9740,0.08,0.11,-0.99,3.23,2.69,1.95
35.9900,0.08,0.12,-0.99,3.23,2.26,1.95
36.0050,0.08,0.11,-0.99,3.42,2.32,1.89
36.0200,0.08,0.11,-0.99,3.42,2.38,1.89
36.0350,0.08,0.11,-0.99,3.23,2.56,2.01
36.0510,0.08,0.11,-0.99,3.17,2.50,1.71
36.0670,0.08,0.11,-0.99,3.17,2.62,1.95
36.0820,0.08,0.12,-0.99,3.30,2.44,1.89
36.0920,0.08,0.11,-0.98,3.42,2.50,1.95
36.1070,0.08,0.11,-0.99,3.42,2.56,1.89
36.1290,0.08,0.11,-0.99,3.30,2.56,2.01
36.1450,0.08,0.12,-0.99,3.48,2.50,1.83
36.1490,0.08,0.11,-0.99,3.30,2.44,1.95
36.1760,0.08,0.11,-0.99,3.36,2.75,1.95
36.1920,0.08,0.11,-0.99,3.17,2.62,1.83
36.2080,0.09,0.11,-0.99,3.36,2.50,1.89
36.2180,0.08,0.12,-0.99,3.17,2.62,1.83
36.2350,0.08,0.12,-0.98,3.30,2.38,1.89
36.2520,0.08,0.11,-0.99,3.17,2.32,1.77
36.2700,0.08,0.11,-0.99,3.17,2.75,2.01
36.2850,0.08,0.11,-0.99,3.42,2.38,1.95
36.3020,0.08,0.12,-0.99,3.42,2.26,1.77
36.3180,0.08,0.11,-0.99,3.42,2.69,1.83
36.3350,0.08,0.11,-0.99,3.54,2.20,1.77
36.3530,0.08,0.12,-0.99,3.23,2.44,1.89
36.3680,0.08,0.12,-0.99,3.23,2.75,1.83
36.3830,0.08,0.11,-0.99,3.05,2.75,2.01
36.3980,0.08,0.11,-0.99,3.30,2.56,2.01
36.4140,0.08,0.11,-0.99,3.23,2.69,1.83
36.4300,0.08,0.11,-0.99,3.23,2.50,1.77
36.4360,0.08,0.11,-0.99,3.17,2.38,1.77
36.4630,0.08,0.11,-0.99,3.30,2.62,1.77
36.4780,0.08,0.11,-0.99,3.36,2.75,1.83
36.4940,0.08,0.12,-0.99,3.36,2.62,1.89
36.5090,0.08,0.12,-0.99,3.36,2.32,1.83
36.5240,0.08,0.11,-0.99,3.30,2.38,1.77
36.5360,0.08,0.11,-0.99,3.42,2.14,1.83
36.5520,0.08,0.12,-0.99,3.17,2.56,1.83
36.5710,0.08,0.11,-0.99,3.48,2.20,1.83
36.5730,0.08,0.11,-0.99,3.42,2.32,1.89
36.6020,0.08,0.12,-0.99,3.30,2.50,1.95
36.6170,0.08,0.11,-0.99,3.48,2.38,1.77
36.6340,0.08,0.12,-0.99,3.48,1.83,1.65
36.6400,0.08,0.11,-0.99,3.23,2.62,1.77
36.6650,0.08,0.11,-0.99,3.36,2.44,1.83
36.6750,0.08,0.12,-0.99,3.48,2.62,1.95
36.6900,0.08,0.12,-0.99,3.36,2.20,1.77
36.7100,0.08,0.12,-0.99,3.42,2.38,1.95
36.7250,0.08,0.11,-0.99,3.23,2.32,1.95
36.7400,0.08,0.11,-0.99,3.42,2.69,1.89
36.7510,0.08,0.12,-0.99,3.23,2.50,1.89
36.7660,0.08,0.11,-0.99,3.23,2.62,1.83
36.7850,0.08,0.11,-0.99,3.42,2.44,2.01
36.8010,0.08,0.11,-0.99,3.42,2.32,1.89
36.8160,0.08,0.12,-0.99,3.48,2.32,1.71
36.8320,0.08,0.11,-0.99,3.42,1.83,1.89
36.8480,0.08,0.11,-0.99,3.36,2.44,1.89
36.8630,0.08,0.11,-0.99,3.36,2.44,1.89
36.8770,0.08,0.11,-0.99,3.36,2.44,1.89
36.8930,0.08,0.12,-0.99,3.36,2.44,1.83
36.9030,0.08,0.11,-0.99,3.42,2.32,1.89
36.9200,0.08,0.11,-0.99,3.17,2.26,2.01
36.9370,0.08,0.11,-0.99,3.30,2.08,1.95
36.9530,0.08,0.12,-0.99,3.30,2.26,1.89
36.9690,0.08,0.11,-0.99,3.23,2.20,1.77
36.9850,0.08,0.11,-0.99,3.36,2.32,1.89
37.0010,0.08,0.11,-0.99,3.17,2.50,1.89
37.0160,0.08,0.11,-0.99,3.42,2.32,1.77
37.0190,0.08,0.12,-0.98,3.30,2.38,2.01
37.0350,0.08,0.12,-0.99,3.36,2.69,1.95
37.0630,0.08,0.11,-0.99,3.36,2.50,2.08
37.0740,0.08,0.11,-0.99,3.36,2.14,1.89
37.0900,0.08,0.12,-0.99,3.48,2.26,1.83
37.1080,0.08,0.11,-0.99,3.17,2.50,1.95
37.1240,0.08,0.11,-0.99,3.23,2.50,1.71
37.1400,0.08,0.11,-0.99,3.23,2.50,1.89
37.1570,0.08,0.11,-0.99,3.48,2.38,2.01
37.1720,0.08,0.11,-0.99,3.48,2.20,1.89
37.1870,0.08,0.11,-0.99,3.30,2.50,1.89
37.2020,0.08,0.11,-0.99,3.42,2.75,1.89
37.2170,0.08,0.11,-0.98,3.48,2.44,1.89
37.2330,0.08,0.12,-0.99,3.30,2.62,1.89
37.2480,0.08,0.12,-0.99,3.23,2.87,1.95
37.2570,0.08,0.11,-0.99,3.42,2.62,1.89
37.2730,0.08,0.11,-0.99,3.60,2.32,2.01
37.2940,0.08,0.11,-0.99,3.42,2.50,2.01
37.3100,0.08,0.12,-0.99,3.48,2.26,1.89
37.3260,0.08,0.12,-0.99,3.11,2.50,1.95
37.3420,0.08,0.11,-0.99,3.36,2.50,2.01
37.3510,0.08,0.11,-0.99,3.42,2.14,1.83
37.3620,0.08,0.12,-0.99,3.36,2.32,1.89
37.3870,0.08,0.12,-0.99,3.42,2.50,2.01
37.4020,0.08,0.11,-0.99,3.36,2.50,1.83
37.4180,0.08,0.11,-0.99,3.48,2.44,2.01
37.4340,0.08,0.11,-0.99,3.23,2.87,1.83
37.4500,0.08,0.12,-0.99,3.17,2.69,1.77
37.4650,0.08,0.11,-0.99,3.54,2.20,1.83
37.4710,0.08,0.11,-0.99,3.42,2.56,1.89
37.4860,0.08,0.12,-0.99,3.23,2.56,1.95
37.5070,0.08,0.12,-0.99,3.36,2.56,2.01
37.5230,0.08,0.11,-0.99,3.11,2.81,1.89
37.5410,0.08,0.11,-0.99,3.23,2.44,1.83
37.5570,0.08,0.11,-0.99,3.42,2.56,1.89
37.5730,0.08,0.12,-0.99,3.36,2.20,1.83
37.5880,0.08,0.11,-0.99,3.17,2.32,1.89
37.6040,0.08,0.11,-0.99,3.30,2.32,1.77
37.6080,0.08,0.11,-0.99,3.42,2.56,1.95
37.6230,0.08,0.12,-0.99,3.42,2.56,1.89
37.6470,0.08,0.11,-0.99,3.36,2.38,1.83
37.6630,0.08,0.11,-0.99,3.48,2.75,1.89
37.6810,0.08,0.11,-0.99,3.23,2.01,1.89
37.6970,0.08,0.11,-0.99,3.48,2.26,1.95
37.7140,0.08,0.11,-0.99,3.54,2.01,1.83
37.7300,0.08,0.11,-0.99,3.30,2.01,1.83
37.7460,0.08,0.11,-0.99,3.54,2.14,1.89
37.7520,0.08,0.11,-0.99,3.48,2.14,1.89
37.7640,0.08,0.11,-0.99,3.23,2.93,1.95
37.7880,0.08,0.11,-0.99,3.42,2.26,1.83
37.8050,0.08,0.12,-0.98,3.36,2.26,1.77
37.8210,0.07,0.12,-0.97,3.48,2.32,1.83
37.8390,0.11,0.10,-1.00,3.05,2.08,1.95
37.8550,0.08,0.12,-0.99,3.60,2.26,1.89
37.8560,0.07,0.12,-0.99,3.48,2.32,1.83
37.8860,0.08,0.11,-0.99,3.36,2.69,2.01
37.9030,0.08,0.12,-0.98,3.30,2.32,1.77
37.9190,0.09,0.11,-0.99,3.11,2.62,1.95
37.9350,0.08,0.12,-0.99,3.36,2.26,1.89
37.9510,0.09,0.11,-0.99,3.36,2.75,1.95
37.9670,0.08,0.13,-1.00,2.93,2.38,1.89
37.9710,0.08,0.12,-0.99,2.62,2.01,1.65
37.9860,0.08,0.12,-1.00,2.93,2.38,1.77
38.0100,0.08,0.11,-0.98,3.23,2.14,1.77
38.0270,0.08,0.11,-0.99,3.30,2.50,1.95
38.0430,0.08,0.11,-0.99,3.60,2.44,1.77
38.0600,0.08,0.11,-0.99,4.46,2.62,2.01
38.0750,0.08,0.11,-0.99,3.23,1.53,1.71
38.0910,0.08,0.11,-0.99,3.42,2.26,2.01
38.1070,0.08,0.12,-0.99,3.66,2.20,1.83
38.1100,0.08,0.12,-0.99,3.42,2.26,1.89
38.1260,0.08,0.11,-0.99,3.42,2.32,1.83
38.1530,0.08,0.12,-0.99,3.54,2.44,1.89
38.1650,0.08,0.11,-0.99,3.42,2.20,1.89
38.1810,0.08,0.12,-0.99,3.36,2.62,1.89
38.1980,0.08,0.12,-0.99,3.23,2.44,1.83
38.2150,0.08,0.11,-0.99,3.23,2.50,1.83
38.2320,0.08,0.11,-0.99,3.23,2.56,1.83
38.2480,0.08,0.12,-0.99,3.42,2.38,1.83
38.2640,0.09,0.11,-0.99,3.30,2.56,1.83
38.2800,0.08,0.12,-0.99,3.30,2.44,1.83
38.2970,0.08,0.11,-0.99,3.42,2.32,1.77
38.3120,0.08,0.11,-0.99,3.36,2.26,1.89
38.3150,0.08,0.12,-0.99,3.30,2.38,1.89
38.3300,0.08,0.11,-0.99,3.30,2.32,1.83
38.3540,0.08,0.11,-0.99,3.36,2.26,1.89
38.3700,0.08,0.12,-0.99,3.30,2.44,1.95
38.3870,0.08,0.11,-0.99,3.17,2.44,2.01
38.4050,0.08,0.11,-0.99,3.17,2.32,1.77
38.4210,0.08,0.12,-0.99,3.23,2.56,1.77
38.4360,0.08,0.11,-0.99,3.42,2.14,1.65
38.4530,0.08,0.11,-0.99,3.48,2.56,1.77
38.4690,0.08,0.12,-0.99,3.23,2.38,1.83
38.4860,0.08,0.12,-0.99,3.42,2.32,1.77
38.4870,0.08,0.11,-0.99,3.30,2.08,1.89
38.5050,0.08,0.11,-0.99,3.23,2.26,1.83
38.5210,0.08,0.11,-0.99,3.48,2.56,1.83
38.5500,0.08,0.11,-0.99,3.30,2.75,1.77
38.5540,0.08,0.11,-0.99,3.36,2.44,1.83
38.5700,0.08,0.12,-0.99,3.54,2.50,1.89
38.5920,0.07,0.12,-0.98,3.36,2.32,1.83
38.6100,0.08,0.12,-0.99,3.23,2.26,1.83
38.6240,0.09,0.11,-0.99,2.93,2.26,1.71
38.6410,0.08,0.12,-0.99,3.11,2.75,1.83
38.6570,0.09,0.11,-0.99,3.36,2.38,1.71
38.6740,0.07,0.12,-0.99,4.03,3.17,1.83
38.6890,0.08,0.12,-0.98,3.42,2.20,1.77
38.7050,0.08,0.12,-0.98,3.42,2.20,1.77
38.7200,0.09,0.12,-0.99,3.48,2.14,1.83
38.7250,0.08,0.11,-0.99,3.36,2.38,1.83
38.7400,0.08,0.11,-0.99,3.17,2.44,1.89
38.7640,0.08,0.11,-0.99,3.30,2.20,1.77
38.7810,0.08,0.12,-0.99,3.17,2.14,1.77
38.7970,0.08,0.11,-0.99,3.17,2.01,1.83
38.7980,0.08,0.11,-0.99,3.48,2.08,2.01
38.8130,0.08,0.11,-0.99,3.66,2.26,1.83
38.8380,0.08,0.11,-0.99,3.54,2.32,1.89
38.8540,0.08,0.11,-0.99,3.23,2.44,1.83
38.8690,0.08,0.12,-0.99,3.60,2.26,1.89
38.8870,0.08,0.11,-0.99,3.54,2.44,1.89
38.9020,0.08,0.11,-0.99,3.60,2.26,1.89
38.9190,0.08,0.12,-0.99,3.48,2.26,1.95
38.9350,0.08,0.12,-0.98,3.36,2.38,1.95
38.9520,0.08,0.11,-0.99,3.36,2.14,2.32
38.9670,0.08,0.11,-0.99,3.54,2.44,2.01
38.9840,0.08,0.12,-0.99,3.36,2.50,2.08
38.9990,0.11,0.13,-0.98,2.99,1.89,2.75
39.0150,0.07,0.11,-0.99,2.87,1.83,2.93
39.0190,0.08,0.11,-0.99,3.48,2.75,2.62
39.0350,0.08,0.12,-0.99,3.54,2.56,2.62
39.0570,0.08,0.12,-0.98,2.93,2.08,2.56
39.0740,0.08,0.11,-0.99,2.81,2.56,2.01
39.0900,0.09,0.12,-0.99,2.93,2.44,1.77
39.1060,0.09,0.12,-0.99,2.99,2.26,1.46
39.1220,0.08,0.11,-0.99,3.05,2.26,1.46
39.1390,0.08,0.11,-0.99,3.60,2.56,1.65
39.1560,0.08,0.11,-0.99,3.23,2.56,1.40
39.1720,0.08,0.11,-0.99,3.30,2.44,1.16
39.1880,0.08,0.11,-0.99,3.30,2.50,1.16
39.2050,0.08,0.12,-0.99,3.05,2.26,1.46
39.2200,0.09,0.11,-0.99,3.05,2.44,1.40
39.2350,0.09,0.11,-0.99,3.42,2.56,1.40
39.2500,0.08,0.12,-0.99,3.42,2.38,1.22
39.2650,0.08,0.11,-0.99,3.42,2.56,1.10
39.2740,0.08,0.11,-0.99,3.42,2.50,1.22
39.2900,0.09,0.12,-0.99,3.54,2.69,0.98
39.3070,0.08,0.11,-0.99,3.91,2.26,0.98
39.3240,0.08,0.11,-0.99,3.91,2.38,1.34
39.3400,0.08,0.11,-0.99,3.30,2.69,1.77
39.3580,0.08,0.12,-0.99,3.17,2.26,1.59
39.3730,0.08,0.12,-0.99,3.42,2.56,1.53
39.3910,0.08,0.10,-0.99,3.30,2.20,2.08
39.4060,0.08,0.12,-0.99,3.17,2.69,1.77
39.4220,0.08,0.12,-0.99,3.23,1.83,1.34
39.4380,0.08,0.11,-0.99,3.23,2.38,1.28
39.4530,0.08,0.11,-0.99,3.42,2.20,1.65
39.4680,0.08,0.11,-0.99,3.23,2.32,1.65
39.4850,0.08,0.11,-0.99,3.30,2.50,1.95
39.5010,0.08,0.11,-0.99,3.36,2.26,1.71
39.5170,0.08,0.12,-0.99,3.42,2.69,1.95
39.5330,0.08,0.12,-0.99,3.30,2.50,1.83
39.5400,0.08,0.11,-0.99,3.23,2.50,1.71
39.5570,0.08,0.12,-0.99,3.23,2.50,1.83
39.5730,0.09,0.12,-0.99,3.23,2.26,1.71
39.5900,0.08,0.12,-0.99,3.36,2.75,1.34
39.6080,0.08,0.12,-0.99,3.11,2.56,1.22
39.6240,0.08,0.12,-0.99,3.42,2.32,0.49
39.6390,0.07,0.11,-0.98,2.75,2.81,0.06
39.6560,0.08,0.11,-0.99,3.60,2.50,1.83
39.6720,0.08,0.11,-0.98,3.23,2.38,1.83
39.6880,0.08,0.12,-0.99,3.17,2.62,1.95
39.7040,0.08,0.12,-0.98,3.36,2.38,1.83
39.7190,0.09,0.11,-0.99,3.23,2.44,1.83
39.7350,0.07,0.12,-0.99,3.30,2.56,1.83
39.7490,0.09,0.11,-0.99,3.17,2.32,1.77
39.7650,0.08,0.12,-0.98,3.48,2.26,1.89
39.7730,0.08,0.12,-0.98,3.42,2.44,1.71
39.7970,0.08,0.12,-0.99,3.36,2.32,1.89
39.8070,0.08,0.11,-0.99,3.23,2.32,1.77
39.8240,0.08,0.11,-0.99,3.23,2.44,1.89
39.8400,0.08,0.11,-0.99,3.30,2.32,1.71
39.8560,0.08,0.12,-0.99,3.23,2.32,1.83
39.8730,0.08,0.12,-0.99,3.36,2.56,1.83
39.8900,0.08,0.11,-0.99,3.36,2.32,1.83
39.9050,0.08,0.11,-0.99,3.36,2.44,1.89
39.9210,0.08,0.11,-0.99,3.30,2.26,1.71
39.9370,0.08,0.12,-0.99,3.23,2.26,1.89
39.9520,0.08,0.11,-0.99,3.30,2.08,1.71
39.9680,0.08,0.11,-0.99,3.42,1.83,1.65
39.9840,0.08,0.11,-0.99,3.36,2.38,1.83
39.9990,0.08,0.12,-0.99,3.17,2.56,1.89
40.0060,0.08,0.11,-0.99,3.17,2.69,1.83
40.0300,0.08,0.12,-0.99,3.30,2.38,1.95
40.0400,0.08,0.11,-0.99,3.17,2.75,1.95
40.0580,0.08,0.11,-0.99,3.23,2.75,2.01
40.0730,0.08,0.12,-0.99,3.30,2.32,1.83
40.0900,0.08,0.11,-0.99,3.36,2.69,1.89
40.1080,0.08,0.11,-0.99,3.48,2.32,1.95
40.1230,0.08,0.11,-0.99,3.30,2.44,1.95
40.1400,0.08,0.12,-0.99,3.54,2.26,1.89
40.1570,0.08,0.12,-0.99,3.36,2.38,1.65
40.1720,0.08,0.11,-0.99,3.23,2.32,1.83
40.1890,0.08,0.11,-0.99,3.30,2.69,1.83
40.2040,0.08,0.12,-0.99,3.05,2.50,1.95
40.2190,0.08,0.12,-0.99,3.36,2.50,1.89
40.2350,0.08,0.11,-0.99,3.23,2.62,1.95
40.2510,0.08,0.11,-0.99,3.17,2.32,1.83
40.2660,0.08,0.11,-0.99,3.11,2.38,1.95
40.2730,0.08,0.12,-0.99,3.23,2.38,1.83
40.2900,0.08,0.12,-0.99,3.23,2.32,2.08
40.3080,0.08,0.11,-0.99,3.42,2.32,1.77
40.3240,0.08,0.11,-0.99,3.30,2.69,1.83
40.3410,0.08,0.11,-0.99,3.42,2.26,1.89
40.3570,0.08,0.12,-0.99,3.23,2.01,1.89
40.3750,0.09,0.11,-0.97,3.48,2.01,1.95
40.3900,0.08,0.12,-1.00,3.36,2.50,1.89
40.4070,0.08,0.11,-0.99,3.23,2.20,1.89
40.4230,0.08,0.11,-1.00,3.23,2.44,1.89
40.4390,0.08,0.11,-0.98,3.42,2.26,1.77
40.4550,0.08,0.12,-0.98,3.36,2.56,1.95
40.4710,0.08,0.12,-0.98,3.11,2.32,1.77
40.4860,0.08,0.12,-0.98,3.30,2.56,1.83
40.5020,0.08,0.11,-0.99,3.11,2.50,1.83
40.5180,0.08,0.11,-0.99,3.30,2.38,1.89
40.5340,0.08,0.11,-0.99,3.36,2.26,1.83
40.5490,0.08,0.12,-0.99,3.48,1.77,1.77
40.5570,0.08,0.12,-0.99,3.23,2.26,1.83
40.5730,0.08,0.11,-0.99,3.11,2.44,1.83
40.5910,0.08,0.11,-0.99,3.36,2.32,1.83
40.6070,0.08,0.11,-0.99,3.42,2.44,1.83
40.6240,0.08,0.12,-0.99,3.36,2.50,1.71
40.6400,0.08,0.11,-0.99,3.42,2.32,1.89
40.6570,0.08,0.11,-0.99,3.30,2.38,1.89
40.6730,0.08,0.11,-0.99,3.36,2.14,1.77
40.6890,0.08,0.11,-0.99,3.23,2.38,1.83
40.7050,0.08,0.12,-0.99,3.36,2.69,1.77
40.7210,0.08,0.11,-0.99,3.48,2.20,2.01
40.7360,0.08,0.11,-0.99,3.17,2.56,1.77
40.7400,0.08,0.12,-0.99,3.36,2.14,1.83
40.7580,0.08,0.12,-0.99,3.36,2.50,1.83
40.7760,0.08,0.11,-0.99,3.30,2.75,1.89
40.7930,0.08,0.11,-0.99,3.48,2.38,1.83
40.8100,0.08,0.11,-0.99,3.11,2.44,2.01
40.8280,0.08,0.12,-0.99,3.42,2.38,1.89
40.8430,0.08,0.11,-0.99,3.36,2.38,1.77
40.8600,0.08,0.11,-0.99,3.30,2.69,1.83
40.8750,0.08,0.11,-0.99,3.48,2.26,1.83
40.8910,0.08,0.11,-0.99,3.36,2.14,1.89
40.9070,0.08,0.12,-0.99,3.54,2.50,1.83
40.9220,0.08,0.11,-0.99,3.11,2.81,1.89
40.9260,0.09,0.11,-0.98,3.23,2.44,1.71
40.9420,0.08,0.12,-0.99,3.30,2.87,1.89
40.9630,0.08,0.11,-0.99,3.23,2.50,1.77
40.9800,0.08,0.11,-0.99,3.30,2.50,1.71
40.9960,0.08,0.11,-0.99,3.30,2.26,1.83
41.0150,0.08,0.11,-0.99,3.30,2.75,1.71
41.0300,0.08,0.12,-0.99,3.42,2.56,1.83
41.0470,0.08,0.12,-0.98,3.30,2.32,1.65
41.0630,0.08,0.11,-0.99,3.36,2.32,1.83
41.0790,0.08,0.11,-0.99,3.23,2.20,1.77
41.0810,0.08,0.11,-0.99,3.42,2.38,1.89
41.0960,0.08,0.11,-0.99,3.60,2.32,1.77
41.1120,0.08,0.11,-0.99,3.36,2.44,1.89
41.1410,0.08,0.11,-0.99,3.23,2.75,2.01
41.1500,0.08,0.11,-0.98,3.23,2.87,1.89
41.1670,0.08,0.12,-0.99,3.30,2.56,1.95
41.1830,0.08,0.11,-0.99,3.23,2.62,1.89
41.2030,0.08,0.11,-0.99,3.36,2.69,1.89
41.2190,0.08,0.11,-0.99,3.23,2.08,1.77
41.2350,0.08,0.11,-0.99,3.23,2.32,1.83
41.2510,0.08,0.11,-0.99,3.17,2.38,1.83
41.2670,0.08,0.11,-0.99,3.11,2.69,1.83
41.2820,0.08,0.11,-0.99,3.17,2.14,1.89
41.2980,0.08,0.11,-0.99,3.36,2.26,1.89
41.3140,0.08,0.12,-0.99,3.42,2.44,1.71
41.3300,0.08,0.11,-0.99,3.30,2.56,1.83
41.3470,0.08,0.11,-0.99,3.42,2.14,1.95
41.3630,0.08,0.11,-0.99,3.23,2.44,1.95
41.3780,0.08,0.11,-0.99,3.23,2.14,1.77
41.3940,0.08,0.12,-0.99,3.30,2.32,1.71
41.4100,0.08,0.11,-0.99,3.36,2.26,1.71
41.4190,0.08,0.11,-0.99,3.42,2.14,1.89
41.4370,0.08,0.11,-0.99,3.48,2.32,1.89
41.4550,0.08,0.11,-0.98,3.11,2.44,1.77
41.4690,0.08,0.12,-0.99,3.17,2.56,1.89
41.4860,0.08,0.11,-0.99,3.23,1.89,1.83
41.5020,0.08,0.11,-0.99,3.23,2.20,1.77
41.5180,0.08,0.12,-0.99,3.36,2.50,1.77
41.5340,0.08,0.12,-0.99,3.23,2.26,1.77
41.5500,0.08,0.11,-0.99,3.42,2.14,1.89
41.5650,0.08,0.11,-0.99,3.48,2.38,1.95
41.5800,0.08,0.11,-0.99,3.30,2.75,2.01
41.5960,0.08,0.11,-0.99,3.54,2.14,1.83
41.6120,0.08,0.11,-0.99,3.36,2.20,1.89
41.6280,0.08,0.11,-0.99,3.36,2.50,1.89
41.6440,0.08,0.11,-0.99,3.36,2.44,1.89
41.6540,0.08,0.11,-0.99,3.48,2.62,1.83
41.6700,0.08,0.11,-0.99,3.23,2.69,1.83
41.6900,0.08,0.11,-0.99,3.36,2.81,1.83
41.7060,0.08,0.12,-0.99,3.36,2.20,1.83
41.7220,0.08,0.11,-0.99,3.30,2.38,1.89
41.7380,0.08,0.11,-0.99,3.23,2.20,1.83
41.7540,0.08,0.11,-0.99,3.42,2.81,1.89
41.7700,0.08,0.11,-0.99,3.48,2.44,1.89
41.7850,0.08,0.11,-0.99,3.23,2.44,1.89
41.7890,0.08,0.12,-0.99,3.23,2.32,1.83
41.8170,0.08,0.11,-0.99,3.23,2.26,1.83
41.8330,0.08,0.11,-0.99,3.42,2.14,1.77
41.8480,0.08,0.11,-0.99,3.42,2.38,1.83
41.8610,0.08,0.12,-0.99,3.30,2.50,1.89
41.8720,0.08,0.11,-0.99,3.30,2.75,2.01
41.8950,0.08,0.11,-0.99,3.23,2.69,1.89
41.9110,0.08,0.11,-0.99,3.23,2.32,1.65
41.9120,0.08,0.11,-0.99,3.36,2.50,2.01
41.9430,0.08,0.11,-0.99,3.36,2.32,1.83
41.9450,0.08,0.11,-0.99,3.42,2.38,1.77
41.9620,0.08,0.11,-0.99,3.17,2.56,1.95
41.9780,0.08,0.11,-0.99,3.17,2.56,1.95
41.9940,0.08,0.12,-0.99,3.23,2.26,1.77
42.0170,0.08,0.11,-0.99,3.23,2.20,1.71
42.0330,0.08,0.11,-0.99,3.23,2.50,1.77
42.0490,0.08,0.11,-0.99,3.23,2.38,1.77
42.0650,0.08,0.11,-0.99,3.48,2.08,1.89
42.0840,0.08,0.11,-0.99,3.30,2.75,1.89
42.1000,0.08,0.12,-0.99,3.36,2.56,1.95
42.1150,0.08,0.11,-0.99,3.30,2.20,1.77
42.1340,0.08,0.11,-0.99,3.23,2.08,1.77
42.1490,0.08,0.11,-0.99,3.36,2.08,1.65
42.1650,0.08,0.11,-0.99,3.17,2.32,1.83
42.1810,0.08,0.12,-0.99,3.36,2.44,1.95
42.2010,0.08,0.11,-0.99,3.42,2.50,1.95
42.2170,0.08,0.11,-0.99,3.30,2.32,1.77
42.2340,0.08,0.12,-0.99,3.48,2.20,1.89
42.2500,0.08,0.12,-0.99,3.17,2.56,1.77
42.2650,0.08,0.11,-0.99,3.23,2.32,1.89
42.2820,0.08,0.11,-0.99,3.48,2.26,1.89
42.2980,0.08,0.11,-0.99,3.48,2.26,1.77
42.3060,0.08,0.11,-0.99,3.30,2.38,1.83
42.3230,0.08,0.11,-0.99,3.30,2.26,1.89
42.3390,0.08,0.11,-0.99,3.23,2.44,1.95
42.3560,0.08,0.12,-0.99,3.36,2.50,1.83
42.3720,0.08,0.11,-0.99,3.17,2.56,1.95
42.3900,0.08,0.11,-0.99,3.60,2.38,1.71
42.4060,0.08,0.11,-0.99,3.30,2.50,1.83
42.4220,0.08,0.11,-0.99,3.17,2.32,1.89
42.4380,0.08,0.11,-0.99,3.54,2.32,1.89
42.4530,0.08,0.11,-0.99,3.17,2.38,1.83
42.4690,0.08,0.11,-0.99,3.30,2.69,1.89
42.4840,0.08,0.11,-0.99,3.11,2.62,1.83
42.5010,0.08,0.11,-0.99,3.23,2.26,1.89
42.5170,0.08,0.11,-0.99,3.30,2.75,1.77
42.5220,0.08,0.11,-0.99,3.11,2.69,1.95
42.5380,0.08,0.12,-0.99,3.48,2.56,1.89
42.5610,0.08,0.11,-0.99,3.23,1.95,1.77
42.5740,0.08,0.11,-0.99,3.36,2.50,1.77
42.5910,0.08,0.11,-0.99,3.23,2.69,1.89
42.6090,0.08,0.12,-0.99,3.30,2.62,1.71
42.6250,0.08,0.12,-0.99,3.42,2.50,1.83
42.6410,0.08,0.11,-0.99,3.42,2.44,1.89
42.6580,0.08,0.11,-0.99,3.42,2.14,1.77
42.6750,0.08,0.11,-0.99,3.48,2.08,1.95
42.6890,0.08,0.11,-0.99,3.23,2.62,1.83
42.7050,0.08,0.11,-0.99,3.30,2.14,1.83
42.7210,0.08,0.11,-0.99,3.30,2.32,1.83
42.7370,0.08,0.11,-0.99,3.30,2.44,1.83
42.7540,0.08,0.11,-0.99,3.23,2.50,1.77
42.7690,0.08,0.11,-0.99,3.36,2.56,1.71
42.7850,0.08,0.11,-0.99,3.42,2.38,1.77
42.8010,0.08,0.11,-0.99,3.30,2.44,1.89
42.8080,0.08,0.11,-0.99,3.17,2.56,1.89
42.8240,0.08,0.12,-0.99,3.30,2.38,1.83
42.8460,0.08,0.11,-0.99,3.42,2.56,1.83
42.8620,0.08,0.11,-0.99,3.17,2.50,1.83
42.8770,0.08,0.11,-0.99,3.23,2.38,1.89
42.8930,0.08,0.11,-0.99,3.23,2.62,1.77
42.9100,0.08,0.12,-0.99,3.30,2.38,1.89
42.9120,0.08,0.12,-0.99,3.36,2.50,1.83
42.9280,0.08,0.11,-0.99,3.36,2.26,1.83
42.9510,0.08,0.11,-0.99,3.30,2.44,1.77
42.9680,0.08,0.11,-0.99,3.23,2.38,1.77
42.9840,0.08,0.11,-0.99,3.42,1.95,1.71
43.0020,0.08,0.11,-0.99,3.42,2.44,1.77
43.0170,0.08,0.11,-0.99,3.42,2.32,1.89
43.0340,0.08,0.11,-0.99,3.17,2.50,1.77
43.0510,0.08,0.12,-0.99,3.30,2.14,1.83
43.0620,0.08,0.11,-0.99,3.36,2.26,1.89
43.0830,0.08,0.11,-0.99,3.36,2.50,1.65
43.0990,0.08,0.12,-0.99,3.30,2.44,1.83
43.1160,0.08,0.11,-0.99,3.36,2.01,1.95
43.1170,0.08,0.11,-0.99,3.17,2.38,1.77
43.1470,0.08,0.11,-0.97,3.23,2.14,1.77
43.1630,0.08,0.12,-0.99,3.23,2.32,2.01
43.1790,0.08,0.11,-0.98,3.36,2.20,2.01
43.1950,0.08,0.12,-0.99,3.36,2.44,1.95
43.2010,0.08,0.11,-0.99,3.30,2.50,2.14
43.2160,0.08,0.12,-0.99,3.42,2.50,1.89
43.2370,0.08,0.12,-0.99,3.36,2.14,1.77
43.2550,0.08,0.11,-0.99,3.36,2.56,1.89
43.2710,0.08,0.11,-0.99,3.54,2.50,1.89
43.2870,0.08,0.11,-0.99,3.48,2.44,1.83
43.3040,0.08,0.11,-0.99,3.48,2.26,1.83
43.3200,0.08,0.12,-0.99,3.30,2.44,1.83
43.3360,0.08,0.11,-0.99,3.36,2.44,1.95
43.3510,0.08,0.11,-0.99,3.36,2.44,1.77
43.3660,0.08,0.12,-0.99,3.11,2.87,1.89
43.3810,0.08,0.11,-0.99,3.17,2.69,1.89
43.3970,0.08,0.11,-0.99,3.48,2.38,1.83
43.4130,0.08,0.11,-0.99,3.23,2.62,1.89
43.4290,0.08,0.11,-0.99,3.17,2.56,1.95
43.4380,0.08,0.11,-0.99,3.42,2.20,1.89
43.4540,0.08,0.12,-0.99,3.48,2.75,1.89
43.4710,0.08,0.11,-0.99,3.30,2.44,1.89
43.4880,0.08,0.11,-0.99,3.30,2.56,1.89
43.5060,0.08,0.11,-0.99,3.36,2.50,2.01
43.5200,0.08,0.11,-0.99,3.30,2.20,1.77
43.5370,0.08,0.11,-0.99,3.23,2.50,1.89
43.5530,0.08,0.11,-0.99,3.30,2.69,1.83
43.5700,0.08,0.11,-0.99,3.30,2.69,1.95
43.5850,0.08,0.12,-0.98,3.30,2.93,1.95
43.6010,0.08,0.11,-0.99,3.30,2.62,1.89
43.6170,0.08,0.11,-0.99,3.42,2.50,1.89
43.6320,0.08,0.11,-0.99,3.30,2.62,1.89
43.6470,0.08,0.12,-0.99,3.42,2.69,2.01
43.6640,0.08,0.11,-0.99,3.36,2.50,1.89
43.6790,0.08,0.11,-0.99,3.36,2.69,1.83
43.6940,0.08,0.11,-0.99,3.17,2.50,1.77
43.7050,0.08,0.11,-0.99,3.23,2.44,1.77
43.7210,0.08,0.11,-0.99,3.23,2.81,1.89
43.7380,0.08,0.12,-0.99,3.11,3.11,2.01
43.7540,0.08,0.11,-0.99,3.36,2.56,1.83
43.7720,0.08,0.11,-0.99,3.30,2.69,1.95
43.7870,0.08,0.11,-0.99,3.36,2.26,1.83
43.8030,0.08,0.12,-0.99,3.42,2.50,1.89
43.8190,0.08,0.12,-0.99,3.48,2.93,2.01
43.8340,0.08,0.11,-0.99,3.30,3.11,1.83
43.8500,0.08,0.11,-0.99,3.23,2.81,1.95
43.8640,0.08,0.11,-0.99,3.36,2.38,1.89
43.8700,0.08,0.12,-0.99,3.30,2.81,1.95
43.8970,0.08,0.11,-0.99,3.30,2.75,1.83
43.9080,0.08,0.11,-0.99,3.30,2.81,1.89
43.9250,0.08,0.11,-0.99,3.17,2.75,1.83
43.9410,0.08,0.11,-0.99,3.11,2.62,1.95
43.9580,0.08,0.11,-0.99,3.36,2.75,1.89
43.9740,0.08,0.11,-0.99,3.42,2.56,1.77
43.9900,0.08,0.11,-0.99,3.30,2.56,1.83
44.0060,0.08,0.11,-0.99,3.36,2.69,1.89
44.0220,0.08,0.12,-0.99,3.42,2.56,1.83
44.0250,0.08,0.12,-0.99,3.23,2.50,1.89
44.0400,0.08,0.11,-0.99,3.30,2.38,1.77
44.0640,0.08,0.11,-0.99,3.30,2.50,1.83
44.0790,0.08,0.11,-0.99,3.36,2.75,1.89
44.0960,0.08,0.12,-0.99,3.36,2.62,1.83
44.1110,0.08,0.11,-0.99,3.36,2.38,2.01
44.1290,0.08,0.11,-0.99,3.23,2.69,1.71
44.1460,0.08,0.11,-0.99,3.30,2.50,1.83
44.1620,0.08,0.11,-0.99,3.23,2.81,2.01
44.1770,0.08,0.11,-0.99,3.17,2.69,1.95
44.1810,0.08,0.11,-0.99,3.48,2.62,1.95
44.1970,0.08,0.11,-0.99,3.36,2.75,1.83
44.2130,0.08,0.11,-0.99,3.42,2.62,1.77
44.2360,0.08,0.12,-0.99,3.23,2.44,1.83
44.2530,0.08,0.11,-0.99,3.42,2.62,1.71
44.2700,0.08,0.11,-0.99,3.30,2.44,1.71
44.2870,0.08,0.11,-0.99,3.36,2.32,1.83
44.3020,0.08,0.11,-0.99,3.11,2.75,2.01
44.3180,0.08,0.11,-0.99,3.30,2.75,1.83
44.3350,0.08,0.11,-0.99,3.23,2.75,1.83
44.3370,0.08,0.11,-0.99,3.30,2.44,1.95
44.3640,0.08,0.11,-0.99,3.30,2.44,1.89
44.3740,0.08,0.11,-0.99,3.48,2.56,1.83
44.3910,0.08,0.11,-0.99,3.36,2.69,1.83
44.4070,0.08,0.11,-0.99,3.23,2.32,1.71
44.4240,0.08,0.11,-0.99,3.11,2.56,1.83
44.4400,0.08,0.11,-0.99,3.23,2.32,1.77
44.4570,0.08,0.11,-0.99,3.30,2.56,1.83
44.4720,0.08,0.11,-0.99,3.54,2.32,1.89
44.4880,0.08,0.11,-0.99,3.42,2.38,1.89
44.4910,0.08,0.11,-0.99,3.23,2.44,1.89
44.5060,0.08,0.11,-0.99,3.42,2.50,1.89
44.5290,0.08,0.11,-0.99,3.36,2.56,1.83
44.5450,0.08,0.11,-0.99,3.42,2.81,1.89
44.5640,0.08,0.11,-0.99,3.23,2.69,1.89
44.5790,0.08,0.11,-0.99,3.42,2.50,2.01
44.5950,0.08,0.11,-0.99,3.36,2.38,1.89
44.6140,0.08,0.11,-0.99,3.54,2.32,1.95
44.6300,0.08,0.11,-0.99,3.23,2.56,1.83
44.6450,0.08,0.11,-0.99,3.36,2.26,1.89
44.6610,0.08,0.12,-0.99,3.30,2.32,1.83
44.6640,0.08,0.11,-0.99,3.30,2.44,1.77
44.6800,0.08,0.11,-0.99,3.36,2.50,1.89
44.6950,0.08,0.11,-0.99,3.54,2.20,1.65
44.7110,0.08,0.11,-0.99,3.42,2.87,1.95
44.7400,0.08,0.11,-0.99,3.36,2.20,1.95
44.7500,0.08,0.11,-0.99,3.30,2.69,1.83
44.7680,0.08,0.11,-0.99,3.23,2.81,1.83
44.7860,0.08,0.11,-0.99,3.36,2.38,1.83
44.8000,0.08,0.11,-0.99,3.36,2.26,1.77
44.8170,0.08,0.11,-0.99,3.23,3.05,1.83
44.8330,0.08,0.11,-0.99,3.42,2.75,1.89
44.8490,0.08,0.11,-0.99,3.30,2.20,1.83
44.8650,0.08,0.11,-0.99,3.36,2.69,1.89
44.8820,0.08,0.12,-0.99,3.23,2.81,1.77
44.8970,0.08,0.11,-0.99,3.17,2.75,1.95
44.9150,0.08,0.11,-0.99,3.30,2.81,1.95
44.9300,0.08,0.12,-0.99,3.30,2.56,1.95
44.9330,0.08,0.11,-0.99,3.30,2.32,1.89
44.9620,0.08,0.11,-0.99,3.36,2.38,1.77
44.9680,0.08,0.12,-0.99,3.42,2.14,1.83
44.9920,0.08,0.11,-0.99,3.23,2.44,1.77
45.0080,0.08,0.11,-0.99,3.42,2.81,1.83
45.0170,0.08,0.11,-0.99,3.36,2.81,1.83
45.0340,0.08,0.11,-0.99,3.23,2.20,1.89
45.0510,0.08,0.11,-0.99,3.42,2.20,1.83
45.0680,0.08,0.11,-0.99,3.23,2.44,1.83
45.0840,0.08,0.11,-0.99,3.42,2.32,1.89
45.1010,0.08,0.11,-0.99,3.30,2.50,1.77
45.1170,0.08,0.12,-0.99,3.42,2.08,1.65
45.1340,0.08,0.11,-0.99,3.23,2.32,1.77
45.1510,0.08,0.11,-0.99,3.23,2.14,1.71
45.1670,0.08,0.11,-0.99,3.17,2.56,1.83
45.1840,0.08,0.11,-0.99,3.36,2.14,1.83
45.1990,0.08,0.12,-0.99,3.30,2.14,1.71
45.2010,0.08,0.11,-0.99,3.42,1.89,1.77
45.2170,0.08,0.11,-0.99,3.23,2.26,1.77
45.2410,0.08,0.12,-0.99,3.23,2.14,1.83
45.2590,0.08,0.11,-0.99,3.30,2.32,1.77
45.2750,0.08,0.11,-0.99,3.30,2.26,1.89
45.2900,0.08,0.11,-0.99,3.23,2.14,1.83
45.3080,0.08,0.11,-0.99,3.23,2.32,1.89
45.3240,0.08,0.11,-0.99,3.23,2.62,1.89
45.3250,0.08,0.11,-0.99,3.11,2.56,1.71
45.3550,0.08,0.11,-0.99,3.30,2.20,1.83
45.3710,0.08,0.11,-0.99,3.17,2.38,1.95
45.3850,0.08,0.11,-0.99,3.30,2.62,1.95
45.4010,0.08,0.11,-0.99,3.30,3.11,1.89
45.4170,0.08,0.11,-0.99,3.36,2.87,1.95
45.4330,0.08,0.11,-0.99,3.23,2.38,1.89
45.4480,0.08,0.11,-0.99,3.17,2.08,1.89
45.4640,0.08,0.11,-0.99,3.30,2.56,2.01
45.4740,0.08,0.11,-0.99,3.17,2.56,1.77
45.4900,0.08,0.11,-0.99,3.17,2.50,1.83
45.5070,0.08,0.11,-0.99,3.17,2.32,1.83
45.5250,0.08,0.11,-0.99,3.30,2.32,1.71
45.5410,0.08,0.11,-0.99,3.30,2.44,1.83
45.5580,0.08,0.11,-0.99,3.30,2.20,1.83
45.5730,0.08,0.11,-0.99,3.30,2.26,1.89
45.5900,0.08,0.11,-0.99,3.36,2.32,1.77
45.6060,0.08,0.11,-0.99,3.42,2.56,1.83
45.6220,0.08,0.11,-0.99,3.36,2.44,1.83
45.6370,0.08,0.11,-0.99,3.17,1.89,1.95
45.6540,0.08,0.12,-0.99,3.42,2.01,1.89
45.6690,0.08,0.11,-0.99,3.48,2.20,1.83
45.6840,0.08,0.11,-0.99,3.17,2.56,1.89
45.7010,0.08,0.11,-0.99,3.17,2.44,1.89
45.7160,0.08,0.12,-0.99,3.11,2.56,1.89
45.7300,0.08,0.11,-0.99,3.36,1.95,1.77
45.7410,0.08,0.12,-0.99,3.42,2.26,1.83
45.7570,0.08,0.11,-0.99,3.36,2.26,1.89
45.7750,0.08,0.11,-0.99,3.36,1.83,1.83
45.7900,0.08,0.11,-0.99,3.30,2.38,1.95
45.8090,0.08,0.11,-0.99,3.54,1.89,1.95
45.8240,0.08,0.11,-0.99,3.36,2.32,1.83
45.8410,0.08,0.11,-0.99,3.36,1.89,1.71
45.8570,0.08,0.12,-0.99,3.54,2.32,1.71
45.8730,0.08,0.11,-0.99,3.30,2.20,1.95
45.8890,0.08,0.11,-0.99,3.30,2.44,1.83
45.9060,0.08,0.11,-0.99,3.42,2.08,1.65
45.9220,0.08,0.11,-0.99,3.42,2.32,1.77
45.9370,0.08,0.12,-0.99,3.23,2.26,1.77
45.9520,0.08,0.11,-0.99,3.48,1.95,1.71
45.9650,0.08,0.11,-0.99,3.11,2.62,1.95
45.9840,0.08,0.12,-0.99,3.17,2.44,1.83
45.9980,0.08,0.11,-0.99,3.23,2.20,1.77
46.0140,0.08,0.11,-0.99,3.30,2.20,1.83
46.0250,0.08,0.11,-0.99,3.36,1.89,1.77
46.0420,0.08,0.11,-0.99,3.36,2.26,1.77
46.0580,0.08,0.12,-0.99,3.30,2.32,1.65
46.0740,0.08,0.12,-0.99,3.30,2.50,1.77
46.0910,0.08,0.11,-0.99,3.23,2.44,1.77
46.1090,0.08,0.11,-0.99,3.36,1.83,1.89
46.1240,0.08,0.12,-0.99,3.36,2.38,1.71
46.1410,0.08,0.11,-0.99,3.30,2.44,1.89
46.1570,0.08,0.11,-0.99,3.54,2.38,1.89
46.1730,0.08,0.11,-0.99,3.36,2.44,1.77
46.1890,0.08,0.11,-0.99,3.30,2.20,1.77
46.2040,0.08,0.12,-0.99,3.36,2.50,1.77
46.2080,0.08,0.11,-0.99,3.36,2.32,1.83
46.2350,0.08,0.11,-0.99,3.42,2.01,1.83
46.2460,0.08,0.11,-0.99,3.30,2.20,1.95
46.2650,0.08,0.12,-0.99,3.42,1.95,1.71
46.2790,0.08,0.11,-0.99,3.42,2.44,1.71
46.2970,0.08,0.11,-0.99,3.36,2.38,1.77
46.3120,0.08,0.11,-0.99,3.23,2.26,1.83
46.3300,0.08,0.11,-0.99,3.42,2.32,1.89
46.3460,0.08,0.12,-0.99,3.48,2.20,1.95
46.3610,0.08,0.11,-0.99,3.30,2.26,1.95
46.3650,0.08,0.11,-0.99,3.17,2.69,1.89
46.3940,0.08,0.12,-0.99,3.36,2.32,1.95
46.4090,0.08,0.11,-0.99,3.36,2.32,1.89
46.4120,0.08,0.11,-0.99,3.54,1.89,1.83
46.4280,0.08,0.11,-0.99,3.23,2.38,1.83
46.4520,0.08,0.11,-0.99,3.11,2.50,1.83
46.4690,0.08,0.11,-0.99,3.54,2.38,1.95
46.4840,0.08,0.11,-0.99,3.48,2.20,1.89
46.5010,0.08,0.11,-0.99,3.48,2.50,1.89
46.5020,0.08,0.11,-0.99,3.30,2.56,1.83
46.5200,0.08,0.11,-0.99,3.36,2.26,1.83
46.5360,0.08,0.11,-0.99,3.36,2.44,2.01
46.5640,0.08,0.11,-0.99,3.36,3.11,1.89
46.5800,0.08,0.11,-0.99,3.42,2.44,1.83
46.5890,0.08,0.11,-0.99,3.30,2.44,1.95
46.6040,0.08,0.11,-0.99,3.30,2.56,1.89
46.6200,0.08,0.11,-0.99,3.23,2.75,1.89
46.6410,0.08,0.11,-0.99,3.36,2.32,1.83
46.6560,0.08,0.11,-0.99,3.23,2.50,1.83
46.6720,0.08,0.11,-0.99,3.36,2.69,1.77
46.6890,0.08,0.12,-0.99,3.36,2.20,1.95
46.7060,0.08,0.11,-0.99,3.30,2.44,1.71
46.7200,0.08,0.11,-0.99,3.23,2.20,1.83
46.7240,0.08,0.11,-0.99,3.23,2.56,1.83
46.7400,0.08,0.12,-0.99,2.99,2.56,1.83
46.7660,0.08,0.11,-0.99,3.42,2.38,1.83
46.7780,0.08,0.11,-0.99,3.30,2.38,1.83
46.7960,0.08,0.12,-0.99,3.36,2.01,1.77
46.8120,0.08,0.11,-0.99,3.42,1.77,1.89
46.8290,0.08,0.11,-0.99,3.42,2.08,1.89
46.8460,0.08,0.11,-0.99,3.36,2.32,1.89
46.8620,0.08,0.11,-0.99,3.42,2.08,1.83
46.8790,0.08,0.11,-0.99,3.36,2.32,1.83
46.8950,0.08,0.11,-0.99,3.11,2.32,1.89
46.8960,0.08,0.11,-0.99,3.05,2.32,1.77
46.9270,0.08,0.11,-0.99,3.36,2.32,1.89
46.9290,0.08,0.11,-0.99,3.23,2.32,1.89
46.9590,0.08,0.11,-0.99,3.42,2.20,1.77
46.9660,0.08,0.11,-0.99,3.17,2.62,1.83
46.9910,0.08,0.12,-0.99,3.30,2.14,1.83
47.0060,0.08,0.11,-0.99,3.30,2.32,1.89
47.0150,0.08,0.11,-0.99,3.17,2.56,1.83
47.0320,0.08,0.11,-0.99,3.30,2.56,1.83
47.0480,0.08,0.11,-0.99,3.23,2.26,1.89
47.0660,0.08,0.12,-0.99,3.30,2.38,1.77
47.0810,0.08,0.12,-0.99,3.17,2.44,1.83
47.0820,0.08,0.11,-0.99,3.23,2.44,1.65
47.0980,0.08,0.11,-0.99,3.36,2.26,1.95
47.1150,0.08,0.12,-0.99,3.23,2.32,1.83
47.1320,0.08,0.11,-0.99,3.30,2.32,1.71
47.1580,0.08,0.11,-0.99,3.36,2.26,1.95
47.1730,0.08,0.11,-0.99,3.36,2.38,1.83
47.1810,0.08,0.11,-0.99,3.23,2.32,1.71
47.1980,0.08,0.11,-0.99,3.30,2.38,1.77
47.2150,0.08,0.11,-0.99,3.30,2.38,1.83
47.2310,0.08,0.11,-0.99,3.36,2.08,1.65
47.2480,0.08,0.11,-0.99,3.30,2.38,1.89
47.2670,0.08,0.12,-0.99,3.42,2.50,1.71
47.2840,0.08,0.11,-0.99,3.42,2.26,1.77
47.2980,0.08,0.11,-0.99,3.30,2.56,1.95
47.3150,0.08,0.11,-0.99,3.42,2.56,1.83
47.3310,0.08,0.11,-0.99,3.30,2.38,1.83
47.3480,0.08,0.11,-0.99,3.36,2.26,1.89
47.3630,0.08,0.11,-0.99,3.36,2.26,1.83
47.3790,0.08,0.11,-0.99,3.36,2.20,1.83
47.3950,0.08,0.11,-0.99,3.30,2.44,1.83
47.3980,0.08,0.12,-0.99,3.36,2.44,1.83
47.4280,0.08,0.11,-0.99,3.23,2.56,1.77
47.4440,0.08,0.11,-0.99,3.36,2.38,2.01
47.4600,0.08,0.11,-0.99,3.17,2.32,1.83
47.4670,0.08,0.11,-0.99,3.23,2.56,1.89
47.4820,0.08,0.12,-0.99,3.23,2.50,1.89
47.5090,0.08,0.11,-0.99,3.17,2.26,1.83
47.5250,0.08,0.11,-0.99,3.23,2.14,1.89
47.5350,0.08,0.11,-0.99,3.42,2.20,1.89
47.5510,0.08,0.11,-0.99,3.36,2.32,1.77
47.5730,0.08,0.11,-0.99,3.17,2.44,1.83
47.5890,0.08,0.11,-0.99,3.36,2.26,1.71
47.6040,0.08,0.11,-0.99,3.42,2.26,1.83
47.6190,0.08,0.11,-0.99,3.23,2.50,1.89
47.6350,0.08,0.11,-0.99,3.17,2.32,1.65
47.6510,0.08,0.11,-0.99,3.42,2.01,1.83
47.6660,0.08,0.11,-0.99,3.30,2.26,1.95
47.6820,0.08,0.11,-0.99,3.17,2.38,1.89
47.6910,0.08,0.12,-0.99,3.30,2.20,1.65
47.7070,0.08,0.11,-0.99,3.30,2.26,1.95
47.7270,0.08,0.11,-0.99,3.17,2.44,1.89
47.7440,0.08,0.11,-0.99,3.48,2.14,1.71
47.7470,0.08,0.12,-0.99,3.48,2.20,1.71
47.7670,0.08,0.11,-0.99,3.17,2.32,1.71
47.7820,0.08,0.11,-0.99,3.30,2.01,1.71
47.8000,0.08,0.11,-0.99,3.30,2.44,1.83
47.8160,0.08,0.12,-0.99,3.30,2.44,1.89
47.8340,0.08,0.11,-0.99,3.30,2.38,1.89
47.8500,0.08,0.11,-0.99,3.42,2.32,1.83
47.8660,0.08,0.11,-0.99,3.17,2.26,1.71
47.8820,0.08,0.11,-0.99,3.11,2.32,1.95
47.8830,0.08,0.11,-0.99,3.36,2.38,1.83
47.9140,0.08,0.11,-0.99,3.36,2.44,1.77
47.9300,0.08,0.11,-0.99,3.42,2.32,1.77
47.9460,0.08,0.12,-0.99,3.36,2.14,1.83
47.9620,0.08,0.11,-0.99,3.23,2.32,1.89
47.9780,0.08,0.11,-0.99,3.17,2.56,1.77
47.9830,0.08,0.11,-0.99,3.36,2.01,1.77
47.9980,0.08,0.11,-0.99,3.30,2.26,1.71
48.0200,0.08,0.11,-0.99,3.30,2.56,1.83
48.0360,0.08,0.11,-0.99,3.36,2.08,1.89
48.0530,0.08,0.11,-0.99,3.23,2.69,1.89
48.0710,0.08,0.11,-0.99,3.23,2.32,1.95
48.0870,0.08,0.11,-0.99,3.42,2.56,1.83
48.1030,0.08,0.11,-0.99,3.30,2.44,2.01
48.1040,0.08,0.11,-0.99,3.42,2.44,1.95
48.1340,0.08,0.11,-0.99,3.36,2.38,1.83
48.1500,0.08,0.11,-0.99,3.36,2.69,1.95
48.1660,0.08,0.11,-0.99,3.23,2.69,1.77
48.1820,0.08,0.11,-0.99,3.17,2.38,1.89
48.1980,0.08,0.11,-0.99,3.54,2.50,1.77
48.2130,0.08,0.11,-0.99,3.42,2.56,1.83
