Timestamp, AccX, AccY, AccZ, GyroX, GyroY, GyroZ
0.0110,0.07,0.13,-0.98,3.05,2.56,1.83
0.0260,0.07,0.13,-0.98,2.75,3.17,1.95
0.0410,0.07,0.13,-0.99,2.93,3.17,1.95
0.0550,0.07,0.13,-0.98,2.93,3.23,2.08
0.0660,0.07,0.13,-0.98,2.87,2.93,2.08
0.0830,0.08,0.12,-0.98,2.62,2.87,4.27
0.1000,0.08,0.12,-0.98,2.93,2.93,2.75
0.1150,0.07,0.13,-0.98,3.17,2.62,1.77
0.1180,0.07,0.12,-0.98,3.17,3.11,1.89
0.1450,0.07,0.13,-0.99,2.87,2.93,1.89
0.1610,0.07,0.13,-0.98,3.05,2.99,1.77
0.1760,0.07,0.13,-0.98,2.99,3.05,1.83
0.1900,0.07,0.13,-0.98,2.93,3.17,1.83
0.2050,0.07,0.13,-0.98,2.99,3.23,1.89
0.2160,0.07,0.13,-0.98,3.17,2.99,1.83
0.2330,0.07,0.13,-0.98,2.99,2.93,1.95
0.2500,0.07,0.13,-0.98,3.11,3.05,1.77
0.2660,0.07,0.13,-0.98,2.93,3.11,2.01
0.2810,0.07,0.13,-0.98,3.11,3.11,1.89
0.2960,0.07,0.13,-0.98,2.93,3.11,1.89
0.3120,0.07,0.13,-0.98,3.11,3.11,1.77
0.3280,0.07,0.13,-0.98,2.99,2.75,1.89
0.3330,0.07,0.13,-0.98,3.05,3.17,2.08
0.3490,0.07,0.13,-0.98,2.99,3.05,2.32
0.3680,0.07,0.13,-0.98,3.05,3.23,2.01
0.3850,0.07,0.13,-0.98,3.11,2.75,1.95
0.4010,0.07,0.13,-0.98,2.87,2.99,1.83
0.4180,0.07,0.13,-0.98,2.99,2.87,1.95
0.4350,0.07,0.13,-0.98,2.93,2.93,1.83
0.4500,0.07,0.12,-0.98,3.11,2.99,2.26
0.4660,0.07,0.13,-0.98,3.17,2.62,2.14
0.4810,0.07,0.13,-0.98,3.17,2.81,1.95
0.4970,0.07,0.13,-0.98,2.99,3.05,2.01
0.5060,0.07,0.13,-0.98,2.99,3.05,2.08
0.5260,0.07,0.13,-0.98,2.93,2.93,2.26
0.5420,0.07,0.13,-0.98,3.05,2.99,2.26
0.5520,0.07,0.13,-0.98,3.17,2.50,2.08
0.5680,0.07,0.13,-0.98,2.99,3.11,2.26
0.5850,0.07,0.13,-0.98,3.05,2.87,2.20
0.6020,0.07,0.13,-0.98,2.99,2.81,2.01
0.6180,0.07,0.13,-0.98,3.05,2.99,1.89
0.6330,0.07,0.13,-0.98,2.93,3.36,2.01
0.6470,0.07,0.13,-0.98,3.05,2.93,2.14
0.6630,0.07,0.13,-0.98,3.05,2.56,1.95
0.6780,0.07,0.13,-0.98,3.23,2.99,2.14
0.6950,0.07,0.13,-0.98,3.11,3.17,1.95
0.7110,0.07,0.13,-0.99,3.17,2.75,1.95
0.7180,0.07,0.13,-0.98,2.87,3.05,1.95
0.7340,0.07,0.13,-0.98,2.81,3.05,1.89
0.7540,0.07,0.13,-0.98,2.87,2.62,1.89
0.7710,0.07,0.13,-0.98,3.17,2.81,1.89
0.7880,0.07,0.13,-0.98,3.05,2.87,1.83
0.8040,0.07,0.13,-0.98,2.99,2.81,1.89
0.8190,0.07,0.13,-0.98,2.87,2.93,1.89
0.8350,0.07,0.13,-0.98,3.11,2.87,1.89
0.8510,0.07,0.13,-0.98,3.11,2.93,1.77
0.8670,0.07,0.13,-0.98,3.11,2.87,1.83
0.8820,0.07,0.13,-0.98,3.05,2.69,1.77
0.8970,0.07,0.13,-0.98,2.87,2.99,1.71
0.9120,0.07,0.13,-0.98,2.99,2.69,1.77
0.9270,0.07,0.13,-0.98,2.99,2.75,1.95
0.9370,0.07,0.13,-0.98,3.05,3.11,1.89
0.9540,0.07,0.13,-0.98,2.99,3.11,1.71
0.9710,0.07,0.13,-0.98,2.93,2.99,1.77
0.9880,0.07,0.13,-0.98,2.93,3.30,1.95
1.0040,0.07,0.13,-0.98,2.93,2.99,1.65
1.0070,0.07,0.13,-0.98,3.05,2.62,1.77
1.0360,0.07,0.13,-0.98,3.05,3.17,2.08
1.0510,0.07,0.13,-0.98,2.93,2.99,1.95
1.0680,0.07,0.13,-0.98,3.05,2.99,2.08
1.0850,0.07,0.13,-0.98,2.87,2.99,2.01
1.1010,0.07,0.13,-0.98,2.87,2.75,1.95
1.1160,0.07,0.13,-0.98,2.99,2.81,1.89
1.1210,0.07,0.13,-0.98,2.99,3.05,2.01
1.1360,0.07,0.13,-0.98,3.11,2.99,1.95
1.1580,0.07,0.13,-0.98,2.87,3.23,1.89
1.1750,0.07,0.13,-0.98,2.87,2.99,1.83
1.1910,0.07,0.13,-0.98,2.81,2.69,1.89
1.2070,0.07,0.13,-0.98,3.17,2.75,1.95
1.2220,0.07,0.13,-0.98,3.17,2.75,1.89
1.2240,0.07,0.13,-0.98,2.93,3.36,1.95
1.2540,0.07,0.13,-0.98,2.81,2.81,1.95
1.2580,0.07,0.13,-0.98,3.05,2.56,1.95
1.2850,0.07,0.13,-0.98,3.05,2.81,1.83
1.3000,0.07,0.13,-0.98,2.99,2.75,1.83
1.3160,0.07,0.13,-0.98,2.99,2.81,1.89
1.3310,0.07,0.13,-0.98,2.99,3.17,2.08
1.3410,0.07,0.13,-0.98,3.05,2.69,1.89
1.3570,0.07,0.13,-0.98,3.05,2.93,2.01
1.3760,0.07,0.13,-0.98,2.93,2.87,1.89
1.3910,0.07,0.13,-0.98,2.93,2.56,1.95
1.4070,0.07,0.13,-0.98,2.99,2.75,1.89
1.4240,0.07,0.13,-0.98,3.05,2.56,1.77
1.4390,0.07,0.13,-0.98,3.11,2.99,1.77
1.4540,0.07,0.13,-0.98,3.36,2.69,1.71
1.4680,0.07,0.13,-0.98,3.30,2.75,1.89
1.4850,0.07,0.13,-0.99,3.11,2.93,1.83
1.5010,0.07,0.13,-0.98,2.99,2.87,1.71
1.5090,0.07,0.13,-0.98,3.11,2.93,1.95
1.5260,0.07,0.13,-0.98,3.23,2.93,2.01
1.5420,0.07,0.13,-0.98,3.05,2.99,1.95
1.5600,0.07,0.13,-0.98,2.99,2.56,1.77
1.5750,0.07,0.13,-0.98,3.05,3.36,1.71
1.5910,0.07,0.13,-0.98,3.05,3.17,1.77
1.6060,0.07,0.13,-0.98,3.17,3.11,1.95
1.6200,0.07,0.13,-0.98,3.11,2.87,1.89
1.6360,0.07,0.13,-0.98,2.99,3.30,1.89
1.6510,0.07,0.13,-0.98,2.93,3.17,1.83
1.6660,0.07,0.13,-0.98,3.11,3.05,1.89
1.6810,0.07,0.13,-0.98,3.11,2.81,1.89
1.6920,0.07,0.13,-0.98,3.17,2.93,1.83
1.7090,0.07,0.13,-0.98,2.93,2.93,1.89
1.7260,0.07,0.13,-0.98,2.93,2.93,1.83
1.7410,0.07,0.13,-0.98,2.93,2.81,1.77
1.7580,0.07,0.13,-0.98,3.05,3.17,1.95
1.7750,0.07,0.13,-0.98,3.11,2.87,1.83
1.7910,0.07,0.13,-0.98,2.87,3.11,1.95
1.8060,0.07,0.13,-0.98,3.11,2.87,1.83
1.8220,0.07,0.13,-0.98,3.05,2.99,1.77
1.8380,0.07,0.13,-0.98,3.11,2.93,1.77
1.8530,0.07,0.13,-0.98,2.99,3.05,1.89
1.8680,0.07,0.13,-0.98,3.11,3.05,1.83
1.8850,0.07,0.13,-0.98,2.99,2.75,1.89
1.9000,0.07,0.13,-0.98,3.11,2.75,1.95
1.9150,0.07,0.13,-0.98,3.05,2.75,1.89
1.9260,0.07,0.13,-0.98,2.99,2.62,1.83
1.9420,0.07,0.13,-0.98,2.81,3.17,1.89
1.9590,0.07,0.13,-0.98,2.99,2.99,1.83
1.9760,0.07,0.13,-0.98,2.75,3.23,1.95
1.9920,0.07,0.13,-0.98,2.87,3.30,1.83
2.0070,0.07,0.13,-0.98,3.05,2.81,1.77
2.0230,0.07,0.13,-0.98,2.99,2.75,1.77
2.0250,0.07,0.13,-0.98,3.11,2.75,1.83
2.0530,0.07,0.13,-0.98,3.11,2.62,1.77
2.0600,0.07,0.13,-0.98,2.93,2.99,1.83
2.0830,0.07,0.13,-0.98,3.11,2.87,1.77
2.0940,0.07,0.13,-0.98,3.05,2.93,1.95
2.1100,0.07,0.13,-0.98,2.93,2.75,1.83
2.1250,0.07,0.13,-0.98,3.11,2.81,1.89
2.1440,0.07,0.13,-0.98,3.23,2.20,1.77
2.1590,0.07,0.13,-0.98,3.05,2.56,1.89
2.1620,0.07,0.13,-0.98,2.99,2.93,1.83
2.1900,0.07,0.13,-0.98,3.05,2.99,1.89
2.1970,0.07,0.13,-0.98,2.87,3.05,1.83
2.2210,0.07,0.13,-0.98,2.99,2.56,1.77
2.2360,0.07,0.13,-0.98,2.93,2.87,1.89
2.2510,0.07,0.13,-0.98,3.11,2.87,1.89
2.2630,0.07,0.13,-0.98,2.93,2.69,1.83
2.2790,0.07,0.13,-0.98,3.05,2.87,1.95
2.2970,0.07,0.13,-0.98,2.99,2.75,1.83
2.3120,0.07,0.13,-0.98,3.17,2.50,1.83
2.3290,0.07,0.13,-0.98,3.11,2.93,1.95
2.3450,0.07,0.13,-0.98,2.99,3.05,1.83
2.3600,0.07,0.13,-0.98,2.93,3.30,1.83
2.3630,0.07,0.13,-0.98,3.05,2.87,1.83
2.3910,0.07,0.13,-0.98,3.17,2.69,1.83
2.3990,0.07,0.13,-0.98,2.93,2.93,1.89
2.4160,0.07,0.13,-0.98,3.23,2.69,1.71
2.4320,0.07,0.13,-0.98,3.11,2.81,1.71
2.4490,0.07,0.13,-0.98,2.99,3.17,2.08
2.4670,0.07,0.13,-0.98,3.05,2.99,1.95
2.4820,0.07,0.13,-0.98,2.99,2.87,1.83
2.4980,0.07,0.13,-0.98,2.93,2.99,1.89
2.5120,0.07,0.13,-0.98,2.87,3.17,1.89
2.5160,0.07,0.13,-0.98,2.87,3.30,1.83
2.5320,0.07,0.13,-0.99,2.99,3.11,1.83
2.5490,0.07,0.13,-0.99,3.05,3.05,1.83
2.5640,0.07,0.13,-0.98,3.05,2.81,1.83
2.5900,0.07,0.13,-0.98,3.17,3.05,1.89
2.6000,0.07,0.13,-0.98,3.11,2.99,1.95
2.6170,0.07,0.13,-0.98,2.99,3.48,1.95
2.6330,0.07,0.13,-0.98,2.87,3.30,1.89
2.6500,0.07,0.13,-0.98,3.11,2.99,1.83
2.6670,0.07,0.13,-0.98,3.11,3.05,1.83
2.6840,0.07,0.13,-0.98,2.93,2.87,1.71
2.6990,0.07,0.13,-0.98,2.93,2.87,1.77
2.7150,0.07,0.13,-0.98,2.99,2.93,1.83
2.7180,0.07,0.13,-0.98,3.11,2.93,1.89
2.7470,0.07,0.13,-0.98,3.17,2.87,1.83
2.7630,0.07,0.13,-0.98,2.99,2.56,1.89
2.7670,0.07,0.13,-0.98,2.87,3.23,1.89
2.7820,0.07,0.13,-0.98,2.93,3.05,1.89
2.8090,0.07,0.13,-0.98,2.99,2.93,1.83
2.8260,0.07,0.13,-0.98,3.11,2.62,1.89
2.8390,0.07,0.13,-0.98,3.05,3.05,1.89
2.8540,0.07,0.13,-0.98,3.05,2.62,1.77
2.8720,0.07,0.13,-0.98,2.99,2.87,1.95
2.8880,0.07,0.13,-0.98,3.05,2.93,1.83
2.9040,0.07,0.13,-0.98,3.05,3.05,1.95
2.9100,0.07,0.13,-0.98,2.99,2.87,1.83
2.9350,0.07,0.13,-0.98,3.11,3.30,1.83
2.9500,0.07,0.13,-0.98,3.17,2.99,1.83
2.9610,0.07,0.13,-0.98,2.99,2.81,1.83
2.9780,0.07,0.13,-0.98,2.87,3.11,1.89
2.9950,0.07,0.13,-0.98,2.99,2.93,1.89
3.0110,0.07,0.13,-0.98,3.05,2.87,1.89
3.0280,0.07,0.13,-0.98,3.11,2.87,1.83
3.0440,0.07,0.13,-0.98,2.87,3.23,1.83
3.0600,0.07,0.13,-0.98,2.99,2.99,1.77
3.0760,0.07,0.13,-0.98,3.05,2.62,1.89
3.0930,0.07,0.13,-0.98,2.81,3.17,1.83
3.1080,0.07,0.13,-0.98,3.17,3.05,1.83
3.1230,0.07,0.13,-0.98,3.05,3.05,1.83
3.1380,0.07,0.13,-0.98,3.17,3.05,1.83
3.1440,0.07,0.13,-0.98,3.11,2.87,1.83
3.1690,0.07,0.13,-0.98,3.05,2.87,1.89
3.1790,0.07,0.13,-0.98,3.30,2.81,1.95
3.1950,0.07,0.13,-0.98,2.87,3.54,1.89
3.2120,0.07,0.13,-0.98,3.17,2.93,1.89
3.2280,0.07,0.13,-0.98,3.17,2.75,1.83
3.2450,0.07,0.13,-0.98,3.23,2.99,1.83
3.2610,0.07,0.13,-0.98,2.99,2.93,1.77
3.2760,0.07,0.13,-0.98,2.99,3.11,1.89
3.2910,0.07,0.13,-0.98,2.93,3.17,1.83
3.2950,0.07,0.13,-0.98,2.99,2.87,1.83
3.3110,0.07,0.13,-0.98,2.87,3.05,1.77
3.3380,0.07,0.13,-0.98,2.99,2.93,1.83
3.3490,0.07,0.13,-0.98,2.93,3.17,1.71
3.3660,0.07,0.13,-0.98,2.87,3.17,1.83
3.3820,0.07,0.13,-0.98,2.93,2.75,1.77
3.4000,0.07,0.13,-0.98,2.99,3.11,1.89
3.4160,0.07,0.13,-0.98,3.05,2.87,1.83
3.4320,0.07,0.13,-0.98,3.05,2.99,1.89
3.4480,0.07,0.13,-0.98,2.87,2.99,1.95
3.4640,0.07,0.13,-0.98,2.99,2.93,1.77
3.4810,0.07,0.13,-0.98,3.11,2.87,1.95
3.4830,0.07,0.13,-0.98,2.99,2.75,1.83
3.5100,0.07,0.13,-0.98,2.99,2.69,1.89
3.5280,0.07,0.13,-0.98,2.93,3.11,1.89
3.5390,0.07,0.13,-0.98,2.99,2.87,1.83
3.5560,0.07,0.13,-0.98,2.99,2.62,1.89
3.5720,0.07,0.13,-0.98,3.23,2.62,1.89
3.5910,0.07,0.13,-0.98,2.93,3.05,1.95
3.6060,0.07,0.13,-0.98,2.99,3.05,1.89
3.6210,0.07,0.13,-0.98,2.93,2.56,1.83
3.6370,0.07,0.13,-0.98,3.05,3.05,1.95
3.6520,0.07,0.13,-0.98,2.81,3.11,1.77
3.6690,0.07,0.13,-0.98,2.93,2.62,1.77
3.6840,0.07,0.13,-0.98,3.11,2.75,1.83
3.6980,0.07,0.13,-0.98,3.11,2.99,1.77
3.7100,0.07,0.13,-0.98,3.05,2.87,1.77
3.7250,0.07,0.13,-0.98,3.05,2.87,1.83
3.7440,0.07,0.13,-0.98,2.93,2.75,1.77
3.7600,0.07,0.13,-0.98,2.81,2.81,1.83
3.7660,0.07,0.13,-0.98,2.93,2.50,1.77
3.7810,0.07,0.13,-0.98,2.93,2.75,1.83
3.8030,0.07,0.13,-0.98,2.81,3.05,1.71
3.8190,0.07,0.13,-0.98,3.05,2.81,1.83
3.8350,0.07,0.13,-0.98,2.93,3.05,1.77
3.8520,0.07,0.13,-0.98,3.11,2.75,1.77
3.8690,0.07,0.13,-0.98,3.05,2.99,2.01
3.8850,0.07,0.13,-0.98,3.11,2.87,1.83
3.9020,0.07,0.13,-0.98,3.05,2.62,1.89
3.9180,0.07,0.13,-0.98,2.99,2.99,1.89
3.9340,0.07,0.13,-0.98,2.93,2.69,1.77
3.9500,0.07,0.13,-0.98,3.11,2.62,1.83
3.9530,0.07,0.13,-0.98,2.99,2.62,1.89
3.9690,0.07,0.13,-0.98,2.87,3.17,1.83
3.9970,0.07,0.13,-0.98,2.99,2.99,1.77
4.0110,0.07,0.13,-0.98,2.93,3.17,1.83
4.0180,0.07,0.13,-0.98,2.81,3.05,1.89
4.0400,0.07,0.13,-0.98,2.99,3.17,1.95
4.0570,0.07,0.13,-0.98,2.93,2.93,1.89
4.0730,0.07,0.13,-0.98,3.05,3.17,2.01
4.0890,0.07,0.13,-0.98,2.99,2.93,1.77
4.1050,0.07,0.13,-0.98,2.75,2.81,1.71
4.1210,0.07,0.13,-0.98,2.87,2.75,1.89
4.1370,0.07,0.13,-0.98,2.93,2.93,1.89
4.1530,0.07,0.13,-0.98,3.11,2.99,1.65
4.1680,0.07,0.13,-0.98,2.87,2.87,1.89
4.1850,0.07,0.13,-0.98,2.75,2.62,1.65
4.2000,0.07,0.13,-0.98,2.93,2.87,1.77
4.2150,0.07,0.13,-0.98,2.93,3.17,1.89
4.2230,0.07,0.13,-0.98,3.05,2.75,1.83
4.2380,0.07,0.13,-0.98,3.23,2.81,1.83
4.2600,0.07,0.13,-0.98,3.11,2.81,1.77
4.2770,0.07,0.13,-0.99,3.11,3.05,1.77
4.2930,0.07,0.13,-0.98,2.81,2.99,1.83
4.3110,0.07,0.13,-0.98,2.93,2.93,1.89
4.3270,0.07,0.13,-0.98,3.05,2.69,1.71
4.3430,0.07,0.13,-0.98,3.05,3.17,1.89
4.3590,0.07,0.13,-0.98,3.11,2.81,1.77
4.3750,0.07,0.13,-0.98,2.99,2.81,1.83
4.3900,0.07,0.13,-0.98,3.11,3.23,1.95
4.4050,0.07,0.13,-0.98,2.87,3.11,1.77
4.4210,0.07,0.13,-0.98,3.11,2.62,1.71
4.4360,0.07,0.13,-0.98,2.87,3.11,1.89
4.4530,0.07,0.13,-0.98,2.75,2.93,1.71
4.4600,0.07,0.13,-0.98,2.81,2.75,1.77
4.4750,0.07,0.13,-0.98,2.87,2.69,1.77
4.4960,0.07,0.13,-0.98,3.17,2.44,1.83
4.5140,0.07,0.13,-0.98,3.05,3.05,1.77
4.5290,0.07,0.13,-0.98,3.05,2.75,1.71
4.5460,0.07,0.13,-0.98,2.99,2.93,1.83
4.5620,0.07,0.13,-0.98,3.05,2.75,1.65
4.5770,0.07,0.13,-0.98,3.11,2.44,1.77
4.5800,0.07,0.13,-0.98,3.17,2.87,1.65
4.6100,0.07,0.13,-0.98,3.05,2.99,1.83
4.6260,0.07,0.13,-0.98,3.05,3.11,1.71
4.6340,0.07,0.13,-0.98,2.99,3.05,1.59
4.6500,0.07,0.13,-0.98,2.81,2.99,1.77
4.6670,0.07,0.13,-0.98,2.93,3.17,1.95
4.6840,0.07,0.13,-0.98,3.05,2.81,1.89
4.7010,0.07,0.13,-0.98,2.99,3.05,1.83
4.7170,0.07,0.13,-0.98,2.93,3.36,1.89
4.7350,0.07,0.13,-0.98,3.11,2.93,1.77
4.7510,0.07,0.13,-0.98,3.05,2.93,1.95
4.7680,0.07,0.13,-0.98,2.93,2.99,1.83
4.7840,0.07,0.13,-0.98,2.99,3.11,1.83
4.8000,0.07,0.13,-0.98,2.99,2.62,1.83
4.8150,0.07,0.13,-0.98,2.99,2.93,1.83
4.8310,0.07,0.13,-0.98,2.99,2.99,1.83
4.8340,0.07,0.13,-0.98,2.81,2.99,1.83
4.8500,0.07,0.13,-0.98,3.11,2.93,1.65
4.8740,0.07,0.13,-0.98,2.93,3.05,1.89
4.8910,0.07,0.13,-0.98,2.99,3.05,1.83
4.9070,0.07,0.13,-0.98,2.81,2.99,1.83
4.9230,0.07,0.13,-0.98,3.11,2.69,1.89
4.9400,0.07,0.13,-0.98,2.87,2.69,1.83
4.9560,0.07,0.13,-0.98,2.87,3.05,1.89
4.9710,0.07,0.13,-0.98,2.93,2.81,1.65
4.9860,0.07,0.13,-0.98,2.93,2.44,1.77
5.0020,0.07,0.13,-0.98,2.99,2.75,1.83
5.0180,0.07,0.13,-0.98,2.99,2.87,1.71
5.0340,0.07,0.13,-0.98,2.87,3.11,1.65
5.0490,0.07,0.13,-0.98,2.99,2.87,1.83
5.0640,0.07,0.13,-0.98,3.05,2.56,1.71
5.0790,0.07,0.13,-0.98,2.87,3.11,1.83
5.0900,0.07,0.13,-0.98,2.87,3.05,1.71
5.1060,0.07,0.13,-0.98,2.99,3.05,1.77
5.1230,0.07,0.13,-0.98,2.93,3.17,1.83
5.1390,0.07,0.13,-0.98,3.05,2.87,1.71
5.1540,0.07,0.13,-0.98,3.11,2.87,1.89
5.1700,0.07,0.13,-0.98,2.81,3.05,1.83
5.1860,0.07,0.13,-0.98,3.05,2.99,1.83
5.1900,0.07,0.13,-0.98,2.93,2.87,1.83
5.2130,0.07,0.13,-0.98,3.05,2.99,1.89
5.2280,0.07,0.13,-0.98,2.99,2.81,1.71
5.2440,0.07,0.13,-0.98,2.87,3.05,1.83
5.2620,0.07,0.13,-0.98,2.81,3.05,1.95
5.2770,0.07,0.13,-0.98,2.93,2.99,1.71
5.2920,0.07,0.13,-0.98,2.87,2.62,1.77
5.2990,0.07,0.13,-0.98,3.05,2.87,1.71
5.3170,0.07,0.13,-0.98,2.93,2.56,1.65
5.3330,0.07,0.13,-0.98,2.87,2.38,1.77
5.3490,0.07,0.13,-0.98,2.99,2.99,1.77
5.3700,0.07,0.13,-0.98,2.81,3.11,1.83
5.3860,0.07,0.13,-0.98,3.11,2.87,1.89
5.4030,0.07,0.13,-0.98,3.11,2.81,1.89
5.4180,0.07,0.13,-0.98,2.93,2.87,1.71
5.4340,0.07,0.13,-0.98,2.87,3.17,1.83
5.4500,0.07,0.13,-0.98,2.99,3.11,1.71
5.4660,0.07,0.13,-0.98,2.81,2.99,1.89
5.4820,0.07,0.13,-0.98,3.11,2.93,1.71
5.4980,0.07,0.13,-0.98,2.99,3.11,1.83
5.5040,0.07,0.13,-0.98,2.99,2.93,1.77
5.5210,0.07,0.13,-0.98,2.93,2.93,1.83
5.5370,0.07,0.13,-0.98,2.93,2.93,1.77
5.5570,0.07,0.13,-0.98,2.87,2.99,1.77
5.5730,0.07,0.13,-0.98,2.81,3.17,1.77
5.5900,0.07,0.13,-0.98,2.99,2.93,1.77
5.6050,0.07,0.13,-0.99,2.87,3.05,1.71
5.6210,0.07,0.13,-0.98,2.99,2.99,1.65
5.6360,0.07,0.13,-0.98,2.93,3.17,1.83
5.6510,0.07,0.13,-0.98,3.11,2.99,1.83
5.6560,0.07,0.13,-0.98,3.05,2.87,1.89
5.6720,0.07,0.13,-0.98,3.05,2.93,1.89
5.6940,0.07,0.13,-0.98,2.87,2.93,1.89
5.7110,0.07,0.13,-0.98,3.11,3.23,1.95
5.7280,0.07,0.13,-0.98,3.11,3.05,1.83
5.7440,0.07,0.13,-0.98,3.05,2.99,1.77
5.7600,0.07,0.13,-0.98,3.05,3.11,1.77
5.7760,0.07,0.13,-0.98,3.05,2.69,1.83
5.7910,0.07,0.13,-0.98,2.93,3.05,1.83
5.8060,0.07,0.13,-0.98,2.87,2.99,1.89
5.8140,0.07,0.13,-0.98,2.81,3.23,2.01
5.8260,0.07,0.13,-0.98,2.93,2.87,2.08
5.8490,0.07,0.13,-0.99,3.11,2.62,1.95
5.8680,0.07,0.13,-0.98,3.17,2.81,1.77
5.8820,0.07,0.13,-0.98,2.81,3.30,2.01
5.9000,0.07,0.13,-0.98,3.17,2.87,1.95
5.9160,0.07,0.13,-0.98,2.99,2.87,2.01
5.9320,0.07,0.13,-0.98,2.87,3.17,2.01
5.9480,0.07,0.13,-0.98,2.99,2.99,1.95
5.9640,0.07,0.13,-0.98,3.05,3.11,1.77
5.9800,0.07,0.13,-0.98,3.17,2.93,1.89
5.9960,0.07,0.13,-0.98,3.11,2.81,1.95
6.0110,0.07,0.13,-0.98,2.99,2.99,1.89
6.0270,0.07,0.13,-0.98,2.93,2.93,2.75
6.0330,0.07,0.13,-0.98,2.93,2.69,2.38
6.0490,0.07,0.12,-0.98,2.93,2.93,2.32
6.0700,0.07,0.13,-0.98,2.93,2.99,2.44
6.0870,0.07,0.13,-0.98,3.05,2.81,1.77
6.1020,0.07,0.13,-0.98,2.99,2.75,2.01
6.1180,0.07,0.13,-0.98,2.87,2.69,2.14
6.1210,0.07,0.13,-0.98,2.87,2.93,2.44
6.1500,0.07,0.12,-0.98,2.99,2.81,2.44
6.1650,0.07,0.13,-0.98,2.99,2.87,2.14
6.1820,0.07,0.13,-0.98,2.93,2.69,2.01
6.1870,0.07,0.13,-0.98,2.99,2.69,1.95
6.2030,0.07,0.13,-0.98,3.11,2.87,1.83
6.2240,0.07,0.13,-0.98,2.99,2.99,2.01
6.2400,0.07,0.13,-0.98,2.99,3.11,1.89
6.2570,0.07,0.13,-0.98,3.11,3.23,1.95
6.2730,0.07,0.13,-0.98,2.87,3.36,1.77
6.2880,0.07,0.13,-0.98,2.93,3.17,1.65
6.3040,0.07,0.13,-0.98,2.93,2.81,1.89
6.3190,0.07,0.13,-0.98,3.11,2.62,1.89
6.3350,0.07,0.13,-0.99,2.93,2.81,1.89
6.3510,0.07,0.13,-0.98,2.93,2.99,1.89
6.3660,0.07,0.13,-0.98,2.99,2.75,1.77
6.3810,0.07,0.13,-0.98,2.99,2.75,1.83
6.3910,0.07,0.13,-0.98,3.11,2.99,1.71
6.4070,0.07,0.13,-0.99,2.87,2.87,1.71
6.4240,0.07,0.13,-0.99,2.99,2.87,1.83
6.4410,0.07,0.13,-0.98,2.99,2.87,1.77
6.4570,0.07,0.13,-0.98,2.81,3.11,1.83
6.4720,0.07,0.13,-0.98,2.87,2.87,1.71
6.4880,0.07,0.13,-0.98,2.93,2.87,1.77
6.4900,0.07,0.13,-0.98,2.99,2.81,1.77
6.5150,0.07,0.13,-0.98,2.93,2.81,1.77
6.5280,0.07,0.13,-0.98,2.93,2.87,1.83
6.5440,0.07,0.13,-0.98,2.81,2.87,1.71
6.5610,0.07,0.13,-0.98,2.99,3.05,1.71
6.5780,0.07,0.13,-0.98,2.99,2.81,1.77
6.5950,0.07,0.13,-0.98,3.05,3.23,1.83
6.6120,0.07,0.13,-0.98,3.11,2.93,1.77
6.6270,0.07,0.13,-0.98,3.11,2.69,1.71
6.6440,0.07,0.13,-0.98,2.93,2.81,1.83
6.6600,0.07,0.13,-0.98,3.05,2.93,1.77
6.6750,0.07,0.13,-0.98,2.93,3.30,1.89
6.6900,0.07,0.13,-0.98,2.99,2.81,1.89
6.7060,0.07,0.13,-0.98,2.99,2.99,1.89
6.7150,0.07,0.13,-0.98,2.87,3.30,1.89
6.7270,0.07,0.13,-0.98,2.81,3.11,1.77
6.7510,0.07,0.13,-0.98,3.17,2.93,1.89
6.7680,0.07,0.13,-0.98,2.99,3.23,1.77
6.7830,0.07,0.13,-0.98,3.17,2.87,1.83
6.7990,0.07,0.13,-0.98,2.99,2.81,1.83
6.8160,0.07,0.13,-0.98,2.99,2.87,1.89
6.8320,0.07,0.13,-0.98,2.99,3.05,1.89
6.8340,0.07,0.12,-0.98,2.99,2.93,2.08
6.8500,0.07,0.13,-0.98,3.23,2.75,1.95
6.8790,0.07,0.13,-0.98,2.99,2.93,1.89
6.8940,0.07,0.13,-0.98,3.05,3.11,2.01
6.9060,0.07,0.13,-0.98,2.99,2.93,1.89
6.9220,0.07,0.13,-0.98,2.87,3.05,1.77
6.9390,0.07,0.13,-0.98,2.69,2.99,2.14
6.9540,0.07,0.13,-0.99,2.99,2.75,1.95
6.9700,0.07,0.13,-0.98,2.93,2.93,1.83
6.9860,0.07,0.13,-0.98,2.99,2.93,1.89
7.0020,0.07,0.13,-0.98,3.05,2.81,1.77
7.0180,0.07,0.13,-0.98,2.99,3.11,1.95
7.0340,0.07,0.13,-0.98,2.87,2.87,1.89
7.0500,0.07,0.13,-0.98,2.99,3.05,2.14
7.0550,0.07,0.13,-0.98,2.99,2.81,1.95
7.0700,0.07,0.13,-0.98,2.99,2.99,1.89
7.0930,0.07,0.13,-0.98,2.93,3.17,2.01
7.1100,0.07,0.13,-0.98,2.99,2.62,1.83
7.1270,0.07,0.13,-0.98,2.93,3.23,1.89
7.1430,0.07,0.13,-0.98,2.93,3.17,1.95
7.1600,0.07,0.13,-0.98,3.05,3.17,1.83
7.1760,0.07,0.13,-0.98,2.87,2.75,1.95
7.1920,0.07,0.13,-0.98,2.81,2.87,1.71
7.2070,0.07,0.13,-0.98,2.93,2.87,1.83
7.2220,0.07,0.13,-0.98,2.93,2.62,1.83
7.2270,0.07,0.13,-0.98,2.81,3.23,1.83
7.2420,0.07,0.13,-0.98,2.99,3.05,1.89
7.2640,0.07,0.13,-0.98,3.11,2.81,1.95
7.2800,0.07,0.13,-0.98,3.11,2.93,1.89
7.2980,0.07,0.13,-0.98,2.99,2.93,1.83
7.3130,0.07,0.13,-0.98,3.05,2.69,1.77
7.3300,0.07,0.13,-0.98,2.99,3.05,1.77
7.3460,0.07,0.13,-0.98,3.05,2.99,1.77
7.3480,0.07,0.13,-0.98,3.17,2.87,1.89
7.3650,0.07,0.13,-0.98,2.99,2.81,1.83
7.3810,0.07,0.13,-0.98,2.99,2.81,1.77
7.3970,0.07,0.13,-0.98,3.05,2.56,1.95
7.4240,0.07,0.13,-0.98,2.99,2.62,1.83
7.4350,0.07,0.13,-0.98,2.99,2.99,1.89
7.4510,0.07,0.13,-0.98,3.05,3.05,1.89
7.4680,0.07,0.13,-0.98,2.99,2.87,1.77
7.4850,0.07,0.13,-0.98,3.05,2.75,1.65
7.5010,0.07,0.13,-0.98,2.99,2.93,1.83
7.5170,0.07,0.13,-0.98,2.87,3.05,1.77
7.5320,0.07,0.13,-0.98,3.05,2.99,1.89
7.5470,0.07,0.13,-0.98,3.30,2.62,1.77
7.5520,0.07,0.13,-0.98,3.11,2.75,1.95
7.5670,0.07,0.13,-0.98,3.17,2.81,1.95
7.5920,0.07,0.13,-0.98,2.99,2.81,1.95
7.6080,0.07,0.13,-0.98,2.99,2.93,1.77
7.6230,0.07,0.13,-0.98,2.87,2.99,1.77
7.6380,0.07,0.13,-0.98,3.11,3.23,1.89
7.6530,0.07,0.13,-0.98,3.05,2.93,1.89
7.6580,0.07,0.13,-0.98,3.23,2.32,1.83
7.6740,0.07,0.13,-0.99,3.05,2.50,1.89
7.6940,0.07,0.13,-0.98,3.17,2.56,1.71
7.7100,0.07,0.13,-0.98,3.11,2.32,1.65
7.7270,0.07,0.13,-0.98,3.11,2.56,1.77
7.7450,0.07,0.13,-0.98,2.87,3.05,1.83
7.7600,0.07,0.13,-0.98,3.17,3.05,1.89
7.7770,0.07,0.13,-0.98,2.99,2.81,1.83
7.7920,0.07,0.13,-0.98,3.11,2.87,1.71
7.8070,0.07,0.13,-0.98,3.23,2.38,1.71
7.8220,0.07,0.13,-0.98,3.05,2.44,1.65
7.8380,0.07,0.13,-0.98,3.11,3.05,1.65
7.8540,0.07,0.13,-0.98,3.17,2.87,1.89
7.8700,0.07,0.13,-0.98,3.11,2.75,2.01
7.8840,0.07,0.13,-0.98,3.05,2.93,1.77
7.9000,0.07,0.13,-0.98,3.05,2.81,1.77
7.9100,0.07,0.13,-0.98,3.05,2.69,1.83
7.9280,0.07,0.13,-0.98,2.93,2.69,1.89
7.9450,0.07,0.13,-0.98,3.11,2.69,1.83
7.9590,0.07,0.13,-0.98,3.05,2.81,2.01
7.9740,0.07,0.13,-0.98,3.05,2.38,2.01
7.9900,0.07,0.13,-0.98,2.99,2.44,1.89
8.0050,0.07,0.13,-0.98,2.81,2.75,1.77
8.0170,0.07,0.13,-0.98,3.11,2.69,1.83
8.0260,0.07,0.13,-0.98,3.11,2.87,1.77
8.0470,0.07,0.13,-0.98,2.99,3.11,1.71
8.0650,0.07,0.13,-0.98,3.05,2.99,1.77
8.0810,0.07,0.13,-0.98,3.05,2.81,1.83
8.0970,0.07,0.13,-0.98,2.93,2.99,1.83
8.0980,0.07,0.13,-0.98,2.87,2.81,1.89
8.1170,0.07,0.13,-0.98,3.05,2.81,1.77
8.1310,0.07,0.13,-0.98,3.05,2.93,1.83
8.1610,0.07,0.13,-0.99,3.11,2.87,1.89
8.1640,0.07,0.13,-0.98,2.99,2.44,1.71
8.1930,0.07,0.13,-0.98,3.05,2.44,1.83
8.2080,0.07,0.13,-0.98,3.05,2.69,1.71
8.2170,0.07,0.13,-0.98,2.93,3.11,1.83
8.2320,0.07,0.13,-0.98,2.99,2.75,1.89
8.2510,0.07,0.13,-0.98,2.99,2.93,1.77
8.2670,0.07,0.13,-0.98,3.05,2.62,1.77
8.2840,0.07,0.13,-0.98,2.93,2.99,1.77
8.3000,0.07,0.13,-0.98,2.99,2.75,1.65
8.3150,0.07,0.13,-0.98,2.99,2.99,1.71
8.3310,0.07,0.13,-0.98,3.05,2.56,1.89
8.3350,0.07,0.13,-0.98,2.93,2.56,1.89
8.3500,0.07,0.13,-0.98,2.81,2.69,1.83
8.3720,0.07,0.13,-0.98,2.93,2.87,1.77
8.3890,0.07,0.13,-0.98,3.17,2.69,1.89
8.4050,0.07,0.13,-0.98,3.17,2.75,1.83
8.4210,0.07,0.13,-0.98,3.23,2.93,1.95
8.4380,0.07,0.13,-0.98,2.99,3.05,2.01
8.4430,0.07,0.13,-0.98,2.99,3.05,1.95
8.4600,0.07,0.13,-0.98,3.05,2.99,1.89
8.4760,0.07,0.13,-0.98,2.99,2.75,2.08
8.4950,0.07,0.13,-0.98,2.99,2.99,1.89
8.5110,0.07,0.13,-0.98,2.87,2.93,1.95
8.5280,0.07,0.13,-0.98,2.87,2.87,1.95
8.5440,0.07,0.13,-0.98,2.93,2.87,1.77
8.5610,0.07,0.13,-0.98,3.11,2.81,1.95
8.5780,0.07,0.13,-0.98,2.99,2.81,2.08
8.5940,0.07,0.12,-0.98,2.93,3.17,1.95
8.6100,0.07,0.13,-0.98,3.05,3.17,1.95
8.6270,0.07,0.13,-0.98,3.11,2.81,1.95
8.6420,0.07,0.13,-0.98,2.99,2.99,1.89
8.6450,0.07,0.13,-0.98,2.87,3.30,1.95
8.6610,0.07,0.13,-0.98,2.99,3.05,1.83
8.6840,0.07,0.13,-0.98,3.17,2.87,1.89
8.7020,0.07,0.13,-0.98,2.99,2.81,1.83
8.7180,0.07,0.13,-0.98,2.81,3.11,1.77
8.7330,0.07,0.13,-0.98,3.05,2.99,1.95
8.7490,0.07,0.13,-0.98,2.87,3.05,1.89
8.7660,0.07,0.13,-0.98,3.11,3.17,1.89
8.7830,0.07,0.13,-0.98,2.99,3.05,1.77
8.7980,0.07,0.13,-0.98,2.93,2.93,1.95
8.8150,0.07,0.13,-0.98,2.87,2.93,1.95
8.8300,0.07,0.13,-0.98,3.05,3.05,1.95
8.8340,0.07,0.13,-0.98,2.87,2.87,1.95
8.8500,0.07,0.13,-0.98,2.93,2.62,1.77
8.8710,0.07,0.13,-0.98,3.17,2.38,1.71
8.8890,0.07,0.13,-0.98,3.11,2.69,1.89
8.9040,0.07,0.13,-0.98,2.99,3.05,1.77
8.9220,0.07,0.13,-0.98,3.23,2.69,1.89
8.9370,0.07,0.13,-0.98,2.93,2.69,1.95
8.9540,0.07,0.13,-0.98,2.75,2.99,1.89
8.9580,0.07,0.13,-0.99,3.05,2.81,1.71
8.9740,0.07,0.13,-0.98,3.05,3.30,1.89
8.9960,0.07,0.13,-0.98,2.87,2.87,2.01
9.0130,0.07,0.13,-0.98,3.11,2.69,1.89
9.0290,0.07,0.13,-0.98,3.11,2.99,1.95
9.0460,0.07,0.13,-0.98,2.93,2.75,1.89
9.0610,0.07,0.13,-0.98,2.99,2.87,1.77
9.0780,0.07,0.13,-0.98,2.93,2.93,1.89
9.0930,0.07,0.13,-0.98,3.17,2.87,1.95
9.1010,0.07,0.13,-0.98,3.17,2.62,1.83
9.1180,0.07,0.13,-0.99,2.99,3.17,1.83
9.1340,0.07,0.13,-0.98,2.93,3.17,1.71
9.1510,0.07,0.13,-0.98,3.05,2.99,1.77
9.1680,0.07,0.13,-0.98,3.05,2.81,1.89
9.1840,0.07,0.13,-0.98,3.05,2.87,1.83
9.2020,0.07,0.13,-0.98,2.99,2.99,1.83
9.2180,0.07,0.13,-0.98,3.05,2.87,1.95
9.2340,0.07,0.13,-0.98,2.93,3.17,1.89
9.2500,0.07,0.13,-0.98,3.17,2.69,1.95
9.2670,0.07,0.13,-0.98,2.99,3.23,1.95
9.2690,0.07,0.13,-0.98,2.93,2.87,1.71
9.2980,0.07,0.13,-0.98,2.93,3.05,1.95
9.3150,0.07,0.13,-0.98,2.87,2.99,1.89
9.3310,0.07,0.13,-0.98,2.93,3.60,2.01
9.3460,0.07,0.13,-0.98,2.87,3.17,1.89
9.3630,0.07,0.13,-0.98,2.99,2.87,1.71
9.3780,0.07,0.13,-0.98,2.81,3.17,1.77
9.3840,0.07,0.13,-0.98,2.87,3.54,1.95
9.4000,0.07,0.13,-0.98,3.11,3.23,1.83
9.4230,0.07,0.13,-0.98,2.99,3.17,1.77
9.4370,0.07,0.13,-0.98,2.99,2.99,1.83
9.4530,0.07,0.13,-0.98,2.81,2.93,1.83
9.4670,0.07,0.13,-0.98,3.05,2.69,1.77
9.4830,0.07,0.13,-0.98,3.05,2.81,1.89
9.4980,0.07,0.13,-0.98,3.05,2.87,1.83
9.5070,0.07,0.13,-0.98,2.99,2.99,1.95
9.5220,0.07,0.13,-0.98,2.87,2.69,1.89
9.5440,0.07,0.13,-0.98,2.93,3.17,1.83
9.5600,0.07,0.13,-0.98,2.99,3.54,1.95
9.5770,0.07,0.13,-0.98,3.17,3.11,1.95
9.5930,0.07,0.13,-0.98,2.99,2.93,1.77
9.6100,0.07,0.13,-0.98,2.87,3.36,1.89
9.6260,0.07,0.13,-0.98,2.87,3.30,1.89
9.6420,0.07,0.13,-0.98,3.11,3.17,1.83
9.6560,0.07,0.13,-0.98,3.17,3.23,1.89
9.6720,0.07,0.13,-0.98,3.17,2.87,1.83
9.6870,0.07,0.13,-0.98,3.17,3.11,1.89
9.7040,0.07,0.13,-0.98,3.17,2.93,1.89
9.7180,0.07,0.13,-0.98,3.05,3.05,1.95
9.7260,0.07,0.13,-0.98,2.93,2.93,1.89
9.7470,0.07,0.13,-0.98,2.93,3.23,1.89
9.7630,0.07,0.13,-0.98,2.99,3.42,1.83
9.7800,0.07,0.13,-0.98,3.05,3.11,1.83
9.7810,0.07,0.13,-0.98,2.99,2.93,1.83
9.7980,0.07,0.13,-0.98,2.99,3.05,1.83
9.8190,0.07,0.13,-0.98,3.23,2.87,1.95
9.8320,0.07,0.13,-0.98,3.23,2.99,1.89
9.8470,0.07,0.13,-0.98,2.99,3.23,1.95
9.8630,0.07,0.13,-0.98,2.99,2.87,2.01
9.8900,0.07,0.13,-0.98,2.99,2.93,2.01
9.9040,0.07,0.13,-0.98,2.75,2.99,1.89
9.9190,0.07,0.13,-0.98,2.93,3.05,1.95
9.9350,0.07,0.13,-0.98,2.87,3.11,2.01
9.9510,0.07,0.13,-0.98,2.87,3.30,1.89
9.9680,0.07,0.13,-0.98,2.87,3.23,1.89
9.9840,0.07,0.13,-0.98,2.99,3.11,1.95
10.0010,0.07,0.13,-0.98,3.11,2.69,1.83
10.0160,0.07,0.13,-0.98,3.05,2.75,1.83
10.0330,0.07,0.13,-0.98,2.93,3.23,1.89
10.0480,0.07,0.13,-0.98,3.05,2.81,1.77
10.0510,0.07,0.13,-0.98,2.87,2.56,1.71
10.0670,0.07,0.13,-0.98,3.05,2.99,1.89
10.0920,0.07,0.13,-0.98,3.11,3.11,1.89
10.1070,0.07,0.13,-0.98,3.05,3.23,1.95
10.1240,0.07,0.13,-0.98,3.05,3.30,1.77
10.1390,0.07,0.13,-0.98,3.05,3.36,1.89
10.1540,0.07,0.13,-0.98,2.93,3.17,2.08
10.1590,0.07,0.13,-0.98,2.93,3.48,2.08
10.1740,0.07,0.13,-0.98,3.11,3.11,1.95
10.1980,0.07,0.13,-0.98,2.99,3.23,2.08
10.2140,0.07,0.13,-0.98,3.23,2.93,1.89
10.2320,0.07,0.13,-0.98,3.17,3.11,1.89
10.2320,0.07,0.13,-0.98,3.05,2.81,1.83
10.2640,0.07,0.13,-0.98,2.93,3.11,1.83
10.2780,0.07,0.13,-0.99,3.23,2.87,1.83
10.2930,0.07,0.13,-0.98,3.05,2.87,1.77
10.2980,0.07,0.13,-0.98,2.99,2.87,1.95
10.3230,0.07,0.13,-0.98,3.11,3.30,2.01
10.3310,0.07,0.13,-0.98,2.87,3.11,1.95
10.3470,0.07,0.13,-0.98,2.87,3.42,1.83
10.3640,0.07,0.13,-0.98,2.99,2.62,1.71
10.3810,0.07,0.13,-0.98,2.99,2.87,1.89
10.3980,0.07,0.13,-0.98,2.93,3.05,1.89
10.4140,0.07,0.13,-0.98,2.81,3.23,1.89
10.4310,0.07,0.13,-0.98,3.17,3.17,1.77
10.4460,0.07,0.13,-0.98,2.99,3.36,1.77
10.4610,0.07,0.13,-0.98,3.17,3.30,1.95
10.4700,0.07,0.13,-0.98,2.99,3.30,1.83
10.4850,0.07,0.13,-0.98,2.87,3.36,1.89
10.5070,0.07,0.13,-0.98,3.17,2.81,1.83
10.5220,0.07,0.13,-0.98,3.05,2.75,1.77
10.5370,0.07,0.13,-0.98,2.93,2.99,1.95
10.5540,0.07,0.13,-0.98,2.87,3.11,1.83
10.5700,0.07,0.13,-0.98,3.05,3.23,1.77
10.5750,0.07,0.13,-0.98,2.81,2.99,1.89
10.5900,0.07,0.13,-0.98,3.11,3.05,1.95
10.6120,0.07,0.13,-0.98,3.05,2.81,1.83
10.6290,0.07,0.13,-0.98,3.11,2.99,1.71
10.6450,0.07,0.13,-0.98,2.99,3.23,1.71
10.6620,0.07,0.13,-0.98,2.99,2.99,1.77
10.6780,0.07,0.13,-0.98,2.87,2.87,1.83
10.6940,0.07,0.13,-0.98,2.99,2.87,1.77
10.7100,0.07,0.13,-0.98,2.99,3.30,1.95
10.7260,0.07,0.13,-0.98,3.05,3.05,1.95
10.7420,0.07,0.13,-0.98,3.05,2.81,1.83
10.7580,0.07,0.13,-0.98,3.05,2.81,1.83
10.7620,0.07,0.13,-0.98,3.05,2.99,1.89
10.7780,0.07,0.13,-0.98,2.99,3.36,1.83
10.8040,0.07,0.13,-0.98,3.11,2.75,1.77
10.8190,0.07,0.13,-0.98,3.30,3.11,1.95
10.8330,0.07,0.13,-0.98,3.05,3.23,1.89
10.8490,0.07,0.13,-0.98,3.11,3.05,1.83
10.8660,0.07,0.13,-0.98,2.93,2.75,1.83
10.8820,0.07,0.13,-0.98,3.17,3.17,1.95
10.8980,0.07,0.13,-0.98,2.99,2.99,1.83
10.9150,0.07,0.13,-0.98,2.81,3.23,1.83
10.9310,0.07,0.13,-0.98,3.05,2.87,1.95
10.9480,0.07,0.13,-0.98,3.17,3.05,1.95
10.9640,0.07,0.13,-0.98,3.11,3.11,1.89
10.9800,0.07,0.13,-0.98,2.93,2.81,1.83
10.9830,0.07,0.13,-0.98,3.17,3.05,2.01
10.9990,0.07,0.13,-0.98,3.17,3.11,1.95
11.0280,0.07,0.13,-0.98,2.93,2.81,1.71
11.0430,0.07,0.13,-0.98,2.81,3.05,1.95
11.0580,0.07,0.13,-0.98,3.11,2.75,2.08
11.0700,0.07,0.13,-0.98,2.87,2.81,2.87
11.0860,0.07,0.13,-0.98,2.93,2.93,2.56
11.1050,0.07,0.13,-0.98,2.93,2.44,2.56
11.1200,0.07,0.13,-0.98,2.75,2.99,3.17
11.1360,0.07,0.13,-0.98,2.75,2.93,3.30
11.1510,0.07,0.13,-0.98,3.05,3.30,3.05
11.1670,0.07,0.13,-0.98,2.99,2.87,3.17
11.1830,0.07,0.12,-0.98,2.87,2.81,3.30
11.1980,0.07,0.13,-0.98,2.87,2.87,3.17
11.2090,0.07,0.13,-0.98,2.87,2.81,3.72
11.2250,0.07,0.12,-0.98,2.87,2.56,3.54
11.2420,0.07,0.13,-0.98,2.99,2.81,2.87
11.2590,0.07,0.12,-0.98,2.87,2.75,2.75
11.2750,0.07,0.12,-0.98,2.87,2.87,2.26
11.2910,0.07,0.13,-0.98,2.87,3.23,2.32
11.3080,0.08,0.13,-0.98,2.99,2.69,2.62
11.3230,0.07,0.13,-0.98,2.69,2.99,2.99
11.3380,0.07,0.13,-0.98,2.62,2.69,3.17
11.3410,0.06,0.13,-0.98,2.81,2.69,3.42
11.3570,0.07,0.12,-0.98,2.87,2.75,3.17
11.3790,0.07,0.13,-0.98,2.93,2.93,2.14
11.3960,0.07,0.13,-0.98,2.93,3.17,2.08
11.4120,0.07,0.12,-0.98,2.99,2.93,1.95
11.4280,0.07,0.12,-0.98,3.05,2.56,1.89
11.4460,0.07,0.13,-0.98,2.99,3.17,1.83
11.4610,0.07,0.13,-0.98,2.93,2.99,1.83
11.4780,0.07,0.13,-0.98,2.93,2.87,1.83
11.4940,0.07,0.13,-0.98,2.93,2.99,1.77
11.5100,0.07,0.13,-0.98,2.93,3.23,1.83
11.5260,0.07,0.13,-0.98,3.05,2.81,2.01
11.5420,0.07,0.13,-0.98,3.05,2.69,1.71
11.5450,0.07,0.13,-0.98,2.99,3.23,1.83
11.5610,0.07,0.13,-0.98,2.87,2.93,1.83
11.5840,0.07,0.13,-0.98,2.75,3.48,1.89
11.6010,0.07,0.13,-0.98,3.11,3.23,1.83
11.6190,0.07,0.13,-0.98,2.99,2.93,1.77
11.6350,0.07,0.13,-0.98,2.99,3.36,1.89
11.6510,0.07,0.13,-0.98,3.05,3.17,1.95
11.6520,0.07,0.13,-0.98,2.99,3.23,2.01
11.6820,0.07,0.13,-0.98,2.93,2.87,1.89
11.6990,0.07,0.13,-0.98,2.99,2.75,1.89
11.7150,0.07,0.13,-0.98,3.05,3.11,1.89
11.7200,0.07,0.13,-0.98,2.99,3.17,1.95
11.7330,0.07,0.13,-0.98,2.87,2.99,2.08
11.7570,0.07,0.13,-0.98,3.05,2.99,1.77
11.7730,0.07,0.13,-0.98,2.93,3.17,1.89
11.7900,0.07,0.13,-0.98,2.99,2.99,1.77
11.8070,0.07,0.13,-0.98,2.99,2.99,1.83
11.8230,0.07,0.13,-0.98,2.99,3.17,1.83
11.8400,0.07,0.13,-0.98,2.93,3.30,1.89
11.8550,0.07,0.13,-0.98,3.11,2.93,1.89
11.8710,0.07,0.13,-0.98,2.93,3.11,1.77
11.8860,0.07,0.13,-0.98,3.05,2.93,1.83
11.9020,0.07,0.13,-0.98,2.93,3.17,1.89
11.9170,0.07,0.13,-0.98,2.99,2.93,1.95
11.9320,0.07,0.13,-0.98,3.11,3.11,1.83
11.9480,0.07,0.13,-0.98,3.05,2.93,1.83
11.9570,0.07,0.13,-0.98,2.99,3.05,2.01
11.9730,0.07,0.13,-0.98,2.99,3.23,2.01
11.9930,0.07,0.13,-0.98,2.93,3.05,1.83
12.0080,0.07,0.13,-0.98,2.87,2.99,1.83
12.0240,0.07,0.13,-0.98,3.05,2.87,1.89
12.0400,0.07,0.13,-0.98,2.93,2.87,1.89
12.0460,0.07,0.13,-0.98,2.93,2.93,1.83
12.0620,0.07,0.13,-0.98,2.93,3.30,2.01
12.0830,0.07,0.13,-0.98,2.75,3.23,1.89
12.0990,0.07,0.13,-0.98,2.69,2.81,1.83
12.1160,0.07,0.13,-0.98,2.99,2.99,1.89
12.1330,0.07,0.13,-0.98,3.23,2.87,1.83
12.1490,0.07,0.13,-0.98,3.11,3.05,1.89
12.1660,0.07,0.13,-0.98,2.99,3.05,1.89
12.1820,0.07,0.13,-0.98,3.05,3.11,1.83
12.1980,0.07,0.13,-0.98,2.87,3.11,1.89
12.2140,0.07,0.13,-0.98,2.99,2.87,1.77
12.2300,0.07,0.13,-0.98,2.99,3.05,1.83
12.2330,0.07,0.13,-0.98,2.81,3.11,1.83
12.2600,0.07,0.13,-0.98,2.81,3.23,1.95
12.2760,0.06,0.14,-0.98,2.81,3.05,2.26
12.2880,0.08,0.14,-0.98,2.81,2.56,3.91
12.3040,0.07,0.13,-0.98,2.87,3.17,1.89
12.3220,0.07,0.13,-0.98,2.81,3.11,2.44
12.3370,0.07,0.13,-0.98,2.99,2.62,3.60
12.3530,0.08,0.12,-0.98,2.81,3.11,3.23
12.3670,0.07,0.13,-0.98,2.93,2.99,2.26
12.3820,0.08,0.13,-0.98,2.93,2.99,2.99
12.3980,0.07,0.12,-0.98,3.05,2.81,2.87
12.4120,0.07,0.13,-0.98,3.05,3.05,2.32
12.4270,0.07,0.13,-0.98,2.93,3.11,2.75
12.4380,0.07,0.13,-0.98,2.81,2.81,3.91
12.4540,0.07,0.12,-0.98,2.81,2.69,3.42
12.4710,0.07,0.12,-0.98,2.99,2.93,2.69
12.4870,0.07,0.13,-0.98,3.11,2.99,2.56
12.5030,0.07,0.13,-0.98,3.05,2.93,2.87
12.5190,0.07,0.13,-0.98,3.11,2.99,3.48
12.5220,0.07,0.13,-0.98,2.69,2.81,3.85
12.5510,0.08,0.13,-0.98,2.69,2.75,4.09
12.5670,0.08,0.13,-0.98,3.11,3.23,2.75
12.5820,0.07,0.12,-0.98,2.99,3.11,2.75
12.5920,0.07,0.13,-0.98,2.69,2.87,3.60
12.6090,0.07,0.14,-0.98,2.50,2.75,4.21
12.6260,0.07,0.14,-0.98,2.56,2.87,4.58
12.6420,0.08,0.13,-0.98,2.50,2.81,5.25
12.6580,0.07,0.12,-0.99,2.75,2.93,3.72
12.6730,0.08,0.12,-0.99,3.05,3.11,3.11
12.6890,0.07,0.12,-0.98,2.69,2.99,3.05
12.7040,0.07,0.15,-0.98,2.81,2.93,3.66
12.7190,0.06,0.12,-0.99,2.75,2.50,4.21
12.7340,0.07,0.12,-0.98,2.69,2.75,4.09
12.7500,0.07,0.13,-0.98,2.69,2.87,3.36
12.7640,0.08,0.11,-0.98,2.81,2.81,3.23
12.7800,0.08,0.13,-0.98,3.05,3.11,2.08
12.7920,0.07,0.12,-0.98,2.87,3.17,2.20
12.8080,0.07,0.13,-0.98,3.05,2.69,2.01
12.8250,0.06,0.13,-0.98,2.93,3.05,2.32
12.8420,0.07,0.13,-0.98,2.75,2.56,3.66
12.8580,0.07,0.13,-0.98,2.87,2.75,2.99
12.8740,0.08,0.13,-0.98,2.99,2.87,3.36
12.8900,0.08,0.13,-0.98,3.05,2.56,3.48
12.9050,0.06,0.12,-0.98,2.69,2.50,4.03
12.9190,0.07,0.13,-0.99,2.81,2.69,4.15
12.9260,0.07,0.12,-0.99,3.11,2.56,3.85
12.9420,0.08,0.13,-0.98,2.87,2.56,3.11
12.9640,0.07,0.12,-0.98,2.93,3.17,2.44
12.9810,0.07,0.13,-0.98,2.99,2.62,3.05
12.9970,0.08,0.13,-0.98,2.81,2.99,4.03
13.0140,0.07,0.13,-0.98,2.99,2.62,3.11
13.0220,0.07,0.13,-0.98,2.87,2.81,3.85
13.0310,0.07,0.14,-0.98,2.75,2.81,4.58
13.0480,0.08,0.14,-0.98,2.69,2.50,5.74
13.0640,0.07,0.13,-0.98,2.81,2.56,4.94
13.0920,0.06,0.11,-0.99,2.69,2.56,4.94
13.1020,0.08,0.12,-0.98,2.87,2.14,4.64
13.1220,0.07,0.12,-0.99,2.93,2.50,3.42
13.1380,0.07,0.12,-0.99,2.93,2.75,3.36
13.1530,0.07,0.13,-0.98,2.99,2.69,2.87
13.1690,0.07,0.12,-0.98,2.93,2.75,2.69
13.1830,0.07,0.13,-0.98,2.93,2.69,2.87
13.2000,0.08,0.14,-0.98,2.69,2.93,3.78
13.2160,0.06,0.14,-0.98,2.75,2.44,4.58
13.2320,0.08,0.14,-0.98,2.75,2.38,5.49
13.2390,0.07,0.12,-0.98,2.69,2.69,3.85
13.2550,0.07,0.11,-0.98,3.05,2.56,3.54
13.2770,0.07,0.12,-0.98,2.99,2.62,3.11
13.2920,0.07,0.12,-0.99,2.93,2.69,2.69
13.3100,0.07,0.13,-0.98,2.99,3.11,2.87
13.3240,0.07,0.13,-0.98,2.87,2.81,3.23
13.3400,0.07,0.13,-0.98,2.93,3.05,2.75
13.3420,0.07,0.13,-0.98,2.99,2.87,2.32
13.3580,0.07,0.12,-0.98,2.81,3.23,2.14
13.3800,0.07,0.13,-0.98,2.87,2.62,2.08
13.3970,0.07,0.13,-0.98,3.11,2.87,2.44
13.4140,0.07,0.13,-0.98,2.93,3.23,2.75
13.4290,0.07,0.13,-0.98,2.93,3.05,3.05
13.4450,0.08,0.13,-0.98,2.75,3.05,2.87
13.4470,0.08,0.13,-0.98,2.93,2.99,1.95
13.4640,0.07,0.13,-0.98,3.05,2.75,2.20
13.4800,0.07,0.12,-0.98,2.99,2.75,2.87
13.5080,0.07,0.13,-0.99,2.81,2.75,3.05
13.5250,0.07,0.14,-0.98,2.87,2.87,3.23
13.5310,0.07,0.13,-0.98,2.75,3.11,3.78
13.5470,0.07,0.12,-0.98,2.87,2.75,3.78
13.5690,0.07,0.13,-0.99,2.87,2.87,3.23
13.5860,0.07,0.12,-0.99,2.93,2.81,3.36
13.6010,0.07,0.12,-0.99,2.87,2.75,3.91
13.6170,0.07,0.13,-0.98,2.93,2.69,3.30
13.6320,0.07,0.13,-0.99,2.93,2.87,3.11
13.6470,0.07,0.12,-0.98,3.11,2.44,3.17
13.6620,0.07,0.12,-0.98,2.99,2.87,2.62
13.6780,0.07,0.12,-0.98,2.93,3.17,2.93
13.6930,0.07,0.12,-0.98,2.99,2.81,2.99
13.7080,0.07,0.12,-0.98,2.87,3.23,2.50
13.7200,0.07,0.12,-0.99,3.11,3.05,2.01
13.7360,0.07,0.12,-0.98,2.87,2.93,1.89
13.7530,0.07,0.12,-0.98,2.81,2.81,2.08
13.7680,0.07,0.12,-0.98,2.87,3.05,2.20
13.7830,0.07,0.12,-0.98,2.99,3.11,1.95
13.8010,0.07,0.13,-0.98,2.81,3.30,1.89
13.8160,0.07,0.13,-0.98,3.05,2.62,1.59
13.8330,0.07,0.13,-0.98,3.05,3.05,1.89
13.8490,0.07,0.13,-0.98,2.87,3.23,2.38
13.8650,0.07,0.12,-0.99,2.81,2.99,2.50
13.8810,0.07,0.12,-0.98,2.81,2.99,2.56
13.8870,0.07,0.12,-0.98,2.93,3.11,1.89
13.9020,0.07,0.13,-0.98,3.05,3.05,2.01
13.9240,0.07,0.13,-0.98,2.87,3.05,2.87
13.9410,0.07,0.13,-0.98,2.93,2.56,3.11
13.9570,0.07,0.13,-0.98,2.99,2.81,3.23
13.9730,0.08,0.13,-0.98,2.87,2.93,4.39
13.9880,0.07,0.13,-0.98,2.87,2.81,4.09
14.0030,0.07,0.13,-0.98,2.81,2.93,3.78
14.0190,0.07,0.13,-0.99,2.87,2.87,4.03
14.0340,0.08,0.13,-0.98,2.62,2.44,4.76
14.0480,0.08,0.13,-0.98,2.81,2.69,4.58
14.0640,0.07,0.13,-0.99,2.81,2.62,3.91
14.0740,0.06,0.13,-0.98,2.87,2.87,3.85
14.0910,0.08,0.13,-0.98,2.69,2.56,5.00
14.1080,0.06,0.12,-0.99,2.93,2.81,3.66
14.1250,0.08,0.12,-0.98,2.62,2.93,4.46
14.1420,0.07,0.13,-0.98,2.99,2.99,3.78
14.1570,0.07,0.13,-0.98,2.93,2.87,3.42
14.1730,0.07,0.13,-0.98,2.93,2.62,2.99
14.1880,0.07,0.13,-0.98,3.30,2.87,3.30
14.2030,0.07,0.12,-0.99,2.93,2.93,3.17
14.2080,0.08,0.12,-0.99,2.99,2.87,4.21
14.2230,0.07,0.12,-0.98,2.93,3.36,3.05
14.2460,0.07,0.12,-0.98,3.11,2.93,2.56
14.2640,0.08,0.14,-0.98,2.87,2.99,4.33
14.2800,0.06,0.12,-0.99,2.69,3.17,3.30
14.2950,0.07,0.13,-0.98,2.87,3.11,2.87
14.3110,0.07,0.14,-0.98,2.56,2.69,4.09
14.3280,0.07,0.13,-0.98,2.69,2.69,5.07
14.3440,0.08,0.12,-0.98,2.56,2.26,5.62
14.3590,0.07,0.11,-0.99,1.89,2.69,2.08
14.3740,0.07,0.13,-0.99,3.05,3.42,1.28
14.3890,0.07,0.12,-0.99,3.11,3.30,2.44
14.4050,0.07,0.13,-0.99,3.05,3.17,3.30
14.4130,0.07,0.13,-0.98,2.62,3.17,2.44
14.4300,0.07,0.14,-0.98,2.62,2.44,3.05
14.4460,0.07,0.13,-0.98,2.93,2.99,4.70
14.4630,0.08,0.13,-0.98,2.50,2.75,5.49
14.4810,0.06,0.11,-0.99,2.87,2.81,3.78
14.4810,0.07,0.12,-0.98,2.69,2.93,3.78
14.5100,0.07,0.12,-0.98,2.99,2.32,3.66
14.5240,0.07,0.12,-0.99,2.93,2.69,3.23
14.5340,0.07,0.13,-0.98,2.69,2.81,3.85
14.5490,0.07,0.13,-0.98,2.75,2.87,3.60
14.5650,0.06,0.13,-0.99,2.87,2.99,4.21
14.5850,0.08,0.12,-0.98,2.75,2.50,5.00
14.6010,0.07,0.13,-0.98,2.99,3.23,3.91
14.6170,0.07,0.13,-0.98,2.81,2.38,4.03
14.6330,0.06,0.13,-0.98,2.56,2.81,4.46
14.6490,0.07,0.13,-0.99,2.50,2.56,4.70
14.6640,0.07,0.13,-0.98,2.87,2.62,4.88
14.6800,0.06,0.13,-0.99,2.81,2.32,5.98
14.6850,0.08,0.12,-0.98,2.38,2.69,6.65
14.7010,0.07,0.11,-0.99,2.81,2.75,4.82
14.7240,0.07,0.12,-0.99,2.93,3.30,2.99
14.7400,0.07,0.13,-0.98,2.69,2.69,4.33
14.7560,0.07,0.12,-0.98,2.87,2.87,4.27
14.7730,0.07,0.13,-0.98,2.50,2.99,5.00
14.7890,0.07,0.12,-0.99,2.81,2.62,4.82
14.8040,0.07,0.12,-0.99,2.81,2.81,4.64
14.8190,0.08,0.13,-0.98,2.81,2.93,3.48
14.8350,0.07,0.13,-0.98,2.81,2.62,3.72
14.8510,0.07,0.14,-0.98,2.75,2.75,5.25
14.8670,0.07,0.12,-0.99,2.56,2.69,5.13
14.8820,0.07,0.12,-0.99,2.99,2.81,3.11
14.8970,0.07,0.13,-0.98,2.81,3.30,2.62
14.9070,0.07,0.13,-0.98,2.93,2.93,3.17
14.9250,0.07,0.13,-0.99,2.87,2.93,4.09
14.9410,0.07,0.12,-0.98,2.56,2.75,5.00
14.9410,0.08,0.12,-0.98,2.75,2.99,3.60
14.9710,0.07,0.11,-0.99,2.69,2.99,3.60
14.9870,0.07,0.12,-0.98,2.81,3.11,3.11
15.0020,0.07,0.14,-0.98,2.87,2.99,2.93
15.0170,0.07,0.14,-0.98,2.56,2.87,5.00
15.0330,0.07,0.13,-0.98,2.44,2.26,5.55
15.0480,0.07,0.13,-0.98,2.50,2.38,6.10
15.0630,0.08,0.12,-0.99,2.38,2.38,6.16
15.0730,0.07,0.11,-0.98,2.81,2.75,3.60
15.0900,0.06,0.13,-0.98,3.17,2.87,2.26
15.1060,0.07,0.12,-0.98,3.05,2.81,4.03
15.1230,0.07,0.13,-0.98,3.11,2.81,3.30
15.1390,0.08,0.13,-0.98,2.99,2.38,3.30
15.1540,0.07,0.12,-0.98,2.99,2.99,2.44
15.1690,0.06,0.12,-0.98,2.93,2.93,3.54
15.1830,0.07,0.12,-0.98,2.69,2.69,4.70
15.1990,0.07,0.12,-0.98,2.75,2.56,4.09
15.2140,0.08,0.12,-0.98,2.81,2.81,3.48
15.2250,0.07,0.12,-0.98,2.87,3.17,3.30
15.2400,0.07,0.12,-0.98,2.81,3.23,3.05
15.2590,0.08,0.12,-0.99,2.75,2.93,2.56
15.2630,0.07,0.12,-0.98,2.87,2.87,1.77
15.2810,0.06,0.14,-0.98,2.87,3.48,2.08
15.2960,0.08,0.15,-0.98,2.81,2.50,4.27
15.3190,0.06,0.13,-0.98,2.93,2.81,4.70
15.3360,0.08,0.11,-0.99,2.56,2.93,5.86
15.3520,0.08,0.11,-0.99,2.75,3.11,2.75
15.3660,0.07,0.12,-0.99,3.11,3.23,1.46
15.3820,0.06,0.12,-0.99,2.99,2.81,1.65
15.3970,0.08,0.14,-0.98,2.93,2.50,3.85
15.4120,0.07,0.13,-0.98,2.75,2.75,3.72
15.4270,0.08,0.14,-0.98,2.87,2.99,4.15
15.4360,0.08,0.12,-0.98,2.50,2.62,4.46
15.4520,0.07,0.12,-0.98,2.69,2.69,3.78
15.4700,0.08,0.13,-0.98,2.87,2.81,3.36
15.4850,0.07,0.13,-0.99,3.11,2.87,3.30
15.5030,0.06,0.13,-0.98,2.93,2.69,4.03
15.5190,0.07,0.12,-0.99,3.05,2.38,4.39
15.5350,0.07,0.12,-0.99,2.99,2.69,3.72
15.5500,0.07,0.13,-0.98,2.81,3.23,2.75
15.5660,0.07,0.13,-0.99,2.87,3.05,3.85
15.5820,0.07,0.12,-0.99,2.93,2.56,4.94
15.5990,0.07,0.12,-0.99,2.93,2.93,2.87
15.6150,0.07,0.13,-0.98,2.62,2.81,3.72
15.6290,0.06,0.13,-0.99,3.05,2.62,4.15
15.6450,0.08,0.13,-0.98,2.87,2.69,4.46
15.6520,0.07,0.12,-0.99,2.93,3.05,3.11
15.6750,0.07,0.12,-0.99,2.99,2.62,4.46
15.6850,0.08,0.13,-0.98,2.50,2.69,4.33
15.7010,0.07,0.13,-0.99,3.05,3.05,2.50
15.7220,0.05,0.13,-0.99,2.44,2.69,4.58
15.7360,0.07,0.12,-0.98,2.69,2.69,4.03
15.7520,0.08,0.12,-0.98,2.81,2.56,4.15
15.7680,0.08,0.12,-0.98,2.81,2.87,3.05
15.7830,0.07,0.12,-0.98,3.05,2.93,2.14
15.7980,0.03,0.14,-0.98,2.81,2.62,3.11
15.8130,0.06,0.14,-0.98,2.62,2.44,4.39
15.8260,0.07,0.12,-0.98,2.75,2.62,5.00
15.8400,0.08,0.12,-0.99,3.23,2.62,3.48
15.8570,0.07,0.11,-0.99,3.23,2.62,1.89
15.8730,0.08,0.15,-0.98,3.23,2.38,3.85
15.8880,0.08,0.14,-0.98,3.05,2.62,3.66
15.9040,0.06,0.13,-0.99,2.99,2.62,5.92
15.9190,0.07,0.12,-0.98,2.50,2.56,5.55
15.9330,0.06,0.11,-0.99,2.50,2.99,3.05
15.9490,0.08,0.12,-0.98,2.99,2.99,2.56
15.9640,0.07,0.12,-0.98,3.17,3.17,2.26
15.9780,0.07,0.14,-0.98,2.87,3.17,2.56
15.9900,0.07,0.13,-0.98,2.99,3.11,3.97
16.0070,0.07,0.14,-0.99,2.44,2.99,5.62
16.0240,0.08,0.14,-0.98,2.20,2.62,5.25
16.0400,0.07,0.11,-0.99,2.50,2.69,4.21
16.0410,0.07,0.12,-0.98,2.75,2.69,3.66
16.0710,0.07,0.12,-0.98,2.99,3.11,3.54
16.0850,0.07,0.12,-0.98,2.62,2.50,4.88
16.1010,0.08,0.11,-0.99,2.99,2.87,3.54
16.1150,0.07,0.12,-0.98,2.87,3.17,2.50
16.1310,0.07,0.13,-0.98,3.05,3.17,1.71
16.1410,0.06,0.14,-0.98,2.93,2.81,3.23
16.1570,0.08,0.13,-0.98,2.99,2.62,4.94
16.1740,0.07,0.12,-0.99,3.11,2.38,4.33
16.1910,0.07,0.12,-0.98,2.87,2.62,3.54
16.2070,0.07,0.12,-0.99,3.11,2.99,1.65
16.2220,0.07,0.13,-0.98,3.11,3.05,1.59
16.2360,0.06,0.13,-0.98,2.81,3.05,2.26
16.2520,0.06,0.13,-0.99,2.93,2.44,4.94
16.2580,0.08,0.13,-0.98,2.44,2.62,4.09
16.2730,0.07,0.12,-0.98,2.93,3.17,1.83
16.2970,0.06,0.12,-0.99,2.93,2.99,2.14
16.3140,0.07,0.12,-0.98,2.87,3.05,3.72
16.3290,0.08,0.13,-0.98,2.69,2.62,4.27
16.3450,0.07,0.13,-0.98,2.87,3.17,2.62
16.3610,0.07,0.13,-0.98,2.93,2.93,4.33
16.3640,0.08,0.12,-0.98,2.81,2.69,4.76
16.3790,0.08,0.12,-0.98,3.05,2.62,2.75
16.4010,0.07,0.13,-0.98,3.11,2.87,1.77
16.4180,0.07,0.14,-0.98,2.81,2.81,4.52
16.4350,0.07,0.13,-0.98,2.50,2.14,6.16
16.4510,0.09,0.13,-0.98,2.44,2.38,3.54
16.4670,0.07,0.12,-0.98,3.11,2.93,2.62
16.4830,0.07,0.13,-0.98,3.11,2.62,3.30
16.4990,0.07,0.13,-0.99,3.05,2.93,4.21
16.5130,0.07,0.12,-0.99,2.69,2.81,3.72
16.5290,0.07,0.13,-0.98,2.69,2.99,4.94
16.5350,0.07,0.13,-0.98,3.36,2.50,5.80
16.5590,0.07,0.12,-0.98,2.56,2.50,5.37
16.5740,0.07,0.11,-0.98,2.81,2.50,3.85
16.5840,0.07,0.11,-0.99,3.11,3.05,2.87
16.6010,0.07,0.13,-0.98,2.99,2.93,2.56
16.6180,0.07,0.14,-0.98,3.23,2.99,4.39
16.6330,0.07,0.14,-0.98,2.62,2.26,6.35
16.6490,0.07,0.11,-0.99,2.14,2.20,5.62
16.6640,0.07,0.10,-0.99,2.26,2.81,3.11
16.6800,0.07,0.11,-0.99,3.11,3.05,2.01
16.6940,0.07,0.12,-0.98,2.93,3.23,1.77
16.7020,0.07,0.13,-0.98,3.17,2.99,1.77
16.7240,0.06,0.14,-0.99,3.42,2.75,3.66
16.7350,0.08,0.14,-0.98,2.69,2.26,6.23
16.7520,0.07,0.12,-0.98,2.75,2.62,4.39
16.7680,0.07,0.11,-0.99,2.44,3.11,2.69
16.7850,0.07,0.12,-0.99,3.11,3.17,1.34
16.8000,0.07,0.13,-0.98,3.30,3.05,1.53
16.8160,0.06,0.14,-0.98,2.99,2.99,2.62
16.8310,0.07,0.14,-0.98,3.05,2.93,4.15
16.8470,0.06,0.12,-0.99,2.38,2.69,4.88
16.8620,0.09,0.12,-0.99,2.50,2.62,5.98
16.8770,0.07,0.11,-0.98,2.87,3.42,1.04
16.8930,0.07,0.13,-0.98,3.17,3.11,1.95
16.9090,0.07,0.13,-0.99,3.11,2.75,4.33
16.9180,0.07,0.12,-0.99,2.75,2.69,4.70
16.9340,0.07,0.12,-0.98,2.81,2.69,4.52
16.9540,0.08,0.11,-0.99,2.81,2.87,2.62
16.9690,0.07,0.12,-0.98,3.05,3.05,1.59
16.9730,0.07,0.13,-0.98,3.05,3.17,2.01
16.9880,0.06,0.13,-0.98,3.17,3.11,2.14
17.0130,0.06,0.13,-0.98,2.38,2.99,4.88
17.0270,0.08,0.13,-0.98,2.81,2.50,4.94
17.0410,0.07,0.12,-0.98,3.23,3.11,1.65
17.0590,0.07,0.12,-0.98,3.17,3.17,1.95
17.0750,0.07,0.13,-0.98,3.05,3.23,2.69
17.0910,0.07,0.13,-0.98,2.62,2.26,4.88
17.0940,0.08,0.13,-0.98,2.87,2.69,3.78
17.1240,0.06,0.13,-0.98,2.99,2.69,2.38
17.1390,0.07,0.13,-0.98,2.62,2.26,5.37
17.1550,0.07,0.12,-0.99,2.69,2.26,4.52
17.1640,0.07,0.12,-0.99,2.99,2.75,3.05
17.1800,0.07,0.12,-0.98,2.87,2.75,3.36
17.1980,0.08,0.14,-0.98,2.93,2.20,4.82
17.2130,0.07,0.13,-0.98,2.32,2.69,5.25
17.2300,0.07,0.11,-0.99,2.38,2.44,4.88
17.2460,0.07,0.11,-0.99,2.81,2.69,3.30
17.2620,0.07,0.13,-0.98,3.05,2.81,2.32
17.2780,0.07,0.13,-0.98,2.75,2.38,3.85
17.2930,0.08,0.14,-0.98,2.75,2.38,5.07
17.3100,0.07,0.12,-0.99,2.62,2.26,5.62
17.3270,0.07,0.12,-0.98,2.87,2.62,3.42
17.3300,0.06,0.12,-0.99,3.11,2.62,2.38
17.3510,0.07,0.13,-0.98,2.99,2.62,4.15
17.3680,0.08,0.13,-0.98,2.75,2.69,4.15
17.3850,0.07,0.13,-0.98,2.87,2.81,4.33
17.4010,0.07,0.12,-0.99,2.75,2.44,5.00
17.4170,0.08,0.11,-0.99,2.38,2.75,5.07
17.4330,0.07,0.12,-0.98,2.81,2.69,2.75
17.4490,0.07,0.13,-0.98,2.87,2.62,3.23
17.4650,0.07,0.13,-0.98,2.81,2.69,4.39
17.4800,0.08,0.13,-0.98,2.56,2.99,4.88
17.4960,0.06,0.12,-0.99,2.62,2.75,4.46
17.5110,0.08,0.13,-0.98,2.75,2.26,6.16
17.5270,0.08,0.14,-0.98,2.62,2.08,5.98
17.5420,0.06,0.13,-0.99,2.81,2.81,4.82
17.5570,0.07,0.11,-0.98,2.62,2.14,6.29
17.5680,0.07,0.11,-0.98,2.44,2.62,4.64
17.5850,0.08,0.11,-0.99,2.75,2.38,3.23
17.6020,0.07,0.12,-0.98,3.11,2.87,2.01
17.6180,0.06,0.13,-0.99,3.11,2.99,2.56
17.6340,0.07,0.15,-0.98,2.69,2.50,5.25
17.6500,0.07,0.14,-0.98,2.44,2.44,7.14
17.6660,0.08,0.11,-0.99,2.62,2.32,6.47
17.6810,0.07,0.11,-0.99,2.69,2.38,4.64
17.6970,0.09,0.11,-0.98,2.87,2.20,4.33
17.7020,0.07,0.12,-0.98,3.30,2.69,1.83
17.7270,0.07,0.14,-0.98,3.17,2.99,2.81
17.7400,0.07,0.15,-0.98,2.75,2.20,6.71
17.7560,0.07,0.12,-0.98,1.95,1.95,7.69
17.7730,0.08,0.10,-0.99,2.50,2.44,3.85
17.7890,0.07,0.11,-0.99,3.05,2.87,2.69
17.8040,0.07,0.11,-0.99,2.99,2.69,2.50
17.8190,0.07,0.12,-0.99,3.05,2.81,1.77
17.8270,0.07,0.13,-0.98,2.93,2.56,2.56
17.8400,0.07,0.14,-0.98,2.87,2.50,4.82
17.8650,0.08,0.14,-0.98,2.75,2.20,5.07
17.8780,0.07,0.12,-0.99,2.75,2.38,4.27
17.8940,0.09,0.13,-0.98,2.87,2.38,4.33
17.9100,0.07,0.11,-0.99,3.17,3.05,1.83
17.9270,0.06,0.13,-0.98,3.17,2.62,3.36
17.9430,0.07,0.13,-0.98,2.87,2.44,5.31
17.9580,0.07,0.12,-0.99,2.93,2.44,4.94
17.9600,0.08,0.11,-0.98,2.81,2.75,3.17
17.9760,0.07,0.12,-0.99,3.17,3.05,1.40
18.0050,0.07,0.12,-0.99,3.23,2.69,1.65
18.0160,0.07,0.12,-0.98,2.93,2.87,1.71
18.0310,0.07,0.13,-0.98,3.17,2.50,2.14
18.0490,0.07,0.13,-0.98,2.93,2.75,2.26
18.0550,0.07,0.12,-0.98,3.05,2.87,1.59
18.0790,0.07,0.13,-0.98,3.36,2.93,1.40
18.0950,0.07,0.13,-0.98,3.36,2.50,1.16
18.1050,0.08,0.12,-0.98,3.23,2.75,1.34
18.1210,0.07,0.12,-0.98,3.17,2.93,1.65
18.1380,0.07,0.12,-0.98,3.17,2.69,1.83
18.1540,0.07,0.13,-0.99,3.42,2.75,1.71
18.1700,0.07,0.13,-0.99,3.05,2.56,1.89
18.1850,0.07,0.12,-0.99,2.93,2.81,1.89
18.1990,0.07,0.13,-0.98,3.17,2.81,1.89
18.2160,0.07,0.13,-0.99,2.93,2.62,1.89
18.2270,0.07,0.12,-0.98,3.11,3.05,1.71
18.2370,0.07,0.13,-0.98,2.99,2.87,1.83
18.2600,0.07,0.13,-0.98,3.17,2.99,1.83
18.2760,0.07,0.13,-0.98,3.54,2.99,1.95
18.2930,0.07,0.13,-0.99,3.23,3.17,1.83
18.3090,0.07,0.12,-0.98,3.05,2.93,1.77
18.3260,0.07,0.13,-0.99,3.36,3.05,1.83
18.3420,0.08,0.12,-0.98,3.36,2.87,1.95
18.3580,0.06,0.13,-0.99,4.58,3.54,0.73
18.3740,0.07,0.13,-0.99,2.99,2.87,1.10
18.3910,0.07,0.13,-0.98,2.93,2.87,1.59
18.4070,0.07,0.12,-0.98,2.44,2.50,1.77
18.4100,0.07,0.12,-0.98,2.93,2.93,1.83
18.4270,0.07,0.13,-0.98,3.23,3.30,2.01
18.4490,0.07,0.13,-0.99,3.17,3.11,1.77
18.4650,0.07,0.13,-0.98,3.11,3.30,1.40
18.4820,0.07,0.13,-0.98,2.87,2.75,1.34
18.5000,0.07,0.13,-0.98,2.93,2.99,1.77
18.5150,0.07,0.13,-0.98,3.11,3.11,1.83
18.5320,0.07,0.13,-0.98,2.99,3.23,1.77
18.5480,0.07,0.12,-0.98,3.11,2.93,1.95
18.5630,0.07,0.12,-0.99,3.05,2.62,1.46
18.5800,0.07,0.13,-0.98,2.87,2.93,1.65
18.5950,0.07,0.12,-0.98,2.81,2.93,1.77
18.6120,0.07,0.13,-0.98,2.93,2.75,1.77
18.6280,0.07,0.13,-0.98,3.05,3.17,2.01
18.6440,0.07,0.13,-0.98,3.42,3.05,1.89
18.6600,0.07,0.13,-0.99,3.11,2.93,1.89
18.6750,0.07,0.13,-0.98,2.81,3.05,1.83
18.6820,0.07,0.13,-0.98,2.87,3.17,1.95
18.7050,0.07,0.12,-0.98,2.99,3.11,1.89
18.7150,0.07,0.13,-0.99,3.23,3.17,1.95
18.7310,0.07,0.12,-0.98,2.99,3.05,1.83
18.7490,0.07,0.12,-0.99,3.17,2.69,2.08
18.7650,0.07,0.13,-0.98,2.75,2.99,2.20
18.7810,0.07,0.13,-0.98,2.87,3.05,1.95
18.7960,0.07,0.12,-0.98,2.87,2.50,1.71
18.8110,0.07,0.13,-0.99,3.60,3.23,1.77
18.8260,0.07,0.13,-0.98,3.42,3.17,1.77
18.8410,0.07,0.12,-0.98,3.17,3.05,1.83
18.8550,0.07,0.12,-0.98,3.11,2.93,2.01
18.8710,0.07,0.13,-0.99,2.87,3.05,2.14
18.8810,0.07,0.13,-0.98,2.93,3.11,1.89
18.8980,0.07,0.13,-0.98,2.93,3.05,1.95
18.9140,0.07,0.13,-0.98,2.87,3.05,1.89
18.9310,0.07,0.13,-0.98,2.93,2.93,1.77
18.9470,0.07,0.13,-0.98,3.11,3.05,1.77
18.9620,0.07,0.13,-0.98,2.75,3.54,1.89
18.9760,0.07,0.13,-0.98,2.75,2.93,2.01
18.9810,0.07,0.13,-0.98,3.23,2.75,1.95
18.9970,0.07,0.13,-0.98,3.11,3.48,1.89
19.0210,0.07,0.13,-0.98,3.30,3.11,2.01
19.0360,0.07,0.13,-0.98,3.05,2.69,1.95
19.0520,0.07,0.13,-0.98,2.99,3.11,2.01
19.0680,0.07,0.13,-0.98,2.99,2.93,1.89
19.0840,0.07,0.13,-0.98,2.93,2.75,1.71
19.0990,0.07,0.12,-0.98,2.99,2.87,1.77
19.1160,0.07,0.12,-0.98,2.99,2.99,1.83
19.1330,0.07,0.13,-0.98,3.05,2.93,1.89
19.1480,0.07,0.13,-0.98,2.87,3.11,1.89
19.1630,0.08,0.13,-0.98,2.87,3.23,2.14
19.1790,0.08,0.13,-0.98,2.75,2.75,2.01
19.1880,0.08,0.12,-0.98,2.99,2.93,2.08
19.2040,0.07,0.12,-0.99,3.17,3.11,1.95
19.2250,0.07,0.13,-0.98,3.23,2.50,1.71
19.2400,0.07,0.13,-0.98,2.69,3.23,1.65
19.2560,0.08,0.13,-0.99,3.11,2.93,1.65
19.2700,0.08,0.13,-0.98,2.81,3.05,1.53
19.2850,0.07,0.12,-0.98,2.87,2.93,1.22
19.3000,0.08,0.12,-0.98,2.62,2.93,1.04
19.3150,0.08,0.13,-0.99,3.05,3.30,0.55
19.3280,0.07,0.13,-0.98,2.99,3.23,0.12
19.3430,0.10,0.12,-0.98,2.81,3.42,0.06
19.3600,0.08,0.13,-0.98,3.17,3.36,-1.34
19.3660,0.09,0.14,-0.98,3.17,3.48,-0.55
19.3900,0.04,0.13,-0.99,2.93,3.23,0.43
19.4000,0.06,0.12,-0.98,2.75,3.11,2.81
19.4180,0.06,0.12,-0.99,2.75,2.38,2.69
19.4330,0.06,0.12,-0.98,2.44,2.93,2.69
19.4510,0.08,0.12,-0.99,2.14,2.75,2.08
19.4660,0.07,0.13,-0.98,2.50,2.62,1.89
19.4830,0.06,0.12,-0.99,2.26,2.93,2.26
19.5010,0.07,0.13,-0.98,2.99,2.87,1.65
19.5170,0.08,0.12,-0.98,2.87,3.05,1.77
19.5330,0.08,0.12,-0.98,2.87,2.87,2.14
19.5490,0.09,0.13,-0.98,2.75,3.11,0.49
19.5650,0.06,0.12,-0.99,3.17,3.11,-0.12
19.5670,0.07,0.13,-0.99,2.87,3.36,0.61
19.5830,0.06,0.13,-0.98,2.99,3.23,1.46
19.6010,0.05,0.12,-0.99,3.17,3.05,2.56
19.6270,0.06,0.12,-0.99,3.11,3.11,2.44
19.6330,0.07,0.13,-0.98,2.81,3.30,2.08
19.6490,0.07,0.13,-0.98,2.93,3.11,1.95
19.6720,0.07,0.12,-0.98,2.93,2.93,1.71
19.6870,0.07,0.12,-0.98,2.99,2.87,1.89
19.7040,0.07,0.12,-0.98,3.11,2.99,1.89
19.7190,0.07,0.13,-0.98,3.05,3.17,1.83
19.7350,0.08,0.12,-0.98,2.93,2.75,1.59
19.7390,0.07,0.12,-0.99,3.05,2.75,1.83
19.7550,0.07,0.12,-0.98,3.05,2.81,1.89
19.7770,0.07,0.12,-0.98,2.81,2.99,1.77
19.7940,0.07,0.13,-0.98,2.81,3.30,1.77
19.8110,0.07,0.13,-0.98,2.99,2.69,1.71
19.8270,0.07,0.13,-0.98,3.05,3.05,1.77
19.8420,0.07,0.13,-0.99,3.11,2.87,1.77
19.8590,0.07,0.12,-0.98,3.30,3.05,1.65
19.8610,0.08,0.12,-0.98,3.05,3.36,1.22
19.8770,0.07,0.13,-0.98,2.99,3.48,0.85
19.9000,0.07,0.13,-0.98,2.87,2.99,1.04
19.9180,0.08,0.10,-0.98,2.93,3.17,1.34
19.9330,0.07,0.12,-0.99,2.99,2.75,1.28
19.9500,0.07,0.12,-0.98,2.99,3.17,1.28
19.9650,0.08,0.12,-0.98,3.11,3.30,0.67
19.9810,0.07,0.12,-0.98,3.05,2.99,0.37
19.9840,0.07,0.13,-0.98,3.05,2.93,0.67
20.0000,0.08,0.12,-0.98,2.99,2.81,1.10
20.0150,0.07,0.13,-0.98,2.99,2.99,1.53
20.0380,0.06,0.12,-0.99,2.99,3.42,0.92
20.0540,0.07,0.13,-0.98,3.05,2.87,1.46
20.0700,0.06,0.13,-0.98,2.69,3.17,1.28
20.0880,0.07,0.12,-0.98,3.11,3.05,1.77
20.1030,0.07,0.12,-0.98,2.87,3.11,1.65
20.1190,0.08,0.12,-0.98,2.93,3.42,1.46
20.1350,0.09,0.13,-0.98,2.87,3.42,1.16
20.1510,0.05,0.13,-0.99,3.17,2.81,0.92
20.1660,0.07,0.13,-0.98,2.93,3.42,1.77
20.1820,0.07,0.12,-0.98,2.99,2.99,1.65
20.1970,0.08,0.12,-0.98,3.17,2.81,1.77
20.2040,0.09,0.11,-0.99,3.11,3.11,1.77
20.2270,0.06,0.14,-0.98,3.23,3.42,1.22
20.2420,0.06,0.13,-0.99,2.99,3.42,0.31
20.2530,0.06,0.13,-0.98,2.99,3.36,1.10
20.2710,0.06,0.13,-0.98,3.05,3.11,1.16
20.2860,0.08,0.12,-0.98,2.93,3.36,1.28
20.3020,0.08,0.13,-0.98,2.93,3.17,1.53
20.3180,0.08,0.11,-0.99,2.99,3.23,0.92
20.3340,0.08,0.12,-0.98,2.99,2.81,1.28
20.3490,0.07,0.12,-0.98,3.05,3.11,0.12
20.3650,0.07,0.12,-0.98,3.05,3.23,0.49
20.3810,0.06,0.13,-0.98,2.81,2.99,1.04
20.3870,0.06,0.13,-0.98,2.69,3.05,2.08
20.4030,0.07,0.13,-0.98,2.81,2.81,2.44
20.4260,0.05,0.13,-0.98,2.87,3.23,1.83
20.4430,0.07,0.12,-0.98,2.93,3.05,1.89
20.4590,0.07,0.13,-0.98,2.81,3.11,2.20
20.4740,0.07,0.12,-0.98,2.81,3.11,2.50
20.4910,0.07,0.12,-0.98,2.93,3.05,2.62
20.5070,0.08,0.12,-0.98,2.81,2.38,2.93
20.5230,0.08,0.12,-0.98,2.93,2.56,3.17
20.5380,0.06,0.13,-0.99,2.75,2.69,3.30
20.5540,0.07,0.13,-0.98,2.81,2.56,3.23
20.5690,0.06,0.14,-0.98,2.81,2.69,3.72
20.5760,0.08,0.13,-0.98,2.87,2.75,4.39
20.5910,0.08,0.12,-0.98,2.99,2.62,4.64
20.6130,0.06,0.11,-0.99,2.87,2.69,4.46
20.6300,0.06,0.13,-0.99,2.87,2.62,2.69
20.6460,0.07,0.14,-0.98,2.69,2.99,2.08
20.6610,0.07,0.14,-0.98,2.75,2.62,2.44
20.6760,0.07,0.12,-0.99,2.75,2.56,2.69
20.6920,0.07,0.12,-0.98,3.05,2.99,2.99
20.7060,0.07,0.12,-0.99,2.93,2.62,2.87
20.7210,0.08,0.13,-0.98,2.99,3.11,2.14
20.7310,0.08,0.14,-0.98,3.05,2.75,2.20
20.7470,0.07,0.13,-0.98,2.75,2.93,3.05
20.7620,0.08,0.13,-0.98,2.81,2.81,3.05
20.7820,0.07,0.12,-0.99,2.93,2.75,2.38
20.7980,0.06,0.12,-0.99,2.87,2.81,2.81
20.8130,0.05,0.12,-0.99,2.93,3.17,2.62
20.8280,0.07,0.13,-0.98,2.93,3.11,1.95
20.8350,0.08,0.13,-0.98,3.05,2.87,1.95
20.8500,0.07,0.11,-0.98,3.17,2.99,1.77
20.8740,0.07,0.12,-0.99,2.99,2.99,1.89
20.8900,0.05,0.13,-0.99,2.99,3.23,2.01
20.9070,0.07,0.12,-0.98,2.99,3.30,1.83
20.9230,0.08,0.13,-0.98,2.93,3.30,1.71
20.9370,0.07,0.12,-0.98,3.17,2.99,1.40
20.9520,0.08,0.12,-0.98,3.05,2.87,1.71
20.9670,0.07,0.12,-0.98,2.93,2.93,2.08
20.9820,0.07,0.12,-0.98,3.17,2.69,1.95
20.9970,0.07,0.13,-0.98,3.05,2.87,2.01
21.0070,0.08,0.12,-0.98,2.99,3.48,1.71
21.0240,0.08,0.12,-0.98,2.93,3.17,1.40
21.0410,0.08,0.12,-0.98,3.05,3.30,0.92
21.0570,0.08,0.12,-0.98,2.99,3.11,0.73
21.0720,0.07,0.12,-0.98,3.30,2.87,0.98
21.0870,0.07,0.13,-0.98,3.11,2.99,1.34
21.1020,0.08,0.12,-0.98,2.99,3.17,0.92
21.1170,0.07,0.12,-0.98,2.99,3.36,-0.06
21.1330,0.08,0.12,-0.98,2.99,3.23,0.85
21.1490,0.07,0.13,-0.98,3.05,3.05,1.71
21.1640,0.08,0.13,-0.98,2.93,2.50,2.08
21.1740,0.06,0.13,-0.98,2.93,2.75,2.01
21.1900,0.09,0.12,-0.99,2.87,3.17,2.01
21.2060,0.08,0.12,-0.98,2.81,3.60,1.46
21.2240,0.06,0.13,-0.98,3.05,3.54,1.77
21.2390,0.06,0.13,-0.98,3.17,3.30,1.46
21.2540,0.07,0.12,-0.99,2.99,2.99,1.59
21.2700,0.07,0.12,-0.98,3.05,2.81,2.14
21.2860,0.07,0.13,-0.98,2.99,3.05,1.83
21.2900,0.07,0.14,-0.98,2.75,3.11,1.71
21.3050,0.07,0.13,-0.98,2.99,2.75,2.44
21.3300,0.07,0.12,-0.98,3.17,2.87,2.44
21.3440,0.07,0.12,-0.99,2.99,3.05,2.20
21.3600,0.09,0.12,-0.98,3.17,3.11,2.01
21.3770,0.07,0.13,-0.99,2.99,2.93,1.77
21.3940,0.07,0.12,-0.98,2.93,2.75,2.01
21.4100,0.07,0.13,-0.98,2.93,3.23,2.14
21.4120,0.09,0.13,-0.99,3.11,3.11,1.46
21.4430,0.04,0.12,-0.99,2.99,3.11,-0.24
21.4570,0.06,0.12,-0.98,3.17,3.17,0.12
21.4730,0.08,0.12,-0.99,3.05,3.17,1.40
21.4880,0.06,0.13,-0.98,2.93,2.99,1.34
21.5030,0.07,0.12,-0.98,2.93,3.05,1.46
21.5110,0.07,0.12,-0.99,2.87,2.93,1.65
21.5310,0.07,0.12,-0.98,2.99,2.93,1.89
21.5470,0.07,0.13,-0.99,2.99,3.30,1.77
21.5650,0.08,0.13,-0.98,2.87,3.17,1.46
21.5800,0.07,0.12,-0.99,2.75,3.23,1.53
21.5970,0.07,0.12,-0.99,3.23,2.99,1.34
21.6120,0.09,0.13,-0.99,2.81,2.99,1.46
21.6280,0.06,0.13,-0.98,2.93,3.11,1.95
21.6430,0.07,0.13,-0.98,2.69,2.81,1.83
21.6590,0.07,0.13,-0.98,2.81,2.93,1.53
21.6750,0.07,0.12,-0.99,2.87,2.93,1.40
21.6800,0.08,0.13,-0.98,2.99,3.11,1.40
21.6960,0.07,0.13,-0.98,2.87,2.69,1.46
21.7190,0.05,0.12,-0.99,2.87,3.05,2.14
21.7350,0.07,0.12,-0.99,2.93,3.30,2.20
21.7370,0.07,0.12,-0.98,3.05,2.93,1.34
21.7530,0.07,0.12,-0.98,3.05,3.23,1.34
21.7770,0.07,0.13,-0.98,3.05,2.87,1.40
21.7940,0.07,0.13,-0.98,2.99,2.93,1.71
21.8110,0.05,0.12,-0.98,2.81,2.81,2.14
21.8260,0.08,0.12,-0.98,2.99,2.93,2.50
21.8430,0.06,0.12,-0.99,2.81,2.81,2.20
21.8570,0.07,0.13,-0.98,2.99,3.11,2.44
21.8600,0.10,0.13,-0.98,2.75,2.81,2.38
21.8760,0.08,0.12,-0.98,2.87,2.75,1.71
21.8980,0.07,0.13,-0.99,3.17,2.62,1.95
21.9140,0.05,0.13,-0.99,2.99,3.05,2.14
21.9310,0.07,0.12,-0.99,2.87,2.93,2.44
21.9470,0.08,0.13,-0.98,2.99,2.93,2.26
21.9620,0.06,0.13,-0.98,2.87,2.69,2.56
21.9780,0.06,0.13,-0.98,2.87,2.69,2.32
21.9870,0.07,0.12,-0.99,2.81,3.05,2.56
22.0030,0.08,0.12,-0.98,2.93,2.81,2.01
22.0250,0.07,0.12,-0.98,2.81,2.62,1.83
22.0410,0.05,0.13,-0.99,2.93,2.87,2.32
22.0550,0.05,0.12,-0.99,2.93,2.99,2.38
22.0700,0.07,0.12,-0.98,2.87,2.99,2.08
22.0850,0.07,0.12,-0.98,2.81,2.93,1.77
22.0990,0.07,0.13,-0.99,2.87,2.93,1.89
22.1100,0.07,0.13,-0.98,2.99,2.69,1.83
22.1260,0.07,0.12,-0.98,2.99,2.69,1.71
22.1420,0.07,0.12,-0.98,2.99,3.17,1.83
22.1590,0.07,0.12,-0.99,2.87,3.17,1.77
22.1750,0.07,0.12,-0.98,2.99,3.17,1.77
22.1900,0.07,0.12,-0.98,2.99,3.23,1.83
22.2010,0.07,0.12,-0.98,2.99,2.99,1.83
22.2180,0.07,0.12,-0.98,2.93,3.23,1.89
22.2360,0.07,0.12,-0.98,3.11,3.23,1.77
22.2520,0.07,0.13,-0.98,2.75,3.05,1.71
22.2670,0.07,0.12,-0.98,2.87,2.93,1.95
22.2830,0.07,0.12,-0.98,2.87,2.99,2.08
22.3000,0.07,0.12,-0.98,2.81,2.81,1.95
22.3150,0.07,0.12,-0.98,3.17,2.99,1.95
22.3320,0.07,0.13,-0.98,2.93,2.81,1.83
22.3480,0.07,0.12,-0.98,2.93,2.93,1.77
22.3640,0.07,0.13,-0.98,2.75,3.17,1.89
22.3800,0.08,0.12,-0.98,2.93,3.11,2.01
22.3950,0.07,0.13,-0.98,3.17,2.93,1.71
22.4010,0.07,0.13,-0.98,2.81,3.30,1.83
22.4170,0.07,0.12,-0.98,2.75,2.93,1.89
22.4390,0.07,0.13,-0.98,2.75,3.23,1.83
22.4560,0.07,0.12,-0.98,2.87,3.48,1.95
22.4720,0.07,0.12,-0.98,3.11,2.75,1.95
22.4880,0.07,0.12,-0.98,3.05,3.30,1.89
22.5030,0.07,0.13,-0.99,2.99,3.11,1.83
22.5190,0.07,0.12,-0.98,2.87,2.93,1.95
22.5350,0.07,0.13,-0.98,2.93,3.48,1.89
22.5500,0.07,0.13,-0.98,2.99,3.17,1.83
22.5650,0.07,0.12,-0.98,3.17,2.93,1.95
22.5730,0.07,0.12,-0.98,3.17,3.11,1.83
22.5890,0.07,0.13,-0.98,3.23,3.23,1.83
22.6100,0.07,0.13,-0.98,3.05,3.05,1.95
22.6270,0.07,0.12,-0.98,2.87,2.99,1.83
22.6320,0.08,0.13,-0.98,2.99,3.17,1.71
22.6460,0.07,0.12,-0.98,2.93,3.36,1.89
22.6700,0.07,0.13,-0.99,3.17,3.30,1.77
22.6860,0.07,0.13,-0.99,3.11,3.11,1.83
22.7020,0.07,0.13,-0.99,3.11,2.69,1.83
22.7180,0.07,0.12,-0.98,2.87,2.62,2.01
22.7320,0.07,0.12,-0.98,3.05,2.81,1.89
22.7370,0.07,0.13,-0.98,3.05,2.93,1.89
22.7520,0.07,0.13,-0.99,3.23,2.93,1.83
22.7760,0.07,0.13,-0.98,3.11,3.05,1.89
22.7920,0.07,0.12,-0.98,2.75,3.42,1.89
22.8090,0.07,0.13,-0.98,2.93,2.99,1.71
22.8260,0.07,0.12,-0.98,2.87,2.93,1.83
22.8420,0.07,0.12,-0.98,2.87,3.11,1.83
22.8580,0.07,0.12,-0.98,3.05,2.75,1.83
22.8750,0.08,0.13,-0.99,2.81,3.11,1.89
22.8910,0.07,0.12,-0.98,2.87,3.11,1.77
22.9070,0.04,0.12,-0.99,2.87,3.23,1.77
22.9220,0.06,0.13,-0.98,2.69,2.87,2.26
22.9320,0.09,0.13,-0.98,2.87,2.81,2.14
22.9530,0.08,0.12,-0.98,2.69,3.17,1.95
22.9680,0.07,0.12,-0.98,2.99,2.93,1.89
22.9760,0.07,0.13,-0.99,3.30,2.99,1.83
22.9920,0.07,0.10,-0.98,2.81,3.11,1.77
23.0130,0.07,0.13,-0.98,2.81,3.17,1.89
23.0300,0.07,0.12,-0.99,2.93,3.11,1.89
23.0460,0.07,0.12,-0.98,3.17,2.93,1.77
23.0620,0.07,0.13,-0.99,3.05,2.99,1.71
23.0770,0.07,0.12,-0.98,3.17,3.05,1.89
23.0930,0.07,0.12,-0.98,3.05,3.11,1.95
23.1090,0.07,0.13,-0.98,2.99,2.87,1.89
23.1250,0.07,0.13,-0.98,3.05,2.62,1.89
23.1400,0.08,0.12,-0.98,3.17,2.87,1.77
23.1550,0.08,0.12,-0.98,3.05,3.11,1.77
23.1650,0.07,0.13,-0.98,2.99,3.36,1.83
23.1810,0.07,0.12,-0.98,2.99,2.93,1.77
23.2030,0.07,0.12,-0.98,2.99,2.75,1.89
23.2190,0.07,0.12,-0.98,3.11,3.05,1.89
23.2330,0.07,0.12,-0.99,3.17,3.05,1.34
23.2390,0.08,0.11,-0.98,3.11,3.05,-0.24
23.2550,0.08,0.12,-0.98,3.17,3.60,-1.89
23.2790,0.07,0.12,-0.98,3.48,3.30,-2.87
23.2940,0.08,0.12,-0.99,3.48,3.78,-2.38
23.2960,0.08,0.12,-0.98,3.23,3.78,-3.30
23.3270,0.07,0.11,-0.99,3.42,3.54,-3.30
23.3330,0.08,0.09,-0.99,3.66,4.09,-3.48
23.3460,0.06,0.11,-0.99,3.42,3.78,-2.26
23.3740,0.08,0.13,-0.99,3.30,3.97,-2.93
23.3890,0.05,0.11,-0.99,3.05,3.85,-3.36
23.4050,0.08,0.13,-0.98,2.99,3.60,-1.10
23.4110,0.08,0.12,-0.98,3.42,3.60,-1.95
23.4330,0.06,0.13,-0.98,3.42,3.30,-1.16
23.4460,0.07,0.15,-0.98,3.23,3.11,-0.06
23.4610,0.07,0.13,-0.98,2.99,3.17,0.67
23.4810,0.07,0.13,-0.98,3.30,2.93,0.12
23.4970,0.08,0.12,-0.99,3.11,3.60,-0.92
23.5130,0.08,0.13,-0.98,3.23,3.85,-2.08
23.5170,0.08,0.14,-0.98,3.30,3.66,-1.46
23.5450,0.07,0.13,-0.99,3.17,3.17,0.37
23.5610,0.07,0.13,-0.99,3.23,3.23,0.24
23.5790,0.06,0.13,-0.98,3.11,3.30,-0.31
23.5940,0.07,0.11,-0.98,3.23,3.11,-1.04
23.6000,0.08,0.11,-0.98,3.17,3.97,-2.38
23.6160,0.08,0.10,-0.99,3.48,3.66,-3.72
23.6400,0.06,0.12,-0.99,3.54,4.39,-5.13
23.6560,0.07,0.12,-0.99,3.42,3.85,-3.30
23.6730,0.06,0.12,-0.99,3.48,4.27,-5.07
23.6880,0.07,0.11,-0.99,3.60,4.76,-6.96
23.7040,0.07,0.10,-0.99,3.60,4.82,-8.54
23.7190,0.09,0.12,-0.98,3.78,4.52,-8.24
23.7350,0.07,0.13,-0.99,3.78,4.58,-7.51
23.7510,0.05,0.10,-0.99,3.66,4.46,-6.96
23.7660,0.07,0.11,-0.98,3.72,4.46,-8.00
23.7820,0.08,0.12,-0.98,4.09,4.70,-10.56
23.7970,0.08,0.13,-0.99,4.15,4.64,-10.01
23.8120,0.08,0.13,-0.98,3.85,4.76,-10.19
23.8230,0.06,0.13,-0.98,3.85,5.00,-9.58
23.8390,0.09,0.11,-0.98,3.97,4.64,-7.93
23.8560,0.07,0.12,-0.98,3.97,5.43,-10.93
23.8730,0.07,0.13,-0.98,4.03,4.88,-10.56
23.8890,0.07,0.16,-0.98,4.15,4.70,-8.42
23.9050,0.06,0.13,-0.99,3.91,4.58,-7.51
23.9210,0.07,0.13,-0.99,3.78,4.39,-8.00
23.9360,0.08,0.13,-0.99,4.03,4.88,-9.34
23.9510,0.08,0.09,-0.97,3.72,4.82,-8.97
23.9670,0.08,0.12,-0.99,4.03,4.94,-9.77
23.9820,0.08,0.12,-0.98,4.21,5.07,-9.83
23.9900,0.07,0.14,-1.00,4.15,4.82,-10.50
24.0060,0.06,0.11,-0.98,3.78,5.13,-12.51
24.0290,0.07,0.14,-0.99,4.15,5.13,-10.80
24.0450,0.08,0.14,-0.97,3.66,4.58,-7.93
24.0610,0.06,0.14,-0.99,3.91,5.00,-9.34
24.0770,0.08,0.14,-0.98,3.23,4.33,-7.45
24.0930,0.06,0.10,-0.98,3.72,4.58,-9.77
24.0960,0.05,0.10,-0.98,4.46,4.94,-9.34
24.1120,0.07,0.15,-0.99,3.36,4.21,-6.53
24.1340,0.08,0.12,-0.98,3.66,4.27,-5.55
24.1510,0.08,0.12,-0.99,4.21,4.52,-9.40
24.1670,0.08,0.12,-0.98,3.97,5.43,-13.43
24.1840,0.08,0.13,-0.99,3.54,4.52,-9.34
24.2010,0.07,0.13,-0.98,3.97,4.39,-6.29
24.2160,0.06,0.13,-0.98,3.42,4.64,-6.65
24.2330,0.06,0.14,-0.99,3.66,4.33,-8.24
24.2490,0.07,0.13,-0.97,3.60,4.39,-8.24
24.2650,0.09,0.16,-0.98,3.60,4.09,-4.88
24.2810,0.07,0.13,-0.98,3.60,4.27,-5.25
24.2970,0.07,0.13,-0.98,3.54,3.72,-3.85
24.3130,0.07,0.13,-0.98,3.30,3.72,-3.23
24.3290,0.05,0.12,-0.99,3.78,3.66,-3.91
24.3450,0.07,0.13,-0.98,3.54,3.66,-2.99
24.3610,0.09,0.14,-0.98,3.23,3.66,-2.69
24.3670,0.09,0.16,-0.98,3.30,3.60,-1.65
24.3830,0.07,0.14,-0.98,3.05,2.99,0.37
24.4060,0.07,0.13,-0.99,2.87,2.75,1.46
24.4230,0.07,0.11,-0.99,3.11,2.93,0.37
24.4390,0.07,0.12,-0.99,3.23,3.66,-2.69
24.4560,0.08,0.15,-0.98,3.42,3.36,-1.83
24.4730,0.08,0.15,-0.98,2.93,3.30,0.98
24.4880,0.08,0.13,-0.98,2.81,2.93,1.83
24.5040,0.08,0.13,-0.98,2.93,2.87,1.59
24.5190,0.07,0.13,-0.98,3.05,2.99,1.40
24.5350,0.07,0.13,-0.98,3.11,3.17,1.53
24.5500,0.07,0.13,-0.98,2.99,3.17,1.65
24.5650,0.07,0.13,-0.98,2.99,3.11,1.22
24.5800,0.07,0.13,-0.98,3.11,3.42,1.22
24.5900,0.07,0.12,-0.98,2.99,3.30,1.10
24.6050,0.07,0.13,-0.99,3.05,3.36,1.53
24.6280,0.07,0.13,-0.98,2.99,2.99,2.01
24.6440,0.07,0.13,-0.98,3.11,3.23,1.77
24.6600,0.07,0.13,-0.98,3.11,3.17,1.83
24.6630,0.07,0.13,-0.98,2.99,2.93,1.77
24.6780,0.07,0.13,-0.98,2.81,2.99,1.83
24.7020,0.07,0.13,-0.98,2.75,3.05,1.95
24.7180,0.07,0.13,-0.98,3.05,2.93,1.95
24.7350,0.07,0.13,-0.98,3.30,2.93,1.83
24.7500,0.07,0.13,-0.98,3.11,3.05,1.89
24.7670,0.07,0.12,-0.98,3.11,3.30,1.95
24.7820,0.07,0.13,-0.99,3.05,3.05,1.83
24.7980,0.07,0.13,-0.98,2.99,3.23,1.83
24.8130,0.07,0.13,-0.98,3.05,2.99,1.95
24.8190,0.07,0.13,-0.98,3.05,3.17,2.01
24.8350,0.07,0.13,-0.98,3.05,3.36,1.89
24.8570,0.07,0.13,-0.98,3.11,3.05,1.83
24.8740,0.07,0.12,-0.98,2.93,3.17,1.77
24.8910,0.07,0.12,-0.98,3.17,3.17,1.77
24.9070,0.07,0.13,-0.98,3.17,2.50,1.77
24.9240,0.07,0.13,-0.98,3.11,2.81,1.89
24.9400,0.07,0.13,-0.98,2.93,3.11,1.77
24.9560,0.07,0.12,-0.98,3.17,2.81,1.95
24.9710,0.07,0.12,-0.98,3.05,3.17,1.95
24.9750,0.07,0.13,-0.98,3.42,3.05,2.01
24.9900,0.07,0.13,-0.98,3.11,2.99,1.89
25.0140,0.07,0.13,-0.98,3.11,3.11,1.89
25.0300,0.07,0.13,-0.98,2.87,3.30,1.95
25.0470,0.07,0.13,-0.98,2.93,3.11,1.95
25.0630,0.07,0.13,-0.98,3.11,2.81,1.89
25.0800,0.07,0.13,-0.98,3.11,2.99,1.89
25.0960,0.07,0.13,-0.98,3.36,2.99,1.95
25.1120,0.07,0.13,-0.97,2.99,3.36,1.89
25.1280,0.07,0.13,-0.98,2.99,2.93,1.89
25.1440,0.07,0.13,-0.99,2.93,3.23,1.77
25.1470,0.07,0.13,-0.98,2.93,3.17,2.01
25.1620,0.07,0.13,-0.98,3.17,3.05,2.01
25.1860,0.07,0.13,-0.99,3.17,2.62,1.71
25.2020,0.07,0.13,-0.99,2.93,2.75,1.89
25.2180,0.07,0.13,-0.98,2.87,3.05,1.95
25.2350,0.07,0.13,-0.98,2.87,3.05,1.83
25.2510,0.07,0.13,-0.98,2.93,3.17,1.77
25.2660,0.08,0.13,-0.99,2.87,3.05,1.71
25.2820,0.07,0.13,-0.98,2.81,2.87,1.89
25.2860,0.07,0.13,-0.98,2.87,2.87,3.30
25.3040,0.07,0.12,-0.98,2.69,2.62,4.64
25.3300,0.07,0.12,-0.98,2.56,2.93,3.91
25.3450,0.08,0.12,-0.98,3.17,3.05,2.44
25.3590,0.07,0.13,-0.98,3.23,2.93,2.14
25.3750,0.07,0.13,-0.99,3.05,2.99,1.89
25.3860,0.06,0.13,-0.98,2.93,2.99,2.08
25.4020,0.07,0.12,-0.99,2.75,2.69,3.85
25.4200,0.08,0.12,-0.98,2.93,2.81,2.50
25.4350,0.07,0.13,-0.98,3.11,2.81,1.89
25.4370,0.07,0.13,-0.98,3.23,2.81,1.77
25.4650,0.07,0.13,-0.99,2.87,3.23,1.95
25.4800,0.07,0.13,-0.99,3.05,3.11,1.89
25.4960,0.07,0.13,-0.98,2.81,2.81,2.01
25.5110,0.07,0.12,-0.98,3.17,2.50,2.81
25.5260,0.07,0.13,-0.98,3.17,2.81,1.95
25.5360,0.07,0.13,-0.98,3.05,2.99,1.95
25.5530,0.07,0.13,-0.98,2.99,2.75,1.65
25.5690,0.07,0.13,-0.98,3.05,2.87,1.83
25.5850,0.07,0.13,-0.98,2.93,2.56,1.89
25.6010,0.07,0.13,-0.99,2.99,3.05,1.95
25.6160,0.07,0.13,-0.98,2.81,3.42,1.95
25.6300,0.07,0.13,-0.98,3.11,2.99,1.89
25.6460,0.07,0.13,-0.98,3.17,2.87,1.89
25.6600,0.07,0.13,-0.98,2.87,2.93,1.77
25.6760,0.07,0.13,-0.98,3.05,2.87,1.95
25.6870,0.07,0.13,-0.98,2.99,3.11,1.89
25.7040,0.07,0.13,-0.98,3.17,3.11,1.89
25.7190,0.07,0.13,-0.98,3.11,3.05,1.71
25.7360,0.07,0.13,-0.98,3.11,3.11,1.65
25.7510,0.07,0.13,-0.98,2.87,3.11,1.77
25.7660,0.07,0.13,-0.98,3.23,2.62,1.65
25.7810,0.07,0.13,-0.98,3.11,2.99,1.83
25.7960,0.07,0.13,-0.98,3.05,3.48,1.83
25.8120,0.07,0.13,-0.98,2.81,3.36,1.77
25.8270,0.07,0.13,-0.98,2.87,3.17,1.89
25.8420,0.07,0.13,-0.98,2.93,2.93,1.77
25.8530,0.07,0.13,-0.99,2.99,2.99,1.83
25.8690,0.07,0.13,-0.98,2.93,2.87,1.71
25.8860,0.07,0.13,-0.98,2.93,3.42,1.71
25.9020,0.07,0.13,-0.98,2.93,3.17,1.77
25.9190,0.07,0.13,-0.98,2.99,3.11,2.08
25.9350,0.07,0.13,-0.98,3.11,2.69,1.83
25.9500,0.07,0.13,-0.98,3.05,2.75,2.56
25.9590,0.07,0.12,-0.98,2.93,2.99,2.38
25.9740,0.07,0.13,-0.99,2.99,3.30,1.89
25.9960,0.07,0.13,-0.98,3.05,3.17,1.95
26.0000,0.07,0.13,-0.98,2.99,3.30,1.89
26.0270,0.07,0.13,-0.98,3.05,2.81,1.89
26.0330,0.07,0.13,-0.98,2.87,2.81,1.95
26.0490,0.07,0.13,-0.98,3.17,2.87,1.83
26.0730,0.07,0.13,-0.99,2.93,3.05,1.83
26.0880,0.07,0.13,-0.98,3.05,3.11,1.89
26.0910,0.07,0.13,-0.98,2.93,3.17,1.77
26.1070,0.07,0.13,-0.98,2.87,3.23,1.89
26.1330,0.07,0.13,-0.98,2.99,3.17,2.08
26.1480,0.07,0.13,-0.98,2.81,3.17,2.01
26.1660,0.07,0.13,-0.98,2.99,2.81,1.89
26.1810,0.07,0.13,-0.98,2.99,2.81,1.65
26.1970,0.07,0.13,-0.98,2.93,2.75,1.83
26.2140,0.07,0.13,-0.98,2.87,2.87,2.50
26.2290,0.07,0.13,-0.98,3.05,2.75,2.44
26.2450,0.07,0.13,-0.98,2.75,3.17,2.08
26.2470,0.07,0.13,-0.98,2.93,2.93,1.89
26.2630,0.07,0.13,-0.98,3.05,2.99,1.89
26.2870,0.06,0.13,-0.98,2.81,3.30,2.32
26.3040,0.08,0.13,-0.98,2.69,2.93,3.42
26.3200,0.07,0.12,-0.98,3.48,3.17,2.20
26.3370,0.07,0.13,-0.98,2.81,3.11,1.71
26.3530,0.07,0.12,-0.98,3.23,3.05,1.34
26.3680,0.07,0.13,-0.98,2.99,2.87,1.65
26.3850,0.07,0.13,-0.98,2.75,3.42,1.83
26.4010,0.07,0.13,-0.98,3.05,3.05,1.46
26.4030,0.07,0.13,-0.98,2.99,3.11,1.34
26.4190,0.05,0.13,-0.99,3.17,2.69,1.59
26.4440,0.07,0.13,-0.99,2.75,3.05,2.01
26.4600,0.07,0.12,-0.98,2.99,3.05,1.83
26.4770,0.07,0.13,-0.98,2.93,3.30,2.26
26.4940,0.06,0.12,-0.98,2.81,2.87,2.38
26.5090,0.04,0.13,-0.98,2.87,2.50,3.72
26.5250,0.03,0.14,-0.99,2.62,2.56,5.68
26.5410,0.03,0.14,-0.98,2.62,2.38,7.45
26.5560,0.02,0.15,-0.98,2.69,2.44,7.63
26.5710,0.04,0.17,-0.99,3.05,2.69,5.37
26.5860,0.05,0.15,-0.97,4.82,4.76,-5.25
26.6010,0.11,0.15,-0.98,5.13,5.13,-7.87
26.6110,0.15,0.12,-1.02,3.72,9.09,-3.85
26.6280,0.15,0.10,-1.01,3.48,15.56,-1.71
26.6430,0.10,0.06,-1.04,6.23,28.69,-2.50
26.6600,0.08,0.10,-1.06,3.36,39.37,1.53
26.6760,0.07,0.12,-1.07,-7.02,42.54,5.92
26.6930,0.03,0.12,-1.00,-7.69,34.00,4.52
26.7100,0.04,0.12,-0.93,-4.03,21.00,2.14
26.7260,0.08,0.12,-0.89,-1.34,7.02,-2.69
26.7430,0.08,0.10,-0.86,-5.98,-4.88,-4.15
26.7590,0.05,0.12,-0.85,-2.32,-15.75,-0.06
26.7760,0.02,0.12,-0.86,16.17,-22.71,4.39
26.7930,-0.07,0.13,-0.96,28.69,-22.83,9.77
26.8100,-0.03,0.13,-1.01,25.09,-16.05,2.08
26.8260,0.02,0.12,-1.04,9.46,-4.46,-5.00
26.8420,0.03,0.13,-1.02,-3.11,4.09,2.81
26.8590,0.01,0.12,-1.08,-7.75,1.16,3.72
26.8740,0.03,0.08,-0.89,4.46,-12.57,0.18
26.8910,0.03,0.13,-1.01,8.73,-10.07,-0.61
26.9060,-0.00,0.13,-1.00,2.50,-0.49,-0.37
26.9100,0.07,0.09,-0.98,0.73,3.42,-3.91
26.9370,0.08,0.10,-0.98,3.97,0.24,-3.11
26.9520,0.04,0.15,-0.99,2.38,-1.34,2.50
26.9600,0.06,0.18,-0.99,-0.49,0.12,5.92
26.9770,0.06,0.18,-0.98,-3.30,4.15,6.41
26.9920,0.04,0.16,-0.97,3.11,-1.10,4.39
27.0130,0.06,0.12,-0.98,1.83,2.56,2.38
27.0300,0.10,0.10,-0.97,2.44,3.54,-1.71
27.0340,0.11,0.13,-0.97,3.30,3.42,-2.62
27.0610,0.10,0.14,-0.97,2.99,3.66,-1.46
27.0760,0.07,0.14,-0.99,2.75,2.93,0.98
27.0930,0.06,0.12,-0.98,2.44,2.81,-0.24
27.1090,0.06,0.12,-0.98,3.42,4.09,-4.33
27.1140,0.10,0.12,-1.02,3.72,4.15,-8.85
27.1340,0.12,0.12,-0.97,4.21,4.58,-10.19
27.1570,0.10,0.13,-0.98,3.54,4.39,-7.14
27.1630,0.06,0.13,-0.99,3.42,4.27,-3.36
27.1790,0.03,0.12,-0.98,3.60,3.91,-4.58
27.2000,0.04,0.11,-0.99,4.27,5.07,-9.70
27.2170,0.05,0.12,-0.99,4.15,4.94,-11.47
27.2350,0.10,0.14,-0.98,3.85,5.00,-10.62
27.2500,0.11,0.13,-0.98,3.48,4.52,-6.35
27.2660,0.09,0.12,-0.98,3.54,4.21,-5.13
27.2830,0.08,0.12,-0.98,3.48,4.46,-5.49
27.2980,0.08,0.13,-0.98,3.23,4.15,-4.94
27.3010,0.09,0.13,-0.98,3.11,3.60,-3.42
27.3280,0.07,0.13,-0.98,2.87,3.72,-2.62
27.3350,0.08,0.12,-0.99,3.11,3.48,-1.65
27.3510,0.08,0.12,-0.99,2.99,3.66,-2.01
27.3680,0.08,0.11,-0.99,3.05,3.42,-2.20
27.3840,0.08,0.12,-0.98,2.93,3.36,-2.69
27.4000,0.08,0.14,-0.98,3.17,3.54,-2.62
27.4170,0.07,0.14,-0.98,3.48,3.78,-1.22
27.4330,0.07,0.13,-0.98,2.93,2.99,1.71
27.4470,0.08,0.13,-0.98,2.87,2.93,2.93
27.4510,0.08,0.13,-0.98,2.81,2.93,3.66
27.4670,0.06,0.13,-0.98,2.93,3.11,3.11
27.4850,0.07,0.13,-0.98,2.99,2.87,1.71
27.5000,0.07,0.13,-0.99,3.05,3.11,1.34
27.5160,0.06,0.12,-0.99,2.99,3.11,1.28
27.5400,0.07,0.13,-0.98,3.05,2.75,1.22
27.5560,0.07,0.13,-0.98,3.05,3.23,1.40
27.5720,0.05,0.13,-0.99,2.93,2.93,1.10
27.5880,0.05,0.12,-0.99,3.05,3.23,0.61
27.6030,0.07,0.12,-0.98,3.23,3.48,-1.22
27.6180,0.09,0.14,-0.98,3.42,3.05,-0.67
27.6340,0.08,0.14,-0.98,3.05,3.42,0.79
27.6490,0.08,0.13,-0.98,2.93,3.05,1.16
27.6560,0.06,0.13,-0.98,3.23,3.11,1.77
27.6710,0.06,0.13,-0.99,2.93,2.99,1.65
27.6950,0.07,0.12,-0.98,3.05,2.99,0.55
27.7100,0.06,0.13,-0.99,3.54,2.87,0.06
27.7140,0.07,0.13,-0.98,3.05,3.66,-0.06
27.7410,0.08,0.12,-0.98,3.30,3.72,-0.18
27.7470,0.09,0.12,-0.98,3.17,3.23,0.06
27.7630,0.07,0.12,-0.99,3.11,3.42,0.55
27.7870,0.06,0.12,-0.98,3.30,3.11,0.24
27.8030,0.08,0.13,-0.98,3.17,3.30,0.18
27.8210,0.07,0.14,-0.98,3.11,3.11,0.67
27.8360,0.07,0.13,-0.98,2.81,3.05,1.22
27.8520,0.07,0.13,-0.98,2.99,2.81,0.98
27.8540,0.08,0.13,-0.98,2.81,2.93,1.04
27.8690,0.08,0.13,-0.98,2.99,3.30,1.16
27.8920,0.08,0.13,-0.98,3.11,2.62,1.46
27.9090,0.07,0.13,-0.98,3.11,2.75,1.77
27.9260,0.07,0.13,-0.98,2.93,2.99,1.77
27.9410,0.07,0.13,-0.99,2.81,2.81,1.89
27.9600,0.07,0.13,-0.98,2.99,3.17,1.89
27.9760,0.07,0.13,-0.98,3.05,2.87,1.95
27.9910,0.07,0.13,-0.98,3.23,2.93,1.71
27.9980,0.07,0.13,-0.98,3.30,3.05,2.01
28.0130,0.07,0.13,-0.98,3.11,3.11,1.89
28.0360,0.07,0.13,-0.99,3.05,3.17,1.89
28.0520,0.07,0.13,-0.98,2.75,2.93,1.89
28.0680,0.08,0.13,-0.98,2.75,3.05,2.14
28.0840,0.07,0.12,-0.98,2.75,3.30,2.26
28.0870,0.07,0.13,-0.98,3.05,2.99,1.89
28.1020,0.07,0.13,-0.98,3.30,2.93,1.89
28.1250,0.07,0.13,-0.98,3.11,3.05,1.77
28.1420,0.07,0.13,-0.98,2.99,3.05,1.89
28.1580,0.08,0.13,-0.98,3.17,2.81,2.01
28.1750,0.08,0.13,-0.98,3.11,2.93,2.62
28.1920,0.07,0.13,-0.98,2.99,2.56,3.36
28.2080,0.07,0.13,-0.99,3.11,2.69,3.11
28.2240,0.07,0.13,-0.98,2.87,2.93,2.56
28.2400,0.07,0.13,-0.98,2.81,2.75,2.14
28.2570,0.07,0.13,-0.98,3.05,3.05,2.08
28.2730,0.07,0.13,-0.98,2.99,2.69,1.77
28.2750,0.07,0.13,-0.98,3.11,3.11,1.83
28.2900,0.07,0.13,-0.98,2.99,3.05,1.95
28.3160,0.07,0.13,-0.98,2.99,2.75,1.89
28.3310,0.07,0.13,-0.98,2.99,2.75,1.95
28.3480,0.07,0.13,-0.98,2.99,3.23,1.89
28.3490,0.07,0.13,-0.98,3.11,3.11,1.95
28.3800,0.07,0.13,-0.98,2.99,2.93,1.89
28.3960,0.07,0.13,-0.98,3.17,2.87,1.71
28.3980,0.07,0.13,-0.98,3.23,2.87,1.83
28.4140,0.07,0.13,-0.98,3.05,2.81,1.77
28.4370,0.07,0.13,-0.98,2.99,2.75,1.89
28.4530,0.07,0.13,-0.98,2.99,2.50,1.83
28.4700,0.07,0.13,-0.98,2.99,2.81,1.83
28.4860,0.07,0.13,-0.98,3.17,3.17,1.89
28.5020,0.07,0.13,-0.98,3.11,3.17,1.83
28.5180,0.07,0.13,-0.98,2.99,2.56,1.83
28.5200,0.07,0.13,-0.98,2.93,2.75,1.83
28.5370,0.07,0.13,-0.98,2.99,2.87,1.83
28.5590,0.07,0.13,-0.99,2.81,2.93,2.32
28.5760,0.07,0.12,-0.99,2.99,3.11,2.20
28.5920,0.07,0.13,-0.98,2.62,2.99,2.93
28.6080,0.07,0.13,-0.98,2.81,3.05,2.87
28.6250,0.07,0.13,-0.98,2.93,2.99,2.01
28.6420,0.07,0.13,-0.98,3.05,2.99,1.71
28.6580,0.07,0.13,-0.99,2.62,2.99,1.77
28.6740,0.07,0.13,-0.98,2.75,2.81,2.26
28.6910,0.07,0.13,-0.98,2.93,2.38,4.15
28.7060,0.08,0.12,-0.98,2.56,2.56,3.48
28.7230,0.07,0.13,-0.98,3.11,2.69,2.01
28.7390,0.07,0.13,-0.99,3.17,2.99,1.83
28.7540,0.07,0.13,-0.98,3.17,2.87,1.89
28.7690,0.08,0.13,-0.98,2.56,2.38,3.66
28.7850,0.05,0.14,-0.98,2.38,2.38,4.58
28.8000,0.07,0.12,-0.98,2.81,2.56,4.21
28.8090,0.07,0.13,-0.98,2.99,3.23,2.50
28.8250,0.07,0.13,-0.98,3.17,2.81,1.95
28.8470,0.07,0.12,-0.98,3.11,3.11,2.50
28.8630,0.07,0.13,-0.98,2.81,2.69,3.42
28.8790,0.07,0.13,-0.98,2.99,2.99,2.44
28.8950,0.06,0.14,-0.98,2.99,2.69,3.11
28.8980,0.08,0.13,-0.98,2.50,1.89,5.98
28.9140,0.09,0.12,-0.98,2.56,2.01,6.53
28.9390,0.10,0.13,-0.98,2.56,2.75,5.86
28.9560,0.12,0.15,-0.98,2.87,2.38,6.59
28.9720,0.12,0.17,-0.98,1.89,1.95,7.75
28.9880,0.09,0.15,-0.98,2.08,2.08,7.26
29.0040,0.06,0.14,-0.99,2.56,1.83,8.42
29.0200,0.07,0.12,-0.98,2.14,1.83,11.17
29.0350,0.06,0.10,-0.99,1.89,1.46,12.45
29.0500,0.08,0.10,-0.98,2.38,1.77,10.50
29.0650,0.08,0.11,-0.98,2.32,1.71,10.50
29.0800,0.08,0.12,-0.98,2.62,1.77,9.09
29.0950,0.05,0.13,-0.98,2.56,2.01,8.30
29.1050,0.03,0.12,-0.99,3.17,2.32,6.04
29.1220,0.04,0.12,-0.99,2.69,2.93,3.05
29.1390,0.06,0.13,-0.99,2.99,3.05,1.16
29.1550,0.08,0.13,-0.98,3.23,3.05,1.59
29.1720,0.08,0.14,-0.98,3.17,3.11,2.38
29.1880,0.07,0.12,-0.98,2.81,2.99,2.69
29.2050,0.04,0.11,-0.99,3.30,2.87,2.50
29.2210,0.07,0.13,-0.99,3.17,3.30,1.65
29.2360,0.07,0.13,-0.98,2.93,2.93,1.46
29.2520,0.07,0.13,-0.98,2.75,2.93,1.89
29.2670,0.07,0.13,-0.98,2.87,3.11,1.89
29.2730,0.07,0.13,-0.98,2.99,2.75,1.83
29.2880,0.07,0.13,-0.98,3.05,2.75,1.89
29.3130,0.07,0.13,-0.98,3.11,2.93,1.89
29.3290,0.08,0.12,-0.98,3.11,2.62,2.26
29.3450,0.07,0.12,-0.98,2.87,2.93,2.62
29.3610,0.07,0.13,-0.98,3.11,2.99,2.01
29.3770,0.07,0.13,-0.98,2.87,3.05,1.89
29.3790,0.07,0.13,-0.98,3.05,2.69,1.95
29.3950,0.07,0.13,-0.98,3.11,2.75,1.83
29.4200,0.07,0.13,-0.98,3.05,2.69,1.71
29.4380,0.07,0.13,-0.98,2.99,3.05,1.89
29.4530,0.07,0.13,-0.98,3.05,3.36,1.95
29.4680,0.07,0.13,-0.98,3.11,3.17,1.89
29.4840,0.07,0.13,-0.98,3.17,2.81,1.83
29.4870,0.07,0.13,-0.99,3.11,2.75,1.89
29.5020,0.07,0.13,-0.98,2.99,2.87,1.83
29.5270,0.07,0.13,-0.98,2.99,2.93,1.65
29.5430,0.07,0.13,-0.98,2.99,2.99,1.77
29.5600,0.07,0.13,-0.98,2.99,3.17,1.89
29.5770,0.07,0.13,-0.98,2.99,3.23,1.83
29.5930,0.07,0.13,-0.98,3.05,3.23,1.89
29.6090,0.07,0.13,-0.98,3.23,2.99,1.95
29.6250,0.07,0.13,-0.98,3.05,2.99,1.83
29.6400,0.07,0.13,-0.98,3.11,3.23,2.01
29.6560,0.07,0.13,-0.98,2.99,3.30,1.83
29.6720,0.07,0.13,-0.98,2.99,3.17,1.77
29.6870,0.07,0.13,-0.98,2.93,3.11,1.83
29.7020,0.07,0.13,-0.98,2.99,3.11,2.01
29.7100,0.07,0.13,-0.98,3.11,3.05,1.83
29.7260,0.07,0.13,-0.98,2.99,3.11,1.95
29.7480,0.07,0.13,-0.98,3.17,3.17,1.83
29.7640,0.07,0.13,-0.98,3.05,3.30,1.83
29.7800,0.07,0.13,-0.98,3.05,2.75,1.77
29.7960,0.07,0.13,-0.98,3.05,3.30,1.89
29.8120,0.07,0.13,-0.98,3.05,3.36,1.95
29.8160,0.07,0.13,-0.98,2.99,3.23,2.01
29.8390,0.07,0.13,-0.98,3.05,2.87,1.89
29.8520,0.07,0.13,-0.98,3.05,2.93,1.89
29.8690,0.07,0.13,-0.98,2.99,2.75,1.83
29.8860,0.07,0.13,-0.98,2.99,3.30,2.01
29.9020,0.07,0.13,-0.98,3.11,2.81,1.89
29.9190,0.07,0.13,-0.98,3.11,2.99,1.95
29.9340,0.07,0.13,-0.98,2.99,3.05,1.89
29.9400,0.07,0.13,-0.98,2.99,3.11,1.89
29.9660,0.07,0.13,-0.98,2.99,3.05,1.83
29.9820,0.07,0.13,-0.98,2.87,3.36,1.89
29.9980,0.07,0.13,-0.98,2.99,3.17,1.83
30.0150,0.07,0.13,-0.98,2.93,3.11,1.65
30.0310,0.07,0.13,-0.98,3.11,2.93,1.77
30.0470,0.07,0.13,-0.98,2.93,2.69,1.46
30.0620,0.07,0.13,-0.98,2.87,2.93,1.77
30.0700,0.07,0.13,-0.98,3.11,3.30,1.89
30.0850,0.07,0.13,-0.98,3.11,2.93,1.83
30.1080,0.07,0.13,-0.98,2.99,2.93,1.95
30.1240,0.07,0.13,-0.98,3.05,3.17,1.89
30.1410,0.07,0.13,-0.98,2.87,2.81,1.83
30.1570,0.07,0.13,-0.98,2.75,3.30,2.01
30.1730,0.07,0.13,-0.98,3.05,2.99,1.95
30.1890,0.07,0.13,-0.98,2.93,3.30,1.83
30.2040,0.07,0.13,-0.98,2.93,3.11,1.83
30.2190,0.07,0.13,-0.98,2.99,3.23,2.01
30.2340,0.07,0.13,-0.98,3.05,3.36,1.83
30.2500,0.07,0.13,-0.99,3.11,3.23,1.95
30.2650,0.07,0.13,-0.98,2.99,3.11,1.95
30.2750,0.07,0.13,-0.98,2.87,3.48,1.95
30.2920,0.07,0.13,-0.98,3.05,2.93,1.95
30.3080,0.07,0.13,-0.98,2.81,2.81,1.83
30.3250,0.07,0.13,-0.98,3.05,3.17,1.83
30.3420,0.07,0.13,-0.98,3.17,2.81,1.89
30.3580,0.07,0.13,-0.98,2.87,3.23,1.83
30.3600,0.07,0.13,-0.98,2.87,3.05,1.71
30.3900,0.07,0.13,-0.99,2.99,3.11,1.77
30.4070,0.07,0.13,-0.98,3.05,3.05,1.77
30.4090,0.07,0.13,-0.98,2.99,3.36,2.01
30.4250,0.07,0.13,-0.98,2.87,2.99,1.95
30.4480,0.07,0.13,-0.98,2.93,3.30,2.01
30.4640,0.07,0.13,-0.98,3.11,3.11,1.95
30.4820,0.07,0.13,-0.98,3.05,3.30,2.08
30.4970,0.07,0.13,-0.98,3.05,2.69,1.83
30.5140,0.07,0.13,-0.98,2.99,2.62,1.89
30.5310,0.07,0.13,-0.98,2.87,3.11,1.95
30.5470,0.07,0.13,-0.98,2.87,3.23,1.95
30.5630,0.07,0.13,-0.98,2.99,3.23,1.95
30.5640,0.07,0.13,-0.98,3.11,3.11,1.89
30.5950,0.07,0.13,-0.98,3.17,2.99,1.95
30.5980,0.07,0.13,-0.98,3.11,3.11,1.89
30.6280,0.07,0.13,-0.98,3.23,2.99,1.95
30.6400,0.07,0.13,-0.98,3.11,3.30,2.14
30.6460,0.07,0.11,-0.99,3.05,3.05,2.50
30.6750,0.07,0.14,-0.98,3.23,2.75,4.03
30.6860,0.07,0.13,-0.98,2.08,2.99,2.56
30.7030,0.07,0.13,-0.98,2.62,2.99,1.83
30.7190,0.05,0.14,-0.98,2.75,3.11,3.42
30.7360,0.07,0.13,-0.98,2.62,2.87,4.46
30.7510,0.08,0.12,-0.98,3.11,3.11,3.17
30.7670,0.06,0.11,-0.99,3.17,3.23,1.77
30.7700,0.04,0.10,-0.99,3.48,3.36,1.10
30.7850,0.05,0.12,-0.99,3.23,3.17,1.53
30.8090,0.06,0.13,-0.98,3.05,3.11,2.32
30.8270,0.08,0.13,-0.98,2.62,2.62,3.60
30.8420,0.07,0.13,-0.99,2.87,2.87,4.94
30.8430,0.04,0.11,-0.99,3.05,3.17,2.26
30.8740,0.04,0.11,-0.99,3.17,3.30,-0.06
30.8910,0.09,0.13,-0.98,3.30,3.36,-1.59
30.9070,0.09,0.14,-0.98,2.99,3.66,-2.44
30.9230,0.09,0.14,-0.98,3.11,3.36,-1.16
30.9260,0.07,0.13,-0.98,2.87,3.66,-0.37
30.9410,0.09,0.13,-0.98,3.11,3.97,-2.44
30.9700,0.09,0.14,-0.98,3.23,3.97,-3.78
30.9810,0.07,0.13,-0.98,3.17,3.54,-2.93
30.9970,0.06,0.11,-0.99,3.30,3.48,-1.40
31.0150,0.06,0.11,-0.98,3.17,3.66,-1.71
31.0320,0.08,0.13,-0.98,3.54,3.72,-3.30
31.0470,0.10,0.16,-0.98,3.23,4.21,-2.32
31.0480,0.08,0.14,-0.98,3.05,3.30,0.85
31.0800,0.06,0.12,-0.99,2.99,2.99,0.92
31.0960,0.06,0.11,-0.99,2.81,3.30,0.00
31.1120,0.05,0.11,-0.99,3.30,4.15,-2.99
31.1140,0.09,0.13,-0.98,3.60,4.27,-5.25
31.1410,0.10,0.16,-0.98,3.54,4.33,-5.13
31.1590,0.07,0.14,-0.98,3.42,3.91,-2.93
31.1700,0.07,0.13,-0.98,3.48,3.60,-1.77
31.1860,0.07,0.13,-0.98,2.93,3.48,-1.34
31.2030,0.06,0.13,-0.99,3.17,3.66,-1.40
31.2190,0.08,0.14,-0.98,3.23,3.85,-2.08
31.2370,0.09,0.14,-0.98,3.23,3.66,-1.71
31.2520,0.08,0.12,-0.98,3.11,3.30,-0.12
31.2670,0.06,0.12,-0.98,3.36,3.36,-0.37
31.2820,0.06,0.12,-0.99,3.36,3.66,-0.92
31.2990,0.07,0.12,-0.98,3.42,3.66,-1.95
31.3160,0.07,0.13,-0.98,3.30,3.60,-2.08
31.3210,0.10,0.14,-0.98,3.42,3.60,-1.59
31.3410,0.10,0.13,-0.98,3.05,3.17,-0.18
31.3530,0.07,0.13,-0.98,2.99,2.93,1.59
31.3750,0.07,0.13,-0.98,2.87,2.99,1.71
31.3910,0.06,0.13,-0.98,2.99,3.11,1.53
31.4080,0.06,0.12,-0.98,3.17,3.36,0.79
31.4240,0.08,0.13,-0.98,3.17,3.48,0.73
31.4400,0.08,0.13,-0.98,3.11,3.30,1.04
31.4570,0.08,0.13,-0.98,3.05,3.72,1.46
31.4730,0.08,0.13,-0.98,2.87,3.78,1.65
31.4880,0.07,0.13,-0.98,2.81,3.23,1.65
31.5040,0.07,0.13,-0.98,2.87,3.05,1.83
31.5190,0.07,0.13,-0.98,2.99,3.17,1.95
31.5340,0.07,0.13,-0.98,3.11,3.11,1.77
31.5490,0.07,0.13,-0.98,2.87,3.17,1.83
31.5580,0.07,0.13,-0.98,2.93,3.17,1.83
31.5740,0.07,0.13,-0.98,3.30,2.99,2.01
31.5960,0.07,0.13,-0.98,3.23,2.99,1.89
31.6130,0.07,0.13,-0.98,3.30,3.17,1.83
31.6140,0.07,0.13,-0.98,3.05,3.42,1.77
31.6440,0.08,0.13,-0.98,3.11,3.36,1.77
31.6600,0.07,0.13,-0.99,2.87,3.17,1.89
31.6640,0.07,0.12,-0.99,2.93,3.17,1.83
31.6790,0.07,0.13,-0.98,3.23,3.17,1.95
31.7080,0.07,0.13,-0.98,3.05,2.99,1.95
31.7190,0.07,0.13,-0.98,3.05,3.05,1.95
31.7350,0.07,0.13,-0.98,3.05,2.99,1.77
31.7530,0.07,0.13,-0.98,3.17,3.05,1.95
31.7690,0.07,0.13,-0.98,2.81,2.93,1.95
31.7710,0.07,0.13,-0.98,2.87,3.05,2.01
31.8000,0.07,0.12,-0.98,2.69,2.93,2.26
31.8160,0.06,0.13,-1.00,2.50,3.11,2.56
31.8210,0.05,0.13,-0.98,2.14,2.99,3.91
31.8480,0.08,0.14,-0.98,2.26,2.56,6.90
31.8640,0.09,0.12,-0.98,2.44,2.44,4.58
31.8800,0.07,0.12,-0.98,3.85,3.11,2.56
31.8960,0.08,0.13,-0.98,2.56,3.11,2.32
31.9110,0.07,0.13,-0.99,2.99,2.99,2.44
31.9260,0.07,0.13,-0.98,2.93,3.05,2.20
31.9410,0.07,0.13,-0.98,3.17,2.93,2.08
31.9520,0.07,0.13,-0.98,3.23,2.75,1.83
31.9690,0.07,0.13,-0.98,2.87,2.87,1.89
31.9860,0.07,0.13,-0.98,2.81,3.23,1.83
32.0020,0.07,0.13,-0.98,2.87,3.11,1.89
32.0180,0.07,0.13,-0.98,2.81,2.93,1.77
32.0340,0.07,0.13,-0.98,2.87,2.99,1.89
32.0500,0.07,0.13,-0.98,2.87,3.11,1.77
32.0530,0.07,0.13,-0.98,2.81,3.05,1.77
32.0680,0.07,0.13,-0.98,2.62,2.99,1.83
32.0910,0.07,0.13,-0.98,2.87,2.99,1.89
32.1070,0.07,0.13,-0.98,2.81,3.42,2.01
32.1250,0.07,0.13,-0.98,2.93,2.87,1.83
32.1410,0.07,0.13,-0.98,2.75,2.99,1.83
32.1570,0.07,0.13,-0.98,2.69,2.93,1.89
32.1730,0.07,0.13,-0.98,2.75,3.17,1.89
32.1900,0.07,0.13,-0.98,2.81,2.75,1.89
32.2060,0.07,0.13,-0.98,2.87,3.05,1.83
32.2230,0.07,0.13,-0.98,2.75,3.66,1.22
32.2390,0.07,0.13,-0.98,2.81,2.87,1.40
32.2430,0.06,0.13,-0.98,2.87,2.75,2.56
32.2570,0.07,0.12,-0.99,3.11,2.87,2.87
32.2810,0.08,0.12,-0.98,2.56,2.93,3.42
32.2980,0.08,0.12,-0.98,2.75,2.81,3.11
32.3160,0.07,0.13,-0.98,2.99,2.87,2.44
32.3310,0.06,0.13,-0.98,2.99,2.75,2.44
32.3470,0.07,0.13,-0.98,2.93,3.36,2.81
32.3630,0.08,0.13,-0.98,2.81,2.93,2.81
32.3660,0.08,0.12,-0.98,3.05,2.75,2.69
32.3950,0.08,0.12,-0.98,2.99,2.75,2.08
32.3990,0.07,0.13,-0.98,3.11,3.23,2.01
32.4150,0.07,0.13,-0.98,3.11,2.44,1.71
32.4400,0.07,0.13,-0.98,3.11,2.87,1.83
32.4550,0.07,0.13,-0.98,3.11,2.87,1.95
32.4720,0.07,0.13,-0.99,2.99,3.11,1.83
32.4870,0.07,0.13,-0.98,3.11,2.93,1.89
32.4910,0.07,0.13,-0.98,3.05,2.99,1.95
32.5060,0.07,0.13,-0.98,3.11,2.93,1.83
32.5310,0.07,0.13,-0.98,3.11,2.93,1.77
32.5490,0.07,0.13,-0.98,3.11,2.69,1.83
32.5650,0.07,0.13,-0.98,2.87,2.87,1.89
32.5810,0.07,0.13,-0.98,2.75,3.36,1.89
32.5980,0.07,0.13,-0.98,3.05,2.99,1.71
32.6130,0.07,0.13,-0.98,3.05,3.05,1.83
32.6300,0.07,0.13,-0.98,3.05,2.62,1.65
32.6460,0.07,0.13,-0.98,3.05,2.93,1.83
32.6610,0.07,0.13,-0.98,2.99,3.48,1.95
32.6640,0.07,0.13,-0.98,2.99,3.17,1.83
32.6800,0.07,0.13,-0.98,2.81,2.75,1.83
32.7050,0.07,0.13,-0.98,2.87,2.93,1.77
32.7220,0.07,0.13,-0.98,2.87,2.93,1.59
32.7380,0.07,0.13,-0.98,2.87,2.93,1.77
32.7550,0.07,0.13,-0.98,2.93,3.05,1.83
32.7710,0.07,0.13,-0.98,2.75,3.05,1.89
32.7860,0.07,0.13,-0.98,2.75,3.11,1.95
32.8010,0.07,0.13,-0.98,3.05,2.75,1.89
32.8050,0.07,0.13,-0.98,2.93,3.36,1.77
32.8210,0.07,0.13,-0.98,2.99,2.99,1.71
32.8460,0.07,0.13,-0.98,2.87,2.75,1.95
32.8610,0.07,0.13,-0.98,2.87,3.17,1.95
32.8770,0.07,0.13,-0.98,2.62,3.11,1.83
32.8940,0.07,0.13,-0.98,2.81,3.11,1.89
32.8960,0.07,0.13,-0.98,3.05,2.99,1.83
32.9250,0.07,0.13,-0.98,2.99,2.93,1.77
32.9420,0.07,0.13,-0.98,2.93,2.93,1.89
32.9460,0.07,0.13,-0.98,2.93,2.81,1.77
32.9620,0.07,0.13,-0.98,2.81,2.99,1.77
32.9770,0.08,0.13,-0.98,2.87,2.93,1.83
33.0000,0.08,0.13,-0.98,2.99,2.69,2.44
33.0160,0.07,0.12,-0.99,3.05,2.93,2.38
33.0330,0.07,0.13,-0.99,2.93,2.93,2.08
33.0490,0.07,0.13,-0.98,2.93,2.75,1.89
33.0640,0.07,0.13,-0.98,2.75,3.05,1.77
33.0670,0.07,0.13,-0.98,3.05,3.05,1.83
33.0960,0.07,0.13,-0.98,3.11,2.81,1.77
33.1120,0.07,0.13,-0.98,2.99,3.23,1.77
33.1270,0.07,0.13,-0.98,3.05,2.87,1.89
33.1330,0.07,0.13,-0.98,2.69,3.17,1.83
33.1490,0.07,0.13,-0.98,2.69,3.30,1.83
33.1710,0.08,0.13,-0.98,2.75,2.69,1.83
33.1880,0.07,0.12,-0.98,2.81,2.99,1.83
33.2030,0.07,0.13,-0.98,2.93,3.48,1.71
33.2180,0.07,0.13,-0.98,2.99,3.11,1.71
33.2340,0.07,0.13,-0.98,2.93,2.69,1.89
33.2440,0.07,0.13,-0.98,2.99,2.87,1.89
33.2540,0.07,0.13,-0.98,2.99,3.17,1.77
33.2770,0.07,0.13,-0.98,2.99,2.87,1.77
33.2930,0.07,0.13,-0.98,2.99,3.05,1.83
33.3090,0.07,0.13,-0.98,3.05,2.81,1.89
33.3260,0.07,0.13,-0.98,2.87,3.42,1.83
33.3430,0.07,0.13,-0.98,2.99,2.32,2.01
33.3590,0.07,0.13,-0.98,2.56,2.99,2.44
33.3750,0.07,0.13,-0.98,2.93,2.81,2.56
33.3910,0.08,0.12,-0.99,2.93,2.69,3.48
33.4070,0.07,0.13,-0.98,2.87,3.17,2.44
33.4220,0.07,0.13,-0.98,2.93,3.36,2.01
33.4380,0.07,0.13,-0.98,2.87,3.11,2.44
33.4520,0.07,0.13,-0.98,2.81,2.81,2.93
33.4670,0.07,0.13,-0.98,2.87,2.99,3.85
33.4830,0.07,0.13,-0.98,2.69,2.81,3.78
33.4930,0.07,0.12,-0.98,2.87,2.75,3.66
33.5100,0.07,0.12,-0.98,2.81,3.05,2.56
33.5260,0.07,0.13,-0.98,2.93,3.17,2.69
33.5420,0.07,0.13,-0.98,2.75,3.17,2.75
33.5590,0.07,0.13,-0.98,2.81,3.23,2.99
33.5760,0.07,0.13,-0.98,2.81,2.81,3.17
33.5910,0.07,0.13,-0.98,2.87,3.17,3.05
33.6080,0.07,0.13,-0.98,2.75,2.75,2.75
33.6240,0.07,0.13,-0.98,2.81,3.05,2.69
33.6400,0.08,0.13,-0.98,2.81,2.93,2.69
33.6450,0.07,0.13,-0.98,2.87,2.87,2.81
33.6580,0.08,0.13,-0.98,2.93,2.99,2.99
33.6830,0.07,0.12,-0.98,3.17,3.23,1.95
33.7000,0.07,0.12,-0.99,3.11,3.23,1.95
33.7160,0.07,0.13,-0.98,3.17,2.93,1.95
33.7320,0.07,0.13,-0.98,2.93,2.93,1.77
33.7470,0.07,0.13,-0.98,2.99,3.11,1.89
33.7630,0.07,0.13,-0.98,2.87,3.11,1.77
33.7780,0.07,0.13,-0.99,2.75,3.30,1.83
33.7940,0.07,0.13,-0.98,2.93,3.23,1.95
33.8100,0.07,0.13,-0.98,2.93,3.17,1.77
33.8250,0.07,0.13,-0.98,3.11,2.81,1.71
33.8400,0.07,0.13,-0.98,2.87,3.23,1.95
33.8500,0.07,0.13,-0.98,3.05,2.99,1.83
33.8670,0.07,0.13,-0.98,2.99,2.81,1.77
33.8850,0.07,0.13,-0.98,3.05,3.11,1.89
33.8850,0.07,0.13,-0.98,2.99,3.60,1.89
33.9160,0.07,0.13,-0.98,2.93,3.30,1.83
33.9320,0.07,0.13,-0.98,2.93,2.99,1.83
33.9470,0.07,0.13,-0.98,2.81,2.93,1.83
33.9640,0.07,0.13,-0.98,2.99,2.81,1.89
33.9800,0.07,0.13,-0.98,3.05,2.93,1.71
33.9960,0.07,0.13,-0.99,2.99,2.99,1.83
34.0110,0.07,0.13,-0.98,3.05,3.30,1.83
34.0170,0.07,0.13,-0.98,3.11,3.05,1.77
34.0330,0.07,0.13,-0.98,2.81,3.17,1.95
34.0560,0.07,0.13,-0.98,2.99,3.11,1.83
34.0730,0.07,0.13,-0.98,3.11,3.05,1.83
34.0900,0.07,0.13,-0.98,2.87,3.05,1.95
34.1060,0.07,0.13,-0.98,2.99,3.05,1.89
34.1220,0.07,0.13,-0.98,3.11,3.05,1.89
34.1370,0.07,0.13,-0.98,2.99,2.87,1.77
34.1520,0.07,0.13,-0.98,3.23,2.81,1.83
34.1560,0.07,0.13,-0.98,2.93,3.17,1.95
34.1720,0.07,0.13,-0.98,2.93,3.11,1.77
34.1940,0.07,0.13,-0.99,2.81,2.93,1.89
34.2120,0.07,0.13,-0.98,2.93,3.17,1.65
34.2280,0.07,0.13,-0.98,2.99,3.17,1.89
34.2290,0.07,0.13,-0.98,3.17,2.81,1.89
34.2460,0.07,0.13,-0.98,3.05,3.23,1.83
34.2750,0.07,0.13,-0.98,2.99,3.17,1.83
34.2790,0.07,0.13,-0.98,2.87,3.23,1.95
34.2940,0.07,0.13,-0.98,2.81,3.11,1.77
34.3240,0.07,0.13,-0.98,2.99,3.36,1.89
34.3290,0.07,0.13,-0.98,2.99,3.05,1.83
34.3460,0.07,0.13,-0.98,3.11,2.93,1.83
34.3700,0.07,0.13,-0.98,2.99,2.87,1.83
34.3810,0.07,0.13,-0.98,2.93,3.05,1.95
34.3970,0.07,0.13,-0.98,3.05,3.05,1.89
34.4140,0.07,0.13,-0.98,3.11,2.99,1.89
34.4310,0.07,0.13,-0.98,2.93,3.23,1.95
34.4470,0.07,0.13,-0.98,3.30,2.99,1.83
34.4640,0.07,0.13,-0.98,2.93,3.17,1.71
34.4800,0.07,0.13,-0.98,2.93,2.99,1.95
34.4970,0.07,0.13,-0.98,2.93,3.17,1.89
34.5120,0.07,0.13,-0.98,2.99,3.05,1.89
34.5140,0.07,0.13,-0.98,2.93,3.05,1.77
34.5300,0.07,0.13,-0.98,3.05,2.93,1.83
34.5540,0.07,0.13,-0.98,3.05,2.50,1.77
34.5700,0.07,0.13,-0.98,2.87,2.93,1.89
34.5860,0.07,0.13,-0.98,3.17,3.11,1.89
34.6020,0.07,0.13,-0.98,2.81,3.17,1.65
34.6170,0.07,0.13,-0.98,2.99,2.87,1.77
34.6320,0.07,0.13,-0.98,3.05,2.87,1.95
34.6470,0.07,0.13,-0.98,3.05,3.05,1.89
34.6640,0.07,0.13,-0.98,3.05,2.93,1.71
34.6790,0.07,0.13,-0.98,2.99,3.42,1.89
34.6940,0.07,0.13,-0.98,3.23,2.81,1.77
34.7040,0.07,0.13,-0.98,2.99,2.99,1.77
34.7210,0.07,0.13,-0.99,3.05,3.42,1.65
34.7370,0.09,0.10,-0.99,2.93,3.05,1.89
34.7540,0.06,0.14,-0.98,2.75,3.23,2.81
34.7710,0.07,0.13,-0.98,2.87,2.87,2.26
34.7870,0.07,0.13,-0.98,3.05,3.11,2.14
34.8020,0.07,0.13,-0.98,3.11,3.05,2.50
34.8170,0.07,0.12,-0.98,2.81,3.36,1.77
34.8330,0.07,0.13,-0.98,3.05,3.23,1.46
34.8460,0.07,0.13,-0.98,2.87,3.36,1.71
34.8540,0.07,0.12,-0.98,2.99,3.11,2.20
34.8780,0.08,0.12,-0.99,3.23,2.69,1.83
34.8950,0.07,0.13,-0.98,2.99,2.93,1.53
34.9100,0.07,0.13,-0.98,3.11,3.05,2.08
34.9270,0.07,0.12,-0.98,2.99,2.93,1.71
34.9280,0.07,0.12,-0.98,3.05,2.93,1.16
34.9470,0.07,0.12,-0.98,2.93,2.87,1.10
34.9610,0.07,0.14,-0.98,3.17,3.11,1.89
34.9790,0.07,0.14,-0.98,2.87,3.30,1.59
34.9940,0.07,0.13,-0.98,2.99,2.81,1.95
35.0150,0.07,0.13,-0.98,2.93,3.11,1.95
35.0320,0.07,0.13,-0.98,3.30,3.30,1.83
35.0480,0.07,0.13,-0.98,3.42,2.93,1.59
35.0650,0.07,0.13,-0.98,2.99,3.05,1.53
35.0820,0.07,0.13,-0.98,3.05,3.05,1.95
35.0830,0.07,0.12,-0.98,2.93,3.17,1.89
35.1130,0.07,0.12,-0.98,2.93,3.17,2.14
35.1160,0.07,0.13,-0.98,2.81,3.17,2.14
35.1460,0.08,0.13,-0.98,2.93,3.11,2.01
35.1490,0.07,0.13,-0.98,2.99,2.93,1.89
35.1760,0.07,0.13,-0.98,2.81,3.11,1.89
35.1820,0.07,0.12,-0.98,2.81,3.30,1.89
35.1970,0.07,0.13,-0.98,3.05,2.75,1.77
35.2210,0.07,0.13,-0.98,2.99,3.23,1.65
35.2230,0.07,0.13,-0.98,2.99,3.36,1.77
35.2510,0.08,0.14,-0.98,3.17,2.99,1.83
35.2660,0.07,0.13,-0.98,2.93,3.11,1.89
35.2820,0.07,0.13,-0.98,2.93,3.23,1.71
35.2960,0.07,0.13,-0.98,3.05,3.17,1.89
35.3120,0.07,0.13,-0.98,2.99,3.05,2.08
35.3230,0.07,0.13,-0.98,2.93,2.81,1.95
35.3390,0.07,0.12,-0.98,3.05,3.11,1.89
35.3560,0.07,0.13,-0.98,2.93,3.11,2.01
35.3720,0.07,0.12,-0.98,2.87,3.23,2.14
35.3890,0.07,0.13,-0.98,2.93,3.36,1.89
35.3900,0.07,0.12,-0.98,2.93,3.05,1.89
35.4210,0.07,0.13,-0.99,3.05,3.17,1.71
35.4370,0.08,0.12,-0.99,2.99,3.30,1.34
35.4510,0.07,0.13,-0.98,3.17,3.17,0.18
35.4660,0.07,0.13,-0.98,3.23,3.30,1.77
35.4840,0.07,0.13,-0.98,3.11,3.11,1.65
35.4890,0.07,0.12,-0.98,2.99,3.05,1.77
35.5050,0.07,0.12,-0.99,3.05,3.05,0.85
35.5260,0.07,0.13,-0.98,3.11,3.30,0.49
35.5440,0.08,0.14,-0.98,3.17,3.36,1.10
35.5590,0.07,0.13,-0.98,3.17,2.99,0.55
35.5770,0.07,0.14,-0.98,3.11,3.36,1.04
35.5930,0.07,0.13,-0.98,2.75,3.30,1.77
35.6080,0.07,0.13,-0.98,2.87,3.11,1.77
35.6100,0.07,0.13,-0.98,2.93,2.50,1.83
35.6400,0.07,0.13,-0.98,2.93,3.23,1.89
35.6550,0.07,0.13,-0.98,3.17,2.93,1.89
35.6720,0.07,0.13,-0.98,2.99,3.36,1.83
35.6770,0.07,0.13,-0.98,2.93,3.05,1.71
35.7020,0.07,0.13,-0.98,2.87,3.23,1.77
35.7100,0.07,0.13,-0.98,3.11,3.05,1.89
35.7270,0.07,0.13,-0.98,3.11,3.11,1.95
35.7470,0.07,0.13,-0.98,2.93,3.42,1.89
35.7590,0.07,0.13,-0.98,2.93,3.05,1.83
35.7750,0.07,0.13,-0.98,3.11,2.69,1.83
35.7960,0.07,0.13,-0.98,2.87,3.05,1.89
35.8120,0.07,0.13,-0.98,2.93,2.81,1.89
35.8280,0.07,0.13,-0.98,2.87,3.11,1.89
35.8440,0.07,0.13,-0.98,2.93,3.05,1.89
35.8470,0.07,0.13,-0.98,3.11,3.17,1.89
35.8630,0.07,0.13,-0.98,2.99,3.11,1.95
35.8780,0.07,0.13,-0.98,2.93,3.05,1.89
35.9030,0.07,0.13,-0.98,2.93,2.87,1.83
35.9190,0.07,0.13,-0.98,2.93,3.17,1.89
35.9350,0.07,0.13,-0.98,3.05,2.93,1.95
35.9510,0.07,0.13,-0.98,3.05,3.17,2.01
35.9670,0.07,0.13,-0.98,3.05,3.05,1.95
35.9840,0.07,0.13,-0.98,2.93,2.75,1.89
36.0000,0.07,0.13,-0.98,2.93,2.99,2.38
36.0160,0.07,0.12,-0.98,2.99,2.99,2.20
36.0320,0.07,0.13,-0.98,2.81,3.36,2.01
36.0470,0.07,0.13,-0.98,3.05,3.11,1.83
36.0640,0.07,0.13,-0.98,3.23,3.11,1.95
36.0800,0.07,0.13,-0.98,2.99,3.05,1.77
36.0960,0.07,0.13,-0.98,3.05,3.05,1.89
36.1110,0.07,0.13,-0.98,2.99,3.30,1.83
36.1260,0.07,0.13,-0.98,3.05,3.23,2.01
36.1410,0.07,0.13,-0.98,3.11,2.93,1.77
36.1520,0.07,0.13,-0.98,2.99,3.05,1.95
36.1680,0.07,0.13,-0.98,3.17,2.99,2.01
36.1860,0.07,0.13,-0.98,3.05,3.23,1.95
36.2020,0.07,0.13,-0.98,2.99,3.11,1.83
36.2180,0.07,0.13,-0.98,2.75,3.11,2.01
36.2340,0.07,0.13,-0.98,3.11,3.05,1.89
36.2500,0.07,0.13,-0.98,2.87,3.78,1.89
36.2660,0.07,0.13,-0.99,3.05,3.17,1.83
36.2810,0.07,0.13,-0.98,3.05,3.30,1.83
36.2980,0.07,0.13,-0.98,2.93,2.99,1.89
36.3020,0.07,0.13,-0.98,2.93,3.42,1.65
36.3180,0.07,0.13,-0.98,3.05,3.05,1.71
36.3400,0.07,0.13,-0.98,2.69,3.42,1.77
36.3570,0.07,0.13,-0.98,2.87,3.17,1.71
36.3740,0.07,0.13,-0.98,2.93,3.11,1.95
36.3900,0.07,0.13,-0.98,3.11,2.87,1.89
36.4080,0.07,0.13,-0.98,2.99,2.99,1.89
36.4240,0.07,0.13,-0.99,2.87,3.05,1.83
36.4250,0.07,0.13,-0.98,2.93,3.17,1.83
36.4550,0.07,0.13,-0.98,3.05,2.87,1.89
36.4710,0.07,0.13,-0.98,2.81,3.05,1.89
36.4750,0.07,0.13,-0.98,2.93,3.66,1.95
36.5020,0.07,0.13,-0.98,2.99,3.05,1.83
36.5170,0.07,0.13,-0.98,2.87,3.30,1.95
36.5240,0.07,0.13,-0.99,2.93,3.05,2.08
36.5460,0.07,0.13,-0.98,2.93,2.81,1.77
36.5570,0.07,0.13,-0.98,3.11,3.17,2.01
36.5740,0.07,0.13,-0.98,2.81,3.17,2.01
36.5900,0.07,0.13,-0.98,2.87,3.30,2.08
36.6070,0.07,0.13,-0.98,2.87,3.36,2.08
36.6230,0.07,0.13,-0.98,2.99,2.87,1.83
36.6390,0.07,0.13,-0.98,2.93,3.05,1.77
36.6540,0.07,0.13,-0.98,2.99,3.05,2.01
36.6690,0.07,0.13,-0.98,2.87,3.23,2.20
36.6840,0.07,0.13,-0.98,2.99,3.05,2.20
36.7000,0.07,0.13,-0.98,2.81,3.17,2.01
36.7150,0.07,0.13,-0.98,2.93,2.87,1.95
36.7300,0.07,0.13,-0.98,2.99,3.17,1.77
36.7410,0.07,0.13,-0.98,3.11,2.87,2.14
36.7570,0.08,0.13,-0.98,2.99,2.87,2.69
36.7730,0.07,0.13,-0.98,2.93,2.99,2.75
36.7900,0.07,0.12,-0.98,2.87,3.11,2.32
36.8070,0.07,0.13,-0.98,2.99,2.81,1.77
36.8230,0.07,0.13,-0.98,3.30,2.81,1.89
36.8400,0.07,0.13,-0.98,3.17,3.05,1.83
36.8560,0.07,0.13,-0.98,3.11,3.30,1.83
36.8720,0.07,0.13,-0.98,2.93,3.05,1.83
36.8740,0.07,0.13,-0.98,3.11,2.99,1.71
36.8900,0.07,0.13,-0.98,2.99,3.23,1.71
36.9140,0.07,0.13,-0.98,2.81,2.93,1.77
36.9300,0.08,0.13,-0.98,2.87,2.93,2.01
36.9470,0.07,0.12,-0.99,2.93,2.75,2.99
36.9640,0.07,0.13,-0.98,3.11,2.87,1.77
36.9790,0.07,0.13,-0.99,3.11,2.99,1.89
36.9960,0.07,0.13,-0.98,3.11,2.93,1.83
36.9970,0.07,0.13,-0.98,3.05,3.23,1.71
37.0280,0.07,0.13,-0.98,3.11,3.11,1.83
37.0440,0.07,0.13,-0.98,3.05,2.93,1.77
37.0470,0.07,0.13,-0.98,2.93,3.17,1.83
37.0620,0.07,0.13,-0.98,2.50,3.66,2.14
37.0860,0.07,0.12,-0.98,2.99,3.60,2.01
37.1020,0.07,0.13,-0.98,2.87,3.11,1.83
37.1190,0.07,0.13,-0.98,3.05,3.11,1.83
37.1330,0.07,0.13,-0.98,2.93,3.17,1.89
37.1480,0.07,0.13,-0.98,2.99,3.11,1.77
37.1630,0.07,0.13,-0.98,2.99,2.81,1.65
37.1700,0.07,0.13,-0.98,2.99,2.81,1.89
37.1860,0.07,0.13,-0.98,3.05,3.30,1.89
37.2030,0.07,0.13,-0.98,2.93,2.99,1.89
37.2190,0.07,0.13,-0.98,2.93,2.87,1.83
37.2360,0.07,0.13,-0.99,2.87,2.93,1.83
37.2530,0.07,0.13,-0.98,3.11,3.30,1.95
37.2690,0.07,0.13,-0.98,2.93,3.17,1.83
37.2830,0.07,0.13,-0.98,2.93,3.17,1.83
37.2990,0.07,0.13,-0.98,2.87,2.87,1.77
37.3130,0.07,0.13,-0.98,2.93,2.87,1.89
37.3280,0.07,0.13,-0.98,2.87,2.81,1.71
37.3440,0.07,0.13,-0.98,2.69,3.30,1.95
37.3530,0.07,0.13,-0.99,3.05,2.81,1.89
37.3680,0.07,0.13,-0.98,2.87,3.05,1.71
37.3880,0.07,0.13,-0.98,2.87,3.17,1.89
37.4040,0.07,0.13,-0.98,2.99,3.05,1.71
37.4060,0.07,0.13,-0.98,3.05,3.11,1.89
37.4330,0.07,0.13,-0.98,2.93,3.23,1.77
37.4490,0.07,0.13,-0.98,2.99,3.42,1.83
37.4640,0.07,0.13,-0.98,2.93,3.05,1.83
37.4790,0.07,0.13,-0.98,3.11,2.93,1.95
37.4900,0.07,0.13,-0.98,2.99,3.23,1.77
37.5060,0.07,0.13,-0.98,3.11,3.23,1.95
37.5230,0.07,0.13,-0.99,3.17,3.36,1.89
37.5400,0.07,0.13,-0.98,2.99,2.87,1.77
37.5560,0.07,0.13,-0.98,2.99,2.93,1.83
37.5720,0.07,0.13,-0.98,2.99,2.93,1.83
37.5880,0.07,0.13,-0.98,2.81,3.17,1.71
37.6030,0.07,0.13,-0.98,3.11,2.56,1.83
37.6060,0.07,0.13,-0.98,2.87,2.93,1.71
37.6220,0.07,0.13,-0.98,2.93,2.81,1.71
37.6370,0.07,0.13,-0.98,2.93,2.93,1.71
37.6530,0.07,0.13,-0.98,2.87,2.99,1.77
37.6690,0.07,0.13,-0.98,2.99,2.69,1.53
37.6890,0.07,0.13,-0.98,2.99,3.05,1.83
37.7060,0.07,0.13,-0.98,3.05,2.81,1.77
37.7230,0.07,0.13,-0.98,2.99,3.11,1.77
37.7390,0.07,0.13,-0.98,2.87,3.17,1.83
37.7560,0.07,0.13,-0.98,2.99,3.23,1.77
37.7720,0.07,0.13,-0.98,2.93,3.05,1.83
37.7870,0.07,0.13,-0.98,2.93,2.93,1.83
37.8030,0.07,0.13,-0.98,2.81,3.05,1.83
37.8180,0.07,0.13,-0.98,2.99,3.05,1.83
37.8220,0.07,0.13,-0.98,2.99,2.87,1.89
37.8380,0.07,0.13,-0.98,2.87,3.05,1.83
37.8610,0.07,0.13,-0.98,2.93,3.42,1.83
37.8790,0.07,0.13,-0.98,2.87,3.11,2.08
37.8960,0.07,0.13,-0.98,2.87,3.05,2.08
37.9110,0.07,0.13,-0.98,2.93,3.30,1.95
37.9280,0.07,0.13,-0.98,2.99,2.93,1.89
37.9440,0.07,0.13,-0.98,2.99,2.93,2.14
37.9600,0.07,0.13,-0.98,3.05,3.11,2.56
37.9620,0.07,0.12,-0.98,2.75,2.93,3.17
37.9910,0.07,0.13,-0.98,2.93,3.05,2.20
37.9950,0.07,0.13,-0.98,2.81,2.93,2.38
38.0130,0.07,0.13,-0.98,3.05,3.05,2.20
38.0280,0.07,0.13,-0.98,2.99,3.30,2.14
38.0520,0.07,0.13,-0.98,3.23,3.11,2.14
38.0670,0.08,0.13,-0.98,2.93,2.75,2.44
38.0840,0.07,0.13,-0.98,2.87,2.81,3.11
38.1000,0.07,0.12,-0.98,2.99,2.81,2.81
38.1160,0.07,0.13,-0.98,2.99,2.99,2.38
38.1180,0.08,0.13,-0.98,3.30,2.87,2.62
38.1340,0.07,0.13,-0.98,3.05,2.69,3.91
38.1580,0.08,0.13,-0.98,2.87,2.32,4.58
38.1740,0.09,0.13,-0.98,2.99,2.44,5.25
38.1910,0.07,0.13,-0.98,2.69,2.56,5.92
38.2070,0.07,0.13,-0.98,2.62,2.62,5.80
38.2240,0.06,0.13,-0.99,2.50,2.62,6.59
38.2390,0.05,0.12,-0.99,2.75,2.26,5.13
38.2550,0.06,0.12,-0.99,2.99,2.99,2.87
38.2710,0.07,0.13,-0.98,3.05,3.05,1.89
38.2870,0.07,0.13,-0.98,3.17,3.42,2.08
38.3020,0.07,0.13,-0.98,2.87,3.17,1.77
38.3170,0.07,0.13,-0.98,2.99,2.99,1.89
38.3320,0.07,0.13,-0.98,2.87,3.36,1.89
38.3410,0.07,0.13,-0.98,2.99,2.87,1.77
38.3570,0.07,0.13,-0.98,3.11,2.93,1.89
38.3750,0.08,0.13,-0.98,2.75,3.23,1.95
38.3910,0.08,0.13,-0.98,3.05,2.75,2.14
38.4080,0.07,0.13,-0.98,2.93,3.05,2.14
38.4230,0.08,0.12,-0.98,2.99,2.99,1.95
38.4390,0.07,0.13,-0.98,2.93,3.11,1.89
38.4560,0.07,0.13,-0.98,3.05,2.93,2.08
38.4710,0.06,0.13,-0.98,2.75,3.11,2.08
38.4740,0.08,0.13,-0.98,2.99,3.11,2.01
38.4900,0.08,0.13,-0.98,2.99,2.93,2.56
38.5130,0.07,0.13,-0.98,3.05,3.05,2.62
38.5310,0.07,0.13,-0.98,2.93,2.81,2.56
38.5460,0.06,0.13,-0.98,2.93,3.11,2.14
38.5630,0.07,0.13,-0.98,2.99,3.05,2.01
38.5800,0.07,0.13,-0.98,3.05,3.05,1.89
38.5960,0.07,0.13,-0.98,3.11,2.87,1.83
38.6120,0.07,0.13,-0.98,3.23,3.05,1.89
38.6130,0.07,0.13,-0.98,2.99,3.30,1.83
38.6300,0.07,0.13,-0.98,3.11,3.23,1.89
38.6510,0.07,0.13,-0.98,2.93,3.54,1.95
38.6630,0.07,0.13,-0.98,3.11,2.87,1.89
38.6800,0.07,0.13,-0.98,3.11,3.42,1.71
38.6960,0.07,0.13,-0.98,3.05,3.11,2.01
38.7190,0.07,0.13,-0.98,3.05,2.93,1.89
38.7360,0.07,0.13,-0.98,3.05,3.11,1.77
38.7520,0.07,0.13,-0.98,3.17,2.99,1.83
38.7690,0.07,0.13,-0.98,3.05,2.99,2.08
38.7850,0.07,0.13,-0.98,2.87,3.36,1.95
38.8010,0.07,0.13,-0.98,2.99,2.87,1.89
38.8160,0.07,0.13,-0.98,3.11,2.99,1.95
38.8190,0.07,0.13,-0.98,2.99,3.05,1.89
38.8350,0.07,0.13,-0.98,3.17,2.99,1.89
38.8600,0.07,0.13,-0.98,2.99,2.93,1.77
38.8770,0.07,0.13,-0.98,2.93,3.05,1.89
38.8930,0.07,0.13,-0.98,3.17,3.17,1.77
38.8940,0.07,0.13,-0.98,2.75,3.17,1.77
38.9240,0.07,0.13,-0.98,2.99,3.30,1.95
38.9270,0.07,0.13,-0.98,2.99,3.30,1.59
38.9520,0.07,0.13,-0.98,2.87,2.69,1.89
38.9600,0.07,0.13,-0.98,2.87,2.99,1.77
38.9830,0.07,0.13,-0.99,3.17,3.11,1.89
39.0010,0.07,0.13,-0.98,3.23,3.17,1.89
39.0010,0.07,0.13,-0.98,3.05,2.81,1.95
39.0320,0.07,0.13,-0.98,3.05,2.81,1.77
39.0480,0.07,0.13,-0.98,2.93,3.17,1.89
39.0640,0.07,0.13,-0.98,2.93,2.93,1.95
39.0800,0.07,0.13,-0.98,2.99,3.54,1.95
39.0970,0.07,0.13,-0.98,2.93,3.17,1.83
39.1130,0.07,0.13,-0.98,2.99,2.99,1.89
39.1280,0.07,0.13,-0.98,3.05,2.99,2.01
39.1330,0.07,0.13,-0.98,3.11,3.11,1.83
39.1520,0.07,0.13,-0.98,2.99,2.99,1.83
39.1650,0.07,0.13,-0.98,3.05,2.99,1.95
39.1900,0.07,0.13,-0.98,2.75,3.05,1.83
39.2060,0.07,0.13,-0.98,3.23,2.93,1.77
39.2220,0.07,0.13,-0.98,2.81,3.30,1.89
39.2240,0.07,0.13,-0.98,2.93,2.81,1.89
39.2520,0.07,0.13,-0.98,2.99,2.62,1.83
39.2640,0.07,0.13,-0.98,3.11,3.23,1.95
39.2800,0.07,0.13,-0.98,3.23,2.99,1.95
39.2980,0.07,0.13,-0.98,2.99,2.87,1.89
39.3140,0.07,0.13,-0.98,2.87,3.11,1.95
39.3300,0.07,0.13,-0.98,3.05,2.99,1.71
39.3460,0.07,0.13,-0.98,3.05,3.05,1.83
39.3520,0.07,0.13,-0.98,3.05,3.17,1.83
39.3780,0.07,0.13,-0.98,2.81,3.36,1.89
39.3810,0.07,0.13,-0.98,2.81,3.05,1.95
39.3980,0.07,0.13,-0.98,2.99,3.05,1.71
39.4260,0.07,0.13,-0.98,2.87,3.42,1.89
39.4420,0.07,0.13,-0.98,3.05,3.23,1.95
39.4580,0.07,0.13,-0.98,2.99,2.75,1.77
39.4640,0.07,0.13,-0.98,2.93,2.99,1.77
39.4900,0.07,0.13,-0.98,3.05,3.42,1.83
39.4970,0.07,0.13,-0.98,2.87,3.48,1.83
39.5210,0.07,0.13,-0.98,2.81,2.99,1.77
39.5310,0.07,0.13,-0.98,2.99,2.87,1.65
39.5520,0.07,0.13,-0.98,3.11,2.93,1.83
39.5690,0.07,0.13,-0.99,3.11,3.11,1.89
39.5840,0.07,0.13,-0.98,3.05,3.23,1.89
39.5990,0.07,0.13,-0.98,2.99,2.93,1.83
39.6130,0.07,0.13,-0.98,2.99,3.05,1.83
39.6300,0.07,0.13,-0.98,2.93,2.93,1.83
39.6370,0.07,0.13,-0.98,2.93,2.62,1.71
39.6600,0.07,0.13,-0.98,2.99,2.93,1.83
39.6700,0.07,0.13,-0.98,2.93,3.30,1.89
39.6870,0.07,0.13,-0.98,3.23,2.93,1.83
39.7040,0.07,0.13,-0.98,3.17,2.93,1.89
39.7200,0.07,0.13,-0.98,3.05,2.93,1.89
39.7370,0.07,0.13,-0.98,3.23,3.17,1.89
39.7540,0.07,0.13,-0.98,3.05,2.99,2.01
39.7690,0.07,0.13,-0.98,3.23,2.99,1.83
39.7870,0.07,0.13,-0.98,3.05,3.11,1.77
39.8040,0.07,0.13,-0.98,2.93,3.05,1.89
39.8060,0.07,0.13,-0.98,2.87,3.11,1.89
39.8340,0.07,0.13,-0.98,3.11,2.75,1.95
39.8390,0.07,0.13,-0.98,3.17,2.81,1.83
39.8650,0.07,0.13,-0.98,3.11,3.11,1.89
39.8810,0.07,0.13,-0.98,3.11,3.17,1.89
39.8900,0.07,0.13,-0.98,3.11,2.81,1.83
39.9060,0.07,0.13,-0.98,3.05,2.87,1.95
39.9210,0.07,0.13,-0.98,2.99,3.23,1.89
39.9390,0.07,0.13,-0.98,2.87,3.05,1.83
39.9550,0.07,0.13,-0.98,2.87,2.93,1.83
39.9720,0.07,0.13,-0.98,3.05,2.93,1.77
39.9880,0.07,0.13,-0.98,2.93,2.87,1.83
40.0050,0.07,0.13,-0.98,3.05,3.05,1.83
40.0200,0.07,0.13,-0.98,3.05,3.42,1.83
40.0350,0.07,0.13,-0.98,2.81,2.81,1.83
40.0390,0.07,0.13,-0.98,3.17,2.44,1.77
40.0560,0.07,0.13,-0.98,3.05,2.99,1.89
40.0720,0.07,0.13,-0.98,3.11,3.17,2.01
40.0870,0.07,0.13,-0.98,2.93,3.17,1.95
40.1100,0.07,0.13,-0.98,3.05,3.11,1.89
40.1250,0.07,0.13,-0.98,3.11,3.11,1.95
40.1420,0.07,0.13,-0.98,3.05,3.42,2.01
40.1580,0.07,0.13,-0.98,3.11,3.17,1.95
40.1740,0.07,0.13,-0.98,3.17,2.62,1.77
40.1900,0.07,0.13,-0.98,3.11,3.17,2.01
40.2060,0.07,0.13,-0.98,2.87,2.81,1.89
40.2230,0.07,0.13,-0.98,3.05,3.30,1.83
40.2380,0.07,0.13,-0.98,2.99,3.05,1.77
40.2540,0.07,0.13,-0.98,3.05,2.81,1.89
40.2590,0.07,0.13,-0.98,3.11,2.99,1.83
40.2750,0.07,0.13,-0.98,3.05,2.81,1.77
40.2980,0.07,0.13,-0.98,3.05,3.11,1.89
40.3150,0.07,0.13,-0.98,3.11,3.42,1.83
40.3320,0.07,0.13,-0.98,3.23,2.81,1.83
40.3480,0.07,0.13,-0.98,2.93,2.75,1.83
40.3630,0.07,0.13,-0.98,2.93,3.17,2.01
40.3650,0.07,0.13,-0.99,2.93,2.99,1.89
40.3960,0.07,0.13,-0.98,3.05,2.50,1.77
40.3980,0.07,0.13,-0.98,3.11,2.99,1.83
40.4160,0.07,0.13,-0.98,2.99,3.11,1.89
40.4320,0.07,0.13,-0.99,2.93,3.05,1.89
40.4540,0.07,0.13,-0.98,3.11,2.87,1.77
40.4650,0.07,0.13,-0.98,2.99,3.23,1.95
40.4800,0.07,0.13,-0.98,3.11,2.93,2.01
40.5030,0.07,0.13,-0.98,3.11,3.11,1.95
40.5200,0.07,0.13,-0.98,2.99,2.93,1.83
40.5360,0.07,0.13,-0.98,2.99,3.05,2.01
40.5530,0.07,0.13,-0.98,2.99,2.99,1.83
40.5540,0.07,0.13,-0.98,2.87,3.17,1.95
40.5860,0.07,0.13,-0.98,2.81,3.36,1.77
40.6000,0.07,0.13,-0.98,3.05,3.11,1.95
40.6170,0.07,0.13,-0.98,2.99,2.87,2.08
40.6200,0.07,0.13,-0.98,2.75,3.36,1.83
40.6350,0.07,0.13,-0.98,3.17,2.87,1.77
40.6620,0.07,0.13,-0.98,3.05,2.87,1.83
40.6770,0.07,0.13,-0.98,2.99,2.99,1.89
40.6790,0.08,0.13,-0.98,2.87,3.30,2.01
40.6960,0.07,0.13,-0.98,2.99,2.93,2.87
40.7120,0.07,0.13,-0.98,2.81,3.11,2.56
40.7360,0.07,0.13,-0.98,2.93,2.81,2.08
40.7540,0.07,0.13,-0.98,2.69,3.36,2.14
40.7690,0.07,0.13,-0.98,2.99,2.75,2.38
40.7840,0.07,0.13,-0.98,3.05,2.87,2.26
40.8000,0.07,0.13,-0.98,2.93,3.23,2.50
40.8160,0.07,0.13,-0.98,2.87,3.05,2.50
40.8310,0.07,0.13,-0.98,2.93,3.05,2.38
40.8470,0.07,0.13,-0.98,2.93,2.87,2.26
40.8620,0.07,0.13,-0.98,3.05,3.36,1.95
40.8770,0.07,0.13,-0.98,3.11,3.30,1.95
40.8920,0.07,0.13,-0.98,3.11,2.93,1.71
40.9020,0.07,0.13,-0.98,3.11,2.75,1.89
40.9190,0.07,0.13,-0.98,3.17,2.87,1.89
40.9360,0.07,0.13,-0.98,2.93,2.99,1.95
40.9540,0.07,0.13,-0.98,3.11,3.17,1.89
40.9690,0.07,0.13,-0.98,3.05,3.11,1.83
40.9840,0.07,0.13,-0.98,3.11,2.75,1.83
41.0010,0.07,0.13,-0.98,3.17,3.11,1.95
41.0160,0.07,0.13,-0.98,3.17,2.93,1.89
41.0190,0.07,0.13,-0.98,3.11,3.23,1.95
41.0350,0.07,0.13,-0.98,2.99,2.93,2.20
41.0600,0.07,0.13,-0.98,2.87,2.81,2.26
41.0770,0.07,0.13,-0.98,2.99,2.93,2.14
41.0940,0.08,0.13,-0.98,3.11,3.11,2.50
41.1100,0.08,0.13,-0.98,3.11,2.69,2.75
41.1120,0.07,0.13,-0.98,3.05,2.50,2.93
41.1280,0.07,0.13,-0.99,3.05,2.75,2.81
41.1570,0.07,0.13,-0.98,3.17,3.05,2.01
41.1730,0.07,0.13,-0.98,2.99,3.17,2.20
41.1780,0.08,0.13,-0.98,3.05,3.05,2.44
41.1930,0.08,0.14,-0.98,2.93,2.69,3.48
41.2090,0.08,0.13,-0.98,2.69,2.56,4.21
41.2340,0.08,0.14,-0.98,2.93,2.50,4.39
41.2490,0.06,0.12,-0.98,2.56,2.44,4.39
41.2660,0.07,0.11,-0.98,2.99,3.11,3.30
41.2670,0.07,0.12,-0.98,2.99,2.81,3.05
41.2980,0.07,0.13,-0.98,3.05,3.23,2.44
41.3150,0.08,0.13,-0.98,3.05,3.30,2.62
41.3300,0.08,0.13,-0.98,3.11,2.62,2.69
41.3330,0.07,0.12,-0.98,2.99,2.93,2.93
41.3620,0.07,0.12,-0.98,2.93,3.05,2.44
41.3790,0.07,0.13,-0.98,2.99,2.87,2.44
41.3960,0.08,0.13,-0.98,3.23,2.93,2.08
41.4110,0.07,0.13,-0.98,2.99,3.05,3.72
41.4280,0.07,0.12,-0.98,2.87,2.50,3.60
41.4440,0.07,0.12,-0.98,3.11,3.11,2.75
41.4600,0.07,0.13,-0.98,2.93,3.11,2.56
41.4660,0.07,0.13,-0.98,2.93,2.75,2.56
41.4820,0.07,0.13,-0.98,2.81,2.87,2.50
41.4980,0.07,0.13,-0.98,3.05,2.81,2.38
41.5220,0.08,0.13,-0.98,2.93,3.11,2.50
41.5380,0.07,0.13,-0.98,2.93,3.05,2.62
41.5540,0.08,0.13,-0.98,2.93,3.11,2.38
41.5690,0.07,0.13,-0.98,2.87,3.17,2.50
41.5840,0.08,0.13,-0.98,2.99,2.99,2.75
41.5890,0.07,0.13,-0.98,3.05,2.69,3.05
41.6040,0.07,0.12,-0.99,2.99,2.75,2.87
41.6290,0.07,0.13,-0.98,2.93,2.75,3.17
41.6300,0.07,0.13,-0.98,2.93,2.87,3.42
41.6560,0.07,0.13,-0.98,2.87,2.99,3.36
41.6630,0.07,0.13,-0.98,2.62,2.99,3.60
41.6800,0.08,0.13,-0.98,2.69,2.62,4.21
41.6960,0.07,0.12,-0.98,2.69,2.69,4.58
41.7190,0.08,0.12,-0.98,2.99,3.17,3.48
41.7350,0.08,0.13,-0.98,2.75,2.75,3.30
41.7500,0.07,0.12,-0.99,2.99,2.75,2.99
41.7650,0.08,0.13,-0.98,2.87,2.81,2.99
41.7820,0.07,0.13,-0.98,2.75,3.05,3.36
41.7870,0.08,0.13,-0.98,2.62,2.99,4.46
41.8030,0.06,0.13,-0.99,2.81,2.56,4.33
41.8270,0.07,0.12,-0.99,2.81,2.62,3.91
41.8440,0.06,0.12,-0.99,3.05,2.93,2.87
41.8590,0.08,0.13,-0.99,3.23,2.81,2.93
41.8610,0.08,0.13,-0.98,3.11,2.93,3.66
41.8910,0.07,0.13,-0.98,2.93,2.81,4.03
41.9060,0.08,0.14,-0.98,2.75,2.62,4.76
41.9110,0.06,0.13,-0.98,2.69,2.38,5.49
41.9260,0.06,0.11,-0.99,2.75,2.93,5.07
41.9510,0.07,0.12,-0.99,2.93,2.99,2.75
41.9680,0.07,0.12,-0.98,3.11,2.81,2.56
41.9830,0.08,0.13,-0.98,2.87,2.81,3.23
41.9990,0.07,0.14,-0.98,2.75,2.56,3.42
42.0020,0.07,0.14,-0.98,2.56,2.75,4.58
42.0170,0.07,0.12,-0.98,2.56,2.56,4.76
42.0330,0.07,0.12,-0.99,2.93,2.26,3.54
42.0590,0.07,0.12,-0.98,3.11,2.75,2.81
42.0590,0.07,0.12,-0.98,2.81,2.75,2.87
42.0770,0.07,0.13,-0.98,2.93,2.69,3.23
42.0940,0.08,0.14,-0.98,2.87,2.87,3.17
42.1220,0.09,0.15,-0.98,2.87,2.38,4.39
42.1270,0.05,0.12,-0.98,2.38,2.14,5.74
42.1440,0.06,0.11,-0.99,2.87,2.75,4.52
42.1600,0.07,0.11,-0.98,2.87,3.05,2.62
42.1840,0.08,0.13,-0.98,2.99,2.69,2.75
42.1930,0.08,0.14,-0.98,3.11,3.23,3.78
42.2100,0.07,0.15,-0.98,2.69,2.20,6.23
42.2280,0.08,0.13,-0.99,2.01,2.08,7.81
42.2440,0.06,0.12,-0.99,2.44,2.44,4.46
42.2600,0.06,0.11,-0.99,2.87,2.75,3.54
42.2760,0.08,0.12,-0.99,3.05,3.11,3.11
42.2770,0.08,0.12,-0.98,2.99,2.75,3.72
42.3080,0.08,0.12,-0.98,3.17,2.99,4.09
42.3100,0.06,0.13,-0.98,2.62,2.01,5.25
42.3280,0.06,0.13,-0.98,2.44,2.93,4.21
42.3430,0.06,0.13,-0.99,2.62,2.62,4.58
42.3720,0.08,0.13,-0.98,2.44,2.44,5.74
42.3770,0.07,0.13,-0.98,2.62,2.44,5.98
42.4030,0.09,0.14,-0.98,2.62,2.69,6.47
42.4180,0.06,0.13,-0.98,2.32,2.38,7.39
42.4260,0.08,0.11,-0.98,2.32,2.01,7.69
42.4440,0.06,0.12,-0.99,2.75,2.20,5.00
42.4600,0.08,0.12,-0.98,2.99,2.75,4.15
42.4790,0.07,0.12,-0.99,2.99,3.05,3.85
42.4950,0.07,0.13,-0.98,2.81,2.81,4.52
42.5110,0.08,0.14,-0.98,2.75,2.26,5.92
42.5160,0.08,0.13,-0.98,2.38,2.69,6.29
42.5320,0.08,0.13,-0.98,2.87,2.50,5.25
42.5500,0.06,0.12,-0.99,2.87,2.87,4.03
42.5650,0.06,0.12,-0.99,2.81,2.99,4.52
42.5820,0.06,0.13,-0.98,2.87,2.50,4.70
42.5990,0.07,0.12,-0.98,2.56,2.62,5.37
42.6150,0.06,0.11,-0.99,2.69,2.62,4.88
42.6320,0.07,0.11,-0.99,2.81,2.87,3.36
42.6480,0.08,0.14,-0.98,2.87,2.99,3.23
42.6640,0.07,0.14,-0.98,2.99,2.44,4.09
42.6800,0.07,0.13,-0.98,2.75,2.56,4.76
42.6960,0.06,0.12,-0.98,2.38,2.75,5.37
42.7000,0.08,0.12,-0.99,2.87,2.75,4.27
42.7150,0.08,0.13,-0.98,2.62,2.93,4.33
42.7440,0.08,0.13,-0.98,2.81,2.99,4.58
42.7600,0.06,0.14,-0.98,2.69,2.87,6.04
42.7770,0.07,0.14,-0.99,2.32,2.26,7.87
42.7830,0.06,0.12,-0.99,2.26,2.01,7.08
42.7980,0.07,0.12,-0.99,2.26,2.50,5.98
42.8150,0.07,0.11,-0.99,2.56,3.05,4.03
42.8320,0.08,0.13,-0.98,2.93,3.17,3.05
42.8480,0.07,0.15,-0.98,2.69,2.75,4.27
42.8650,0.08,0.15,-0.98,2.38,2.99,5.49
42.8820,0.06,0.13,-0.98,2.38,2.44,6.71
42.8980,0.08,0.11,-0.98,2.75,2.62,5.98
42.8990,0.07,0.10,-0.99,2.93,2.93,3.60
42.9300,0.08,0.13,-0.98,2.99,3.11,2.75
42.9460,0.06,0.14,-0.98,2.62,2.69,4.58
42.9610,0.07,0.15,-0.98,2.56,2.01,6.84
42.9660,0.07,0.14,-0.98,2.20,2.20,8.12
42.9900,0.07,0.13,-0.98,2.38,2.50,6.23
42.9990,0.08,0.12,-0.98,2.69,2.38,6.35
43.0150,0.07,0.11,-0.98,2.81,2.62,4.33
43.0330,0.07,0.13,-0.98,2.99,2.44,4.52
43.0480,0.07,0.13,-0.98,2.93,2.32,4.94
43.0650,0.08,0.14,-0.98,2.56,2.99,6.35
43.0810,0.07,0.12,-0.98,2.69,2.38,5.25
43.0960,0.07,0.11,-0.99,2.93,2.44,4.58
43.1120,0.08,0.12,-0.98,2.81,3.17,3.91
43.1160,0.07,0.13,-0.98,2.75,2.69,4.09
43.1320,0.08,0.13,-0.98,2.62,2.32,5.92
43.1610,0.07,0.13,-0.98,2.50,2.26,7.32
43.1760,0.07,0.12,-0.98,2.75,2.62,7.26
43.1920,0.07,0.11,-0.99,2.81,2.69,5.49
43.1990,0.07,0.11,-0.99,2.81,2.56,4.76
43.2150,0.07,0.13,-0.98,3.05,2.87,4.27
43.2310,0.08,0.13,-0.98,2.75,2.38,5.68
43.2490,0.08,0.14,-0.99,2.81,2.56,6.23
43.2650,0.07,0.14,-0.99,2.56,2.69,7.14
43.2830,0.07,0.12,-0.99,2.56,2.62,6.04
43.2980,0.08,0.12,-0.99,2.69,2.87,4.70
43.3140,0.06,0.11,-0.99,2.93,3.05,3.23
43.3300,0.07,0.13,-0.99,3.17,2.69,4.39
43.3460,0.08,0.14,-0.98,2.62,2.81,5.13
43.3620,0.09,0.14,-0.98,2.56,2.26,6.84
43.3770,0.08,0.13,-0.98,2.32,2.50,5.92
43.3920,0.06,0.12,-0.98,2.81,2.56,5.92
43.4080,0.06,0.11,-0.99,2.62,3.17,4.27
43.4230,0.07,0.13,-0.98,2.69,2.69,4.33
43.4320,0.07,0.13,-0.98,2.62,2.69,5.00
43.4490,0.08,0.15,-0.98,2.56,2.50,6.90
43.4640,0.08,0.13,-0.98,2.14,2.01,9.46
43.4840,0.07,0.11,-0.99,2.62,2.62,6.59
43.5000,0.05,0.10,-0.99,2.75,2.93,4.15
43.5150,0.06,0.10,-0.98,2.81,3.17,3.72
43.5290,0.08,0.13,-0.98,2.75,3.05,3.78
43.5450,0.08,0.15,-0.98,2.56,2.26,7.69
43.5610,0.08,0.13,-0.98,2.14,2.38,8.42
43.5750,0.07,0.12,-0.99,2.62,2.38,6.10
43.5850,0.06,0.12,-0.99,2.75,2.69,5.13
43.6020,0.07,0.12,-0.99,2.56,2.81,4.88
43.6190,0.07,0.13,-0.98,2.75,2.99,4.82
43.6350,0.08,0.14,-0.98,2.87,2.81,5.92
43.6350,0.08,0.14,-0.98,2.62,2.38,6.90
43.6590,0.07,0.13,-0.98,2.81,2.14,6.96
43.6680,0.06,0.11,-0.98,2.38,2.50,6.84
43.6970,0.07,0.12,-0.99,2.69,2.50,5.98
43.7120,0.07,0.14,-0.98,2.50,2.26,6.53
43.7280,0.07,0.14,-0.98,2.50,1.89,8.73
43.7420,0.09,0.13,-0.98,2.32,1.65,9.58
43.7520,0.07,0.12,-0.98,2.14,2.08,7.93
43.7670,0.07,0.10,-0.99,2.62,1.71,7.02
43.7880,0.07,0.11,-0.98,2.50,1.83,7.87
43.7920,0.07,0.13,-0.99,2.81,2.32,5.98
43.8100,0.07,0.13,-0.99,2.69,2.44,6.29
43.8260,0.06,0.12,-0.99,2.62,2.20,6.41
43.8490,0.07,0.13,-0.98,2.50,2.38,7.45
43.8640,0.09,0.14,-0.98,2.62,2.08,7.02
43.8790,0.07,0.13,-0.98,2.50,1.95,8.24
43.8840,0.08,0.12,-0.98,2.38,2.01,7.93
43.9000,0.07,0.14,-0.99,2.75,1.59,8.36
43.9230,0.08,0.13,-0.98,3.05,1.89,7.87
43.9400,0.07,0.13,-0.99,2.56,2.26,8.36
43.9590,0.09,0.14,-0.98,2.38,2.20,8.30
43.9740,0.08,0.14,-0.98,2.50,2.08,8.79
43.9910,0.07,0.13,-0.98,2.01,1.46,10.50
44.0060,0.05,0.10,-0.99,2.26,1.77,10.50
44.0080,0.09,0.12,-0.98,2.44,1.65,8.91
44.0370,0.08,0.13,-0.98,2.38,2.08,9.58
44.0530,0.07,0.13,-0.98,2.26,2.01,9.16
44.0680,0.07,0.13,-0.98,2.69,2.01,8.79
44.0830,0.07,0.10,-0.99,2.69,2.14,8.79
44.0900,0.08,0.12,-0.98,2.50,2.14,6.16
44.1050,0.06,0.12,-0.99,2.87,2.50,5.37
44.1300,0.06,0.11,-0.99,2.87,2.32,6.10
44.1450,0.07,0.11,-0.98,2.50,2.38,5.49
44.1610,0.09,0.13,-0.98,2.93,2.26,5.62
44.1650,0.09,0.12,-0.98,2.93,2.75,5.00
44.1900,0.07,0.11,-0.99,3.05,3.48,2.81
44.1970,0.05,0.11,-0.99,2.93,2.93,1.34
44.2130,0.06,0.11,-0.99,2.99,3.23,1.40
44.2350,0.06,0.12,-0.98,2.81,2.69,2.01
44.2500,0.08,0.13,-0.98,2.93,3.23,2.32
44.2590,0.08,0.12,-0.99,3.11,2.93,1.65
44.2720,0.06,0.12,-0.99,3.23,3.30,0.18
44.2970,0.07,0.13,-0.99,3.17,3.23,0.37
44.2970,0.07,0.13,-0.98,2.99,3.36,0.73
44.3140,0.07,0.13,-0.98,2.99,3.36,1.65
44.3430,0.07,0.13,-0.98,2.93,2.93,2.69
44.3580,0.07,0.11,-0.99,3.11,2.44,3.30
44.3740,0.06,0.11,-0.99,2.81,3.11,2.14
44.3880,0.07,0.12,-0.98,2.93,3.23,1.34
44.3970,0.08,0.13,-0.99,3.11,3.30,0.43
44.4130,0.08,0.13,-0.98,3.11,3.42,0.24
44.4290,0.06,0.13,-0.99,2.93,3.30,0.85
44.4500,0.04,0.11,-0.99,3.05,3.17,1.22
44.4660,0.07,0.12,-0.98,3.23,3.11,1.89
44.4820,0.07,0.12,-0.98,3.23,2.87,1.89
44.4980,0.07,0.13,-0.99,3.30,2.93,1.95
44.5130,0.07,0.13,-0.98,3.23,3.17,1.77
44.5290,0.09,0.13,-0.98,3.05,3.11,1.71
44.5440,0.07,0.12,-0.98,3.30,3.17,0.79
44.5600,0.05,0.12,-0.99,3.42,3.23,0.61
44.5740,0.06,0.13,-0.99,3.30,3.17,1.59
44.5900,0.07,0.12,-0.98,3.17,3.11,1.77
44.6010,0.07,0.13,-0.98,3.23,2.69,1.89
44.6160,0.07,0.13,-0.98,3.23,2.99,1.95
44.6330,0.08,0.13,-0.98,3.17,2.93,1.46
44.6480,0.06,0.12,-0.98,3.05,3.17,1.10
44.6650,0.07,0.12,-0.98,3.05,2.81,1.77
44.6790,0.07,0.13,-0.99,2.81,3.05,1.83
44.6840,0.07,0.12,-0.98,2.93,2.75,1.83
44.6990,0.07,0.13,-0.98,3.11,2.99,1.83
44.7220,0.07,0.13,-0.98,3.17,3.17,1.65
44.7390,0.07,0.13,-0.98,3.23,2.75,1.71
44.7550,0.07,0.12,-0.98,3.17,2.75,1.71
44.7720,0.07,0.13,-0.98,3.11,2.81,1.89
44.7740,0.07,0.12,-0.97,3.17,2.99,1.89
44.8030,0.07,0.12,-0.99,2.99,2.81,1.89
44.8190,0.07,0.13,-0.98,3.11,2.69,1.77
44.8340,0.07,0.13,-0.98,3.05,2.99,1.77
44.8490,0.07,0.13,-0.98,3.23,2.93,1.77
44.8650,0.07,0.13,-0.99,3.23,2.87,1.71
44.8790,0.07,0.12,-0.98,2.99,2.99,1.89
44.8900,0.07,0.12,-0.98,3.05,2.81,1.65
44.9060,0.07,0.13,-0.98,2.75,3.30,1.71
44.9240,0.07,0.13,-0.98,2.87,2.87,1.89
44.9400,0.07,0.13,-0.98,2.93,3.05,1.89
44.9550,0.07,0.12,-0.98,3.05,3.11,1.89
44.9700,0.07,0.12,-0.98,2.93,2.87,1.65
44.9720,0.07,0.12,-0.99,2.93,2.93,1.16
45.0000,0.07,0.13,-0.98,3.05,2.81,1.40
45.0050,0.07,0.12,-0.99,3.05,3.11,1.59
45.0300,0.07,0.09,-0.98,3.11,3.17,1.16
45.0400,0.07,0.13,-0.99,4.70,3.54,-0.18
45.0600,0.07,0.13,-0.98,2.50,3.17,0.31
45.0720,0.07,0.13,-0.99,3.48,3.23,1.83
45.0900,0.08,0.12,-0.98,2.99,2.62,1.10
45.1050,0.07,0.12,-0.98,3.42,2.99,0.18
45.1060,0.07,0.13,-0.98,3.23,2.99,0.37
45.1230,0.07,0.13,-0.98,3.30,2.56,1.59
45.1390,0.07,0.13,-0.98,3.36,2.38,1.65
45.1600,0.07,0.13,-0.98,3.11,2.69,1.71
45.1770,0.07,0.12,-0.98,2.93,3.11,1.65
45.1950,0.07,0.13,-0.98,3.23,3.05,1.65
45.2110,0.07,0.13,-0.98,3.17,2.81,1.77
45.2270,0.07,0.13,-0.98,3.05,2.99,1.89
45.2440,0.07,0.13,-0.98,3.17,2.87,1.71
45.2590,0.07,0.13,-0.98,2.87,3.17,1.71
45.2610,0.07,0.13,-0.98,3.11,3.17,1.65
45.2910,0.07,0.13,-0.98,2.87,3.17,1.46
45.2940,0.07,0.12,-0.98,2.81,3.23,1.04
45.3110,0.07,0.13,-0.98,3.17,3.23,0.98
45.3270,0.07,0.13,-0.98,3.17,3.23,0.79
45.3420,0.07,0.13,-0.98,3.11,3.17,0.79
45.3600,0.07,0.13,-0.98,2.93,2.99,1.65
45.3740,0.07,0.12,-0.98,2.99,2.99,1.71
45.3950,0.07,0.12,-0.98,2.99,2.87,1.83
45.4130,0.08,0.12,-0.98,2.99,2.81,1.71
45.4270,0.08,0.12,-0.99,3.23,3.23,0.00
45.4450,0.06,0.13,-0.98,3.42,3.60,-1.53
45.4610,0.07,0.13,-0.98,3.23,2.99,-0.37
45.4780,0.07,0.13,-0.98,3.36,3.36,-0.18
45.4930,0.08,0.12,-0.98,3.05,3.42,-0.61
45.5080,0.08,0.12,-0.98,3.17,3.48,-2.38
45.5110,0.08,0.12,-0.98,3.54,4.09,-3.48
45.5280,0.08,0.12,-0.99,3.66,3.85,-4.03
45.5450,0.06,0.13,-0.99,3.30,3.97,-2.99
45.5700,0.07,0.12,-0.98,3.42,3.54,-2.20
45.5780,0.07,0.11,-0.99,3.48,3.97,-4.15
45.5950,0.09,0.10,-0.99,3.72,4.39,-5.49
45.6110,0.07,0.09,-0.98,2.50,4.88,-11.96
45.6260,0.08,0.13,-0.98,4.82,5.49,-9.40
45.6460,0.05,0.11,-0.98,3.30,4.27,-6.47
45.6610,0.06,0.14,-0.98,3.30,4.27,-4.03
45.6700,0.07,0.14,-0.98,2.99,3.72,-3.85
45.6860,0.07,0.13,-0.98,3.54,3.91,-3.42
45.7060,0.08,0.11,-0.97,2.69,3.11,0.92
45.7200,0.08,0.14,-0.98,2.87,2.93,2.75
45.7360,0.07,0.12,-0.99,3.30,4.15,-2.20
45.7530,0.07,0.11,-0.99,4.39,4.39,-3.78
45.7690,0.06,0.13,-0.98,3.48,3.66,-2.56
45.7850,0.07,0.15,-0.98,2.93,3.78,-2.14
45.8000,0.07,0.14,-0.98,3.42,3.72,-1.83
45.8170,0.08,0.13,-0.98,2.62,3.48,-1.10
45.8320,0.06,0.13,-0.99,3.78,4.03,-0.49
45.8480,0.08,0.11,-0.99,3.11,3.23,-2.44
45.8600,0.08,0.12,-0.99,3.54,3.72,-3.05
45.8700,0.07,0.12,-0.99,3.23,3.48,-2.01
45.8940,0.06,0.13,-0.98,2.93,4.03,-1.77
45.9030,0.07,0.13,-0.98,3.11,3.66,-0.31
45.9200,0.07,0.13,-0.98,3.05,3.30,0.67
45.9360,0.07,0.12,-0.98,3.17,3.42,-1.83
45.9550,0.08,0.13,-0.98,3.36,3.30,-2.01
45.9710,0.07,0.13,-0.98,3.30,3.91,-1.59
45.9860,0.07,0.13,-0.98,3.30,3.60,-0.49
46.0010,0.06,0.12,-0.99,3.17,3.30,-0.06
46.0160,0.07,0.11,-0.98,3.30,3.91,-0.31
46.0240,0.08,0.13,-0.98,3.30,3.42,-1.71
46.0410,0.08,0.13,-0.98,3.42,3.42,-1.65
46.0600,0.07,0.13,-0.99,3.30,3.30,-0.98
46.0790,0.06,0.14,-0.98,3.11,3.23,-0.67
46.0810,0.06,0.12,-0.98,2.93,3.48,0.00
46.0980,0.07,0.11,-0.99,3.36,3.36,-1.04
46.1150,0.08,0.12,-0.99,3.48,4.03,-2.99
46.1310,0.08,0.13,-0.98,3.48,4.09,-3.17
46.1540,0.08,0.12,-0.99,3.48,4.21,-3.17
46.1710,0.06,0.12,-0.99,3.48,3.97,-3.66
46.1880,0.05,0.13,-0.99,3.36,4.46,-4.64
46.2040,0.06,0.11,-0.99,3.60,4.46,-5.31
46.2200,0.09,0.14,-0.98,3.30,4.15,-3.60
46.2370,0.08,0.14,-0.98,3.36,3.60,-2.56
46.2530,0.08,0.13,-0.99,3.17,3.36,-0.55
46.2600,0.07,0.11,-0.98,3.23,3.30,-2.44
46.2830,0.06,0.12,-0.98,3.17,4.03,-3.48
46.2970,0.06,0.13,-0.98,3.30,4.21,-3.60
46.3120,0.07,0.14,-0.98,3.42,3.78,-2.69
46.3210,0.07,0.11,-0.99,3.36,3.42,-1.46
46.3380,0.08,0.12,-0.99,3.36,3.72,-2.01
46.3540,0.08,0.13,-0.99,3.42,3.60,-2.56
46.3710,0.07,0.12,-0.98,3.23,3.54,-2.93
46.3870,0.06,0.12,-0.99,3.48,3.97,-3.23
46.3890,0.08,0.13,-0.98,3.42,3.72,-2.69
46.4180,0.09,0.12,-0.98,3.91,3.66,-2.81
46.4220,0.08,0.13,-0.98,3.72,4.03,-3.36
46.4490,0.08,0.14,-0.98,3.48,4.15,-3.97
46.4610,0.07,0.14,-0.98,3.60,3.91,-3.85
46.4810,0.06,0.12,-0.98,3.30,3.85,-2.50
46.4880,0.07,0.12,-0.98,3.17,3.72,-1.89
46.5110,0.07,0.12,-0.98,3.54,3.78,-2.75
46.5210,0.08,0.12,-0.98,3.66,4.03,-3.60
46.5370,0.07,0.13,-0.98,3.54,3.85,-3.72
46.5540,0.07,0.14,-0.98,3.60,3.97,-3.85
46.5720,0.07,0.13,-0.98,3.30,3.91,-3.85
46.5880,0.06,0.13,-0.99,3.17,3.60,-2.20
46.6040,0.07,0.13,-0.99,3.17,3.30,-1.28
46.6210,0.07,0.12,-0.98,3.54,3.48,-1.46
46.6360,0.07,0.12,-0.99,3.36,3.97,-2.32
46.6510,0.07,0.12,-0.98,3.36,3.60,-2.75
46.6620,0.08,0.13,-0.99,3.23,3.48,-1.22
46.6710,0.08,0.14,-0.98,3.23,3.36,-1.83
46.6960,0.06,0.12,-0.98,3.11,3.97,-2.75
46.7120,0.06,0.13,-0.98,3.17,3.78,-1.40
46.7270,0.06,0.12,-0.98,3.17,3.48,-0.79
46.7380,0.07,0.10,-0.99,3.17,3.54,-1.65
46.7540,0.09,0.11,-0.98,3.66,3.72,-3.23
46.7710,0.09,0.15,-0.98,3.36,3.42,-2.81
46.7870,0.06,0.13,-0.98,3.30,3.54,-2.50
46.8030,0.06,0.12,-0.99,3.42,3.54,-2.26
46.8040,0.06,0.13,-0.99,3.23,3.11,-0.85
46.8340,0.06,0.12,-0.99,3.36,3.30,-1.22
46.8490,0.08,0.12,-0.98,3.36,3.72,-2.75
46.8650,0.08,0.14,-0.98,3.48,2.99,-1.89
46.8710,0.08,0.14,-0.98,3.17,3.54,-0.49
46.8860,0.07,0.14,-0.98,3.05,3.17,0.37
46.9110,0.07,0.13,-0.98,2.93,3.36,0.92
46.9150,0.07,0.13,-0.98,3.05,3.30,-0.43
46.9400,0.07,0.13,-0.98,3.36,3.78,-1.22
46.9550,0.07,0.12,-0.99,3.30,3.54,-0.73
46.9640,0.07,0.14,-0.98,3.05,2.99,-0.49
46.9800,0.07,0.13,-0.99,3.11,2.93,1.34
46.9970,0.08,0.14,-0.98,3.23,3.36,0.98
47.0140,0.07,0.11,-0.98,2.93,3.05,0.85
47.0300,0.07,0.11,-0.99,3.23,3.23,0.00
47.0310,0.07,0.12,-0.99,3.48,3.30,-0.79
47.0610,0.07,0.13,-0.98,3.30,3.23,-1.40
47.0640,0.07,0.13,-0.98,3.42,3.48,-1.10
47.0800,0.07,0.13,-0.98,3.11,3.05,0.37
47.0970,0.07,0.12,-0.98,3.05,3.05,0.49
47.1140,0.07,0.11,-0.99,3.42,3.17,-0.12
47.1310,0.07,0.12,-0.98,3.36,3.23,-0.37
47.1470,0.08,0.12,-0.98,3.30,3.48,-1.83
47.1630,0.07,0.13,-0.98,3.17,3.48,-2.32
47.1840,0.07,0.13,-0.98,3.36,3.30,-1.04
47.2000,0.07,0.13,-0.98,3.17,3.36,-0.37
47.2020,0.08,0.14,-0.98,3.36,3.23,-0.06
47.2310,0.07,0.12,-0.99,3.17,3.17,1.71
47.2460,0.07,0.11,-0.99,3.11,3.36,1.28
47.2520,0.07,0.12,-0.98,3.23,3.05,0.37
47.2690,0.07,0.13,-0.98,3.42,3.60,-0.98
47.2860,0.07,0.14,-0.98,3.23,3.36,0.61
47.3030,0.07,0.14,-0.98,3.23,2.99,1.83
47.3180,0.07,0.13,-0.98,3.11,2.87,1.89
47.3350,0.07,0.13,-0.98,2.99,3.05,1.22
47.3520,0.07,0.11,-0.99,3.05,3.05,0.73
47.3680,0.07,0.12,-0.98,2.99,3.36,-0.73
47.3690,0.08,0.13,-0.98,3.23,3.17,-0.43
47.3990,0.07,0.10,-0.99,3.48,3.54,-0.37
47.4150,0.07,0.14,-0.98,3.30,3.17,-0.06
47.4310,0.07,0.12,-0.98,2.99,3.23,1.16
47.4470,0.07,0.11,-0.98,3.17,3.23,-1.40
47.4520,0.08,0.13,-0.98,3.54,3.97,-2.56
47.4680,0.08,0.13,-0.98,3.66,3.78,-3.54
47.4900,0.06,0.13,-0.99,3.48,3.85,-3.30
47.5060,0.07,0.15,-0.98,2.99,2.87,-0.12
47.5230,0.07,0.13,-0.98,2.99,3.11,0.85
47.5380,0.07,0.13,-0.98,3.11,3.36,0.61
47.5550,0.07,0.12,-0.98,3.11,3.23,0.49
47.5630,0.07,0.12,-0.98,3.11,3.05,0.12
47.5850,0.08,0.12,-0.98,3.17,3.17,-0.12
47.6000,0.07,0.12,-0.98,3.42,3.42,-0.79
47.6160,0.07,0.12,-0.99,3.17,3.36,-1.83
47.6310,0.07,0.13,-0.98,3.23,3.78,-2.26
47.6400,0.07,0.13,-0.98,3.23,3.66,-0.67
47.6570,0.06,0.13,-0.99,3.30,3.60,-0.73
47.6740,0.07,0.13,-0.98,3.11,3.42,-0.24
47.6900,0.08,0.13,-0.98,3.30,3.78,-0.55
47.7060,0.08,0.13,-0.98,3.11,3.60,-1.04
47.7230,0.08,0.14,-0.99,3.17,3.48,-0.49
47.7390,0.07,0.12,-0.98,3.30,3.30,-0.85
47.7550,0.06,0.12,-0.99,3.36,3.36,-0.98
